"rt","stimulus","key_press","trial_type","trial_index","time_elapsed","internal_node_id","subject","session","sex","handedness","age","responses","test_part","condition","correct_response","angle","correct"
"6437","<p>Mental Rotation Experiment.</p> <p>Dr&uuml;cke eine beliebige Taste, um anzufangen.</p>","70","html-keyboard-response","0","6440","0.0-0.0","MEVO","1","f","rechts","24","","","","","",""
"4740","","","survey-text","1","11181","0.0-1.0","MEVO","1","f","rechts","24","{""Q0"":""MEVO""}","","","","",""
"3935","","","survey-text","2","15117","0.0-2.0","MEVO","1","f","rechts","24","{""Q0"":""1""}","","","","",""
"4732","","","survey-multi-choice","3","19852","0.0-3.0","MEVO","1","f","rechts","24","{""Q0"":""f"",""Q1"":""rechts""}","","","","",""
"7714","","","survey-text","4","27566","0.0-4.0","MEVO","1","f","rechts","24","{""Q0"":""24""}","","","","",""
"17247","<p>Stell dir vor, dass du vor einem runden Tisch stehst, auf dem sich ein blauer Ball am Tischrand befindet. Entlang des Tischrands ist jeweils ein verschieden langer Pfeil. Nun bleibst du an deinem Platz vor dem Tisch und rotierst den Tisch entlang des Pfeils (gleiche Richtung und Länge). </p> <img src='img/30_180.png'></img> <br><p> Nachdem du diese (vorgestellte) Rotation durchgef&uuml;hrt hast, schau in Richtung der Tischmitte, und entscheide dann, ob der Ball links oder rechts von dir liegt.</p> <p>Dr&uuml;cke die <strong>'f'</strong>-Taste f&uuml;r links, die <strong>'j'</strong>-Taste f&uuml;r rechts.</p><br><p> Das Bild wird jeweils 1 Sekunde lang pr&auml;sentiert. Du hast 3 Sekunden Zeit eine Entscheidung zu treffen.</p>","74","html-keyboard-response","5","44815","0.0-5.0","MEVO","1","f","rechts","24","","","","","",""
"null","<div style=""font-size:60px;"">+</div>","null","html-keyboard-response","6","46169","0.0-6.0-0.0","MEVO","1","f","rechts","24","","fixation","","","",""
"980","img/60_330.png","70","image-keyboard-response","7","47152","0.0-6.0-1.0","MEVO","1","f","rechts","24","","","object","j","60","false"
"null","<div style=""font-size:60px;"">+</div>","null","html-keyboard-response","8","47454","0.0-6.0-0.1","MEVO","1","f","rechts","24","","fixation","","","",""
"1072","img/90_30.png","74","image-keyboard-response","9","48527","0.0-6.0-1.1","MEVO","1","f","rechts","24","","","object","f","90","false"
"null","<div style=""font-size:60px;"">+</div>","null","html-keyboard-response","10","49029","0.0-6.0-0.2","MEVO","1","f","rechts","24","","fixation","","","",""
"1157","img/90_300.png","74","image-keyboard-response","11","50187","0.0-6.0-1.2","MEVO","1","f","rechts","24","","","object","j","90","true"
"null","<div style=""font-size:60px;"">+</div>","null","html-keyboard-response","12","50689","0.0-6.0-0.3","MEVO","1","f","rechts","24","","fixation","","","",""
"988","img/0_150.png","74","image-keyboard-response","13","51678","0.0-6.0-1.3","MEVO","1","f","rechts","24","","","object","j","0","true"
"null","<div style=""font-size:60px;"">+</div>","null","html-keyboard-response","14","52180","0.0-6.0-0.4","MEVO","1","f","rechts","24","","fixation","","","",""
"1004","img/60_210.png","70","image-keyboard-response","15","53186","0.0-6.0-1.4","MEVO","1","f","rechts","24","","","object","f","60","true"
"null","<div style=""font-size:60px;"">+</div>","null","html-keyboard-response","16","53587","0.0-6.0-0.5","MEVO","1","f","rechts","24","","fixation","","","",""
"991","img/0_60.png","74","image-keyboard-response","17","54579","0.0-6.0-1.5","MEVO","1","f","rechts","24","","","object","j","0","true"
"null","<div style=""font-size:60px;"">+</div>","null","html-keyboard-response","18","55081","0.0-6.0-0.6","MEVO","1","f","rechts","24","","fixation","","","",""
"1129","img/60_30.png","70","image-keyboard-response","19","56212","0.0-6.0-1.6","MEVO","1","f","rechts","24","","","object","f","60","true"
"null","<div style=""font-size:60px;"">+</div>","null","html-keyboard-response","20","56713","0.0-6.0-0.7","MEVO","1","f","rechts","24","","fixation","","","",""
"1288","img/90_330.png","70","image-keyboard-response","21","58002","0.0-6.0-1.7","MEVO","1","f","rechts","24","","","object","j","90","false"
"null","<div style=""font-size:60px;"">+</div>","null","html-keyboard-response","22","58504","0.0-6.0-0.8","MEVO","1","f","rechts","24","","fixation","","","",""
"1064","img/120_90.png","74","image-keyboard-response","23","59569","0.0-6.0-1.8","MEVO","1","f","rechts","24","","","object","f","120","false"
"null","<div style=""font-size:60px;"">+</div>","null","html-keyboard-response","24","60071","0.0-6.0-0.9","MEVO","1","f","rechts","24","","fixation","","","",""
"900","img/0_270.png","70","image-keyboard-response","25","60972","0.0-6.0-1.9","MEVO","1","f","rechts","24","","","object","f","0","true"
"null","<div style=""font-size:60px;"">+</div>","null","html-keyboard-response","26","61272","0.0-6.0-0.10","MEVO","1","f","rechts","24","","fixation","","","",""
"1244","img/60_90.png","74","image-keyboard-response","27","62517","0.0-6.0-1.10","MEVO","1","f","rechts","24","","","object","j","60","true"
"null","<div style=""font-size:60px;"">+</div>","null","html-keyboard-response","28","63019","0.0-6.0-0.11","MEVO","1","f","rechts","24","","fixation","","","",""
"1161","img/L90_180.png","74","image-keyboard-response","29","64182","0.0-6.0-1.11","MEVO","1","f","rechts","24","","","object","j","90","true"
"null","<div style=""font-size:60px;"">+</div>","null","html-keyboard-response","30","64683","0.0-6.0-0.12","MEVO","1","f","rechts","24","","fixation","","","",""
"974","img/0_300.png","70","image-keyboard-response","31","65660","0.0-6.0-1.12","MEVO","1","f","rechts","24","","","object","f","0","true"
"null","<div style=""font-size:60px;"">+</div>","null","html-keyboard-response","32","66111","0.0-6.0-0.13","MEVO","1","f","rechts","24","","fixation","","","",""
"1131","img/30_240.png","74","image-keyboard-response","33","67244","0.0-6.0-1.13","MEVO","1","f","rechts","24","","","object","f","30","false"
"null","<div style=""font-size:60px;"">+</div>","null","html-keyboard-response","34","67747","0.0-6.0-0.14","MEVO","1","f","rechts","24","","fixation","","","",""
"1321","img/L120_180.png","74","image-keyboard-response","35","69070","0.0-6.0-1.14","MEVO","1","f","rechts","24","","","object","j","120","true"
"null","<div style=""font-size:60px;"">+</div>","null","html-keyboard-response","36","69471","0.0-6.0-0.15","MEVO","1","f","rechts","24","","fixation","","","",""
"713","img/0_330.png","70","image-keyboard-response","37","70186","0.0-6.0-1.15","MEVO","1","f","rechts","24","","","object","f","0","true"
"null","<div style=""font-size:60px;"">+</div>","null","html-keyboard-response","38","70587","0.0-6.0-0.16","MEVO","1","f","rechts","24","","fixation","","","",""
"1246","img/120_270.png","70","image-keyboard-response","39","71835","0.0-6.0-1.16","MEVO","1","f","rechts","24","","","object","j","120","false"
"null","<div style=""font-size:60px;"">+</div>","null","html-keyboard-response","40","72136","0.0-6.0-0.17","MEVO","1","f","rechts","24","","fixation","","","",""
"1218","img/90_150.png","74","image-keyboard-response","41","73356","0.0-6.0-1.17","MEVO","1","f","rechts","24","","","object","j","90","true"
"null","<div style=""font-size:60px;"">+</div>","null","html-keyboard-response","42","73756","0.0-6.0-0.18","MEVO","1","f","rechts","24","","fixation","","","",""
"1079","img/L150_180.png","74","image-keyboard-response","43","74837","0.0-6.0-1.18","MEVO","1","f","rechts","24","","","object","j","150","true"
"null","<div style=""font-size:60px;"">+</div>","null","html-keyboard-response","44","75138","0.0-6.0-0.19","MEVO","1","f","rechts","24","","fixation","","","",""
"1067","img/150_270.png","70","image-keyboard-response","45","76206","0.0-6.0-1.19","MEVO","1","f","rechts","24","","","object","j","150","false"
"null","<div style=""font-size:60px;"">+</div>","null","html-keyboard-response","46","76508","0.0-6.0-0.20","MEVO","1","f","rechts","24","","fixation","","","",""
"1270","img/120_30.png","74","image-keyboard-response","47","77780","0.0-6.0-1.20","MEVO","1","f","rechts","24","","","object","f","120","false"
"null","<div style=""font-size:60px;"">+</div>","null","html-keyboard-response","48","78182","0.0-6.0-0.21","MEVO","1","f","rechts","24","","fixation","","","",""
"1075","img/L60_180.png","74","image-keyboard-response","49","79259","0.0-6.0-1.21","MEVO","1","f","rechts","24","","","object","j","60","true"
"null","<div style=""font-size:60px;"">+</div>","null","html-keyboard-response","50","79710","0.0-6.0-0.22","MEVO","1","f","rechts","24","","fixation","","","",""
"1111","img/150_60.png","70","image-keyboard-response","51","80822","0.0-6.0-1.22","MEVO","1","f","rechts","24","","","object","f","150","true"
"null","<div style=""font-size:60px;"">+</div>","null","html-keyboard-response","52","81123","0.0-6.0-0.23","MEVO","1","f","rechts","24","","fixation","","","",""
"1239","img/150_300.png","70","image-keyboard-response","53","82363","0.0-6.0-1.23","MEVO","1","f","rechts","24","","","object","j","150","false"
"null","<div style=""font-size:60px;"">+</div>","null","html-keyboard-response","54","82864","0.0-6.0-0.24","MEVO","1","f","rechts","24","","fixation","","","",""
"1103","img/150_180.png","70","image-keyboard-response","55","83968","0.0-6.0-1.24","MEVO","1","f","rechts","24","","","object","f","150","true"
"null","<div style=""font-size:60px;"">+</div>","null","html-keyboard-response","56","84420","0.0-6.0-0.25","MEVO","1","f","rechts","24","","fixation","","","",""
"872","img/0_30.png","74","image-keyboard-response","57","85293","0.0-6.0-1.25","MEVO","1","f","rechts","24","","","object","j","0","true"
"null","<div style=""font-size:60px;"">+</div>","null","html-keyboard-response","58","85645","0.0-6.0-0.26","MEVO","1","f","rechts","24","","fixation","","","",""
"1212","img/30_60.png","70","image-keyboard-response","59","86858","0.0-6.0-1.26","MEVO","1","f","rechts","24","","","object","j","30","false"
"null","<div style=""font-size:60px;"">+</div>","null","html-keyboard-response","60","87160","0.0-6.0-0.27","MEVO","1","f","rechts","24","","fixation","","","",""
"1213","img/30_180.png","70","image-keyboard-response","61","88374","0.0-6.0-1.27","MEVO","1","f","rechts","24","","","object","f","30","true"
"null","<div style=""font-size:60px;"">+</div>","null","html-keyboard-response","62","88876","0.0-6.0-0.28","MEVO","1","f","rechts","24","","fixation","","","",""
"966","img/0_90.png","74","image-keyboard-response","63","89843","0.0-6.0-1.28","MEVO","1","f","rechts","24","","","object","j","0","true"
"null","<div style=""font-size:60px;"">+</div>","null","html-keyboard-response","64","90245","0.0-6.0-0.29","MEVO","1","f","rechts","24","","fixation","","","",""
"1241","img/60_150.png","74","image-keyboard-response","65","91487","0.0-6.0-1.29","MEVO","1","f","rechts","24","","","object","j","60","true"
"null","<div style=""font-size:60px;"">+</div>","null","html-keyboard-response","66","91939","0.0-6.0-0.30","MEVO","1","f","rechts","24","","fixation","","","",""
"1147","img/0_240.png","70","image-keyboard-response","67","93087","0.0-6.0-1.30","MEVO","1","f","rechts","24","","","object","f","0","true"
"null","<div style=""font-size:60px;"">+</div>","null","html-keyboard-response","68","93439","0.0-6.0-0.31","MEVO","1","f","rechts","24","","fixation","","","",""
"1178","img/L30_180.png","74","image-keyboard-response","69","94618","0.0-6.0-1.31","MEVO","1","f","rechts","24","","","object","j","30","true"
"null","<div style=""font-size:60px;"">+</div>","null","html-keyboard-response","70","94920","0.0-6.0-0.32","MEVO","1","f","rechts","24","","fixation","","","",""
"1452","img/0_210.png","70","image-keyboard-response","71","96373","0.0-6.0-1.32","MEVO","1","f","rechts","24","","","object","f","0","true"
"null","<div style=""font-size:60px;"">+</div>","null","html-keyboard-response","72","96725","0.0-6.0-0.33","MEVO","1","f","rechts","24","","fixation","","","",""
"1342","img/30_270.png","70","image-keyboard-response","73","98068","0.0-6.0-1.33","MEVO","1","f","rechts","24","","","object","f","30","true"
"null","<div style=""font-size:60px;"">+</div>","null","html-keyboard-response","74","98419","0.0-6.0-0.34","MEVO","1","f","rechts","24","","fixation","","","",""
"1093","img/30_120.png","74","image-keyboard-response","75","99514","0.0-6.0-1.34","MEVO","1","f","rechts","24","","","object","j","30","true"
"null","<div style=""font-size:60px;"">+</div>","null","html-keyboard-response","76","99916","0.0-6.0-0.35","MEVO","1","f","rechts","24","","fixation","","","",""
"1056","img/30_90.png","74","image-keyboard-response","77","100973","0.0-6.0-1.35","MEVO","1","f","rechts","24","","","object","j","30","true"
"null","<div style=""font-size:60px;"">+</div>","null","html-keyboard-response","78","101275","0.0-6.0-0.36","MEVO","1","f","rechts","24","","fixation","","","",""
"1473","img/30_300.png","70","image-keyboard-response","79","102749","0.0-6.0-1.36","MEVO","1","f","rechts","24","","","object","f","30","true"
"null","<div style=""font-size:60px;"">+</div>","null","html-keyboard-response","80","103051","0.0-6.0-0.37","MEVO","1","f","rechts","24","","fixation","","","",""
"1405","img/90_120.png","74","image-keyboard-response","81","104457","0.0-6.0-1.37","MEVO","1","f","rechts","24","","","object","j","90","true"
"null","<div style=""font-size:60px;"">+</div>","null","html-keyboard-response","82","104858","0.0-6.0-0.38","MEVO","1","f","rechts","24","","fixation","","","",""
"1162","img/150_120.png","70","image-keyboard-response","83","106022","0.0-6.0-1.38","MEVO","1","f","rechts","24","","","object","f","150","true"
"null","<div style=""font-size:60px;"">+</div>","null","html-keyboard-response","84","106473","0.0-6.0-0.39","MEVO","1","f","rechts","24","","fixation","","","",""
"1207","img/60_180.png","70","image-keyboard-response","85","107681","0.0-6.0-1.39","MEVO","1","f","rechts","24","","","object","f","60","true"
"null","<div style=""font-size:60px;"">+</div>","null","html-keyboard-response","86","108083","0.0-6.0-0.40","MEVO","1","f","rechts","24","","fixation","","","",""
"1298","img/90_210.png","70","image-keyboard-response","87","109383","0.0-6.0-1.40","MEVO","1","f","rechts","24","","","object","f","90","true"
"null","<div style=""font-size:60px;"">+</div>","null","html-keyboard-response","88","109884","0.0-6.0-0.41","MEVO","1","f","rechts","24","","fixation","","","",""
"1140","img/120_180.png","70","image-keyboard-response","89","111026","0.0-6.0-1.41","MEVO","1","f","rechts","24","","","object","f","120","true"
"null","<div style=""font-size:60px;"">+</div>","null","html-keyboard-response","90","111377","0.0-6.0-0.42","MEVO","1","f","rechts","24","","fixation","","","",""
"1119","img/0_120.png","74","image-keyboard-response","91","112497","0.0-6.0-1.42","MEVO","1","f","rechts","24","","","object","j","0","true"
"null","<div style=""font-size:60px;"">+</div>","null","html-keyboard-response","92","112848","0.0-6.0-0.43","MEVO","1","f","rechts","24","","fixation","","","",""
"1262","img/120_150.png","74","image-keyboard-response","93","114112","0.0-6.0-1.43","MEVO","1","f","rechts","24","","","object","j","120","true"
"null","<div style=""font-size:60px;"">+</div>","null","html-keyboard-response","94","114614","0.0-6.0-0.44","MEVO","1","f","rechts","24","","fixation","","","",""
"1334","img/150_90.png","70","image-keyboard-response","95","115949","0.0-6.0-1.44","MEVO","1","f","rechts","24","","","object","f","150","true"
"null","<div style=""font-size:60px;"">+</div>","null","html-keyboard-response","96","116351","0.0-6.0-0.45","MEVO","1","f","rechts","24","","fixation","","","",""
"1502","img/150_240.png","74","image-keyboard-response","97","117855","0.0-6.0-1.45","MEVO","1","f","rechts","24","","","object","j","150","true"
"null","<div style=""font-size:60px;"">+</div>","null","html-keyboard-response","98","118356","0.0-6.0-0.46","MEVO","1","f","rechts","24","","fixation","","","",""
"1066","img/90_180.png","70","image-keyboard-response","99","119423","0.0-6.0-1.46","MEVO","1","f","rechts","24","","","object","f","90","true"
"null","<div style=""font-size:60px;"">+</div>","null","html-keyboard-response","100","119874","0.0-6.0-0.47","MEVO","1","f","rechts","24","","fixation","","","",""
"1174","img/90_240.png","70","image-keyboard-response","101","121049","0.0-6.0-1.47","MEVO","1","f","rechts","24","","","object","f","90","true"
"null","<div style=""font-size:60px;"">+</div>","null","html-keyboard-response","102","121501","0.0-6.0-0.48","MEVO","1","f","rechts","24","","fixation","","","",""
"1215","img/60_270.png","70","image-keyboard-response","103","122717","0.0-6.0-1.48","MEVO","1","f","rechts","24","","","object","f","60","true"
"null","<div style=""font-size:60px;"">+</div>","null","html-keyboard-response","104","123219","0.0-6.0-0.49","MEVO","1","f","rechts","24","","fixation","","","",""
"1191","img/120_330.png","74","image-keyboard-response","105","124411","0.0-6.0-1.49","MEVO","1","f","rechts","24","","","object","j","120","true"
"null","<div style=""font-size:60px;"">+</div>","null","html-keyboard-response","106","124863","0.0-6.0-0.50","MEVO","1","f","rechts","24","","fixation","","","",""
"1210","img/120_210.png","70","image-keyboard-response","107","126074","0.0-6.0-1.50","MEVO","1","f","rechts","24","","","object","f","120","true"
"null","<div style=""font-size:60px;"">+</div>","null","html-keyboard-response","108","126476","0.0-6.0-0.51","MEVO","1","f","rechts","24","","fixation","","","",""
"1348","img/90_60.png","70","image-keyboard-response","109","127825","0.0-6.0-1.51","MEVO","1","f","rechts","24","","","object","f","90","true"
"null","<div style=""font-size:60px;"">+</div>","null","html-keyboard-response","110","128327","0.0-6.0-0.52","MEVO","1","f","rechts","24","","fixation","","","",""
"1143","img/0_300.png","70","image-keyboard-response","111","129471","0.0-6.0-1.52","MEVO","1","f","rechts","24","","","object","f","0","true"
"null","<div style=""font-size:60px;"">+</div>","null","html-keyboard-response","112","129873","0.0-6.0-0.53","MEVO","1","f","rechts","24","","fixation","","","",""
"1164","img/0_150.png","70","image-keyboard-response","113","131037","0.0-6.0-1.53","MEVO","1","f","rechts","24","","","object","j","0","false"
"null","<div style=""font-size:60px;"">+</div>","null","html-keyboard-response","114","131389","0.0-6.0-0.54","MEVO","1","f","rechts","24","","fixation","","","",""
"1458","img/150_270.png","70","image-keyboard-response","115","132848","0.0-6.0-1.54","MEVO","1","f","rechts","24","","","object","j","150","false"
"null","<div style=""font-size:60px;"">+</div>","null","html-keyboard-response","116","133300","0.0-6.0-0.55","MEVO","1","f","rechts","24","","fixation","","","",""
"1490","img/30_120.png","74","image-keyboard-response","117","134791","0.0-6.0-1.55","MEVO","1","f","rechts","24","","","object","j","30","true"
"null","<div style=""font-size:60px;"">+</div>","null","html-keyboard-response","118","135293","0.0-6.0-0.56","MEVO","1","f","rechts","24","","fixation","","","",""
"1341","img/120_150.png","74","image-keyboard-response","119","136635","0.0-6.0-1.56","MEVO","1","f","rechts","24","","","object","j","120","true"
"null","<div style=""font-size:60px;"">+</div>","null","html-keyboard-response","120","136987","0.0-6.0-0.57","MEVO","1","f","rechts","24","","fixation","","","",""
"1313","img/30_180.png","74","image-keyboard-response","121","138300","0.0-6.0-1.57","MEVO","1","f","rechts","24","","","object","f","30","false"
"null","<div style=""font-size:60px;"">+</div>","null","html-keyboard-response","122","138652","0.0-6.0-0.58","MEVO","1","f","rechts","24","","fixation","","","",""
"1501","img/L150_180.png","70","image-keyboard-response","123","140153","0.0-6.0-1.58","MEVO","1","f","rechts","24","","","object","j","150","false"
"null","<div style=""font-size:60px;"">+</div>","null","html-keyboard-response","124","140554","0.0-6.0-0.59","MEVO","1","f","rechts","24","","fixation","","","",""
"1552","img/60_330.png","70","image-keyboard-response","125","142107","0.0-6.0-1.59","MEVO","1","f","rechts","24","","","object","j","60","false"
"null","<div style=""font-size:60px;"">+</div>","null","html-keyboard-response","126","142509","0.0-6.0-0.60","MEVO","1","f","rechts","24","","fixation","","","",""
"1634","img/60_30.png","70","image-keyboard-response","127","144143","0.0-6.0-1.60","MEVO","1","f","rechts","24","","","object","f","60","true"
"null","<div style=""font-size:60px;"">+</div>","null","html-keyboard-response","128","144645","0.0-6.0-0.61","MEVO","1","f","rechts","24","","fixation","","","",""
"1306","img/60_90.png","74","image-keyboard-response","129","145951","0.0-6.0-1.61","MEVO","1","f","rechts","24","","","object","j","60","true"
"null","<div style=""font-size:60px;"">+</div>","null","html-keyboard-response","130","146303","0.0-6.0-0.62","MEVO","1","f","rechts","24","","fixation","","","",""
"1267","img/60_180.png","70","image-keyboard-response","131","147570","0.0-6.0-1.62","MEVO","1","f","rechts","24","","","object","f","60","true"
"null","<div style=""font-size:60px;"">+</div>","null","html-keyboard-response","132","147872","0.0-6.0-0.63","MEVO","1","f","rechts","24","","fixation","","","",""
"1453","img/30_240.png","74","image-keyboard-response","133","149325","0.0-6.0-1.63","MEVO","1","f","rechts","24","","","object","f","30","false"
"null","<div style=""font-size:60px;"">+</div>","null","html-keyboard-response","134","149727","0.0-6.0-0.64","MEVO","1","f","rechts","24","","fixation","","","",""
"1410","img/30_270.png","70","image-keyboard-response","135","151137","0.0-6.0-1.64","MEVO","1","f","rechts","24","","","object","f","30","true"
"null","<div style=""font-size:60px;"">+</div>","null","html-keyboard-response","136","151588","0.0-6.0-0.65","MEVO","1","f","rechts","24","","fixation","","","",""
"1480","img/30_90.png","74","image-keyboard-response","137","153070","0.0-6.0-1.65","MEVO","1","f","rechts","24","","","object","j","30","true"
"null","<div style=""font-size:60px;"">+</div>","null","html-keyboard-response","138","153570","0.0-6.0-0.66","MEVO","1","f","rechts","24","","fixation","","","",""
"1421","img/90_60.png","70","image-keyboard-response","139","154993","0.0-6.0-1.66","MEVO","1","f","rechts","24","","","object","f","90","true"
"null","<div style=""font-size:60px;"">+</div>","null","html-keyboard-response","140","155444","0.0-6.0-0.67","MEVO","1","f","rechts","24","","fixation","","","",""
"1196","img/120_330.png","74","image-keyboard-response","141","156642","0.0-6.0-1.67","MEVO","1","f","rechts","24","","","object","j","120","true"
"null","<div style=""font-size:60px;"">+</div>","null","html-keyboard-response","142","157043","0.0-6.0-0.68","MEVO","1","f","rechts","24","","fixation","","","",""
"1366","img/120_210.png","70","image-keyboard-response","143","158410","0.0-6.0-1.68","MEVO","1","f","rechts","24","","","object","f","120","true"
"null","<div style=""font-size:60px;"">+</div>","null","html-keyboard-response","144","158912","0.0-6.0-0.69","MEVO","1","f","rechts","24","","fixation","","","",""
"1225","img/60_150.png","74","image-keyboard-response","145","160137","0.0-6.0-1.69","MEVO","1","f","rechts","24","","","object","j","60","true"
"null","<div style=""font-size:60px;"">+</div>","null","html-keyboard-response","146","160589","0.0-6.0-0.70","MEVO","1","f","rechts","24","","fixation","","","",""
"1390","img/120_270.png","74","image-keyboard-response","147","161980","0.0-6.0-1.70","MEVO","1","f","rechts","24","","","object","j","120","true"
"null","<div style=""font-size:60px;"">+</div>","null","html-keyboard-response","148","162431","0.0-6.0-0.71","MEVO","1","f","rechts","24","","fixation","","","",""
"1679","img/120_90.png","70","image-keyboard-response","149","164112","0.0-6.0-1.71","MEVO","1","f","rechts","24","","","object","f","120","true"
"null","<div style=""font-size:60px;"">+</div>","null","html-keyboard-response","150","164513","0.0-6.0-0.72","MEVO","1","f","rechts","24","","fixation","","","",""
"1389","img/150_90.png","70","image-keyboard-response","151","165904","0.0-6.0-1.72","MEVO","1","f","rechts","24","","","object","f","150","true"
"null","<div style=""font-size:60px;"">+</div>","null","html-keyboard-response","152","166305","0.0-6.0-0.73","MEVO","1","f","rechts","24","","fixation","","","",""
"1503","img/0_270.png","70","image-keyboard-response","153","167809","0.0-6.0-1.73","MEVO","1","f","rechts","24","","","object","f","0","true"
"null","<div style=""font-size:60px;"">+</div>","null","html-keyboard-response","154","168261","0.0-6.0-0.74","MEVO","1","f","rechts","24","","fixation","","","",""
"1348","img/150_240.png","74","image-keyboard-response","155","169610","0.0-6.0-1.74","MEVO","1","f","rechts","24","","","object","j","150","true"
"null","<div style=""font-size:60px;"">+</div>","null","html-keyboard-response","156","169911","0.0-6.0-0.75","MEVO","1","f","rechts","24","","fixation","","","",""
"1491","img/90_150.png","74","image-keyboard-response","157","171404","0.0-6.0-1.75","MEVO","1","f","rechts","24","","","object","j","90","true"
"null","<div style=""font-size:60px;"">+</div>","null","html-keyboard-response","158","171805","0.0-6.0-0.76","MEVO","1","f","rechts","24","","fixation","","","",""
"1461","img/150_180.png","70","image-keyboard-response","159","173268","0.0-6.0-1.76","MEVO","1","f","rechts","24","","","object","f","150","true"
"null","<div style=""font-size:60px;"">+</div>","null","html-keyboard-response","160","173719","0.0-6.0-0.77","MEVO","1","f","rechts","24","","fixation","","","",""
"1555","img/90_180.png","74","image-keyboard-response","161","175275","0.0-6.0-1.77","MEVO","1","f","rechts","24","","","object","f","90","false"
"null","<div style=""font-size:60px;"">+</div>","null","html-keyboard-response","162","175627","0.0-6.0-0.78","MEVO","1","f","rechts","24","","fixation","","","",""
"1589","img/30_300.png","74","image-keyboard-response","163","177217","0.0-6.0-1.78","MEVO","1","f","rechts","24","","","object","f","30","false"
"null","<div style=""font-size:60px;"">+</div>","null","html-keyboard-response","164","177619","0.0-6.0-0.79","MEVO","1","f","rechts","24","","fixation","","","",""
"1350","img/150_300.png","70","image-keyboard-response","165","178970","0.0-6.0-1.79","MEVO","1","f","rechts","24","","","object","j","150","false"
"null","<div style=""font-size:60px;"">+</div>","null","html-keyboard-response","166","179321","0.0-6.0-0.80","MEVO","1","f","rechts","24","","fixation","","","",""
"1382","img/L60_180.png","74","image-keyboard-response","167","180704","0.0-6.0-1.80","MEVO","1","f","rechts","24","","","object","j","60","true"
"null","<div style=""font-size:60px;"">+</div>","null","html-keyboard-response","168","181006","0.0-6.0-0.81","MEVO","1","f","rechts","24","","fixation","","","",""
"1392","img/150_60.png","70","image-keyboard-response","169","182399","0.0-6.0-1.81","MEVO","1","f","rechts","24","","","object","f","150","true"
"null","<div style=""font-size:60px;"">+</div>","null","html-keyboard-response","170","182850","0.0-6.0-0.82","MEVO","1","f","rechts","24","","fixation","","","",""
"1515","img/90_120.png","70","image-keyboard-response","171","184366","0.0-6.0-1.82","MEVO","1","f","rechts","24","","","object","j","90","false"
"null","<div style=""font-size:60px;"">+</div>","null","html-keyboard-response","172","184668","0.0-6.0-0.83","MEVO","1","f","rechts","24","","fixation","","","",""
"2238","img/0_120.png","70","image-keyboard-response","173","186907","0.0-6.0-1.83","MEVO","1","f","rechts","24","","","object","j","0","false"
"null","<div style=""font-size:60px;"">+</div>","null","html-keyboard-response","174","187209","0.0-6.0-0.84","MEVO","1","f","rechts","24","","fixation","","","",""
"1482","img/0_210.png","70","image-keyboard-response","175","188691","0.0-6.0-1.84","MEVO","1","f","rechts","24","","","object","f","0","true"
"null","<div style=""font-size:60px;"">+</div>","null","html-keyboard-response","176","188993","0.0-6.0-0.85","MEVO","1","f","rechts","24","","fixation","","","",""
"1274","img/60_270.png","74","image-keyboard-response","177","190267","0.0-6.0-1.85","MEVO","1","f","rechts","24","","","object","f","60","false"
"null","<div style=""font-size:60px;"">+</div>","null","html-keyboard-response","178","190769","0.0-6.0-0.86","MEVO","1","f","rechts","24","","fixation","","","",""
"1548","img/0_30.png","74","image-keyboard-response","179","192317","0.0-6.0-1.86","MEVO","1","f","rechts","24","","","object","j","0","true"
"null","<div style=""font-size:60px;"">+</div>","null","html-keyboard-response","180","192719","0.0-6.0-0.87","MEVO","1","f","rechts","24","","fixation","","","",""
"1457","img/L120_180.png","74","image-keyboard-response","181","194176","0.0-6.0-1.87","MEVO","1","f","rechts","24","","","object","j","120","true"
"null","<div style=""font-size:60px;"">+</div>","null","html-keyboard-response","182","194628","0.0-6.0-0.88","MEVO","1","f","rechts","24","","fixation","","","",""
"null","img/L90_180.png","null","image-keyboard-response","183","197630","0.0-6.0-1.88","MEVO","1","f","rechts","24","","","object","j","90","false"
"null","<div style=""font-size:60px;"">+</div>","null","html-keyboard-response","184","198131","0.0-6.0-0.89","MEVO","1","f","rechts","24","","fixation","","","",""
"970","img/60_210.png","74","image-keyboard-response","185","199102","0.0-6.0-1.89","MEVO","1","f","rechts","24","","","object","f","60","false"
"null","<div style=""font-size:60px;"">+</div>","null","html-keyboard-response","186","199454","0.0-6.0-0.90","MEVO","1","f","rechts","24","","fixation","","","",""
"1295","img/90_210.png","74","image-keyboard-response","187","200749","0.0-6.0-1.90","MEVO","1","f","rechts","24","","","object","f","90","false"
"null","<div style=""font-size:60px;"">+</div>","null","html-keyboard-response","188","201051","0.0-6.0-0.91","MEVO","1","f","rechts","24","","fixation","","","",""
"1556","img/120_180.png","74","image-keyboard-response","189","202607","0.0-6.0-1.91","MEVO","1","f","rechts","24","","","object","f","120","false"
"null","<div style=""font-size:60px;"">+</div>","null","html-keyboard-response","190","202908","0.0-6.0-0.92","MEVO","1","f","rechts","24","","fixation","","","",""
"1789","img/L30_180.png","74","image-keyboard-response","191","204698","0.0-6.0-1.92","MEVO","1","f","rechts","24","","","object","j","30","true"
"null","<div style=""font-size:60px;"">+</div>","null","html-keyboard-response","192","205100","0.0-6.0-0.93","MEVO","1","f","rechts","24","","fixation","","","",""
"1526","img/120_30.png","70","image-keyboard-response","193","206627","0.0-6.0-1.93","MEVO","1","f","rechts","24","","","object","f","120","true"
"null","<div style=""font-size:60px;"">+</div>","null","html-keyboard-response","194","207129","0.0-6.0-0.94","MEVO","1","f","rechts","24","","fixation","","","",""
"null","img/0_240.png","null","image-keyboard-response","195","210131","0.0-6.0-1.94","MEVO","1","f","rechts","24","","","object","f","0","false"
"null","<div style=""font-size:60px;"">+</div>","null","html-keyboard-response","196","210533","0.0-6.0-0.95","MEVO","1","f","rechts","24","","fixation","","","",""
"null","img/150_120.png","null","image-keyboard-response","197","213534","0.0-6.0-1.95","MEVO","1","f","rechts","24","","","object","f","150","false"
"null","<div style=""font-size:60px;"">+</div>","null","html-keyboard-response","198","213835","0.0-6.0-0.96","MEVO","1","f","rechts","24","","fixation","","","",""
"null","img/30_60.png","null","image-keyboard-response","199","216837","0.0-6.0-1.96","MEVO","1","f","rechts","24","","","object","j","30","false"
"null","<div style=""font-size:60px;"">+</div>","null","html-keyboard-response","200","217139","0.0-6.0-0.97","MEVO","1","f","rechts","24","","fixation","","","",""
"586","img/90_30.png","70","image-keyboard-response","201","217726","0.0-6.0-1.97","MEVO","1","f","rechts","24","","","object","f","90","true"
"null","<div style=""font-size:60px;"">+</div>","null","html-keyboard-response","202","218126","0.0-6.0-0.98","MEVO","1","f","rechts","24","","fixation","","","",""
"1692","img/90_240.png","74","image-keyboard-response","203","219820","0.0-6.0-1.98","MEVO","1","f","rechts","24","","","object","f","90","false"
"null","<div style=""font-size:60px;"">+</div>","null","html-keyboard-response","204","220271","0.0-6.0-0.99","MEVO","1","f","rechts","24","","fixation","","","",""
"1068","img/90_330.png","74","image-keyboard-response","205","221340","0.0-6.0-1.99","MEVO","1","f","rechts","24","","","object","j","90","true"
"null","<div style=""font-size:60px;"">+</div>","null","html-keyboard-response","206","221692","0.0-6.0-0.100","MEVO","1","f","rechts","24","","fixation","","","",""
"1134","img/0_330.png","70","image-keyboard-response","207","222827","0.0-6.0-1.100","MEVO","1","f","rechts","24","","","object","f","0","true"
"null","<div style=""font-size:60px;"">+</div>","null","html-keyboard-response","208","223329","0.0-6.0-0.101","MEVO","1","f","rechts","24","","fixation","","","",""
"1298","img/90_300.png","74","image-keyboard-response","209","224628","0.0-6.0-1.101","MEVO","1","f","rechts","24","","","object","j","90","true"
"null","<div style=""font-size:60px;"">+</div>","null","html-keyboard-response","210","225130","0.0-6.0-0.102","MEVO","1","f","rechts","24","","fixation","","","",""
"1251","img/0_60.png","74","image-keyboard-response","211","226382","0.0-6.0-1.102","MEVO","1","f","rechts","24","","","object","j","0","true"
"null","<div style=""font-size:60px;"">+</div>","null","html-keyboard-response","212","226684","0.0-6.0-0.103","MEVO","1","f","rechts","24","","fixation","","","",""
"1361","img/0_90.png","74","image-keyboard-response","213","228045","0.0-6.0-1.103","MEVO","1","f","rechts","24","","","object","j","0","true"
"null","<div style=""font-size:60px;"">+</div>","null","html-keyboard-response","214","228447","0.0-6.0-0.104","MEVO","1","f","rechts","24","","fixation","","","",""
"987","img/0_210.png","70","image-keyboard-response","215","229435","0.0-6.0-1.104","MEVO","1","f","rechts","24","","","object","f","0","true"
"null","<div style=""font-size:60px;"">+</div>","null","html-keyboard-response","216","229886","0.0-6.0-0.105","MEVO","1","f","rechts","24","","fixation","","","",""
"1305","img/90_240.png","74","image-keyboard-response","217","231192","0.0-6.0-1.105","MEVO","1","f","rechts","24","","","object","f","90","false"
"null","<div style=""font-size:60px;"">+</div>","null","html-keyboard-response","218","231694","0.0-6.0-0.106","MEVO","1","f","rechts","24","","fixation","","","",""
"1375","img/0_120.png","74","image-keyboard-response","219","233070","0.0-6.0-1.106","MEVO","1","f","rechts","24","","","object","j","0","true"
"null","<div style=""font-size:60px;"">+</div>","null","html-keyboard-response","220","233472","0.0-6.0-0.107","MEVO","1","f","rechts","24","","fixation","","","",""
"1289","img/90_30.png","70","image-keyboard-response","221","234762","0.0-6.0-1.107","MEVO","1","f","rechts","24","","","object","f","90","true"
"null","<div style=""font-size:60px;"">+</div>","null","html-keyboard-response","222","235263","0.0-6.0-0.108","MEVO","1","f","rechts","24","","fixation","","","",""
"1485","img/L30_180.png","70","image-keyboard-response","223","236748","0.0-6.0-1.108","MEVO","1","f","rechts","24","","","object","j","30","false"
"null","<div style=""font-size:60px;"">+</div>","null","html-keyboard-response","224","237050","0.0-6.0-0.109","MEVO","1","f","rechts","24","","fixation","","","",""
"1225","img/0_30.png","74","image-keyboard-response","225","238276","0.0-6.0-1.109","MEVO","1","f","rechts","24","","","object","j","0","true"
"null","<div style=""font-size:60px;"">+</div>","null","html-keyboard-response","226","238677","0.0-6.0-0.110","MEVO","1","f","rechts","24","","fixation","","","",""
"1389","img/120_150.png","74","image-keyboard-response","227","240067","0.0-6.0-1.110","MEVO","1","f","rechts","24","","","object","j","120","true"
"null","<div style=""font-size:60px;"">+</div>","null","html-keyboard-response","228","240569","0.0-6.0-0.111","MEVO","1","f","rechts","24","","fixation","","","",""
"1288","img/120_180.png","70","image-keyboard-response","229","241857","0.0-6.0-1.111","MEVO","1","f","rechts","24","","","object","f","120","true"
"null","<div style=""font-size:60px;"">+</div>","null","html-keyboard-response","230","242309","0.0-6.0-0.112","MEVO","1","f","rechts","24","","fixation","","","",""
"1369","img/150_180.png","74","image-keyboard-response","231","243678","0.0-6.0-1.112","MEVO","1","f","rechts","24","","","object","f","150","false"
"null","<div style=""font-size:60px;"">+</div>","null","html-keyboard-response","232","243980","0.0-6.0-0.113","MEVO","1","f","rechts","24","","fixation","","","",""
"1310","img/0_150.png","74","image-keyboard-response","233","245290","0.0-6.0-1.113","MEVO","1","f","rechts","24","","","object","j","0","true"
"null","<div style=""font-size:60px;"">+</div>","null","html-keyboard-response","234","245591","0.0-6.0-0.114","MEVO","1","f","rechts","24","","fixation","","","",""
"1613","img/120_270.png","74","image-keyboard-response","235","247205","0.0-6.0-1.114","MEVO","1","f","rechts","24","","","object","j","120","true"
"null","<div style=""font-size:60px;"">+</div>","null","html-keyboard-response","236","247706","0.0-6.0-0.115","MEVO","1","f","rechts","24","","fixation","","","",""
"1524","img/60_90.png","70","image-keyboard-response","237","249231","0.0-6.0-1.115","MEVO","1","f","rechts","24","","","object","j","60","false"
"null","<div style=""font-size:60px;"">+</div>","null","html-keyboard-response","238","249733","0.0-6.0-0.116","MEVO","1","f","rechts","24","","fixation","","","",""
"1799","img/120_90.png","70","image-keyboard-response","239","251532","0.0-6.0-1.116","MEVO","1","f","rechts","24","","","object","f","120","true"
"null","<div style=""font-size:60px;"">+</div>","null","html-keyboard-response","240","251983","0.0-6.0-0.117","MEVO","1","f","rechts","24","","fixation","","","",""
"877","img/150_240.png","74","image-keyboard-response","241","252861","0.0-6.0-1.117","MEVO","1","f","rechts","24","","","object","j","150","true"
"null","<div style=""font-size:60px;"">+</div>","null","html-keyboard-response","242","253262","0.0-6.0-0.118","MEVO","1","f","rechts","24","","fixation","","","",""
"1030","img/L150_180.png","70","image-keyboard-response","243","254294","0.0-6.0-1.118","MEVO","1","f","rechts","24","","","object","j","150","false"
"null","<div style=""font-size:60px;"">+</div>","null","html-keyboard-response","244","254645","0.0-6.0-0.119","MEVO","1","f","rechts","24","","fixation","","","",""
"1687","img/90_300.png","74","image-keyboard-response","245","256333","0.0-6.0-1.119","MEVO","1","f","rechts","24","","","object","j","90","true"
"null","<div style=""font-size:60px;"">+</div>","null","html-keyboard-response","246","256785","0.0-6.0-0.120","MEVO","1","f","rechts","24","","fixation","","","",""
"1065","img/0_330.png","70","image-keyboard-response","247","257850","0.0-6.0-1.120","MEVO","1","f","rechts","24","","","object","f","0","true"
"null","<div style=""font-size:60px;"">+</div>","null","html-keyboard-response","248","258201","0.0-6.0-0.121","MEVO","1","f","rechts","24","","fixation","","","",""
"2875","img/30_300.png","70","image-keyboard-response","249","261077","0.0-6.0-1.121","MEVO","1","f","rechts","24","","","object","f","30","true"
"null","<div style=""font-size:60px;"">+</div>","null","html-keyboard-response","250","261578","0.0-6.0-0.122","MEVO","1","f","rechts","24","","fixation","","","",""
"2020","img/30_120.png","70","image-keyboard-response","251","263600","0.0-6.0-1.122","MEVO","1","f","rechts","24","","","object","j","30","false"
"null","<div style=""font-size:60px;"">+</div>","null","html-keyboard-response","252","264101","0.0-6.0-0.123","MEVO","1","f","rechts","24","","fixation","","","",""
"998","img/0_300.png","70","image-keyboard-response","253","265100","0.0-6.0-1.123","MEVO","1","f","rechts","24","","","object","f","0","true"
"null","<div style=""font-size:60px;"">+</div>","null","html-keyboard-response","254","265602","0.0-6.0-0.124","MEVO","1","f","rechts","24","","fixation","","","",""
"1378","img/L90_180.png","74","image-keyboard-response","255","266982","0.0-6.0-1.124","MEVO","1","f","rechts","24","","","object","j","90","true"
"null","<div style=""font-size:60px;"">+</div>","null","html-keyboard-response","256","267483","0.0-6.0-0.125","MEVO","1","f","rechts","24","","fixation","","","",""
"1450","img/90_120.png","70","image-keyboard-response","257","268935","0.0-6.0-1.125","MEVO","1","f","rechts","24","","","object","j","90","false"
"null","<div style=""font-size:60px;"">+</div>","null","html-keyboard-response","258","269386","0.0-6.0-0.126","MEVO","1","f","rechts","24","","fixation","","","",""
"1286","img/30_270.png","70","image-keyboard-response","259","270673","0.0-6.0-1.126","MEVO","1","f","rechts","24","","","object","f","30","true"
"null","<div style=""font-size:60px;"">+</div>","null","html-keyboard-response","260","271125","0.0-6.0-0.127","MEVO","1","f","rechts","24","","fixation","","","",""
"1591","img/150_270.png","74","image-keyboard-response","261","272716","0.0-6.0-1.127","MEVO","1","f","rechts","24","","","object","j","150","true"
"null","<div style=""font-size:60px;"">+</div>","null","html-keyboard-response","262","273017","0.0-6.0-0.128","MEVO","1","f","rechts","24","","fixation","","","",""
"1416","img/0_90.png","74","image-keyboard-response","263","274434","0.0-6.0-1.128","MEVO","1","f","rechts","24","","","object","j","0","true"
"null","<div style=""font-size:60px;"">+</div>","null","html-keyboard-response","264","274936","0.0-6.0-0.129","MEVO","1","f","rechts","24","","fixation","","","",""
"1326","img/30_90.png","70","image-keyboard-response","265","276263","0.0-6.0-1.129","MEVO","1","f","rechts","24","","","object","j","30","false"
"null","<div style=""font-size:60px;"">+</div>","null","html-keyboard-response","266","276765","0.0-6.0-0.130","MEVO","1","f","rechts","24","","fixation","","","",""
"1202","img/60_30.png","70","image-keyboard-response","267","277968","0.0-6.0-1.130","MEVO","1","f","rechts","24","","","object","f","60","true"
"null","<div style=""font-size:60px;"">+</div>","null","html-keyboard-response","268","278320","0.0-6.0-0.131","MEVO","1","f","rechts","24","","fixation","","","",""
"1306","img/0_240.png","70","image-keyboard-response","269","279626","0.0-6.0-1.131","MEVO","1","f","rechts","24","","","object","f","0","true"
"null","<div style=""font-size:60px;"">+</div>","null","html-keyboard-response","270","279927","0.0-6.0-0.132","MEVO","1","f","rechts","24","","fixation","","","",""
"1435","img/90_180.png","74","image-keyboard-response","271","281363","0.0-6.0-1.132","MEVO","1","f","rechts","24","","","object","f","90","false"
"null","<div style=""font-size:60px;"">+</div>","null","html-keyboard-response","272","281815","0.0-6.0-0.133","MEVO","1","f","rechts","24","","fixation","","","",""
"1288","img/120_210.png","74","image-keyboard-response","273","283104","0.0-6.0-1.133","MEVO","1","f","rechts","24","","","object","f","120","false"
"null","<div style=""font-size:60px;"">+</div>","null","html-keyboard-response","274","283506","0.0-6.0-0.134","MEVO","1","f","rechts","24","","fixation","","","",""
"1506","img/150_90.png","70","image-keyboard-response","275","285013","0.0-6.0-1.134","MEVO","1","f","rechts","24","","","object","f","150","true"
"null","<div style=""font-size:60px;"">+</div>","null","html-keyboard-response","276","285415","0.0-6.0-0.135","MEVO","1","f","rechts","24","","fixation","","","",""
"1663","img/90_330.png","74","image-keyboard-response","277","287079","0.0-6.0-1.135","MEVO","1","f","rechts","24","","","object","j","90","true"
"null","<div style=""font-size:60px;"">+</div>","null","html-keyboard-response","278","287531","0.0-6.0-0.136","MEVO","1","f","rechts","24","","fixation","","","",""
"1446","img/0_270.png","70","image-keyboard-response","279","288978","0.0-6.0-1.136","MEVO","1","f","rechts","24","","","object","f","0","true"
"null","<div style=""font-size:60px;"">+</div>","null","html-keyboard-response","280","289379","0.0-6.0-0.137","MEVO","1","f","rechts","24","","fixation","","","",""
"1507","img/30_180.png","74","image-keyboard-response","281","290887","0.0-6.0-1.137","MEVO","1","f","rechts","24","","","object","f","30","false"
"null","<div style=""font-size:60px;"">+</div>","null","html-keyboard-response","282","291288","0.0-6.0-0.138","MEVO","1","f","rechts","24","","fixation","","","",""
"1734","img/150_60.png","70","image-keyboard-response","283","293023","0.0-6.0-1.138","MEVO","1","f","rechts","24","","","object","f","150","true"
"null","<div style=""font-size:60px;"">+</div>","null","html-keyboard-response","284","293324","0.0-6.0-0.139","MEVO","1","f","rechts","24","","fixation","","","",""
"1622","img/60_180.png","70","image-keyboard-response","285","294947","0.0-6.0-1.139","MEVO","1","f","rechts","24","","","object","f","60","true"
"null","<div style=""font-size:60px;"">+</div>","null","html-keyboard-response","286","295248","0.0-6.0-0.140","MEVO","1","f","rechts","24","","fixation","","","",""
"1714","img/90_60.png","70","image-keyboard-response","287","296963","0.0-6.0-1.140","MEVO","1","f","rechts","24","","","object","f","90","true"
"null","<div style=""font-size:60px;"">+</div>","null","html-keyboard-response","288","297365","0.0-6.0-0.141","MEVO","1","f","rechts","24","","fixation","","","",""
"1438","img/0_60.png","74","image-keyboard-response","289","298804","0.0-6.0-1.141","MEVO","1","f","rechts","24","","","object","j","0","true"
"null","<div style=""font-size:60px;"">+</div>","null","html-keyboard-response","290","299105","0.0-6.0-0.142","MEVO","1","f","rechts","24","","fixation","","","",""
"2786","img/60_270.png","74","image-keyboard-response","291","301892","0.0-6.0-1.142","MEVO","1","f","rechts","24","","","object","f","60","false"
"null","<div style=""font-size:60px;"">+</div>","null","html-keyboard-response","292","302244","0.0-6.0-0.143","MEVO","1","f","rechts","24","","fixation","","","",""
"1356","img/60_210.png","74","image-keyboard-response","293","303600","0.0-6.0-1.143","MEVO","1","f","rechts","24","","","object","f","60","false"
"null","<div style=""font-size:60px;"">+</div>","null","html-keyboard-response","294","303952","0.0-6.0-0.144","MEVO","1","f","rechts","24","","fixation","","","",""
"1568","img/L60_180.png","70","image-keyboard-response","295","305520","0.0-6.0-1.144","MEVO","1","f","rechts","24","","","object","j","60","false"
"null","<div style=""font-size:60px;"">+</div>","null","html-keyboard-response","296","305821","0.0-6.0-0.145","MEVO","1","f","rechts","24","","fixation","","","",""
"1407","img/L120_180.png","74","image-keyboard-response","297","307229","0.0-6.0-1.145","MEVO","1","f","rechts","24","","","object","j","120","true"
"null","<div style=""font-size:60px;"">+</div>","null","html-keyboard-response","298","307530","0.0-6.0-0.146","MEVO","1","f","rechts","24","","fixation","","","",""
"1475","img/90_150.png","74","image-keyboard-response","299","309006","0.0-6.0-1.146","MEVO","1","f","rechts","24","","","object","j","90","true"
"null","<div style=""font-size:60px;"">+</div>","null","html-keyboard-response","300","309308","0.0-6.0-0.147","MEVO","1","f","rechts","24","","fixation","","","",""
"1546","img/150_120.png","74","image-keyboard-response","301","310855","0.0-6.0-1.147","MEVO","1","f","rechts","24","","","object","f","150","false"
"null","<div style=""font-size:60px;"">+</div>","null","html-keyboard-response","302","311357","0.0-6.0-0.148","MEVO","1","f","rechts","24","","fixation","","","",""
"1545","img/30_240.png","70","image-keyboard-response","303","312902","0.0-6.0-1.148","MEVO","1","f","rechts","24","","","object","f","30","true"
"null","<div style=""font-size:60px;"">+</div>","null","html-keyboard-response","304","313303","0.0-6.0-0.149","MEVO","1","f","rechts","24","","fixation","","","",""
"1414","img/60_330.png","74","image-keyboard-response","305","314718","0.0-6.0-1.149","MEVO","1","f","rechts","24","","","object","j","60","true"
"null","<div style=""font-size:60px;"">+</div>","null","html-keyboard-response","306","315219","0.0-6.0-0.150","MEVO","1","f","rechts","24","","fixation","","","",""
"1372","img/120_330.png","74","image-keyboard-response","307","316591","0.0-6.0-1.150","MEVO","1","f","rechts","24","","","object","j","120","true"
"null","<div style=""font-size:60px;"">+</div>","null","html-keyboard-response","308","317043","0.0-6.0-0.151","MEVO","1","f","rechts","24","","fixation","","","",""
"1661","img/90_210.png","70","image-keyboard-response","309","318705","0.0-6.0-1.151","MEVO","1","f","rechts","24","","","object","f","90","true"
"null","<div style=""font-size:60px;"">+</div>","null","html-keyboard-response","310","319106","0.0-6.0-0.152","MEVO","1","f","rechts","24","","fixation","","","",""
"1364","img/150_300.png","74","image-keyboard-response","311","320471","0.0-6.0-1.152","MEVO","1","f","rechts","24","","","object","j","150","true"
"null","<div style=""font-size:60px;"">+</div>","null","html-keyboard-response","312","320922","0.0-6.0-0.153","MEVO","1","f","rechts","24","","fixation","","","",""
"1331","img/60_150.png","74","image-keyboard-response","313","322255","0.0-6.0-1.153","MEVO","1","f","rechts","24","","","object","j","60","true"
"null","<div style=""font-size:60px;"">+</div>","null","html-keyboard-response","314","322556","0.0-6.0-0.154","MEVO","1","f","rechts","24","","fixation","","","",""
"1645","img/30_60.png","70","image-keyboard-response","315","324203","0.0-6.0-1.154","MEVO","1","f","rechts","24","","","object","j","30","false"
"null","<div style=""font-size:60px;"">+</div>","null","html-keyboard-response","316","324504","0.0-6.0-0.155","MEVO","1","f","rechts","24","","fixation","","","",""
"1355","img/120_30.png","70","image-keyboard-response","317","325860","0.0-6.0-1.155","MEVO","1","f","rechts","24","","","object","f","120","true"
"null","<div style=""font-size:60px;"">+</div>","null","html-keyboard-response","318","326311","0.0-6.0-0.156","MEVO","1","f","rechts","24","","fixation","","","",""
"1604","img/150_180.png","74","image-keyboard-response","319","327916","0.0-6.0-1.156","MEVO","1","f","rechts","24","","","object","f","150","false"
"null","<div style=""font-size:60px;"">+</div>","null","html-keyboard-response","320","328268","0.0-6.0-0.157","MEVO","1","f","rechts","24","","fixation","","","",""
"1464","img/60_90.png","70","image-keyboard-response","321","329733","0.0-6.0-1.157","MEVO","1","f","rechts","24","","","object","j","60","false"
"null","<div style=""font-size:60px;"">+</div>","null","html-keyboard-response","322","330235","0.0-6.0-0.158","MEVO","1","f","rechts","24","","fixation","","","",""
"1475","img/60_210.png","70","image-keyboard-response","323","331711","0.0-6.0-1.158","MEVO","1","f","rechts","24","","","object","f","60","true"
"null","<div style=""font-size:60px;"">+</div>","null","html-keyboard-response","324","332062","0.0-6.0-0.159","MEVO","1","f","rechts","24","","fixation","","","",""
"1804","img/90_120.png","70","image-keyboard-response","325","333866","0.0-6.0-1.159","MEVO","1","f","rechts","24","","","object","j","90","false"
"null","<div style=""font-size:60px;"">+</div>","null","html-keyboard-response","326","334218","0.0-6.0-0.160","MEVO","1","f","rechts","24","","fixation","","","",""
"1519","img/120_270.png","74","image-keyboard-response","327","335738","0.0-6.0-1.160","MEVO","1","f","rechts","24","","","object","j","120","true"
"null","<div style=""font-size:60px;"">+</div>","null","html-keyboard-response","328","336240","0.0-6.0-0.161","MEVO","1","f","rechts","24","","fixation","","","",""
"1456","img/150_120.png","70","image-keyboard-response","329","337697","0.0-6.0-1.161","MEVO","1","f","rechts","24","","","object","f","150","true"
"null","<div style=""font-size:60px;"">+</div>","null","html-keyboard-response","330","338099","0.0-6.0-0.162","MEVO","1","f","rechts","24","","fixation","","","",""
"1505","img/120_90.png","70","image-keyboard-response","331","339605","0.0-6.0-1.162","MEVO","1","f","rechts","24","","","object","f","120","true"
"null","<div style=""font-size:60px;"">+</div>","null","html-keyboard-response","332","339907","0.0-6.0-0.163","MEVO","1","f","rechts","24","","fixation","","","",""
"1674","img/120_180.png","70","image-keyboard-response","333","341581","0.0-6.0-1.163","MEVO","1","f","rechts","24","","","object","f","120","true"
"null","<div style=""font-size:60px;"">+</div>","null","html-keyboard-response","334","341882","0.0-6.0-0.164","MEVO","1","f","rechts","24","","fixation","","","",""
"1595","img/150_300.png","74","image-keyboard-response","335","343478","0.0-6.0-1.164","MEVO","1","f","rechts","24","","","object","j","150","true"
"null","<div style=""font-size:60px;"">+</div>","null","html-keyboard-response","336","343980","0.0-6.0-0.165","MEVO","1","f","rechts","24","","fixation","","","",""
"1466","img/120_150.png","70","image-keyboard-response","337","345446","0.0-6.0-1.165","MEVO","1","f","rechts","24","","","object","j","120","false"
"null","<div style=""font-size:60px;"">+</div>","null","html-keyboard-response","338","345948","0.0-6.0-0.166","MEVO","1","f","rechts","24","","fixation","","","",""
"1397","img/0_330.png","70","image-keyboard-response","339","347345","0.0-6.0-1.166","MEVO","1","f","rechts","24","","","object","f","0","true"
"null","<div style=""font-size:60px;"">+</div>","null","html-keyboard-response","340","347647","0.0-6.0-0.167","MEVO","1","f","rechts","24","","fixation","","","",""
"1486","img/0_150.png","74","image-keyboard-response","341","349134","0.0-6.0-1.167","MEVO","1","f","rechts","24","","","object","j","0","true"
"null","<div style=""font-size:60px;"">+</div>","null","html-keyboard-response","342","349636","0.0-6.0-0.168","MEVO","1","f","rechts","24","","fixation","","","",""
"1513","img/60_150.png","74","image-keyboard-response","343","351150","0.0-6.0-1.168","MEVO","1","f","rechts","24","","","object","j","60","true"
"null","<div style=""font-size:60px;"">+</div>","null","html-keyboard-response","344","351601","0.0-6.0-0.169","MEVO","1","f","rechts","24","","fixation","","","",""
"1405","img/0_90.png","74","image-keyboard-response","345","353007","0.0-6.0-1.169","MEVO","1","f","rechts","24","","","object","j","0","true"
"null","<div style=""font-size:60px;"">+</div>","null","html-keyboard-response","346","353308","0.0-6.0-0.170","MEVO","1","f","rechts","24","","fixation","","","",""
"1627","img/0_60.png","74","image-keyboard-response","347","354936","0.0-6.0-1.170","MEVO","1","f","rechts","24","","","object","j","0","true"
"null","<div style=""font-size:60px;"">+</div>","null","html-keyboard-response","348","355438","0.0-6.0-0.171","MEVO","1","f","rechts","24","","fixation","","","",""
"1391","img/30_90.png","74","image-keyboard-response","349","356830","0.0-6.0-1.171","MEVO","1","f","rechts","24","","","object","j","30","true"
"null","<div style=""font-size:60px;"">+</div>","null","html-keyboard-response","350","357131","0.0-6.0-0.172","MEVO","1","f","rechts","24","","fixation","","","",""
"1330","img/30_180.png","70","image-keyboard-response","351","358462","0.0-6.0-1.172","MEVO","1","f","rechts","24","","","object","f","30","true"
"null","<div style=""font-size:60px;"">+</div>","null","html-keyboard-response","352","358964","0.0-6.0-0.173","MEVO","1","f","rechts","24","","fixation","","","",""
"1289","img/120_30.png","70","image-keyboard-response","353","360254","0.0-6.0-1.173","MEVO","1","f","rechts","24","","","object","f","120","true"
"null","<div style=""font-size:60px;"">+</div>","null","html-keyboard-response","354","360555","0.0-6.0-0.174","MEVO","1","f","rechts","24","","fixation","","","",""
"1366","img/L30_180.png","74","image-keyboard-response","355","361922","0.0-6.0-1.174","MEVO","1","f","rechts","24","","","object","j","30","true"
"null","<div style=""font-size:60px;"">+</div>","null","html-keyboard-response","356","362274","0.0-6.0-0.175","MEVO","1","f","rechts","24","","fixation","","","",""
"1712","img/150_270.png","74","image-keyboard-response","357","363987","0.0-6.0-1.175","MEVO","1","f","rechts","24","","","object","j","150","true"
"null","<div style=""font-size:60px;"">+</div>","null","html-keyboard-response","358","364388","0.0-6.0-0.176","MEVO","1","f","rechts","24","","fixation","","","",""
"1270","img/0_300.png","70","image-keyboard-response","359","365658","0.0-6.0-1.176","MEVO","1","f","rechts","24","","","object","f","0","true"
"null","<div style=""font-size:60px;"">+</div>","null","html-keyboard-response","360","366010","0.0-6.0-0.177","MEVO","1","f","rechts","24","","fixation","","","",""
"1498","img/L120_180.png","74","image-keyboard-response","361","367510","0.0-6.0-1.177","MEVO","1","f","rechts","24","","","object","j","120","true"
"null","<div style=""font-size:60px;"">+</div>","null","html-keyboard-response","362","367861","0.0-6.0-0.178","MEVO","1","f","rechts","24","","fixation","","","",""
"1582","img/L60_180.png","74","image-keyboard-response","363","369445","0.0-6.0-1.178","MEVO","1","f","rechts","24","","","object","j","60","true"
"null","<div style=""font-size:60px;"">+</div>","null","html-keyboard-response","364","369796","0.0-6.0-0.179","MEVO","1","f","rechts","24","","fixation","","","",""
"1356","img/150_60.png","70","image-keyboard-response","365","371154","0.0-6.0-1.179","MEVO","1","f","rechts","24","","","object","f","150","true"
"null","<div style=""font-size:60px;"">+</div>","null","html-keyboard-response","366","371455","0.0-6.0-0.180","MEVO","1","f","rechts","24","","fixation","","","",""
"1780","img/0_210.png","74","image-keyboard-response","367","373237","0.0-6.0-1.180","MEVO","1","f","rechts","24","","","object","f","0","false"
"null","<div style=""font-size:60px;"">+</div>","null","html-keyboard-response","368","373588","0.0-6.0-0.181","MEVO","1","f","rechts","24","","fixation","","","",""
"1074","img/30_240.png","74","image-keyboard-response","369","374663","0.0-6.0-1.181","MEVO","1","f","rechts","24","","","object","f","30","false"
"null","<div style=""font-size:60px;"">+</div>","null","html-keyboard-response","370","375015","0.0-6.0-0.182","MEVO","1","f","rechts","24","","fixation","","","",""
"829","img/0_270.png","70","image-keyboard-response","371","375845","0.0-6.0-1.182","MEVO","1","f","rechts","24","","","object","f","0","true"
"null","<div style=""font-size:60px;"">+</div>","null","html-keyboard-response","372","376297","0.0-6.0-0.183","MEVO","1","f","rechts","24","","fixation","","","",""
"1393","img/90_210.png","70","image-keyboard-response","373","377690","0.0-6.0-1.183","MEVO","1","f","rechts","24","","","object","f","90","true"
"null","<div style=""font-size:60px;"">+</div>","null","html-keyboard-response","374","378091","0.0-6.0-0.184","MEVO","1","f","rechts","24","","fixation","","","",""
"1087","img/90_300.png","74","image-keyboard-response","375","379179","0.0-6.0-1.184","MEVO","1","f","rechts","24","","","object","j","90","true"
"null","<div style=""font-size:60px;"">+</div>","null","html-keyboard-response","376","379580","0.0-6.0-0.185","MEVO","1","f","rechts","24","","fixation","","","",""
"1398","img/150_90.png","70","image-keyboard-response","377","380979","0.0-6.0-1.185","MEVO","1","f","rechts","24","","","object","f","150","true"
"null","<div style=""font-size:60px;"">+</div>","null","html-keyboard-response","378","381431","0.0-6.0-0.186","MEVO","1","f","rechts","24","","fixation","","","",""
"1220","img/60_330.png","74","image-keyboard-response","379","382652","0.0-6.0-1.186","MEVO","1","f","rechts","24","","","object","j","60","true"
"null","<div style=""font-size:60px;"">+</div>","null","html-keyboard-response","380","383154","0.0-6.0-0.187","MEVO","1","f","rechts","24","","fixation","","","",""
"1330","img/120_330.png","74","image-keyboard-response","381","384485","0.0-6.0-1.187","MEVO","1","f","rechts","24","","","object","j","120","true"
"null","<div style=""font-size:60px;"">+</div>","null","html-keyboard-response","382","384987","0.0-6.0-0.188","MEVO","1","f","rechts","24","","fixation","","","",""
"1145","img/60_180.png","70","image-keyboard-response","383","386133","0.0-6.0-1.188","MEVO","1","f","rechts","24","","","object","f","60","true"
"null","<div style=""font-size:60px;"">+</div>","null","html-keyboard-response","384","386635","0.0-6.0-0.189","MEVO","1","f","rechts","24","","fixation","","","",""
"1403","img/0_240.png","70","image-keyboard-response","385","388038","0.0-6.0-1.189","MEVO","1","f","rechts","24","","","object","f","0","true"
"null","<div style=""font-size:60px;"">+</div>","null","html-keyboard-response","386","388390","0.0-6.0-0.190","MEVO","1","f","rechts","24","","fixation","","","",""
"1338","img/150_240.png","74","image-keyboard-response","387","389729","0.0-6.0-1.190","MEVO","1","f","rechts","24","","","object","j","150","true"
"null","<div style=""font-size:60px;"">+</div>","null","html-keyboard-response","388","390230","0.0-6.0-0.191","MEVO","1","f","rechts","24","","fixation","","","",""
"1453","img/0_30.png","74","image-keyboard-response","389","391684","0.0-6.0-1.191","MEVO","1","f","rechts","24","","","object","j","0","true"
"null","<div style=""font-size:60px;"">+</div>","null","html-keyboard-response","390","392136","0.0-6.0-0.192","MEVO","1","f","rechts","24","","fixation","","","",""
"1445","img/L150_180.png","74","image-keyboard-response","391","393582","0.0-6.0-1.192","MEVO","1","f","rechts","24","","","object","j","150","true"
"null","<div style=""font-size:60px;"">+</div>","null","html-keyboard-response","392","394034","0.0-6.0-0.193","MEVO","1","f","rechts","24","","fixation","","","",""
"1362","img/90_150.png","74","image-keyboard-response","393","395396","0.0-6.0-1.193","MEVO","1","f","rechts","24","","","object","j","90","true"
"null","<div style=""font-size:60px;"">+</div>","null","html-keyboard-response","394","395697","0.0-6.0-0.194","MEVO","1","f","rechts","24","","fixation","","","",""
"1373","img/60_270.png","70","image-keyboard-response","395","397071","0.0-6.0-1.194","MEVO","1","f","rechts","24","","","object","f","60","true"
"null","<div style=""font-size:60px;"">+</div>","null","html-keyboard-response","396","397523","0.0-6.0-0.195","MEVO","1","f","rechts","24","","fixation","","","",""
"1350","img/30_270.png","70","image-keyboard-response","397","398873","0.0-6.0-1.195","MEVO","1","f","rechts","24","","","object","f","30","true"
"null","<div style=""font-size:60px;"">+</div>","null","html-keyboard-response","398","399275","0.0-6.0-0.196","MEVO","1","f","rechts","24","","fixation","","","",""
"1349","img/90_330.png","74","image-keyboard-response","399","400625","0.0-6.0-1.196","MEVO","1","f","rechts","24","","","object","j","90","true"
"null","<div style=""font-size:60px;"">+</div>","null","html-keyboard-response","400","401127","0.0-6.0-0.197","MEVO","1","f","rechts","24","","fixation","","","",""
"1330","img/30_120.png","74","image-keyboard-response","401","402457","0.0-6.0-1.197","MEVO","1","f","rechts","24","","","object","j","30","true"
"null","<div style=""font-size:60px;"">+</div>","null","html-keyboard-response","402","402909","0.0-6.0-0.198","MEVO","1","f","rechts","24","","fixation","","","",""
"1338","img/90_30.png","70","image-keyboard-response","403","404247","0.0-6.0-1.198","MEVO","1","f","rechts","24","","","object","f","90","true"
"null","<div style=""font-size:60px;"">+</div>","null","html-keyboard-response","404","404599","0.0-6.0-0.199","MEVO","1","f","rechts","24","","fixation","","","",""
"1484","img/90_180.png","70","image-keyboard-response","405","406083","0.0-6.0-1.199","MEVO","1","f","rechts","24","","","object","f","90","true"
"null","<div style=""font-size:60px;"">+</div>","null","html-keyboard-response","406","406484","0.0-6.0-0.200","MEVO","1","f","rechts","24","","fixation","","","",""
"1416","img/120_210.png","70","image-keyboard-response","407","407901","0.0-6.0-1.200","MEVO","1","f","rechts","24","","","object","f","120","true"
"null","<div style=""font-size:60px;"">+</div>","null","html-keyboard-response","408","408303","0.0-6.0-0.201","MEVO","1","f","rechts","24","","fixation","","","",""
"1295","img/90_60.png","70","image-keyboard-response","409","409599","0.0-6.0-1.201","MEVO","1","f","rechts","24","","","object","f","90","true"
"null","<div style=""font-size:60px;"">+</div>","null","html-keyboard-response","410","409901","0.0-6.0-0.202","MEVO","1","f","rechts","24","","fixation","","","",""
"1392","img/30_300.png","70","image-keyboard-response","411","411294","0.0-6.0-1.202","MEVO","1","f","rechts","24","","","object","f","30","true"
"null","<div style=""font-size:60px;"">+</div>","null","html-keyboard-response","412","411746","0.0-6.0-0.203","MEVO","1","f","rechts","24","","fixation","","","",""
"1417","img/90_240.png","70","image-keyboard-response","413","413164","0.0-6.0-1.203","MEVO","1","f","rechts","24","","","object","f","90","true"
"null","<div style=""font-size:60px;"">+</div>","null","html-keyboard-response","414","413566","0.0-6.0-0.204","MEVO","1","f","rechts","24","","fixation","","","",""
"1429","img/30_60.png","70","image-keyboard-response","415","414996","0.0-6.0-1.204","MEVO","1","f","rechts","24","","","object","j","30","false"
"null","<div style=""font-size:60px;"">+</div>","null","html-keyboard-response","416","415298","0.0-6.0-0.205","MEVO","1","f","rechts","24","","fixation","","","",""
"1384","img/0_120.png","74","image-keyboard-response","417","416683","0.0-6.0-1.205","MEVO","1","f","rechts","24","","","object","j","0","true"
"null","<div style=""font-size:60px;"">+</div>","null","html-keyboard-response","418","417185","0.0-6.0-0.206","MEVO","1","f","rechts","24","","fixation","","","",""
"1348","img/L90_180.png","74","image-keyboard-response","419","418534","0.0-6.0-1.206","MEVO","1","f","rechts","24","","","object","j","90","true"
"null","<div style=""font-size:60px;"">+</div>","null","html-keyboard-response","420","418936","0.0-6.0-0.207","MEVO","1","f","rechts","24","","fixation","","","",""
"1183","img/60_30.png","70","image-keyboard-response","421","420119","0.0-6.0-1.207","MEVO","1","f","rechts","24","","","object","f","60","true"
"15578","<p>Du hast in 72% der Versuche korrekt entschieden.</p><p>Deine durchschnittliche Reaktionszeit war  1337ms.</p><p>Dr&uuml;cke eine beliebige Taste, um die Session zu beenden. Vielen Dank!</p>","72","html-keyboard-response","422","435699","0.0-7.0","MEVO","1","f","rechts","24","","","","","",""
