"rt","stimulus","key_press","trial_type","trial_index","time_elapsed","internal_node_id","subject","session","sex","handedness","age","responses","test_part","condition","correct_response","angle","correct"
"852","<p>Mental Rotation Experiment.</p> <p>Dr&uuml;cke eine beliebige Taste, um anzufangen.</p>","70","html-keyboard-response","0","854","0.0-0.0","MEVO","4","f","rechts","24","","","","","",""
"4128","","","survey-text","1","4983","0.0-1.0","MEVO","4","f","rechts","24","{""Q0"":""MEVO""}","","","","",""
"2283","","","survey-text","2","7266","0.0-2.0","MEVO","4","f","rechts","24","{""Q0"":""4""}","","","","",""
"2390","","","survey-multi-choice","3","9658","0.0-3.0","MEVO","4","f","rechts","24","{""Q0"":""f"",""Q1"":""rechts""}","","","","",""
"1886","","","survey-text","4","11545","0.0-4.0","MEVO","4","f","rechts","24","{""Q0"":""24""}","","","","",""
"7927","<p>Stell dir vor, dass du vor einem runden Tisch stehst, auf dem sich ein blauer Ball am Tischrand befindet. Entlang des Tischrands ist jeweils ein verschieden langer Pfeil. Nun bleibst du an deinem Platz vor dem Tisch und rotierst den Tisch entlang des Pfeils (gleiche Richtung und Länge). </p> <img src='img/30_180.png'></img> <br><p> Nachdem du diese (vorgestellte) Rotation durchgef&uuml;hrt hast, schau in Richtung der Tischmitte, und entscheide dann, ob der Ball links oder rechts von dir liegt.</p> <p>Dr&uuml;cke die <strong>'f'</strong>-Taste f&uuml;r links, die <strong>'j'</strong>-Taste f&uuml;r rechts.</p><br><p> Das Bild wird jeweils 1 Sekunde lang pr&auml;sentiert. Du hast 3 Sekunden Zeit eine Entscheidung zu treffen.</p>","74","html-keyboard-response","5","19473","0.0-5.0","MEVO","4","f","rechts","24","","","","","",""
"null","<div style=""font-size:60px;"">+</div>","null","html-keyboard-response","6","20827","0.0-6.0-0.0","MEVO","4","f","rechts","24","","fixation","","","",""
"667","img/0_30.png","74","image-keyboard-response","7","21494","0.0-6.0-1.0","MEVO","4","f","rechts","24","","","object","j","0","true"
"null","<div style=""font-size:60px;"">+</div>","null","html-keyboard-response","8","21896","0.0-6.0-0.1","MEVO","4","f","rechts","24","","fixation","","","",""
"931","img/30_90.png","74","image-keyboard-response","9","22828","0.0-6.0-1.1","MEVO","4","f","rechts","24","","","object","j","30","true"
"null","<div style=""font-size:60px;"">+</div>","null","html-keyboard-response","10","23330","0.0-6.0-0.2","MEVO","4","f","rechts","24","","fixation","","","",""
"873","img/30_300.png","74","image-keyboard-response","11","24204","0.0-6.0-1.2","MEVO","4","f","rechts","24","","","object","f","30","false"
"null","<div style=""font-size:60px;"">+</div>","null","html-keyboard-response","12","24706","0.0-6.0-0.3","MEVO","4","f","rechts","24","","fixation","","","",""
"972","img/150_270.png","74","image-keyboard-response","13","25679","0.0-6.0-1.3","MEVO","4","f","rechts","24","","","object","j","150","true"
"null","<div style=""font-size:60px;"">+</div>","null","html-keyboard-response","14","26131","0.0-6.0-0.4","MEVO","4","f","rechts","24","","fixation","","","",""
"1497","img/150_120.png","74","image-keyboard-response","15","27628","0.0-6.0-1.4","MEVO","4","f","rechts","24","","","object","f","150","false"
"null","<div style=""font-size:60px;"">+</div>","null","html-keyboard-response","16","27980","0.0-6.0-0.5","MEVO","4","f","rechts","24","","fixation","","","",""
"957","img/30_120.png","74","image-keyboard-response","17","28938","0.0-6.0-1.5","MEVO","4","f","rechts","24","","","object","j","30","true"
"null","<div style=""font-size:60px;"">+</div>","null","html-keyboard-response","18","29440","0.0-6.0-0.6","MEVO","4","f","rechts","24","","fixation","","","",""
"693","img/0_270.png","70","image-keyboard-response","19","30134","0.0-6.0-1.6","MEVO","4","f","rechts","24","","","object","f","0","true"
"null","<div style=""font-size:60px;"">+</div>","null","html-keyboard-response","20","30486","0.0-6.0-0.7","MEVO","4","f","rechts","24","","fixation","","","",""
"1373","img/30_240.png","74","image-keyboard-response","21","31860","0.0-6.0-1.7","MEVO","4","f","rechts","24","","","object","f","30","false"
"null","<div style=""font-size:60px;"">+</div>","null","html-keyboard-response","22","32362","0.0-6.0-0.8","MEVO","4","f","rechts","24","","fixation","","","",""
"833","img/90_150.png","74","image-keyboard-response","23","33196","0.0-6.0-1.8","MEVO","4","f","rechts","24","","","object","j","90","true"
"null","<div style=""font-size:60px;"">+</div>","null","html-keyboard-response","24","33498","0.0-6.0-0.9","MEVO","4","f","rechts","24","","fixation","","","",""
"884","img/150_180.png","74","image-keyboard-response","25","34382","0.0-6.0-1.9","MEVO","4","f","rechts","24","","","object","f","150","false"
"null","<div style=""font-size:60px;"">+</div>","null","html-keyboard-response","26","34834","0.0-6.0-0.10","MEVO","4","f","rechts","24","","fixation","","","",""
"941","img/L90_180.png","74","image-keyboard-response","27","35776","0.0-6.0-1.10","MEVO","4","f","rechts","24","","","object","j","90","true"
"null","<div style=""font-size:60px;"">+</div>","null","html-keyboard-response","28","36178","0.0-6.0-0.11","MEVO","4","f","rechts","24","","fixation","","","",""
"1091","img/60_270.png","74","image-keyboard-response","29","37270","0.0-6.0-1.11","MEVO","4","f","rechts","24","","","object","f","60","false"
"null","<div style=""font-size:60px;"">+</div>","null","html-keyboard-response","30","37571","0.0-6.0-0.12","MEVO","4","f","rechts","24","","fixation","","","",""
"1073","img/150_300.png","74","image-keyboard-response","31","38645","0.0-6.0-1.12","MEVO","4","f","rechts","24","","","object","j","150","true"
"null","<div style=""font-size:60px;"">+</div>","null","html-keyboard-response","32","38947","0.0-6.0-0.13","MEVO","4","f","rechts","24","","fixation","","","",""
"1140","img/120_30.png","70","image-keyboard-response","33","40089","0.0-6.0-1.13","MEVO","4","f","rechts","24","","","object","f","120","true"
"null","<div style=""font-size:60px;"">+</div>","null","html-keyboard-response","34","40440","0.0-6.0-0.14","MEVO","4","f","rechts","24","","fixation","","","",""
"703","img/0_150.png","74","image-keyboard-response","35","41145","0.0-6.0-1.14","MEVO","4","f","rechts","24","","","object","j","0","true"
"null","<div style=""font-size:60px;"">+</div>","null","html-keyboard-response","36","41447","0.0-6.0-0.15","MEVO","4","f","rechts","24","","fixation","","","",""
"1065","img/60_150.png","74","image-keyboard-response","37","42513","0.0-6.0-1.15","MEVO","4","f","rechts","24","","","object","j","60","true"
"null","<div style=""font-size:60px;"">+</div>","null","html-keyboard-response","38","42864","0.0-6.0-0.16","MEVO","4","f","rechts","24","","fixation","","","",""
"965","img/90_120.png","74","image-keyboard-response","39","43830","0.0-6.0-1.16","MEVO","4","f","rechts","24","","","object","j","90","true"
"null","<div style=""font-size:60px;"">+</div>","null","html-keyboard-response","40","44331","0.0-6.0-0.17","MEVO","4","f","rechts","24","","fixation","","","",""
"1176","img/120_90.png","70","image-keyboard-response","41","45509","0.0-6.0-1.17","MEVO","4","f","rechts","24","","","object","f","120","true"
"null","<div style=""font-size:60px;"">+</div>","null","html-keyboard-response","42","45961","0.0-6.0-0.18","MEVO","4","f","rechts","24","","fixation","","","",""
"796","img/150_60.png","70","image-keyboard-response","43","46759","0.0-6.0-1.18","MEVO","4","f","rechts","24","","","object","f","150","true"
"null","<div style=""font-size:60px;"">+</div>","null","html-keyboard-response","44","47260","0.0-6.0-0.19","MEVO","4","f","rechts","24","","fixation","","","",""
"720","img/60_330.png","74","image-keyboard-response","45","47981","0.0-6.0-1.19","MEVO","4","f","rechts","24","","","object","j","60","true"
"null","<div style=""font-size:60px;"">+</div>","null","html-keyboard-response","46","48433","0.0-6.0-0.20","MEVO","4","f","rechts","24","","fixation","","","",""
"725","img/120_330.png","74","image-keyboard-response","47","49159","0.0-6.0-1.20","MEVO","4","f","rechts","24","","","object","j","120","true"
"null","<div style=""font-size:60px;"">+</div>","null","html-keyboard-response","48","49511","0.0-6.0-0.21","MEVO","4","f","rechts","24","","fixation","","","",""
"902","img/L60_180.png","70","image-keyboard-response","49","50415","0.0-6.0-1.21","MEVO","4","f","rechts","24","","","object","j","60","false"
"null","<div style=""font-size:60px;"">+</div>","null","html-keyboard-response","50","50716","0.0-6.0-0.22","MEVO","4","f","rechts","24","","fixation","","","",""
"908","img/90_60.png","70","image-keyboard-response","51","51625","0.0-6.0-1.22","MEVO","4","f","rechts","24","","","object","f","90","true"
"null","<div style=""font-size:60px;"">+</div>","null","html-keyboard-response","52","52127","0.0-6.0-0.23","MEVO","4","f","rechts","24","","fixation","","","",""
"739","img/0_210.png","70","image-keyboard-response","53","52868","0.0-6.0-1.23","MEVO","4","f","rechts","24","","","object","f","0","true"
"null","<div style=""font-size:60px;"">+</div>","null","html-keyboard-response","54","53169","0.0-6.0-0.24","MEVO","4","f","rechts","24","","fixation","","","",""
"1077","img/0_60.png","74","image-keyboard-response","55","54247","0.0-6.0-1.24","MEVO","4","f","rechts","24","","","object","j","0","true"
"null","<div style=""font-size:60px;"">+</div>","null","html-keyboard-response","56","54649","0.0-6.0-0.25","MEVO","4","f","rechts","24","","fixation","","","",""
"1006","img/60_210.png","70","image-keyboard-response","57","55656","0.0-6.0-1.25","MEVO","4","f","rechts","24","","","object","f","60","true"
"null","<div style=""font-size:60px;"">+</div>","null","html-keyboard-response","58","56007","0.0-6.0-0.26","MEVO","4","f","rechts","24","","fixation","","","",""
"995","img/90_30.png","70","image-keyboard-response","59","57003","0.0-6.0-1.26","MEVO","4","f","rechts","24","","","object","f","90","true"
"null","<div style=""font-size:60px;"">+</div>","null","html-keyboard-response","60","57405","0.0-6.0-0.27","MEVO","4","f","rechts","24","","fixation","","","",""
"714","img/90_330.png","74","image-keyboard-response","61","58120","0.0-6.0-1.27","MEVO","4","f","rechts","24","","","object","j","90","true"
"null","<div style=""font-size:60px;"">+</div>","null","html-keyboard-response","62","58622","0.0-6.0-0.28","MEVO","4","f","rechts","24","","fixation","","","",""
"899","img/120_210.png","70","image-keyboard-response","63","59522","0.0-6.0-1.28","MEVO","4","f","rechts","24","","","object","f","120","true"
"null","<div style=""font-size:60px;"">+</div>","null","html-keyboard-response","64","59924","0.0-6.0-0.29","MEVO","4","f","rechts","24","","fixation","","","",""
"741","img/0_300.png","70","image-keyboard-response","65","60666","0.0-6.0-1.29","MEVO","4","f","rechts","24","","","object","f","0","true"
"null","<div style=""font-size:60px;"">+</div>","null","html-keyboard-response","66","61118","0.0-6.0-0.30","MEVO","4","f","rechts","24","","fixation","","","",""
"1161","img/150_90.png","70","image-keyboard-response","67","62280","0.0-6.0-1.30","MEVO","4","f","rechts","24","","","object","f","150","true"
"null","<div style=""font-size:60px;"">+</div>","null","html-keyboard-response","68","62582","0.0-6.0-0.31","MEVO","4","f","rechts","24","","fixation","","","",""
"1195","img/30_180.png","70","image-keyboard-response","69","63777","0.0-6.0-1.31","MEVO","4","f","rechts","24","","","object","f","30","true"
"null","<div style=""font-size:60px;"">+</div>","null","html-keyboard-response","70","64229","0.0-6.0-0.32","MEVO","4","f","rechts","24","","fixation","","","",""
"913","img/L30_180.png","74","image-keyboard-response","71","65143","0.0-6.0-1.32","MEVO","4","f","rechts","24","","","object","j","30","true"
"null","<div style=""font-size:60px;"">+</div>","null","html-keyboard-response","72","65545","0.0-6.0-0.33","MEVO","4","f","rechts","24","","fixation","","","",""
"1294","img/150_240.png","74","image-keyboard-response","73","66840","0.0-6.0-1.33","MEVO","4","f","rechts","24","","","object","j","150","true"
"null","<div style=""font-size:60px;"">+</div>","null","html-keyboard-response","74","67142","0.0-6.0-0.34","MEVO","4","f","rechts","24","","fixation","","","",""
"1196","img/L150_180.png","70","image-keyboard-response","75","68339","0.0-6.0-1.34","MEVO","4","f","rechts","24","","","object","j","150","false"
"null","<div style=""font-size:60px;"">+</div>","null","html-keyboard-response","76","68691","0.0-6.0-0.35","MEVO","4","f","rechts","24","","fixation","","","",""
"1377","img/30_60.png","70","image-keyboard-response","77","70069","0.0-6.0-1.35","MEVO","4","f","rechts","24","","","object","j","30","false"
"null","<div style=""font-size:60px;"">+</div>","null","html-keyboard-response","78","70420","0.0-6.0-0.36","MEVO","4","f","rechts","24","","fixation","","","",""
"995","img/90_180.png","70","image-keyboard-response","79","71416","0.0-6.0-1.36","MEVO","4","f","rechts","24","","","object","f","90","true"
"null","<div style=""font-size:60px;"">+</div>","null","html-keyboard-response","80","71718","0.0-6.0-0.37","MEVO","4","f","rechts","24","","fixation","","","",""
"909","img/120_180.png","70","image-keyboard-response","81","72628","0.0-6.0-1.37","MEVO","4","f","rechts","24","","","object","f","120","true"
"null","<div style=""font-size:60px;"">+</div>","null","html-keyboard-response","82","73130","0.0-6.0-0.38","MEVO","4","f","rechts","24","","fixation","","","",""
"943","img/L120_180.png","74","image-keyboard-response","83","74075","0.0-6.0-1.38","MEVO","4","f","rechts","24","","","object","j","120","true"
"null","<div style=""font-size:60px;"">+</div>","null","html-keyboard-response","84","74526","0.0-6.0-0.39","MEVO","4","f","rechts","24","","fixation","","","",""
"993","img/0_120.png","74","image-keyboard-response","85","75520","0.0-6.0-1.39","MEVO","4","f","rechts","24","","","object","j","0","true"
"null","<div style=""font-size:60px;"">+</div>","null","html-keyboard-response","86","76021","0.0-6.0-0.40","MEVO","4","f","rechts","24","","fixation","","","",""
"801","img/90_300.png","74","image-keyboard-response","87","76823","0.0-6.0-1.40","MEVO","4","f","rechts","24","","","object","j","90","true"
"null","<div style=""font-size:60px;"">+</div>","null","html-keyboard-response","88","77125","0.0-6.0-0.41","MEVO","4","f","rechts","24","","fixation","","","",""
"823","img/60_90.png","70","image-keyboard-response","89","77949","0.0-6.0-1.41","MEVO","4","f","rechts","24","","","object","j","60","false"
"null","<div style=""font-size:60px;"">+</div>","null","html-keyboard-response","90","78299","0.0-6.0-0.42","MEVO","4","f","rechts","24","","fixation","","","",""
"684","img/0_240.png","70","image-keyboard-response","91","78984","0.0-6.0-1.42","MEVO","4","f","rechts","24","","","object","f","0","true"
"null","<div style=""font-size:60px;"">+</div>","null","html-keyboard-response","92","79486","0.0-6.0-0.43","MEVO","4","f","rechts","24","","fixation","","","",""
"1083","img/60_180.png","70","image-keyboard-response","93","80570","0.0-6.0-1.43","MEVO","4","f","rechts","24","","","object","f","60","true"
"null","<div style=""font-size:60px;"">+</div>","null","html-keyboard-response","94","80971","0.0-6.0-0.44","MEVO","4","f","rechts","24","","fixation","","","",""
"866","img/0_330.png","70","image-keyboard-response","95","81838","0.0-6.0-1.44","MEVO","4","f","rechts","24","","","object","f","0","true"
"null","<div style=""font-size:60px;"">+</div>","null","html-keyboard-response","96","82189","0.0-6.0-0.45","MEVO","4","f","rechts","24","","fixation","","","",""
"981","img/120_270.png","74","image-keyboard-response","97","83171","0.0-6.0-1.45","MEVO","4","f","rechts","24","","","object","j","120","true"
"null","<div style=""font-size:60px;"">+</div>","null","html-keyboard-response","98","83523","0.0-6.0-0.46","MEVO","4","f","rechts","24","","fixation","","","",""
"897","img/30_270.png","70","image-keyboard-response","99","84420","0.0-6.0-1.46","MEVO","4","f","rechts","24","","","object","f","30","true"
"null","<div style=""font-size:60px;"">+</div>","null","html-keyboard-response","100","84871","0.0-6.0-0.47","MEVO","4","f","rechts","24","","fixation","","","",""
"788","img/0_90.png","74","image-keyboard-response","101","85660","0.0-6.0-1.47","MEVO","4","f","rechts","24","","","object","j","0","true"
"null","<div style=""font-size:60px;"">+</div>","null","html-keyboard-response","102","85961","0.0-6.0-0.48","MEVO","4","f","rechts","24","","fixation","","","",""
"961","img/90_210.png","70","image-keyboard-response","103","86924","0.0-6.0-1.48","MEVO","4","f","rechts","24","","","object","f","90","true"
"null","<div style=""font-size:60px;"">+</div>","null","html-keyboard-response","104","87225","0.0-6.0-0.49","MEVO","4","f","rechts","24","","fixation","","","",""
"903","img/60_30.png","70","image-keyboard-response","105","88129","0.0-6.0-1.49","MEVO","4","f","rechts","24","","","object","f","60","true"
"null","<div style=""font-size:60px;"">+</div>","null","html-keyboard-response","106","88480","0.0-6.0-0.50","MEVO","4","f","rechts","24","","fixation","","","",""
"972","img/90_240.png","70","image-keyboard-response","107","89453","0.0-6.0-1.50","MEVO","4","f","rechts","24","","","object","f","90","true"
"null","<div style=""font-size:60px;"">+</div>","null","html-keyboard-response","108","89905","0.0-6.0-0.51","MEVO","4","f","rechts","24","","fixation","","","",""
"1240","img/120_150.png","74","image-keyboard-response","109","91145","0.0-6.0-1.51","MEVO","4","f","rechts","24","","","object","j","120","true"
"null","<div style=""font-size:60px;"">+</div>","null","html-keyboard-response","110","91547","0.0-6.0-0.52","MEVO","4","f","rechts","24","","fixation","","","",""
"1076","img/150_240.png","74","image-keyboard-response","111","92623","0.0-6.0-1.52","MEVO","4","f","rechts","24","","","object","j","150","true"
"null","<div style=""font-size:60px;"">+</div>","null","html-keyboard-response","112","93074","0.0-6.0-0.53","MEVO","4","f","rechts","24","","fixation","","","",""
"1062","img/L120_180.png","70","image-keyboard-response","113","94138","0.0-6.0-1.53","MEVO","4","f","rechts","24","","","object","j","120","false"
"null","<div style=""font-size:60px;"">+</div>","null","html-keyboard-response","114","94639","0.0-6.0-0.54","MEVO","4","f","rechts","24","","fixation","","","",""
"942","img/0_330.png","70","image-keyboard-response","115","95583","0.0-6.0-1.54","MEVO","4","f","rechts","24","","","object","f","0","true"
"null","<div style=""font-size:60px;"">+</div>","null","html-keyboard-response","116","96034","0.0-6.0-0.55","MEVO","4","f","rechts","24","","fixation","","","",""
"1012","img/L150_180.png","74","image-keyboard-response","117","97048","0.0-6.0-1.55","MEVO","4","f","rechts","24","","","object","j","150","true"
"null","<div style=""font-size:60px;"">+</div>","null","html-keyboard-response","118","97399","0.0-6.0-0.56","MEVO","4","f","rechts","24","","fixation","","","",""
"1167","img/30_60.png","70","image-keyboard-response","119","98568","0.0-6.0-1.56","MEVO","4","f","rechts","24","","","object","j","30","false"
"null","<div style=""font-size:60px;"">+</div>","null","html-keyboard-response","120","98919","0.0-6.0-0.57","MEVO","4","f","rechts","24","","fixation","","","",""
"768","img/0_120.png","74","image-keyboard-response","121","99689","0.0-6.0-1.57","MEVO","4","f","rechts","24","","","object","j","0","true"
"null","<div style=""font-size:60px;"">+</div>","null","html-keyboard-response","122","100090","0.0-6.0-0.58","MEVO","4","f","rechts","24","","fixation","","","",""
"1126","img/60_270.png","74","image-keyboard-response","123","101218","0.0-6.0-1.58","MEVO","4","f","rechts","24","","","object","f","60","false"
"null","<div style=""font-size:60px;"">+</div>","null","html-keyboard-response","124","101569","0.0-6.0-0.59","MEVO","4","f","rechts","24","","fixation","","","",""
"997","img/120_210.png","74","image-keyboard-response","125","102568","0.0-6.0-1.59","MEVO","4","f","rechts","24","","","object","f","120","false"
"null","<div style=""font-size:60px;"">+</div>","null","html-keyboard-response","126","103019","0.0-6.0-0.60","MEVO","4","f","rechts","24","","fixation","","","",""
"804","img/60_30.png","70","image-keyboard-response","127","103824","0.0-6.0-1.60","MEVO","4","f","rechts","24","","","object","f","60","true"
"null","<div style=""font-size:60px;"">+</div>","null","html-keyboard-response","128","104176","0.0-6.0-0.61","MEVO","4","f","rechts","24","","fixation","","","",""
"1063","img/30_90.png","74","image-keyboard-response","129","105240","0.0-6.0-1.61","MEVO","4","f","rechts","24","","","object","j","30","true"
"null","<div style=""font-size:60px;"">+</div>","null","html-keyboard-response","130","105742","0.0-6.0-0.62","MEVO","4","f","rechts","24","","fixation","","","",""
"968","img/30_300.png","74","image-keyboard-response","131","106712","0.0-6.0-1.62","MEVO","4","f","rechts","24","","","object","f","30","false"
"null","<div style=""font-size:60px;"">+</div>","null","html-keyboard-response","132","107113","0.0-6.0-0.63","MEVO","4","f","rechts","24","","fixation","","","",""
"1078","img/90_60.png","70","image-keyboard-response","133","108192","0.0-6.0-1.63","MEVO","4","f","rechts","24","","","object","f","90","true"
"null","<div style=""font-size:60px;"">+</div>","null","html-keyboard-response","134","108494","0.0-6.0-0.64","MEVO","4","f","rechts","24","","fixation","","","",""
"1056","img/60_330.png","74","image-keyboard-response","135","109551","0.0-6.0-1.64","MEVO","4","f","rechts","24","","","object","j","60","true"
"null","<div style=""font-size:60px;"">+</div>","null","html-keyboard-response","136","110002","0.0-6.0-0.65","MEVO","4","f","rechts","24","","fixation","","","",""
"1064","img/150_60.png","70","image-keyboard-response","137","111066","0.0-6.0-1.65","MEVO","4","f","rechts","24","","","object","f","150","true"
"null","<div style=""font-size:60px;"">+</div>","null","html-keyboard-response","138","111368","0.0-6.0-0.66","MEVO","4","f","rechts","24","","fixation","","","",""
"863","img/0_90.png","74","image-keyboard-response","139","112231","0.0-6.0-1.66","MEVO","4","f","rechts","24","","","object","j","0","true"
"null","<div style=""font-size:60px;"">+</div>","null","html-keyboard-response","140","112733","0.0-6.0-0.67","MEVO","4","f","rechts","24","","fixation","","","",""
"982","img/90_210.png","70","image-keyboard-response","141","113716","0.0-6.0-1.67","MEVO","4","f","rechts","24","","","object","f","90","true"
"null","<div style=""font-size:60px;"">+</div>","null","html-keyboard-response","142","114168","0.0-6.0-0.68","MEVO","4","f","rechts","24","","fixation","","","",""
"991","img/90_150.png","74","image-keyboard-response","143","115160","0.0-6.0-1.68","MEVO","4","f","rechts","24","","","object","j","90","true"
"null","<div style=""font-size:60px;"">+</div>","null","html-keyboard-response","144","115462","0.0-6.0-0.69","MEVO","4","f","rechts","24","","fixation","","","",""
"1338","img/L30_180.png","70","image-keyboard-response","145","116800","0.0-6.0-1.69","MEVO","4","f","rechts","24","","","object","j","30","false"
"null","<div style=""font-size:60px;"">+</div>","null","html-keyboard-response","146","117152","0.0-6.0-0.70","MEVO","4","f","rechts","24","","fixation","","","",""
"1296","img/L60_180.png","74","image-keyboard-response","147","118449","0.0-6.0-1.70","MEVO","4","f","rechts","24","","","object","j","60","true"
"null","<div style=""font-size:60px;"">+</div>","null","html-keyboard-response","148","118951","0.0-6.0-0.71","MEVO","4","f","rechts","24","","fixation","","","",""
"1557","img/30_180.png","70","image-keyboard-response","149","120509","0.0-6.0-1.71","MEVO","4","f","rechts","24","","","object","f","30","true"
"null","<div style=""font-size:60px;"">+</div>","null","html-keyboard-response","150","120910","0.0-6.0-0.72","MEVO","4","f","rechts","24","","fixation","","","",""
"1005","img/30_240.png","70","image-keyboard-response","151","121916","0.0-6.0-1.72","MEVO","4","f","rechts","24","","","object","f","30","true"
"null","<div style=""font-size:60px;"">+</div>","null","html-keyboard-response","152","122318","0.0-6.0-0.73","MEVO","4","f","rechts","24","","fixation","","","",""
"1009","img/30_120.png","74","image-keyboard-response","153","123328","0.0-6.0-1.73","MEVO","4","f","rechts","24","","","object","j","30","true"
"null","<div style=""font-size:60px;"">+</div>","null","html-keyboard-response","154","123680","0.0-6.0-0.74","MEVO","4","f","rechts","24","","fixation","","","",""
"988","img/L90_180.png","74","image-keyboard-response","155","124668","0.0-6.0-1.74","MEVO","4","f","rechts","24","","","object","j","90","true"
"null","<div style=""font-size:60px;"">+</div>","null","html-keyboard-response","156","125170","0.0-6.0-0.75","MEVO","4","f","rechts","24","","fixation","","","",""
"989","img/30_270.png","70","image-keyboard-response","157","126159","0.0-6.0-1.75","MEVO","4","f","rechts","24","","","object","f","30","true"
"null","<div style=""font-size:60px;"">+</div>","null","html-keyboard-response","158","126661","0.0-6.0-0.76","MEVO","4","f","rechts","24","","fixation","","","",""
"898","img/120_180.png","70","image-keyboard-response","159","127559","0.0-6.0-1.76","MEVO","4","f","rechts","24","","","object","f","120","true"
"null","<div style=""font-size:60px;"">+</div>","null","html-keyboard-response","160","127911","0.0-6.0-0.77","MEVO","4","f","rechts","24","","fixation","","","",""
"882","img/0_300.png","70","image-keyboard-response","161","128793","0.0-6.0-1.77","MEVO","4","f","rechts","24","","","object","f","0","true"
"null","<div style=""font-size:60px;"">+</div>","null","html-keyboard-response","162","129295","0.0-6.0-0.78","MEVO","4","f","rechts","24","","fixation","","","",""
"1073","img/60_180.png","70","image-keyboard-response","163","130368","0.0-6.0-1.78","MEVO","4","f","rechts","24","","","object","f","60","true"
"null","<div style=""font-size:60px;"">+</div>","null","html-keyboard-response","164","130670","0.0-6.0-0.79","MEVO","4","f","rechts","24","","fixation","","","",""
"1065","img/150_180.png","70","image-keyboard-response","165","131735","0.0-6.0-1.79","MEVO","4","f","rechts","24","","","object","f","150","true"
"null","<div style=""font-size:60px;"">+</div>","null","html-keyboard-response","166","132236","0.0-6.0-0.80","MEVO","4","f","rechts","24","","fixation","","","",""
"720","img/0_60.png","74","image-keyboard-response","167","132956","0.0-6.0-1.80","MEVO","4","f","rechts","24","","","object","j","0","true"
"null","<div style=""font-size:60px;"">+</div>","null","html-keyboard-response","168","133457","0.0-6.0-0.81","MEVO","4","f","rechts","24","","fixation","","","",""
"1259","img/150_120.png","70","image-keyboard-response","169","134718","0.0-6.0-1.81","MEVO","4","f","rechts","24","","","object","f","150","true"
"null","<div style=""font-size:60px;"">+</div>","null","html-keyboard-response","170","135119","0.0-6.0-0.82","MEVO","4","f","rechts","24","","fixation","","","",""
"1087","img/60_210.png","70","image-keyboard-response","171","136207","0.0-6.0-1.82","MEVO","4","f","rechts","24","","","object","f","60","true"
"null","<div style=""font-size:60px;"">+</div>","null","html-keyboard-response","172","136708","0.0-6.0-0.83","MEVO","4","f","rechts","24","","fixation","","","",""
"1323","img/150_90.png","70","image-keyboard-response","173","138032","0.0-6.0-1.83","MEVO","4","f","rechts","24","","","object","f","150","true"
"null","<div style=""font-size:60px;"">+</div>","null","html-keyboard-response","174","138534","0.0-6.0-0.84","MEVO","4","f","rechts","24","","fixation","","","",""
"1453","img/120_150.png","74","image-keyboard-response","175","139987","0.0-6.0-1.84","MEVO","4","f","rechts","24","","","object","j","120","true"
"null","<div style=""font-size:60px;"">+</div>","null","html-keyboard-response","176","140389","0.0-6.0-0.85","MEVO","4","f","rechts","24","","fixation","","","",""
"799","img/0_30.png","74","image-keyboard-response","177","141190","0.0-6.0-1.85","MEVO","4","f","rechts","24","","","object","j","0","true"
"null","<div style=""font-size:60px;"">+</div>","null","html-keyboard-response","178","141641","0.0-6.0-0.86","MEVO","4","f","rechts","24","","fixation","","","",""
"789","img/90_330.png","74","image-keyboard-response","179","142431","0.0-6.0-1.86","MEVO","4","f","rechts","24","","","object","j","90","true"
"null","<div style=""font-size:60px;"">+</div>","null","html-keyboard-response","180","142782","0.0-6.0-0.87","MEVO","4","f","rechts","24","","fixation","","","",""
"1396","img/120_90.png","70","image-keyboard-response","181","144180","0.0-6.0-1.87","MEVO","4","f","rechts","24","","","object","f","120","true"
"null","<div style=""font-size:60px;"">+</div>","null","html-keyboard-response","182","144481","0.0-6.0-0.88","MEVO","4","f","rechts","24","","fixation","","","",""
"869","img/0_240.png","70","image-keyboard-response","183","145352","0.0-6.0-1.88","MEVO","4","f","rechts","24","","","object","f","0","true"
"null","<div style=""font-size:60px;"">+</div>","null","html-keyboard-response","184","145753","0.0-6.0-0.89","MEVO","4","f","rechts","24","","fixation","","","",""
"964","img/120_270.png","74","image-keyboard-response","185","146718","0.0-6.0-1.89","MEVO","4","f","rechts","24","","","object","j","120","true"
"null","<div style=""font-size:60px;"">+</div>","null","html-keyboard-response","186","147020","0.0-6.0-0.90","MEVO","4","f","rechts","24","","fixation","","","",""
"673","img/120_330.png","74","image-keyboard-response","187","147694","0.0-6.0-1.90","MEVO","4","f","rechts","24","","","object","j","120","true"
"null","<div style=""font-size:60px;"">+</div>","null","html-keyboard-response","188","148045","0.0-6.0-0.91","MEVO","4","f","rechts","24","","fixation","","","",""
"849","img/90_30.png","70","image-keyboard-response","189","148896","0.0-6.0-1.91","MEVO","4","f","rechts","24","","","object","f","90","true"
"null","<div style=""font-size:60px;"">+</div>","null","html-keyboard-response","190","149397","0.0-6.0-0.92","MEVO","4","f","rechts","24","","fixation","","","",""
"1144","img/90_240.png","74","image-keyboard-response","191","150542","0.0-6.0-1.92","MEVO","4","f","rechts","24","","","object","f","90","false"
"null","<div style=""font-size:60px;"">+</div>","null","html-keyboard-response","192","150994","0.0-6.0-0.93","MEVO","4","f","rechts","24","","fixation","","","",""
"962","img/60_90.png","70","image-keyboard-response","193","151958","0.0-6.0-1.93","MEVO","4","f","rechts","24","","","object","j","60","false"
"null","<div style=""font-size:60px;"">+</div>","null","html-keyboard-response","194","152309","0.0-6.0-0.94","MEVO","4","f","rechts","24","","fixation","","","",""
"1067","img/150_300.png","70","image-keyboard-response","195","153378","0.0-6.0-1.94","MEVO","4","f","rechts","24","","","object","j","150","false"
"null","<div style=""font-size:60px;"">+</div>","null","html-keyboard-response","196","153879","0.0-6.0-0.95","MEVO","4","f","rechts","24","","fixation","","","",""
"752","img/0_150.png","74","image-keyboard-response","197","154633","0.0-6.0-1.95","MEVO","4","f","rechts","24","","","object","j","0","true"
"null","<div style=""font-size:60px;"">+</div>","null","html-keyboard-response","198","154934","0.0-6.0-0.96","MEVO","4","f","rechts","24","","fixation","","","",""
"1181","img/90_120.png","74","image-keyboard-response","199","156116","0.0-6.0-1.96","MEVO","4","f","rechts","24","","","object","j","90","true"
"null","<div style=""font-size:60px;"">+</div>","null","html-keyboard-response","200","156418","0.0-6.0-0.97","MEVO","4","f","rechts","24","","fixation","","","",""
"866","img/120_30.png","70","image-keyboard-response","201","157285","0.0-6.0-1.97","MEVO","4","f","rechts","24","","","object","f","120","true"
"null","<div style=""font-size:60px;"">+</div>","null","html-keyboard-response","202","157787","0.0-6.0-0.98","MEVO","4","f","rechts","24","","fixation","","","",""
"1067","img/60_150.png","74","image-keyboard-response","203","158855","0.0-6.0-1.98","MEVO","4","f","rechts","24","","","object","j","60","true"
"null","<div style=""font-size:60px;"">+</div>","null","html-keyboard-response","204","159257","0.0-6.0-0.99","MEVO","4","f","rechts","24","","fixation","","","",""
"1401","img/90_180.png","70","image-keyboard-response","205","160658","0.0-6.0-1.99","MEVO","4","f","rechts","24","","","object","f","90","true"
"null","<div style=""font-size:60px;"">+</div>","null","html-keyboard-response","206","161110","0.0-6.0-0.100","MEVO","4","f","rechts","24","","fixation","","","",""
"759","img/0_210.png","70","image-keyboard-response","207","161870","0.0-6.0-1.100","MEVO","4","f","rechts","24","","","object","f","0","true"
"null","<div style=""font-size:60px;"">+</div>","null","html-keyboard-response","208","162222","0.0-6.0-0.101","MEVO","4","f","rechts","24","","fixation","","","",""
"723","img/90_300.png","74","image-keyboard-response","209","162945","0.0-6.0-1.101","MEVO","4","f","rechts","24","","","object","j","90","true"
"null","<div style=""font-size:60px;"">+</div>","null","html-keyboard-response","210","163347","0.0-6.0-0.102","MEVO","4","f","rechts","24","","fixation","","","",""
"934","img/150_270.png","74","image-keyboard-response","211","164282","0.0-6.0-1.102","MEVO","4","f","rechts","24","","","object","j","150","true"
"null","<div style=""font-size:60px;"">+</div>","null","html-keyboard-response","212","164584","0.0-6.0-0.103","MEVO","4","f","rechts","24","","fixation","","","",""
"842","img/0_270.png","70","image-keyboard-response","213","165427","0.0-6.0-1.103","MEVO","4","f","rechts","24","","","object","f","0","true"
"null","<div style=""font-size:60px;"">+</div>","null","html-keyboard-response","214","165729","0.0-6.0-0.104","MEVO","4","f","rechts","24","","fixation","","","",""
"1378","img/90_150.png","74","image-keyboard-response","215","167108","0.0-6.0-1.104","MEVO","4","f","rechts","24","","","object","j","90","true"
"null","<div style=""font-size:60px;"">+</div>","null","html-keyboard-response","216","167510","0.0-6.0-0.105","MEVO","4","f","rechts","24","","fixation","","","",""
"1080","img/30_90.png","70","image-keyboard-response","217","168591","0.0-6.0-1.105","MEVO","4","f","rechts","24","","","object","j","30","false"
"null","<div style=""font-size:60px;"">+</div>","null","html-keyboard-response","218","169093","0.0-6.0-0.106","MEVO","4","f","rechts","24","","fixation","","","",""
"843","img/60_270.png","74","image-keyboard-response","219","169937","0.0-6.0-1.106","MEVO","4","f","rechts","24","","","object","f","60","false"
"null","<div style=""font-size:60px;"">+</div>","null","html-keyboard-response","220","170339","0.0-6.0-0.107","MEVO","4","f","rechts","24","","fixation","","","",""
"760","img/0_30.png","74","image-keyboard-response","221","171100","0.0-6.0-1.107","MEVO","4","f","rechts","24","","","object","j","0","true"
"null","<div style=""font-size:60px;"">+</div>","null","html-keyboard-response","222","171402","0.0-6.0-0.108","MEVO","4","f","rechts","24","","fixation","","","",""
"797","img/60_30.png","70","image-keyboard-response","223","172199","0.0-6.0-1.108","MEVO","4","f","rechts","24","","","object","f","60","true"
"null","<div style=""font-size:60px;"">+</div>","null","html-keyboard-response","224","172701","0.0-6.0-0.109","MEVO","4","f","rechts","24","","fixation","","","",""
"1133","img/120_90.png","70","image-keyboard-response","225","173834","0.0-6.0-1.109","MEVO","4","f","rechts","24","","","object","f","120","true"
"null","<div style=""font-size:60px;"">+</div>","null","html-keyboard-response","226","174135","0.0-6.0-0.110","MEVO","4","f","rechts","24","","fixation","","","",""
"1154","img/L60_180.png","74","image-keyboard-response","227","175290","0.0-6.0-1.110","MEVO","4","f","rechts","24","","","object","j","60","true"
"null","<div style=""font-size:60px;"">+</div>","null","html-keyboard-response","228","175692","0.0-6.0-0.111","MEVO","4","f","rechts","24","","fixation","","","",""
"1071","img/90_300.png","74","image-keyboard-response","229","176763","0.0-6.0-1.111","MEVO","4","f","rechts","24","","","object","j","90","true"
"null","<div style=""font-size:60px;"">+</div>","null","html-keyboard-response","230","177265","0.0-6.0-0.112","MEVO","4","f","rechts","24","","fixation","","","",""
"1068","img/150_60.png","70","image-keyboard-response","231","178333","0.0-6.0-1.112","MEVO","4","f","rechts","24","","","object","f","150","true"
"null","<div style=""font-size:60px;"">+</div>","null","html-keyboard-response","232","178635","0.0-6.0-0.113","MEVO","4","f","rechts","24","","fixation","","","",""
"1269","img/90_180.png","70","image-keyboard-response","233","179904","0.0-6.0-1.113","MEVO","4","f","rechts","24","","","object","f","90","true"
"null","<div style=""font-size:60px;"">+</div>","null","html-keyboard-response","234","180255","0.0-6.0-0.114","MEVO","4","f","rechts","24","","fixation","","","",""
"1153","img/30_240.png","70","image-keyboard-response","235","181409","0.0-6.0-1.114","MEVO","4","f","rechts","24","","","object","f","30","true"
"null","<div style=""font-size:60px;"">+</div>","null","html-keyboard-response","236","181811","0.0-6.0-0.115","MEVO","4","f","rechts","24","","fixation","","","",""
"881","img/0_90.png","74","image-keyboard-response","237","182692","0.0-6.0-1.115","MEVO","4","f","rechts","24","","","object","j","0","true"
"null","<div style=""font-size:60px;"">+</div>","null","html-keyboard-response","238","183044","0.0-6.0-0.116","MEVO","4","f","rechts","24","","fixation","","","",""
"937","img/120_270.png","74","image-keyboard-response","239","183981","0.0-6.0-1.116","MEVO","4","f","rechts","24","","","object","j","120","true"
"null","<div style=""font-size:60px;"">+</div>","null","html-keyboard-response","240","184483","0.0-6.0-0.117","MEVO","4","f","rechts","24","","fixation","","","",""
"911","img/120_180.png","70","image-keyboard-response","241","185394","0.0-6.0-1.117","MEVO","4","f","rechts","24","","","object","f","120","true"
"null","<div style=""font-size:60px;"">+</div>","null","html-keyboard-response","242","185846","0.0-6.0-0.118","MEVO","4","f","rechts","24","","fixation","","","",""
"819","img/120_30.png","70","image-keyboard-response","243","186665","0.0-6.0-1.118","MEVO","4","f","rechts","24","","","object","f","120","true"
"null","<div style=""font-size:60px;"">+</div>","null","html-keyboard-response","244","187167","0.0-6.0-0.119","MEVO","4","f","rechts","24","","fixation","","","",""
"1006","img/90_240.png","74","image-keyboard-response","245","188174","0.0-6.0-1.119","MEVO","4","f","rechts","24","","","object","f","90","false"
"null","<div style=""font-size:60px;"">+</div>","null","html-keyboard-response","246","188475","0.0-6.0-0.120","MEVO","4","f","rechts","24","","fixation","","","",""
"1071","img/30_180.png","70","image-keyboard-response","247","189547","0.0-6.0-1.120","MEVO","4","f","rechts","24","","","object","f","30","true"
"null","<div style=""font-size:60px;"">+</div>","null","html-keyboard-response","248","190048","0.0-6.0-0.121","MEVO","4","f","rechts","24","","fixation","","","",""
"942","img/60_150.png","74","image-keyboard-response","249","190991","0.0-6.0-1.121","MEVO","4","f","rechts","24","","","object","j","60","true"
"null","<div style=""font-size:60px;"">+</div>","null","html-keyboard-response","250","191493","0.0-6.0-0.122","MEVO","4","f","rechts","24","","fixation","","","",""
"875","img/30_60.png","74","image-keyboard-response","251","192368","0.0-6.0-1.122","MEVO","4","f","rechts","24","","","object","j","30","true"
"null","<div style=""font-size:60px;"">+</div>","null","html-keyboard-response","252","192669","0.0-6.0-0.123","MEVO","4","f","rechts","24","","fixation","","","",""
"887","img/30_120.png","74","image-keyboard-response","253","193558","0.0-6.0-1.123","MEVO","4","f","rechts","24","","","object","j","30","true"
"null","<div style=""font-size:60px;"">+</div>","null","html-keyboard-response","254","194059","0.0-6.0-0.124","MEVO","4","f","rechts","24","","fixation","","","",""
"839","img/0_330.png","70","image-keyboard-response","255","194899","0.0-6.0-1.124","MEVO","4","f","rechts","24","","","object","f","0","true"
"null","<div style=""font-size:60px;"">+</div>","null","html-keyboard-response","256","195400","0.0-6.0-0.125","MEVO","4","f","rechts","24","","fixation","","","",""
"971","img/L90_180.png","74","image-keyboard-response","257","196372","0.0-6.0-1.125","MEVO","4","f","rechts","24","","","object","j","90","true"
"null","<div style=""font-size:60px;"">+</div>","null","html-keyboard-response","258","196823","0.0-6.0-0.126","MEVO","4","f","rechts","24","","fixation","","","",""
"1215","img/150_90.png","70","image-keyboard-response","259","198040","0.0-6.0-1.126","MEVO","4","f","rechts","24","","","object","f","150","true"
"null","<div style=""font-size:60px;"">+</div>","null","html-keyboard-response","260","198441","0.0-6.0-0.127","MEVO","4","f","rechts","24","","fixation","","","",""
"911","img/90_330.png","74","image-keyboard-response","261","199354","0.0-6.0-1.127","MEVO","4","f","rechts","24","","","object","j","90","true"
"null","<div style=""font-size:60px;"">+</div>","null","html-keyboard-response","262","199705","0.0-6.0-0.128","MEVO","4","f","rechts","24","","fixation","","","",""
"1069","img/90_210.png","70","image-keyboard-response","263","200775","0.0-6.0-1.128","MEVO","4","f","rechts","24","","","object","f","90","true"
"null","<div style=""font-size:60px;"">+</div>","null","html-keyboard-response","264","201226","0.0-6.0-0.129","MEVO","4","f","rechts","24","","fixation","","","",""
"969","img/0_210.png","70","image-keyboard-response","265","202197","0.0-6.0-1.129","MEVO","4","f","rechts","24","","","object","f","0","true"
"null","<div style=""font-size:60px;"">+</div>","null","html-keyboard-response","266","202498","0.0-6.0-0.130","MEVO","4","f","rechts","24","","fixation","","","",""
"1178","img/150_180.png","70","image-keyboard-response","267","203677","0.0-6.0-1.130","MEVO","4","f","rechts","24","","","object","f","150","true"
"null","<div style=""font-size:60px;"">+</div>","null","html-keyboard-response","268","204129","0.0-6.0-0.131","MEVO","4","f","rechts","24","","fixation","","","",""
"989","img/30_300.png","70","image-keyboard-response","269","205119","0.0-6.0-1.131","MEVO","4","f","rechts","24","","","object","f","30","true"
"null","<div style=""font-size:60px;"">+</div>","null","html-keyboard-response","270","205621","0.0-6.0-0.132","MEVO","4","f","rechts","24","","fixation","","","",""
"891","img/90_30.png","74","image-keyboard-response","271","206512","0.0-6.0-1.132","MEVO","4","f","rechts","24","","","object","f","90","false"
"null","<div style=""font-size:60px;"">+</div>","null","html-keyboard-response","272","206964","0.0-6.0-0.133","MEVO","4","f","rechts","24","","fixation","","","",""
"993","img/0_120.png","74","image-keyboard-response","273","207958","0.0-6.0-1.133","MEVO","4","f","rechts","24","","","object","j","0","true"
"null","<div style=""font-size:60px;"">+</div>","null","html-keyboard-response","274","208309","0.0-6.0-0.134","MEVO","4","f","rechts","24","","fixation","","","",""
"1074","img/30_270.png","70","image-keyboard-response","275","209384","0.0-6.0-1.134","MEVO","4","f","rechts","24","","","object","f","30","true"
"null","<div style=""font-size:60px;"">+</div>","null","html-keyboard-response","276","209836","0.0-6.0-0.135","MEVO","4","f","rechts","24","","fixation","","","",""
"869","img/0_60.png","74","image-keyboard-response","277","210706","0.0-6.0-1.135","MEVO","4","f","rechts","24","","","object","j","0","true"
"null","<div style=""font-size:60px;"">+</div>","null","html-keyboard-response","278","211158","0.0-6.0-0.136","MEVO","4","f","rechts","24","","fixation","","","",""
"901","img/150_300.png","74","image-keyboard-response","279","212060","0.0-6.0-1.136","MEVO","4","f","rechts","24","","","object","j","150","true"
"null","<div style=""font-size:60px;"">+</div>","null","html-keyboard-response","280","212362","0.0-6.0-0.137","MEVO","4","f","rechts","24","","fixation","","","",""
"1000","img/120_330.png","74","image-keyboard-response","281","213363","0.0-6.0-1.137","MEVO","4","f","rechts","24","","","object","j","120","true"
"null","<div style=""font-size:60px;"">+</div>","null","html-keyboard-response","282","213865","0.0-6.0-0.138","MEVO","4","f","rechts","24","","fixation","","","",""
"1051","img/L150_180.png","74","image-keyboard-response","283","214917","0.0-6.0-1.138","MEVO","4","f","rechts","24","","","object","j","150","true"
"null","<div style=""font-size:60px;"">+</div>","null","html-keyboard-response","284","215269","0.0-6.0-0.139","MEVO","4","f","rechts","24","","fixation","","","",""
"1311","img/120_210.png","74","image-keyboard-response","285","216581","0.0-6.0-1.139","MEVO","4","f","rechts","24","","","object","f","120","false"
"null","<div style=""font-size:60px;"">+</div>","null","html-keyboard-response","286","217083","0.0-6.0-0.140","MEVO","4","f","rechts","24","","fixation","","","",""
"829","img/0_240.png","70","image-keyboard-response","287","217913","0.0-6.0-1.140","MEVO","4","f","rechts","24","","","object","f","0","true"
"null","<div style=""font-size:60px;"">+</div>","null","html-keyboard-response","288","218215","0.0-6.0-0.141","MEVO","4","f","rechts","24","","fixation","","","",""
"939","img/150_270.png","74","image-keyboard-response","289","219155","0.0-6.0-1.141","MEVO","4","f","rechts","24","","","object","j","150","true"
"null","<div style=""font-size:60px;"">+</div>","null","html-keyboard-response","290","219557","0.0-6.0-0.142","MEVO","4","f","rechts","24","","fixation","","","",""
"913","img/60_90.png","70","image-keyboard-response","291","220471","0.0-6.0-1.142","MEVO","4","f","rechts","24","","","object","j","60","false"
"null","<div style=""font-size:60px;"">+</div>","null","html-keyboard-response","292","220973","0.0-6.0-0.143","MEVO","4","f","rechts","24","","fixation","","","",""
"1078","img/150_120.png","70","image-keyboard-response","293","222052","0.0-6.0-1.143","MEVO","4","f","rechts","24","","","object","f","150","true"
"null","<div style=""font-size:60px;"">+</div>","null","html-keyboard-response","294","222553","0.0-6.0-0.144","MEVO","4","f","rechts","24","","fixation","","","",""
"914","img/0_270.png","70","image-keyboard-response","295","223468","0.0-6.0-1.144","MEVO","4","f","rechts","24","","","object","f","0","true"
"null","<div style=""font-size:60px;"">+</div>","null","html-keyboard-response","296","223770","0.0-6.0-0.145","MEVO","4","f","rechts","24","","fixation","","","",""
"1067","img/60_180.png","70","image-keyboard-response","297","224837","0.0-6.0-1.145","MEVO","4","f","rechts","24","","","object","f","60","true"
"null","<div style=""font-size:60px;"">+</div>","null","html-keyboard-response","298","225139","0.0-6.0-0.146","MEVO","4","f","rechts","24","","fixation","","","",""
"943","img/L120_180.png","74","image-keyboard-response","299","226082","0.0-6.0-1.146","MEVO","4","f","rechts","24","","","object","j","120","true"
"null","<div style=""font-size:60px;"">+</div>","null","html-keyboard-response","300","226384","0.0-6.0-0.147","MEVO","4","f","rechts","24","","fixation","","","",""
"941","img/0_150.png","74","image-keyboard-response","301","227326","0.0-6.0-1.147","MEVO","4","f","rechts","24","","","object","j","0","true"
"null","<div style=""font-size:60px;"">+</div>","null","html-keyboard-response","302","227678","0.0-6.0-0.148","MEVO","4","f","rechts","24","","fixation","","","",""
"1158","img/90_120.png","70","image-keyboard-response","303","228836","0.0-6.0-1.148","MEVO","4","f","rechts","24","","","object","j","90","false"
"null","<div style=""font-size:60px;"">+</div>","null","html-keyboard-response","304","229188","0.0-6.0-0.149","MEVO","4","f","rechts","24","","fixation","","","",""
"942","img/60_330.png","74","image-keyboard-response","305","230130","0.0-6.0-1.149","MEVO","4","f","rechts","24","","","object","j","60","true"
"null","<div style=""font-size:60px;"">+</div>","null","html-keyboard-response","306","230632","0.0-6.0-0.150","MEVO","4","f","rechts","24","","fixation","","","",""
"1077","img/120_150.png","70","image-keyboard-response","307","231709","0.0-6.0-1.150","MEVO","4","f","rechts","24","","","object","j","120","false"
"null","<div style=""font-size:60px;"">+</div>","null","html-keyboard-response","308","232061","0.0-6.0-0.151","MEVO","4","f","rechts","24","","fixation","","","",""
"1341","img/60_210.png","74","image-keyboard-response","309","233402","0.0-6.0-1.151","MEVO","4","f","rechts","24","","","object","f","60","false"
"null","<div style=""font-size:60px;"">+</div>","null","html-keyboard-response","310","233753","0.0-6.0-0.152","MEVO","4","f","rechts","24","","fixation","","","",""
"1171","img/L30_180.png","74","image-keyboard-response","311","234925","0.0-6.0-1.152","MEVO","4","f","rechts","24","","","object","j","30","true"
"null","<div style=""font-size:60px;"">+</div>","null","html-keyboard-response","312","235226","0.0-6.0-0.153","MEVO","4","f","rechts","24","","fixation","","","",""
"1002","img/0_300.png","70","image-keyboard-response","313","236230","0.0-6.0-1.153","MEVO","4","f","rechts","24","","","object","f","0","true"
"null","<div style=""font-size:60px;"">+</div>","null","html-keyboard-response","314","236632","0.0-6.0-0.154","MEVO","4","f","rechts","24","","fixation","","","",""
"986","img/150_240.png","74","image-keyboard-response","315","237619","0.0-6.0-1.154","MEVO","4","f","rechts","24","","","object","j","150","true"
"null","<div style=""font-size:60px;"">+</div>","null","html-keyboard-response","316","238071","0.0-6.0-0.155","MEVO","4","f","rechts","24","","fixation","","","",""
"979","img/90_60.png","70","image-keyboard-response","317","239050","0.0-6.0-1.155","MEVO","4","f","rechts","24","","","object","f","90","true"
"null","<div style=""font-size:60px;"">+</div>","null","html-keyboard-response","318","239551","0.0-6.0-0.156","MEVO","4","f","rechts","24","","fixation","","","",""
"915","img/L150_180.png","74","image-keyboard-response","319","240468","0.0-6.0-1.156","MEVO","4","f","rechts","24","","","object","j","150","true"
"null","<div style=""font-size:60px;"">+</div>","null","html-keyboard-response","320","240919","0.0-6.0-0.157","MEVO","4","f","rechts","24","","fixation","","","",""
"984","img/L60_180.png","74","image-keyboard-response","321","241904","0.0-6.0-1.157","MEVO","4","f","rechts","24","","","object","j","60","true"
"null","<div style=""font-size:60px;"">+</div>","null","html-keyboard-response","322","242356","0.0-6.0-0.158","MEVO","4","f","rechts","24","","fixation","","","",""
"1116","img/120_90.png","70","image-keyboard-response","323","243473","0.0-6.0-1.158","MEVO","4","f","rechts","24","","","object","f","120","true"
"null","<div style=""font-size:60px;"">+</div>","null","html-keyboard-response","324","243774","0.0-6.0-0.159","MEVO","4","f","rechts","24","","fixation","","","",""
"1105","img/90_30.png","70","image-keyboard-response","325","244880","0.0-6.0-1.159","MEVO","4","f","rechts","24","","","object","f","90","true"
"null","<div style=""font-size:60px;"">+</div>","null","html-keyboard-response","326","245181","0.0-6.0-0.160","MEVO","4","f","rechts","24","","fixation","","","",""
"1107","img/90_330.png","74","image-keyboard-response","327","246290","0.0-6.0-1.160","MEVO","4","f","rechts","24","","","object","j","90","true"
"null","<div style=""font-size:60px;"">+</div>","null","html-keyboard-response","328","246691","0.0-6.0-0.161","MEVO","4","f","rechts","24","","fixation","","","",""
"980","img/150_90.png","70","image-keyboard-response","329","247672","0.0-6.0-1.161","MEVO","4","f","rechts","24","","","object","f","150","true"
"null","<div style=""font-size:60px;"">+</div>","null","html-keyboard-response","330","247973","0.0-6.0-0.162","MEVO","4","f","rechts","24","","fixation","","","",""
"1064","img/120_180.png","70","image-keyboard-response","331","249038","0.0-6.0-1.162","MEVO","4","f","rechts","24","","","object","f","120","true"
"null","<div style=""font-size:60px;"">+</div>","null","html-keyboard-response","332","249540","0.0-6.0-0.163","MEVO","4","f","rechts","24","","fixation","","","",""
"1097","img/150_240.png","74","image-keyboard-response","333","250639","0.0-6.0-1.163","MEVO","4","f","rechts","24","","","object","j","150","true"
"null","<div style=""font-size:60px;"">+</div>","null","html-keyboard-response","334","251040","0.0-6.0-0.164","MEVO","4","f","rechts","24","","fixation","","","",""
"961","img/0_150.png","74","image-keyboard-response","335","252003","0.0-6.0-1.164","MEVO","4","f","rechts","24","","","object","j","0","true"
"null","<div style=""font-size:60px;"">+</div>","null","html-keyboard-response","336","252454","0.0-6.0-0.165","MEVO","4","f","rechts","24","","fixation","","","",""
"906","img/0_210.png","70","image-keyboard-response","337","253362","0.0-6.0-1.165","MEVO","4","f","rechts","24","","","object","f","0","true"
"null","<div style=""font-size:60px;"">+</div>","null","html-keyboard-response","338","253763","0.0-6.0-0.166","MEVO","4","f","rechts","24","","fixation","","","",""
"1078","img/0_240.png","70","image-keyboard-response","339","254842","0.0-6.0-1.166","MEVO","4","f","rechts","24","","","object","f","0","true"
"null","<div style=""font-size:60px;"">+</div>","null","html-keyboard-response","340","255144","0.0-6.0-0.167","MEVO","4","f","rechts","24","","fixation","","","",""
"990","img/120_330.png","74","image-keyboard-response","341","256136","0.0-6.0-1.167","MEVO","4","f","rechts","24","","","object","j","120","true"
"null","<div style=""font-size:60px;"">+</div>","null","html-keyboard-response","342","256537","0.0-6.0-0.168","MEVO","4","f","rechts","24","","fixation","","","",""
"1075","img/L120_180.png","70","image-keyboard-response","343","257613","0.0-6.0-1.168","MEVO","4","f","rechts","24","","","object","j","120","false"
"null","<div style=""font-size:60px;"">+</div>","null","html-keyboard-response","344","258015","0.0-6.0-0.169","MEVO","4","f","rechts","24","","fixation","","","",""
"1123","img/60_270.png","74","image-keyboard-response","345","259138","0.0-6.0-1.169","MEVO","4","f","rechts","24","","","object","f","60","false"
"null","<div style=""font-size:60px;"">+</div>","null","html-keyboard-response","346","259540","0.0-6.0-0.170","MEVO","4","f","rechts","24","","fixation","","","",""
"891","img/60_150.png","74","image-keyboard-response","347","260432","0.0-6.0-1.170","MEVO","4","f","rechts","24","","","object","j","60","true"
"null","<div style=""font-size:60px;"">+</div>","null","html-keyboard-response","348","260934","0.0-6.0-0.171","MEVO","4","f","rechts","24","","fixation","","","",""
"910","img/L90_180.png","74","image-keyboard-response","349","261844","0.0-6.0-1.171","MEVO","4","f","rechts","24","","","object","j","90","true"
"null","<div style=""font-size:60px;"">+</div>","null","html-keyboard-response","350","262146","0.0-6.0-0.172","MEVO","4","f","rechts","24","","fixation","","","",""
"1322","img/60_90.png","74","image-keyboard-response","351","263468","0.0-6.0-1.172","MEVO","4","f","rechts","24","","","object","j","60","true"
"null","<div style=""font-size:60px;"">+</div>","null","html-keyboard-response","352","263920","0.0-6.0-0.173","MEVO","4","f","rechts","24","","fixation","","","",""
"885","img/60_330.png","70","image-keyboard-response","353","264806","0.0-6.0-1.173","MEVO","4","f","rechts","24","","","object","j","60","false"
"null","<div style=""font-size:60px;"">+</div>","null","html-keyboard-response","354","265208","0.0-6.0-0.174","MEVO","4","f","rechts","24","","fixation","","","",""
"725","img/90_300.png","74","image-keyboard-response","355","265934","0.0-6.0-1.174","MEVO","4","f","rechts","24","","","object","j","90","true"
"null","<div style=""font-size:60px;"">+</div>","null","html-keyboard-response","356","266386","0.0-6.0-0.175","MEVO","4","f","rechts","24","","fixation","","","",""
"898","img/120_210.png","70","image-keyboard-response","357","267285","0.0-6.0-1.175","MEVO","4","f","rechts","24","","","object","f","120","true"
"null","<div style=""font-size:60px;"">+</div>","null","html-keyboard-response","358","267787","0.0-6.0-0.176","MEVO","4","f","rechts","24","","fixation","","","",""
"1115","img/120_270.png","74","image-keyboard-response","359","268903","0.0-6.0-1.176","MEVO","4","f","rechts","24","","","object","j","120","true"
"null","<div style=""font-size:60px;"">+</div>","null","html-keyboard-response","360","269305","0.0-6.0-0.177","MEVO","4","f","rechts","24","","fixation","","","",""
"1071","img/150_120.png","74","image-keyboard-response","361","270376","0.0-6.0-1.177","MEVO","4","f","rechts","24","","","object","f","150","false"
"null","<div style=""font-size:60px;"">+</div>","null","html-keyboard-response","362","270678","0.0-6.0-0.178","MEVO","4","f","rechts","24","","fixation","","","",""
"1174","img/60_180.png","70","image-keyboard-response","363","271853","0.0-6.0-1.178","MEVO","4","f","rechts","24","","","object","f","60","true"
"null","<div style=""font-size:60px;"">+</div>","null","html-keyboard-response","364","272355","0.0-6.0-0.179","MEVO","4","f","rechts","24","","fixation","","","",""
"1291","img/30_300.png","70","image-keyboard-response","365","273646","0.0-6.0-1.179","MEVO","4","f","rechts","24","","","object","f","30","true"
"null","<div style=""font-size:60px;"">+</div>","null","html-keyboard-response","366","274098","0.0-6.0-0.180","MEVO","4","f","rechts","24","","fixation","","","",""
"966","img/0_90.png","74","image-keyboard-response","367","275064","0.0-6.0-1.180","MEVO","4","f","rechts","24","","","object","j","0","true"
"null","<div style=""font-size:60px;"">+</div>","null","html-keyboard-response","368","275416","0.0-6.0-0.181","MEVO","4","f","rechts","24","","fixation","","","",""
"920","img/30_270.png","70","image-keyboard-response","369","276336","0.0-6.0-1.181","MEVO","4","f","rechts","24","","","object","f","30","true"
"null","<div style=""font-size:60px;"">+</div>","null","html-keyboard-response","370","276738","0.0-6.0-0.182","MEVO","4","f","rechts","24","","fixation","","","",""
"1063","img/120_30.png","70","image-keyboard-response","371","277801","0.0-6.0-1.182","MEVO","4","f","rechts","24","","","object","f","120","true"
"null","<div style=""font-size:60px;"">+</div>","null","html-keyboard-response","372","278103","0.0-6.0-0.183","MEVO","4","f","rechts","24","","fixation","","","",""
"1286","img/120_150.png","74","image-keyboard-response","373","279389","0.0-6.0-1.183","MEVO","4","f","rechts","24","","","object","j","120","true"
"null","<div style=""font-size:60px;"">+</div>","null","html-keyboard-response","374","279841","0.0-6.0-0.184","MEVO","4","f","rechts","24","","fixation","","","",""
"1186","img/30_180.png","70","image-keyboard-response","375","281027","0.0-6.0-1.184","MEVO","4","f","rechts","24","","","object","f","30","true"
"null","<div style=""font-size:60px;"">+</div>","null","html-keyboard-response","376","281429","0.0-6.0-0.185","MEVO","4","f","rechts","24","","fixation","","","",""
"1217","img/30_90.png","74","image-keyboard-response","377","282646","0.0-6.0-1.185","MEVO","4","f","rechts","24","","","object","j","30","true"
"null","<div style=""font-size:60px;"">+</div>","null","html-keyboard-response","378","283148","0.0-6.0-0.186","MEVO","4","f","rechts","24","","fixation","","","",""
"1334","img/L30_180.png","74","image-keyboard-response","379","284482","0.0-6.0-1.186","MEVO","4","f","rechts","24","","","object","j","30","true"
"null","<div style=""font-size:60px;"">+</div>","null","html-keyboard-response","380","284884","0.0-6.0-0.187","MEVO","4","f","rechts","24","","fixation","","","",""
"1126","img/30_60.png","70","image-keyboard-response","381","286010","0.0-6.0-1.187","MEVO","4","f","rechts","24","","","object","j","30","false"
"null","<div style=""font-size:60px;"">+</div>","null","html-keyboard-response","382","286312","0.0-6.0-0.188","MEVO","4","f","rechts","24","","fixation","","","",""
"920","img/0_30.png","74","image-keyboard-response","383","287232","0.0-6.0-1.188","MEVO","4","f","rechts","24","","","object","j","0","true"
"null","<div style=""font-size:60px;"">+</div>","null","html-keyboard-response","384","287583","0.0-6.0-0.189","MEVO","4","f","rechts","24","","fixation","","","",""
"1064","img/60_210.png","74","image-keyboard-response","385","288648","0.0-6.0-1.189","MEVO","4","f","rechts","24","","","object","f","60","false"
"null","<div style=""font-size:60px;"">+</div>","null","html-keyboard-response","386","289050","0.0-6.0-0.190","MEVO","4","f","rechts","24","","fixation","","","",""
"791","img/0_120.png","74","image-keyboard-response","387","289842","0.0-6.0-1.190","MEVO","4","f","rechts","24","","","object","j","0","true"
"null","<div style=""font-size:60px;"">+</div>","null","html-keyboard-response","388","290144","0.0-6.0-0.191","MEVO","4","f","rechts","24","","fixation","","","",""
"1286","img/0_60.png","74","image-keyboard-response","389","291430","0.0-6.0-1.191","MEVO","4","f","rechts","24","","","object","j","0","true"
"null","<div style=""font-size:60px;"">+</div>","null","html-keyboard-response","390","291781","0.0-6.0-0.192","MEVO","4","f","rechts","24","","fixation","","","",""
"821","img/0_300.png","70","image-keyboard-response","391","292603","0.0-6.0-1.192","MEVO","4","f","rechts","24","","","object","f","0","true"
"null","<div style=""font-size:60px;"">+</div>","null","html-keyboard-response","392","293005","0.0-6.0-0.193","MEVO","4","f","rechts","24","","fixation","","","",""
"845","img/60_30.png","70","image-keyboard-response","393","293851","0.0-6.0-1.193","MEVO","4","f","rechts","24","","","object","f","60","true"
"null","<div style=""font-size:60px;"">+</div>","null","html-keyboard-response","394","294252","0.0-6.0-0.194","MEVO","4","f","rechts","24","","fixation","","","",""
"1005","img/90_210.png","70","image-keyboard-response","395","295258","0.0-6.0-1.194","MEVO","4","f","rechts","24","","","object","f","90","true"
"null","<div style=""font-size:60px;"">+</div>","null","html-keyboard-response","396","295759","0.0-6.0-0.195","MEVO","4","f","rechts","24","","fixation","","","",""
"890","img/150_60.png","70","image-keyboard-response","397","296651","0.0-6.0-1.195","MEVO","4","f","rechts","24","","","object","f","150","true"
"null","<div style=""font-size:60px;"">+</div>","null","html-keyboard-response","398","297152","0.0-6.0-0.196","MEVO","4","f","rechts","24","","fixation","","","",""
"864","img/30_240.png","70","image-keyboard-response","399","298018","0.0-6.0-1.196","MEVO","4","f","rechts","24","","","object","f","30","true"
"null","<div style=""font-size:60px;"">+</div>","null","html-keyboard-response","400","298419","0.0-6.0-0.197","MEVO","4","f","rechts","24","","fixation","","","",""
"1066","img/90_60.png","70","image-keyboard-response","401","299486","0.0-6.0-1.197","MEVO","4","f","rechts","24","","","object","f","90","true"
"null","<div style=""font-size:60px;"">+</div>","null","html-keyboard-response","402","299938","0.0-6.0-0.198","MEVO","4","f","rechts","24","","fixation","","","",""
"978","img/150_180.png","70","image-keyboard-response","403","300917","0.0-6.0-1.198","MEVO","4","f","rechts","24","","","object","f","150","true"
"null","<div style=""font-size:60px;"">+</div>","null","html-keyboard-response","404","301418","0.0-6.0-0.199","MEVO","4","f","rechts","24","","fixation","","","",""
"1073","img/90_120.png","70","image-keyboard-response","405","302492","0.0-6.0-1.199","MEVO","4","f","rechts","24","","","object","j","90","false"
"null","<div style=""font-size:60px;"">+</div>","null","html-keyboard-response","406","302944","0.0-6.0-0.200","MEVO","4","f","rechts","24","","fixation","","","",""
"1065","img/150_270.png","70","image-keyboard-response","407","304010","0.0-6.0-1.200","MEVO","4","f","rechts","24","","","object","j","150","false"
"null","<div style=""font-size:60px;"">+</div>","null","html-keyboard-response","408","304512","0.0-6.0-0.201","MEVO","4","f","rechts","24","","fixation","","","",""
"855","img/0_330.png","70","image-keyboard-response","409","305367","0.0-6.0-1.201","MEVO","4","f","rechts","24","","","object","f","0","true"
"null","<div style=""font-size:60px;"">+</div>","null","html-keyboard-response","410","305719","0.0-6.0-0.202","MEVO","4","f","rechts","24","","fixation","","","",""
"1080","img/90_180.png","70","image-keyboard-response","411","306800","0.0-6.0-1.202","MEVO","4","f","rechts","24","","","object","f","90","true"
"null","<div style=""font-size:60px;"">+</div>","null","html-keyboard-response","412","307251","0.0-6.0-0.203","MEVO","4","f","rechts","24","","fixation","","","",""
"857","img/150_300.png","74","image-keyboard-response","413","308109","0.0-6.0-1.203","MEVO","4","f","rechts","24","","","object","j","150","true"
"null","<div style=""font-size:60px;"">+</div>","null","html-keyboard-response","414","308610","0.0-6.0-0.204","MEVO","4","f","rechts","24","","fixation","","","",""
"908","img/90_150.png","74","image-keyboard-response","415","309520","0.0-6.0-1.204","MEVO","4","f","rechts","24","","","object","j","90","true"
"null","<div style=""font-size:60px;"">+</div>","null","html-keyboard-response","416","309971","0.0-6.0-0.205","MEVO","4","f","rechts","24","","fixation","","","",""
"856","img/90_240.png","70","image-keyboard-response","417","310828","0.0-6.0-1.205","MEVO","4","f","rechts","24","","","object","f","90","true"
"null","<div style=""font-size:60px;"">+</div>","null","html-keyboard-response","418","311130","0.0-6.0-0.206","MEVO","4","f","rechts","24","","fixation","","","",""
"967","img/30_120.png","74","image-keyboard-response","419","312098","0.0-6.0-1.206","MEVO","4","f","rechts","24","","","object","j","30","true"
"null","<div style=""font-size:60px;"">+</div>","null","html-keyboard-response","420","312499","0.0-6.0-0.207","MEVO","4","f","rechts","24","","fixation","","","",""
"795","img/0_270.png","70","image-keyboard-response","421","313294","0.0-6.0-1.207","MEVO","4","f","rechts","24","","","object","f","0","true"
"14658","<p>Du hast in 81% der Versuche korrekt entschieden.</p><p>Deine durchschnittliche Reaktionszeit war  986ms.</p><p>Dr&uuml;cke eine beliebige Taste, um die Session zu beenden. Vielen Dank!</p>","70","html-keyboard-response","422","327953","0.0-7.0","MEVO","4","f","rechts","24","","","","","",""
