"rt","stimulus","key_press","trial_type","trial_index","time_elapsed","internal_node_id","subject","session","sex","handedness","age","responses","test_part","condition","correct_response","angle","correct"
"1179","<p>Mental Rotation Experiment.</p> <p>Dr&uuml;cke eine beliebige Taste, um anzufangen.</p>","70","html-keyboard-response","0","1179","0.0-0.0","MEVO","3","f","rechts","24","","","","","",""
"3745","","","survey-text","1","4928","0.0-1.0","MEVO","3","f","rechts","24","{""Q0"":""MEVO""}","","","","",""
"5556","","","survey-text","2","10485","0.0-2.0","MEVO","3","f","rechts","24","{""Q0"":""3""}","","","","",""
"2579","","","survey-multi-choice","3","13066","0.0-3.0","MEVO","3","f","rechts","24","{""Q0"":""f"",""Q1"":""rechts""}","","","","",""
"1753","","","survey-text","4","14820","0.0-4.0","MEVO","3","f","rechts","24","{""Q0"":""24""}","","","","",""
"5668","<p>Stell dir vor, dass du vor einem runden Tisch stehst, auf dem sich ein blauer Ball am Tischrand befindet. Entlang des Tischrands ist jeweils ein verschieden langer Pfeil. Nun bleibst du an deinem Platz vor dem Tisch und rotierst den Tisch entlang des Pfeils (gleiche Richtung und Länge). </p> <img src='img/30_180.png'></img> <br><p> Nachdem du diese (vorgestellte) Rotation durchgef&uuml;hrt hast, schau in Richtung der Tischmitte, und entscheide dann, ob der Ball links oder rechts von dir liegt.</p> <p>Dr&uuml;cke die <strong>'f'</strong>-Taste f&uuml;r links, die <strong>'j'</strong>-Taste f&uuml;r rechts.</p><br><p> Das Bild wird jeweils 1 Sekunde lang pr&auml;sentiert. Du hast 3 Sekunden Zeit eine Entscheidung zu treffen.</p>","70","html-keyboard-response","5","20489","0.0-5.0","MEVO","3","f","rechts","24","","","","","",""
"null","<div style=""font-size:60px;"">+</div>","null","html-keyboard-response","6","21894","0.0-6.0-0.0","MEVO","3","f","rechts","24","","fixation","","","",""
"1232","img/120_330.png","74","image-keyboard-response","7","23126","0.0-6.0-1.0","MEVO","3","f","rechts","24","","","object","j","120","true"
"null","<div style=""font-size:60px;"">+</div>","null","html-keyboard-response","8","23578","0.0-6.0-0.1","MEVO","3","f","rechts","24","","fixation","","","",""
"1224","img/150_240.png","74","image-keyboard-response","9","24803","0.0-6.0-1.1","MEVO","3","f","rechts","24","","","object","j","150","true"
"null","<div style=""font-size:60px;"">+</div>","null","html-keyboard-response","10","25205","0.0-6.0-0.2","MEVO","3","f","rechts","24","","fixation","","","",""
"832","img/60_270.png","74","image-keyboard-response","11","26038","0.0-6.0-1.2","MEVO","3","f","rechts","24","","","object","f","60","false"
"null","<div style=""font-size:60px;"">+</div>","null","html-keyboard-response","12","26490","0.0-6.0-0.3","MEVO","3","f","rechts","24","","fixation","","","",""
"1255","img/L30_180.png","74","image-keyboard-response","13","27746","0.0-6.0-1.3","MEVO","3","f","rechts","24","","","object","j","30","true"
"null","<div style=""font-size:60px;"">+</div>","null","html-keyboard-response","14","28097","0.0-6.0-0.4","MEVO","3","f","rechts","24","","fixation","","","",""
"1189","img/150_60.png","70","image-keyboard-response","15","29287","0.0-6.0-1.4","MEVO","3","f","rechts","24","","","object","f","150","true"
"null","<div style=""font-size:60px;"">+</div>","null","html-keyboard-response","16","29789","0.0-6.0-0.5","MEVO","3","f","rechts","24","","fixation","","","",""
"899","img/30_60.png","70","image-keyboard-response","17","30688","0.0-6.0-1.5","MEVO","3","f","rechts","24","","","object","j","30","false"
"null","<div style=""font-size:60px;"">+</div>","null","html-keyboard-response","18","31090","0.0-6.0-0.6","MEVO","3","f","rechts","24","","fixation","","","",""
"768","img/60_30.png","70","image-keyboard-response","19","31859","0.0-6.0-1.6","MEVO","3","f","rechts","24","","","object","f","60","true"
"null","<div style=""font-size:60px;"">+</div>","null","html-keyboard-response","20","32310","0.0-6.0-0.7","MEVO","3","f","rechts","24","","fixation","","","",""
"788","img/0_90.png","74","image-keyboard-response","21","33099","0.0-6.0-1.7","MEVO","3","f","rechts","24","","","object","j","0","true"
"null","<div style=""font-size:60px;"">+</div>","null","html-keyboard-response","22","33451","0.0-6.0-0.8","MEVO","3","f","rechts","24","","fixation","","","",""
"1225","img/90_60.png","74","image-keyboard-response","23","34677","0.0-6.0-1.8","MEVO","3","f","rechts","24","","","object","f","90","false"
"null","<div style=""font-size:60px;"">+</div>","null","html-keyboard-response","24","35179","0.0-6.0-0.9","MEVO","3","f","rechts","24","","fixation","","","",""
"845","img/0_330.png","70","image-keyboard-response","25","36024","0.0-6.0-1.9","MEVO","3","f","rechts","24","","","object","f","0","true"
"null","<div style=""font-size:60px;"">+</div>","null","html-keyboard-response","26","36376","0.0-6.0-0.10","MEVO","3","f","rechts","24","","fixation","","","",""
"1052","img/150_90.png","70","image-keyboard-response","27","37428","0.0-6.0-1.10","MEVO","3","f","rechts","24","","","object","f","150","true"
"null","<div style=""font-size:60px;"">+</div>","null","html-keyboard-response","28","37830","0.0-6.0-0.11","MEVO","3","f","rechts","24","","fixation","","","",""
"951","img/0_210.png","70","image-keyboard-response","29","38782","0.0-6.0-1.11","MEVO","3","f","rechts","24","","","object","f","0","true"
"null","<div style=""font-size:60px;"">+</div>","null","html-keyboard-response","30","39083","0.0-6.0-0.12","MEVO","3","f","rechts","24","","fixation","","","",""
"980","img/0_120.png","74","image-keyboard-response","31","40064","0.0-6.0-1.12","MEVO","3","f","rechts","24","","","object","j","0","true"
"null","<div style=""font-size:60px;"">+</div>","null","html-keyboard-response","32","40466","0.0-6.0-0.13","MEVO","3","f","rechts","24","","fixation","","","",""
"1108","img/150_120.png","70","image-keyboard-response","33","41574","0.0-6.0-1.13","MEVO","3","f","rechts","24","","","object","f","150","true"
"null","<div style=""font-size:60px;"">+</div>","null","html-keyboard-response","34","42026","0.0-6.0-0.14","MEVO","3","f","rechts","24","","fixation","","","",""
"1302","img/30_240.png","70","image-keyboard-response","35","43329","0.0-6.0-1.14","MEVO","3","f","rechts","24","","","object","f","30","true"
"null","<div style=""font-size:60px;"">+</div>","null","html-keyboard-response","36","43630","0.0-6.0-0.15","MEVO","3","f","rechts","24","","fixation","","","",""
"1257","img/30_180.png","70","image-keyboard-response","37","44889","0.0-6.0-1.15","MEVO","3","f","rechts","24","","","object","f","30","true"
"null","<div style=""font-size:60px;"">+</div>","null","html-keyboard-response","38","45390","0.0-6.0-0.16","MEVO","3","f","rechts","24","","fixation","","","",""
"1186","img/90_240.png","74","image-keyboard-response","39","46578","0.0-6.0-1.16","MEVO","3","f","rechts","24","","","object","f","90","false"
"null","<div style=""font-size:60px;"">+</div>","null","html-keyboard-response","40","47029","0.0-6.0-0.17","MEVO","3","f","rechts","24","","fixation","","","",""
"1726","img/90_180.png","70","image-keyboard-response","41","48757","0.0-6.0-1.17","MEVO","3","f","rechts","24","","","object","f","90","true"
"null","<div style=""font-size:60px;"">+</div>","null","html-keyboard-response","42","49058","0.0-6.0-0.18","MEVO","3","f","rechts","24","","fixation","","","",""
"1324","img/120_90.png","70","image-keyboard-response","43","50383","0.0-6.0-1.18","MEVO","3","f","rechts","24","","","object","f","120","true"
"null","<div style=""font-size:60px;"">+</div>","null","html-keyboard-response","44","50734","0.0-6.0-0.19","MEVO","3","f","rechts","24","","fixation","","","",""
"1254","img/L60_180.png","74","image-keyboard-response","45","51989","0.0-6.0-1.19","MEVO","3","f","rechts","24","","","object","j","60","true"
"null","<div style=""font-size:60px;"">+</div>","null","html-keyboard-response","46","52340","0.0-6.0-0.20","MEVO","3","f","rechts","24","","fixation","","","",""
"1176","img/90_210.png","70","image-keyboard-response","47","53518","0.0-6.0-1.20","MEVO","3","f","rechts","24","","","object","f","90","true"
"null","<div style=""font-size:60px;"">+</div>","null","html-keyboard-response","48","53919","0.0-6.0-0.21","MEVO","3","f","rechts","24","","fixation","","","",""
"965","img/90_30.png","70","image-keyboard-response","49","54886","0.0-6.0-1.21","MEVO","3","f","rechts","24","","","object","f","90","true"
"null","<div style=""font-size:60px;"">+</div>","null","html-keyboard-response","50","55287","0.0-6.0-0.22","MEVO","3","f","rechts","24","","fixation","","","",""
"1344","img/120_270.png","74","image-keyboard-response","51","56633","0.0-6.0-1.22","MEVO","3","f","rechts","24","","","object","j","120","true"
"null","<div style=""font-size:60px;"">+</div>","null","html-keyboard-response","52","57034","0.0-6.0-0.23","MEVO","3","f","rechts","24","","fixation","","","",""
"966","img/0_240.png","70","image-keyboard-response","53","58002","0.0-6.0-1.23","MEVO","3","f","rechts","24","","","object","f","0","true"
"null","<div style=""font-size:60px;"">+</div>","null","html-keyboard-response","54","58403","0.0-6.0-0.24","MEVO","3","f","rechts","24","","fixation","","","",""
"1187","img/150_300.png","74","image-keyboard-response","55","59591","0.0-6.0-1.24","MEVO","3","f","rechts","24","","","object","j","150","true"
"null","<div style=""font-size:60px;"">+</div>","null","html-keyboard-response","56","59893","0.0-6.0-0.25","MEVO","3","f","rechts","24","","fixation","","","",""
"1079","img/60_180.png","70","image-keyboard-response","57","60974","0.0-6.0-1.25","MEVO","3","f","rechts","24","","","object","f","60","true"
"null","<div style=""font-size:60px;"">+</div>","null","html-keyboard-response","58","61275","0.0-6.0-0.26","MEVO","3","f","rechts","24","","fixation","","","",""
"1638","img/0_270.png","70","image-keyboard-response","59","62914","0.0-6.0-1.26","MEVO","3","f","rechts","24","","","object","f","0","true"
"null","<div style=""font-size:60px;"">+</div>","null","html-keyboard-response","60","63416","0.0-6.0-0.27","MEVO","3","f","rechts","24","","fixation","","","",""
"695","img/90_330.png","74","image-keyboard-response","61","64113","0.0-6.0-1.27","MEVO","3","f","rechts","24","","","object","j","90","true"
"null","<div style=""font-size:60px;"">+</div>","null","html-keyboard-response","62","64614","0.0-6.0-0.28","MEVO","3","f","rechts","24","","fixation","","","",""
"886","img/30_270.png","70","image-keyboard-response","63","65501","0.0-6.0-1.28","MEVO","3","f","rechts","24","","","object","f","30","true"
"null","<div style=""font-size:60px;"">+</div>","null","html-keyboard-response","64","65953","0.0-6.0-0.29","MEVO","3","f","rechts","24","","fixation","","","",""
"917","img/60_210.png","70","image-keyboard-response","65","66872","0.0-6.0-1.29","MEVO","3","f","rechts","24","","","object","f","60","true"
"null","<div style=""font-size:60px;"">+</div>","null","html-keyboard-response","66","67223","0.0-6.0-0.30","MEVO","3","f","rechts","24","","fixation","","","",""
"1114","img/90_120.png","70","image-keyboard-response","67","68338","0.0-6.0-1.30","MEVO","3","f","rechts","24","","","object","j","90","false"
"null","<div style=""font-size:60px;"">+</div>","null","html-keyboard-response","68","68690","0.0-6.0-0.31","MEVO","3","f","rechts","24","","fixation","","","",""
"1035","img/150_180.png","70","image-keyboard-response","69","69726","0.0-6.0-1.31","MEVO","3","f","rechts","24","","","object","f","150","true"
"null","<div style=""font-size:60px;"">+</div>","null","html-keyboard-response","70","70027","0.0-6.0-0.32","MEVO","3","f","rechts","24","","fixation","","","",""
"1004","img/30_300.png","70","image-keyboard-response","71","71033","0.0-6.0-1.32","MEVO","3","f","rechts","24","","","object","f","30","true"
"null","<div style=""font-size:60px;"">+</div>","null","html-keyboard-response","72","71484","0.0-6.0-0.33","MEVO","3","f","rechts","24","","fixation","","","",""
"1071","img/60_90.png","70","image-keyboard-response","73","72556","0.0-6.0-1.33","MEVO","3","f","rechts","24","","","object","j","60","false"
"null","<div style=""font-size:60px;"">+</div>","null","html-keyboard-response","74","72958","0.0-6.0-0.34","MEVO","3","f","rechts","24","","fixation","","","",""
"1396","img/60_150.png","74","image-keyboard-response","75","74354","0.0-6.0-1.34","MEVO","3","f","rechts","24","","","object","j","60","true"
"null","<div style=""font-size:60px;"">+</div>","null","html-keyboard-response","76","74656","0.0-6.0-0.35","MEVO","3","f","rechts","24","","fixation","","","",""
"745","img/0_60.png","74","image-keyboard-response","77","75402","0.0-6.0-1.35","MEVO","3","f","rechts","24","","","object","j","0","true"
"null","<div style=""font-size:60px;"">+</div>","null","html-keyboard-response","78","75754","0.0-6.0-0.36","MEVO","3","f","rechts","24","","fixation","","","",""
"1095","img/150_270.png","74","image-keyboard-response","79","76850","0.0-6.0-1.36","MEVO","3","f","rechts","24","","","object","j","150","true"
"null","<div style=""font-size:60px;"">+</div>","null","html-keyboard-response","80","77202","0.0-6.0-0.37","MEVO","3","f","rechts","24","","fixation","","","",""
"910","img/0_300.png","70","image-keyboard-response","81","78112","0.0-6.0-1.37","MEVO","3","f","rechts","24","","","object","f","0","true"
"null","<div style=""font-size:60px;"">+</div>","null","html-keyboard-response","82","78514","0.0-6.0-0.38","MEVO","3","f","rechts","24","","fixation","","","",""
"913","img/L90_180.png","74","image-keyboard-response","83","79428","0.0-6.0-1.38","MEVO","3","f","rechts","24","","","object","j","90","true"
"null","<div style=""font-size:60px;"">+</div>","null","html-keyboard-response","84","79730","0.0-6.0-0.39","MEVO","3","f","rechts","24","","fixation","","","",""
"1062","img/60_330.png","74","image-keyboard-response","85","80793","0.0-6.0-1.39","MEVO","3","f","rechts","24","","","object","j","60","true"
"null","<div style=""font-size:60px;"">+</div>","null","html-keyboard-response","86","81145","0.0-6.0-0.40","MEVO","3","f","rechts","24","","fixation","","","",""
"1282","img/L120_180.png","74","image-keyboard-response","87","82428","0.0-6.0-1.40","MEVO","3","f","rechts","24","","","object","j","120","true"
"null","<div style=""font-size:60px;"">+</div>","null","html-keyboard-response","88","82880","0.0-6.0-0.41","MEVO","3","f","rechts","24","","fixation","","","",""
"977","img/120_150.png","74","image-keyboard-response","89","83857","0.0-6.0-1.41","MEVO","3","f","rechts","24","","","object","j","120","true"
"null","<div style=""font-size:60px;"">+</div>","null","html-keyboard-response","90","84209","0.0-6.0-0.42","MEVO","3","f","rechts","24","","fixation","","","",""
"1714","img/120_210.png","74","image-keyboard-response","91","85923","0.0-6.0-1.42","MEVO","3","f","rechts","24","","","object","f","120","false"
"null","<div style=""font-size:60px;"">+</div>","null","html-keyboard-response","92","86225","0.0-6.0-0.43","MEVO","3","f","rechts","24","","fixation","","","",""
"802","img/0_30.png","74","image-keyboard-response","93","87028","0.0-6.0-1.43","MEVO","3","f","rechts","24","","","object","j","0","true"
"null","<div style=""font-size:60px;"">+</div>","null","html-keyboard-response","94","87330","0.0-6.0-0.44","MEVO","3","f","rechts","24","","fixation","","","",""
"995","img/30_120.png","74","image-keyboard-response","95","88325","0.0-6.0-1.44","MEVO","3","f","rechts","24","","","object","j","30","true"
"null","<div style=""font-size:60px;"">+</div>","null","html-keyboard-response","96","88727","0.0-6.0-0.45","MEVO","3","f","rechts","24","","fixation","","","",""
"754","img/0_150.png","74","image-keyboard-response","97","89482","0.0-6.0-1.45","MEVO","3","f","rechts","24","","","object","j","0","true"
"null","<div style=""font-size:60px;"">+</div>","null","html-keyboard-response","98","89833","0.0-6.0-0.46","MEVO","3","f","rechts","24","","fixation","","","",""
"949","img/30_90.png","74","image-keyboard-response","99","90783","0.0-6.0-1.46","MEVO","3","f","rechts","24","","","object","j","30","true"
"null","<div style=""font-size:60px;"">+</div>","null","html-keyboard-response","100","91285","0.0-6.0-0.47","MEVO","3","f","rechts","24","","fixation","","","",""
"1235","img/L150_180.png","74","image-keyboard-response","101","92520","0.0-6.0-1.47","MEVO","3","f","rechts","24","","","object","j","150","true"
"null","<div style=""font-size:60px;"">+</div>","null","html-keyboard-response","102","93021","0.0-6.0-0.48","MEVO","3","f","rechts","24","","fixation","","","",""
"970","img/90_150.png","74","image-keyboard-response","103","93992","0.0-6.0-1.48","MEVO","3","f","rechts","24","","","object","j","90","true"
"null","<div style=""font-size:60px;"">+</div>","null","html-keyboard-response","104","94493","0.0-6.0-0.49","MEVO","3","f","rechts","24","","fixation","","","",""
"1678","img/120_180.png","70","image-keyboard-response","105","96171","0.0-6.0-1.49","MEVO","3","f","rechts","24","","","object","f","120","true"
"null","<div style=""font-size:60px;"">+</div>","null","html-keyboard-response","106","96573","0.0-6.0-0.50","MEVO","3","f","rechts","24","","fixation","","","",""
"953","img/120_30.png","70","image-keyboard-response","107","97527","0.0-6.0-1.50","MEVO","3","f","rechts","24","","","object","f","120","true"
"null","<div style=""font-size:60px;"">+</div>","null","html-keyboard-response","108","97829","0.0-6.0-0.51","MEVO","3","f","rechts","24","","fixation","","","",""
"888","img/90_300.png","70","image-keyboard-response","109","98717","0.0-6.0-1.51","MEVO","3","f","rechts","24","","","object","j","90","false"
"null","<div style=""font-size:60px;"">+</div>","null","html-keyboard-response","110","99069","0.0-6.0-0.52","MEVO","3","f","rechts","24","","fixation","","","",""
"1096","img/30_60.png","74","image-keyboard-response","111","100166","0.0-6.0-1.52","MEVO","3","f","rechts","24","","","object","j","30","true"
"null","<div style=""font-size:60px;"">+</div>","null","html-keyboard-response","112","100567","0.0-6.0-0.53","MEVO","3","f","rechts","24","","fixation","","","",""
"1077","img/L30_180.png","74","image-keyboard-response","113","101645","0.0-6.0-1.53","MEVO","3","f","rechts","24","","","object","j","30","true"
"null","<div style=""font-size:60px;"">+</div>","null","html-keyboard-response","114","101947","0.0-6.0-0.54","MEVO","3","f","rechts","24","","fixation","","","",""
"982","img/120_330.png","74","image-keyboard-response","115","102929","0.0-6.0-1.54","MEVO","3","f","rechts","24","","","object","j","120","true"
"null","<div style=""font-size:60px;"">+</div>","null","html-keyboard-response","116","103381","0.0-6.0-0.55","MEVO","3","f","rechts","24","","fixation","","","",""
"894","img/90_120.png","74","image-keyboard-response","117","104276","0.0-6.0-1.55","MEVO","3","f","rechts","24","","","object","j","90","true"
"null","<div style=""font-size:60px;"">+</div>","null","html-keyboard-response","118","104627","0.0-6.0-0.56","MEVO","3","f","rechts","24","","fixation","","","",""
"1123","img/90_330.png","74","image-keyboard-response","119","105752","0.0-6.0-1.56","MEVO","3","f","rechts","24","","","object","j","90","true"
"null","<div style=""font-size:60px;"">+</div>","null","html-keyboard-response","120","106053","0.0-6.0-0.57","MEVO","3","f","rechts","24","","fixation","","","",""
"898","img/0_150.png","74","image-keyboard-response","121","106951","0.0-6.0-1.57","MEVO","3","f","rechts","24","","","object","j","0","true"
"null","<div style=""font-size:60px;"">+</div>","null","html-keyboard-response","122","107303","0.0-6.0-0.58","MEVO","3","f","rechts","24","","fixation","","","",""
"1242","img/0_270.png","74","image-keyboard-response","123","108546","0.0-6.0-1.58","MEVO","3","f","rechts","24","","","object","f","0","false"
"null","<div style=""font-size:60px;"">+</div>","null","html-keyboard-response","124","108898","0.0-6.0-0.59","MEVO","3","f","rechts","24","","fixation","","","",""
"886","img/L90_180.png","74","image-keyboard-response","125","109785","0.0-6.0-1.59","MEVO","3","f","rechts","24","","","object","j","90","true"
"null","<div style=""font-size:60px;"">+</div>","null","html-keyboard-response","126","110187","0.0-6.0-0.60","MEVO","3","f","rechts","24","","fixation","","","",""
"987","img/120_90.png","74","image-keyboard-response","127","111176","0.0-6.0-1.60","MEVO","3","f","rechts","24","","","object","f","120","false"
"null","<div style=""font-size:60px;"">+</div>","null","html-keyboard-response","128","111577","0.0-6.0-0.61","MEVO","3","f","rechts","24","","fixation","","","",""
"791","img/0_60.png","74","image-keyboard-response","129","112370","0.0-6.0-1.61","MEVO","3","f","rechts","24","","","object","j","0","true"
"null","<div style=""font-size:60px;"">+</div>","null","html-keyboard-response","130","112721","0.0-6.0-0.62","MEVO","3","f","rechts","24","","fixation","","","",""
"921","img/150_90.png","70","image-keyboard-response","131","113643","0.0-6.0-1.62","MEVO","3","f","rechts","24","","","object","f","150","true"
"null","<div style=""font-size:60px;"">+</div>","null","html-keyboard-response","132","114145","0.0-6.0-0.63","MEVO","3","f","rechts","24","","fixation","","","",""
"705","img/120_30.png","70","image-keyboard-response","133","114851","0.0-6.0-1.63","MEVO","3","f","rechts","24","","","object","f","120","true"
"null","<div style=""font-size:60px;"">+</div>","null","html-keyboard-response","134","115353","0.0-6.0-0.64","MEVO","3","f","rechts","24","","fixation","","","",""
"809","img/30_270.png","70","image-keyboard-response","135","116162","0.0-6.0-1.64","MEVO","3","f","rechts","24","","","object","f","30","true"
"null","<div style=""font-size:60px;"">+</div>","null","html-keyboard-response","136","116664","0.0-6.0-0.65","MEVO","3","f","rechts","24","","fixation","","","",""
"810","img/0_120.png","74","image-keyboard-response","137","117475","0.0-6.0-1.65","MEVO","3","f","rechts","24","","","object","j","0","true"
"null","<div style=""font-size:60px;"">+</div>","null","html-keyboard-response","138","117777","0.0-6.0-0.66","MEVO","3","f","rechts","24","","fixation","","","",""
"980","img/L150_180.png","74","image-keyboard-response","139","118758","0.0-6.0-1.66","MEVO","3","f","rechts","24","","","object","j","150","true"
"null","<div style=""font-size:60px;"">+</div>","null","html-keyboard-response","140","119160","0.0-6.0-0.67","MEVO","3","f","rechts","24","","fixation","","","",""
"899","img/120_150.png","74","image-keyboard-response","141","120059","0.0-6.0-1.67","MEVO","3","f","rechts","24","","","object","j","120","true"
"null","<div style=""font-size:60px;"">+</div>","null","html-keyboard-response","142","120511","0.0-6.0-0.68","MEVO","3","f","rechts","24","","fixation","","","",""
"916","img/90_240.png","70","image-keyboard-response","143","121428","0.0-6.0-1.68","MEVO","3","f","rechts","24","","","object","f","90","true"
"null","<div style=""font-size:60px;"">+</div>","null","html-keyboard-response","144","121880","0.0-6.0-0.69","MEVO","3","f","rechts","24","","fixation","","","",""
"993","img/0_240.png","70","image-keyboard-response","145","122874","0.0-6.0-1.69","MEVO","3","f","rechts","24","","","object","f","0","true"
"null","<div style=""font-size:60px;"">+</div>","null","html-keyboard-response","146","123225","0.0-6.0-0.70","MEVO","3","f","rechts","24","","fixation","","","",""
"963","img/L120_180.png","74","image-keyboard-response","147","124188","0.0-6.0-1.70","MEVO","3","f","rechts","24","","","object","j","120","true"
"null","<div style=""font-size:60px;"">+</div>","null","html-keyboard-response","148","124490","0.0-6.0-0.71","MEVO","3","f","rechts","24","","fixation","","","",""
"1221","img/90_210.png","70","image-keyboard-response","149","125711","0.0-6.0-1.71","MEVO","3","f","rechts","24","","","object","f","90","true"
"null","<div style=""font-size:60px;"">+</div>","null","html-keyboard-response","150","126063","0.0-6.0-0.72","MEVO","3","f","rechts","24","","fixation","","","",""
"1198","img/150_60.png","70","image-keyboard-response","151","127261","0.0-6.0-1.72","MEVO","3","f","rechts","24","","","object","f","150","true"
"null","<div style=""font-size:60px;"">+</div>","null","html-keyboard-response","152","127563","0.0-6.0-0.73","MEVO","3","f","rechts","24","","fixation","","","",""
"922","img/60_150.png","74","image-keyboard-response","153","128485","0.0-6.0-1.73","MEVO","3","f","rechts","24","","","object","j","60","true"
"null","<div style=""font-size:60px;"">+</div>","null","html-keyboard-response","154","128937","0.0-6.0-0.74","MEVO","3","f","rechts","24","","fixation","","","",""
"717","img/0_90.png","74","image-keyboard-response","155","129655","0.0-6.0-1.74","MEVO","3","f","rechts","24","","","object","j","0","true"
"null","<div style=""font-size:60px;"">+</div>","null","html-keyboard-response","156","130107","0.0-6.0-0.75","MEVO","3","f","rechts","24","","fixation","","","",""
"766","img/60_30.png","70","image-keyboard-response","157","130873","0.0-6.0-1.75","MEVO","3","f","rechts","24","","","object","f","60","true"
"null","<div style=""font-size:60px;"">+</div>","null","html-keyboard-response","158","131225","0.0-6.0-0.76","MEVO","3","f","rechts","24","","fixation","","","",""
"974","img/30_240.png","70","image-keyboard-response","159","132200","0.0-6.0-1.76","MEVO","3","f","rechts","24","","","object","f","30","true"
"null","<div style=""font-size:60px;"">+</div>","null","html-keyboard-response","160","132602","0.0-6.0-0.77","MEVO","3","f","rechts","24","","fixation","","","",""
"910","img/90_30.png","70","image-keyboard-response","161","133513","0.0-6.0-1.77","MEVO","3","f","rechts","24","","","object","f","90","true"
"null","<div style=""font-size:60px;"">+</div>","null","html-keyboard-response","162","133865","0.0-6.0-0.78","MEVO","3","f","rechts","24","","fixation","","","",""
"860","img/60_210.png","70","image-keyboard-response","163","134726","0.0-6.0-1.78","MEVO","3","f","rechts","24","","","object","f","60","true"
"null","<div style=""font-size:60px;"">+</div>","null","html-keyboard-response","164","135177","0.0-6.0-0.79","MEVO","3","f","rechts","24","","fixation","","","",""
"897","img/90_180.png","70","image-keyboard-response","165","136075","0.0-6.0-1.79","MEVO","3","f","rechts","24","","","object","f","90","true"
"null","<div style=""font-size:60px;"">+</div>","null","html-keyboard-response","166","136577","0.0-6.0-0.80","MEVO","3","f","rechts","24","","fixation","","","",""
"896","img/90_60.png","70","image-keyboard-response","167","137473","0.0-6.0-1.80","MEVO","3","f","rechts","24","","","object","f","90","true"
"null","<div style=""font-size:60px;"">+</div>","null","html-keyboard-response","168","137924","0.0-6.0-0.81","MEVO","3","f","rechts","24","","fixation","","","",""
"811","img/0_330.png","70","image-keyboard-response","169","138736","0.0-6.0-1.81","MEVO","3","f","rechts","24","","","object","f","0","true"
"null","<div style=""font-size:60px;"">+</div>","null","html-keyboard-response","170","139088","0.0-6.0-0.82","MEVO","3","f","rechts","24","","fixation","","","",""
"960","img/90_150.png","74","image-keyboard-response","171","140048","0.0-6.0-1.82","MEVO","3","f","rechts","24","","","object","j","90","true"
"null","<div style=""font-size:60px;"">+</div>","null","html-keyboard-response","172","140550","0.0-6.0-0.83","MEVO","3","f","rechts","24","","fixation","","","",""
"892","img/L60_180.png","74","image-keyboard-response","173","141442","0.0-6.0-1.83","MEVO","3","f","rechts","24","","","object","j","60","true"
"null","<div style=""font-size:60px;"">+</div>","null","html-keyboard-response","174","141844","0.0-6.0-0.84","MEVO","3","f","rechts","24","","fixation","","","",""
"982","img/90_300.png","74","image-keyboard-response","175","142826","0.0-6.0-1.84","MEVO","3","f","rechts","24","","","object","j","90","true"
"null","<div style=""font-size:60px;"">+</div>","null","html-keyboard-response","176","143327","0.0-6.0-0.85","MEVO","3","f","rechts","24","","fixation","","","",""
"1090","img/30_180.png","70","image-keyboard-response","177","144417","0.0-6.0-1.85","MEVO","3","f","rechts","24","","","object","f","30","true"
"null","<div style=""font-size:60px;"">+</div>","null","html-keyboard-response","178","144918","0.0-6.0-0.86","MEVO","3","f","rechts","24","","fixation","","","",""
"810","img/150_300.png","74","image-keyboard-response","179","145729","0.0-6.0-1.86","MEVO","3","f","rechts","24","","","object","j","150","true"
"null","<div style=""font-size:60px;"">+</div>","null","html-keyboard-response","180","146180","0.0-6.0-0.87","MEVO","3","f","rechts","24","","fixation","","","",""
"943","img/60_180.png","70","image-keyboard-response","181","147125","0.0-6.0-1.87","MEVO","3","f","rechts","24","","","object","f","60","true"
"null","<div style=""font-size:60px;"">+</div>","null","html-keyboard-response","182","147626","0.0-6.0-0.88","MEVO","3","f","rechts","24","","fixation","","","",""
"694","img/120_270.png","74","image-keyboard-response","183","148321","0.0-6.0-1.88","MEVO","3","f","rechts","24","","","object","j","120","true"
"null","<div style=""font-size:60px;"">+</div>","null","html-keyboard-response","184","148723","0.0-6.0-0.89","MEVO","3","f","rechts","24","","fixation","","","",""
"941","img/60_90.png","70","image-keyboard-response","185","149664","0.0-6.0-1.89","MEVO","3","f","rechts","24","","","object","j","60","false"
"null","<div style=""font-size:60px;"">+</div>","null","html-keyboard-response","186","149966","0.0-6.0-0.90","MEVO","3","f","rechts","24","","fixation","","","",""
"1098","img/60_330.png","74","image-keyboard-response","187","151064","0.0-6.0-1.90","MEVO","3","f","rechts","24","","","object","j","60","true"
"null","<div style=""font-size:60px;"">+</div>","null","html-keyboard-response","188","151415","0.0-6.0-0.91","MEVO","3","f","rechts","24","","fixation","","","",""
"859","img/120_210.png","70","image-keyboard-response","189","152275","0.0-6.0-1.91","MEVO","3","f","rechts","24","","","object","f","120","true"
"null","<div style=""font-size:60px;"">+</div>","null","html-keyboard-response","190","152726","0.0-6.0-0.92","MEVO","3","f","rechts","24","","fixation","","","",""
"755","img/0_210.png","70","image-keyboard-response","191","153482","0.0-6.0-1.92","MEVO","3","f","rechts","24","","","object","f","0","true"
"null","<div style=""font-size:60px;"">+</div>","null","html-keyboard-response","192","153783","0.0-6.0-0.93","MEVO","3","f","rechts","24","","fixation","","","",""
"833","img/0_300.png","70","image-keyboard-response","193","154617","0.0-6.0-1.93","MEVO","3","f","rechts","24","","","object","f","0","true"
"null","<div style=""font-size:60px;"">+</div>","null","html-keyboard-response","194","155069","0.0-6.0-0.94","MEVO","3","f","rechts","24","","fixation","","","",""
"816","img/60_270.png","70","image-keyboard-response","195","155887","0.0-6.0-1.94","MEVO","3","f","rechts","24","","","object","f","60","true"
"null","<div style=""font-size:60px;"">+</div>","null","html-keyboard-response","196","156288","0.0-6.0-0.95","MEVO","3","f","rechts","24","","fixation","","","",""
"900","img/30_120.png","74","image-keyboard-response","197","157190","0.0-6.0-1.95","MEVO","3","f","rechts","24","","","object","j","30","true"
"null","<div style=""font-size:60px;"">+</div>","null","html-keyboard-response","198","157591","0.0-6.0-0.96","MEVO","3","f","rechts","24","","fixation","","","",""
"1157","img/150_180.png","70","image-keyboard-response","199","158750","0.0-6.0-1.96","MEVO","3","f","rechts","24","","","object","f","150","true"
"null","<div style=""font-size:60px;"">+</div>","null","html-keyboard-response","200","159201","0.0-6.0-0.97","MEVO","3","f","rechts","24","","fixation","","","",""
"852","img/30_90.png","74","image-keyboard-response","201","160054","0.0-6.0-1.97","MEVO","3","f","rechts","24","","","object","j","30","true"
"null","<div style=""font-size:60px;"">+</div>","null","html-keyboard-response","202","160406","0.0-6.0-0.98","MEVO","3","f","rechts","24","","fixation","","","",""
"835","img/30_300.png","70","image-keyboard-response","203","161242","0.0-6.0-1.98","MEVO","3","f","rechts","24","","","object","f","30","true"
"null","<div style=""font-size:60px;"">+</div>","null","html-keyboard-response","204","161744","0.0-6.0-0.99","MEVO","3","f","rechts","24","","fixation","","","",""
"938","img/120_180.png","70","image-keyboard-response","205","162683","0.0-6.0-1.99","MEVO","3","f","rechts","24","","","object","f","120","true"
"null","<div style=""font-size:60px;"">+</div>","null","html-keyboard-response","206","163135","0.0-6.0-0.100","MEVO","3","f","rechts","24","","fixation","","","",""
"930","img/150_240.png","74","image-keyboard-response","207","164066","0.0-6.0-1.100","MEVO","3","f","rechts","24","","","object","j","150","true"
"null","<div style=""font-size:60px;"">+</div>","null","html-keyboard-response","208","164368","0.0-6.0-0.101","MEVO","3","f","rechts","24","","fixation","","","",""
"1118","img/0_30.png","74","image-keyboard-response","209","165487","0.0-6.0-1.101","MEVO","3","f","rechts","24","","","object","j","0","true"
"null","<div style=""font-size:60px;"">+</div>","null","html-keyboard-response","210","165789","0.0-6.0-0.102","MEVO","3","f","rechts","24","","fixation","","","",""
"978","img/150_270.png","74","image-keyboard-response","211","166767","0.0-6.0-1.102","MEVO","3","f","rechts","24","","","object","j","150","true"
"null","<div style=""font-size:60px;"">+</div>","null","html-keyboard-response","212","167269","0.0-6.0-0.103","MEVO","3","f","rechts","24","","fixation","","","",""
"978","img/150_120.png","74","image-keyboard-response","213","168248","0.0-6.0-1.103","MEVO","3","f","rechts","24","","","object","f","150","false"
"null","<div style=""font-size:60px;"">+</div>","null","html-keyboard-response","214","168550","0.0-6.0-0.104","MEVO","3","f","rechts","24","","fixation","","","",""
"958","img/120_90.png","74","image-keyboard-response","215","169509","0.0-6.0-1.104","MEVO","3","f","rechts","24","","","object","f","120","false"
"null","<div style=""font-size:60px;"">+</div>","null","html-keyboard-response","216","170011","0.0-6.0-0.105","MEVO","3","f","rechts","24","","fixation","","","",""
"915","img/0_270.png","70","image-keyboard-response","217","170926","0.0-6.0-1.105","MEVO","3","f","rechts","24","","","object","f","0","true"
"null","<div style=""font-size:60px;"">+</div>","null","html-keyboard-response","218","171328","0.0-6.0-0.106","MEVO","3","f","rechts","24","","fixation","","","",""
"870","img/150_60.png","70","image-keyboard-response","219","172199","0.0-6.0-1.106","MEVO","3","f","rechts","24","","","object","f","150","true"
"null","<div style=""font-size:60px;"">+</div>","null","html-keyboard-response","220","172601","0.0-6.0-0.107","MEVO","3","f","rechts","24","","fixation","","","",""
"899","img/0_120.png","74","image-keyboard-response","221","173501","0.0-6.0-1.107","MEVO","3","f","rechts","24","","","object","j","0","true"
"null","<div style=""font-size:60px;"">+</div>","null","html-keyboard-response","222","173953","0.0-6.0-0.108","MEVO","3","f","rechts","24","","fixation","","","",""
"817","img/120_330.png","74","image-keyboard-response","223","174771","0.0-6.0-1.108","MEVO","3","f","rechts","24","","","object","j","120","true"
"null","<div style=""font-size:60px;"">+</div>","null","html-keyboard-response","224","175222","0.0-6.0-0.109","MEVO","3","f","rechts","24","","fixation","","","",""
"1085","img/90_150.png","74","image-keyboard-response","225","176308","0.0-6.0-1.109","MEVO","3","f","rechts","24","","","object","j","90","true"
"null","<div style=""font-size:60px;"">+</div>","null","html-keyboard-response","226","176660","0.0-6.0-0.110","MEVO","3","f","rechts","24","","fixation","","","",""
"893","img/30_60.png","74","image-keyboard-response","227","177554","0.0-6.0-1.110","MEVO","3","f","rechts","24","","","object","j","30","true"
"null","<div style=""font-size:60px;"">+</div>","null","html-keyboard-response","228","177956","0.0-6.0-0.111","MEVO","3","f","rechts","24","","fixation","","","",""
"898","img/30_270.png","70","image-keyboard-response","229","178854","0.0-6.0-1.111","MEVO","3","f","rechts","24","","","object","f","30","true"
"null","<div style=""font-size:60px;"">+</div>","null","html-keyboard-response","230","179206","0.0-6.0-0.112","MEVO","3","f","rechts","24","","fixation","","","",""
"923","img/L30_180.png","74","image-keyboard-response","231","180129","0.0-6.0-1.112","MEVO","3","f","rechts","24","","","object","j","30","true"
"null","<div style=""font-size:60px;"">+</div>","null","html-keyboard-response","232","180631","0.0-6.0-0.113","MEVO","3","f","rechts","24","","fixation","","","",""
"748","img/60_90.png","74","image-keyboard-response","233","181379","0.0-6.0-1.113","MEVO","3","f","rechts","24","","","object","j","60","true"
"null","<div style=""font-size:60px;"">+</div>","null","html-keyboard-response","234","181831","0.0-6.0-0.114","MEVO","3","f","rechts","24","","fixation","","","",""
"988","img/150_180.png","70","image-keyboard-response","235","182819","0.0-6.0-1.114","MEVO","3","f","rechts","24","","","object","f","150","true"
"null","<div style=""font-size:60px;"">+</div>","null","html-keyboard-response","236","183321","0.0-6.0-0.115","MEVO","3","f","rechts","24","","fixation","","","",""
"816","img/150_120.png","70","image-keyboard-response","237","184137","0.0-6.0-1.115","MEVO","3","f","rechts","24","","","object","f","150","true"
"null","<div style=""font-size:60px;"">+</div>","null","html-keyboard-response","238","184639","0.0-6.0-0.116","MEVO","3","f","rechts","24","","fixation","","","",""
"685","img/60_30.png","70","image-keyboard-response","239","185324","0.0-6.0-1.116","MEVO","3","f","rechts","24","","","object","f","60","true"
"null","<div style=""font-size:60px;"">+</div>","null","html-keyboard-response","240","185676","0.0-6.0-0.117","MEVO","3","f","rechts","24","","fixation","","","",""
"1113","img/L60_180.png","74","image-keyboard-response","241","186789","0.0-6.0-1.117","MEVO","3","f","rechts","24","","","object","j","60","true"
"null","<div style=""font-size:60px;"">+</div>","null","html-keyboard-response","242","187141","0.0-6.0-0.118","MEVO","3","f","rechts","24","","fixation","","","",""
"1076","img/0_90.png","74","image-keyboard-response","243","188217","0.0-6.0-1.118","MEVO","3","f","rechts","24","","","object","j","0","true"
"null","<div style=""font-size:60px;"">+</div>","null","html-keyboard-response","244","188668","0.0-6.0-0.119","MEVO","3","f","rechts","24","","fixation","","","",""
"811","img/120_180.png","70","image-keyboard-response","245","189481","0.0-6.0-1.119","MEVO","3","f","rechts","24","","","object","f","120","true"
"null","<div style=""font-size:60px;"">+</div>","null","html-keyboard-response","246","189832","0.0-6.0-0.120","MEVO","3","f","rechts","24","","fixation","","","",""
"833","img/90_30.png","70","image-keyboard-response","247","190666","0.0-6.0-1.120","MEVO","3","f","rechts","24","","","object","f","90","true"
"null","<div style=""font-size:60px;"">+</div>","null","html-keyboard-response","248","191017","0.0-6.0-0.121","MEVO","3","f","rechts","24","","fixation","","","",""
"1130","img/90_240.png","70","image-keyboard-response","249","192148","0.0-6.0-1.121","MEVO","3","f","rechts","24","","","object","f","90","true"
"null","<div style=""font-size:60px;"">+</div>","null","html-keyboard-response","250","192449","0.0-6.0-0.122","MEVO","3","f","rechts","24","","fixation","","","",""
"716","img/90_330.png","74","image-keyboard-response","251","193166","0.0-6.0-1.122","MEVO","3","f","rechts","24","","","object","j","90","true"
"null","<div style=""font-size:60px;"">+</div>","null","html-keyboard-response","252","193467","0.0-6.0-0.123","MEVO","3","f","rechts","24","","fixation","","","",""
"1133","img/30_240.png","70","image-keyboard-response","253","194600","0.0-6.0-1.123","MEVO","3","f","rechts","24","","","object","f","30","true"
"null","<div style=""font-size:60px;"">+</div>","null","html-keyboard-response","254","195052","0.0-6.0-0.124","MEVO","3","f","rechts","24","","fixation","","","",""
"832","img/150_270.png","74","image-keyboard-response","255","195885","0.0-6.0-1.124","MEVO","3","f","rechts","24","","","object","j","150","true"
"null","<div style=""font-size:60px;"">+</div>","null","html-keyboard-response","256","196386","0.0-6.0-0.125","MEVO","3","f","rechts","24","","fixation","","","",""
"839","img/0_150.png","74","image-keyboard-response","257","197226","0.0-6.0-1.125","MEVO","3","f","rechts","24","","","object","j","0","true"
"null","<div style=""font-size:60px;"">+</div>","null","html-keyboard-response","258","197627","0.0-6.0-0.126","MEVO","3","f","rechts","24","","fixation","","","",""
"993","img/60_210.png","70","image-keyboard-response","259","198622","0.0-6.0-1.126","MEVO","3","f","rechts","24","","","object","f","60","true"
"null","<div style=""font-size:60px;"">+</div>","null","html-keyboard-response","260","198923","0.0-6.0-0.127","MEVO","3","f","rechts","24","","fixation","","","",""
"1075","img/30_120.png","74","image-keyboard-response","261","199999","0.0-6.0-1.127","MEVO","3","f","rechts","24","","","object","j","30","true"
"null","<div style=""font-size:60px;"">+</div>","null","html-keyboard-response","262","200501","0.0-6.0-0.128","MEVO","3","f","rechts","24","","fixation","","","",""
"809","img/90_210.png","70","image-keyboard-response","263","201310","0.0-6.0-1.128","MEVO","3","f","rechts","24","","","object","f","90","true"
"null","<div style=""font-size:60px;"">+</div>","null","html-keyboard-response","264","201712","0.0-6.0-0.129","MEVO","3","f","rechts","24","","fixation","","","",""
"757","img/60_330.png","74","image-keyboard-response","265","202470","0.0-6.0-1.129","MEVO","3","f","rechts","24","","","object","j","60","true"
"null","<div style=""font-size:60px;"">+</div>","null","html-keyboard-response","266","202871","0.0-6.0-0.130","MEVO","3","f","rechts","24","","fixation","","","",""
"758","img/120_270.png","74","image-keyboard-response","267","203631","0.0-6.0-1.130","MEVO","3","f","rechts","24","","","object","j","120","true"
"null","<div style=""font-size:60px;"">+</div>","null","html-keyboard-response","268","203932","0.0-6.0-0.131","MEVO","3","f","rechts","24","","fixation","","","",""
"1225","img/90_120.png","74","image-keyboard-response","269","205159","0.0-6.0-1.131","MEVO","3","f","rechts","24","","","object","j","90","true"
"null","<div style=""font-size:60px;"">+</div>","null","html-keyboard-response","270","205460","0.0-6.0-0.132","MEVO","3","f","rechts","24","","fixation","","","",""
"1067","img/90_180.png","70","image-keyboard-response","271","206528","0.0-6.0-1.132","MEVO","3","f","rechts","24","","","object","f","90","true"
"null","<div style=""font-size:60px;"">+</div>","null","html-keyboard-response","272","206880","0.0-6.0-0.133","MEVO","3","f","rechts","24","","fixation","","","",""
"802","img/150_240.png","74","image-keyboard-response","273","207684","0.0-6.0-1.133","MEVO","3","f","rechts","24","","","object","j","150","true"
"null","<div style=""font-size:60px;"">+</div>","null","html-keyboard-response","274","208085","0.0-6.0-0.134","MEVO","3","f","rechts","24","","fixation","","","",""
"819","img/0_60.png","74","image-keyboard-response","275","208906","0.0-6.0-1.134","MEVO","3","f","rechts","24","","","object","j","0","true"
"null","<div style=""font-size:60px;"">+</div>","null","html-keyboard-response","276","209357","0.0-6.0-0.135","MEVO","3","f","rechts","24","","fixation","","","",""
"814","img/0_240.png","70","image-keyboard-response","277","210172","0.0-6.0-1.135","MEVO","3","f","rechts","24","","","object","f","0","true"
"null","<div style=""font-size:60px;"">+</div>","null","html-keyboard-response","278","210674","0.0-6.0-0.136","MEVO","3","f","rechts","24","","fixation","","","",""
"761","img/0_300.png","70","image-keyboard-response","279","211436","0.0-6.0-1.136","MEVO","3","f","rechts","24","","","object","f","0","true"
"null","<div style=""font-size:60px;"">+</div>","null","html-keyboard-response","280","211837","0.0-6.0-0.137","MEVO","3","f","rechts","24","","fixation","","","",""
"683","img/90_300.png","74","image-keyboard-response","281","212522","0.0-6.0-1.137","MEVO","3","f","rechts","24","","","object","j","90","true"
"null","<div style=""font-size:60px;"">+</div>","null","html-keyboard-response","282","213023","0.0-6.0-0.138","MEVO","3","f","rechts","24","","fixation","","","",""
"759","img/60_180.png","70","image-keyboard-response","283","213783","0.0-6.0-1.138","MEVO","3","f","rechts","24","","","object","f","60","true"
"null","<div style=""font-size:60px;"">+</div>","null","html-keyboard-response","284","214135","0.0-6.0-0.139","MEVO","3","f","rechts","24","","fixation","","","",""
"1728","img/L150_180.png","74","image-keyboard-response","285","215865","0.0-6.0-1.139","MEVO","3","f","rechts","24","","","object","j","150","true"
"null","<div style=""font-size:60px;"">+</div>","null","html-keyboard-response","286","216166","0.0-6.0-0.140","MEVO","3","f","rechts","24","","fixation","","","",""
"1074","img/L90_180.png","74","image-keyboard-response","287","217242","0.0-6.0-1.140","MEVO","3","f","rechts","24","","","object","j","90","true"
"null","<div style=""font-size:60px;"">+</div>","null","html-keyboard-response","288","217593","0.0-6.0-0.141","MEVO","3","f","rechts","24","","fixation","","","",""
"1106","img/120_30.png","70","image-keyboard-response","289","218699","0.0-6.0-1.141","MEVO","3","f","rechts","24","","","object","f","120","true"
"null","<div style=""font-size:60px;"">+</div>","null","html-keyboard-response","290","219101","0.0-6.0-0.142","MEVO","3","f","rechts","24","","fixation","","","",""
"855","img/0_210.png","70","image-keyboard-response","291","219956","0.0-6.0-1.142","MEVO","3","f","rechts","24","","","object","f","0","true"
"null","<div style=""font-size:60px;"">+</div>","null","html-keyboard-response","292","220358","0.0-6.0-0.143","MEVO","3","f","rechts","24","","fixation","","","",""
"682","img/0_330.png","70","image-keyboard-response","293","221041","0.0-6.0-1.143","MEVO","3","f","rechts","24","","","object","f","0","true"
"null","<div style=""font-size:60px;"">+</div>","null","html-keyboard-response","294","221392","0.0-6.0-0.144","MEVO","3","f","rechts","24","","fixation","","","",""
"922","img/150_300.png","74","image-keyboard-response","295","222314","0.0-6.0-1.144","MEVO","3","f","rechts","24","","","object","j","150","true"
"null","<div style=""font-size:60px;"">+</div>","null","html-keyboard-response","296","222616","0.0-6.0-0.145","MEVO","3","f","rechts","24","","fixation","","","",""
"996","img/L120_180.png","74","image-keyboard-response","297","223612","0.0-6.0-1.145","MEVO","3","f","rechts","24","","","object","j","120","true"
"null","<div style=""font-size:60px;"">+</div>","null","html-keyboard-response","298","223914","0.0-6.0-0.146","MEVO","3","f","rechts","24","","fixation","","","",""
"916","img/60_270.png","70","image-keyboard-response","299","224830","0.0-6.0-1.146","MEVO","3","f","rechts","24","","","object","f","60","true"
"null","<div style=""font-size:60px;"">+</div>","null","html-keyboard-response","300","225282","0.0-6.0-0.147","MEVO","3","f","rechts","24","","fixation","","","",""
"807","img/30_300.png","70","image-keyboard-response","301","226090","0.0-6.0-1.147","MEVO","3","f","rechts","24","","","object","f","30","true"
"null","<div style=""font-size:60px;"">+</div>","null","html-keyboard-response","302","226442","0.0-6.0-0.148","MEVO","3","f","rechts","24","","fixation","","","",""
"996","img/90_60.png","70","image-keyboard-response","303","227439","0.0-6.0-1.148","MEVO","3","f","rechts","24","","","object","f","90","true"
"null","<div style=""font-size:60px;"">+</div>","null","html-keyboard-response","304","227741","0.0-6.0-0.149","MEVO","3","f","rechts","24","","fixation","","","",""
"783","img/0_30.png","74","image-keyboard-response","305","228524","0.0-6.0-1.149","MEVO","3","f","rechts","24","","","object","j","0","true"
"null","<div style=""font-size:60px;"">+</div>","null","html-keyboard-response","306","228926","0.0-6.0-0.150","MEVO","3","f","rechts","24","","fixation","","","",""
"1067","img/150_90.png","70","image-keyboard-response","307","229993","0.0-6.0-1.150","MEVO","3","f","rechts","24","","","object","f","150","true"
"null","<div style=""font-size:60px;"">+</div>","null","html-keyboard-response","308","230495","0.0-6.0-0.151","MEVO","3","f","rechts","24","","fixation","","","",""
"943","img/120_210.png","70","image-keyboard-response","309","231438","0.0-6.0-1.151","MEVO","3","f","rechts","24","","","object","f","120","true"
"null","<div style=""font-size:60px;"">+</div>","null","html-keyboard-response","310","231790","0.0-6.0-0.152","MEVO","3","f","rechts","24","","fixation","","","",""
"1008","img/60_150.png","74","image-keyboard-response","311","232798","0.0-6.0-1.152","MEVO","3","f","rechts","24","","","object","j","60","true"
"null","<div style=""font-size:60px;"">+</div>","null","html-keyboard-response","312","233300","0.0-6.0-0.153","MEVO","3","f","rechts","24","","fixation","","","",""
"796","img/120_150.png","74","image-keyboard-response","313","234096","0.0-6.0-1.153","MEVO","3","f","rechts","24","","","object","j","120","true"
"null","<div style=""font-size:60px;"">+</div>","null","html-keyboard-response","314","234398","0.0-6.0-0.154","MEVO","3","f","rechts","24","","fixation","","","",""
"1068","img/30_180.png","70","image-keyboard-response","315","235466","0.0-6.0-1.154","MEVO","3","f","rechts","24","","","object","f","30","true"
"null","<div style=""font-size:60px;"">+</div>","null","html-keyboard-response","316","235767","0.0-6.0-0.155","MEVO","3","f","rechts","24","","fixation","","","",""
"995","img/30_90.png","74","image-keyboard-response","317","236763","0.0-6.0-1.155","MEVO","3","f","rechts","24","","","object","j","30","true"
"null","<div style=""font-size:60px;"">+</div>","null","html-keyboard-response","318","237165","0.0-6.0-0.156","MEVO","3","f","rechts","24","","fixation","","","",""
"760","img/0_150.png","74","image-keyboard-response","319","237925","0.0-6.0-1.156","MEVO","3","f","rechts","24","","","object","j","0","true"
"null","<div style=""font-size:60px;"">+</div>","null","html-keyboard-response","320","238327","0.0-6.0-0.157","MEVO","3","f","rechts","24","","fixation","","","",""
"842","img/120_330.png","74","image-keyboard-response","321","239170","0.0-6.0-1.157","MEVO","3","f","rechts","24","","","object","j","120","true"
"null","<div style=""font-size:60px;"">+</div>","null","html-keyboard-response","322","239471","0.0-6.0-0.158","MEVO","3","f","rechts","24","","fixation","","","",""
"753","img/90_60.png","70","image-keyboard-response","323","240224","0.0-6.0-1.158","MEVO","3","f","rechts","24","","","object","f","90","true"
"null","<div style=""font-size:60px;"">+</div>","null","html-keyboard-response","324","240725","0.0-6.0-0.159","MEVO","3","f","rechts","24","","fixation","","","",""
"1201","img/L30_180.png","74","image-keyboard-response","325","241927","0.0-6.0-1.159","MEVO","3","f","rechts","24","","","object","j","30","true"
"null","<div style=""font-size:60px;"">+</div>","null","html-keyboard-response","326","242279","0.0-6.0-0.160","MEVO","3","f","rechts","24","","fixation","","","",""
"911","img/30_60.png","70","image-keyboard-response","327","243191","0.0-6.0-1.160","MEVO","3","f","rechts","24","","","object","j","30","false"
"null","<div style=""font-size:60px;"">+</div>","null","html-keyboard-response","328","243592","0.0-6.0-0.161","MEVO","3","f","rechts","24","","fixation","","","",""
"763","img/90_330.png","74","image-keyboard-response","329","244356","0.0-6.0-1.161","MEVO","3","f","rechts","24","","","object","j","90","true"
"null","<div style=""font-size:60px;"">+</div>","null","html-keyboard-response","330","244657","0.0-6.0-0.162","MEVO","3","f","rechts","24","","fixation","","","",""
"1093","img/30_240.png","74","image-keyboard-response","331","245750","0.0-6.0-1.162","MEVO","3","f","rechts","24","","","object","f","30","false"
"null","<div style=""font-size:60px;"">+</div>","null","html-keyboard-response","332","246152","0.0-6.0-0.163","MEVO","3","f","rechts","24","","fixation","","","",""
"810","img/90_300.png","74","image-keyboard-response","333","246962","0.0-6.0-1.163","MEVO","3","f","rechts","24","","","object","j","90","true"
"null","<div style=""font-size:60px;"">+</div>","null","html-keyboard-response","334","247464","0.0-6.0-0.164","MEVO","3","f","rechts","24","","fixation","","","",""
"732","img/120_90.png","70","image-keyboard-response","335","248196","0.0-6.0-1.164","MEVO","3","f","rechts","24","","","object","f","120","true"
"null","<div style=""font-size:60px;"">+</div>","null","html-keyboard-response","336","248548","0.0-6.0-0.165","MEVO","3","f","rechts","24","","fixation","","","",""
"1142","img/L60_180.png","74","image-keyboard-response","337","249690","0.0-6.0-1.165","MEVO","3","f","rechts","24","","","object","j","60","true"
"null","<div style=""font-size:60px;"">+</div>","null","html-keyboard-response","338","249991","0.0-6.0-0.166","MEVO","3","f","rechts","24","","fixation","","","",""
"941","img/150_60.png","70","image-keyboard-response","339","250933","0.0-6.0-1.166","MEVO","3","f","rechts","24","","","object","f","150","true"
"null","<div style=""font-size:60px;"">+</div>","null","html-keyboard-response","340","251384","0.0-6.0-0.167","MEVO","3","f","rechts","24","","fixation","","","",""
"1251","img/150_180.png","70","image-keyboard-response","341","252636","0.0-6.0-1.167","MEVO","3","f","rechts","24","","","object","f","150","true"
"null","<div style=""font-size:60px;"">+</div>","null","html-keyboard-response","342","253038","0.0-6.0-0.168","MEVO","3","f","rechts","24","","fixation","","","",""
"871","img/0_330.png","70","image-keyboard-response","343","253911","0.0-6.0-1.168","MEVO","3","f","rechts","24","","","object","f","0","true"
"null","<div style=""font-size:60px;"">+</div>","null","html-keyboard-response","344","254262","0.0-6.0-0.169","MEVO","3","f","rechts","24","","fixation","","","",""
"882","img/120_30.png","70","image-keyboard-response","345","255146","0.0-6.0-1.169","MEVO","3","f","rechts","24","","","object","f","120","true"
"null","<div style=""font-size:60px;"">+</div>","null","html-keyboard-response","346","255647","0.0-6.0-0.170","MEVO","3","f","rechts","24","","fixation","","","",""
"864","img/0_210.png","70","image-keyboard-response","347","256513","0.0-6.0-1.170","MEVO","3","f","rechts","24","","","object","f","0","true"
"null","<div style=""font-size:60px;"">+</div>","null","html-keyboard-response","348","256914","0.0-6.0-0.171","MEVO","3","f","rechts","24","","fixation","","","",""
"1071","img/90_240.png","70","image-keyboard-response","349","257986","0.0-6.0-1.171","MEVO","3","f","rechts","24","","","object","f","90","true"
"null","<div style=""font-size:60px;"">+</div>","null","html-keyboard-response","350","258388","0.0-6.0-0.172","MEVO","3","f","rechts","24","","fixation","","","",""
"981","img/30_90.png","74","image-keyboard-response","351","259371","0.0-6.0-1.172","MEVO","3","f","rechts","24","","","object","j","30","true"
"null","<div style=""font-size:60px;"">+</div>","null","html-keyboard-response","352","259822","0.0-6.0-0.173","MEVO","3","f","rechts","24","","fixation","","","",""
"904","img/60_210.png","70","image-keyboard-response","353","260727","0.0-6.0-1.173","MEVO","3","f","rechts","24","","","object","f","60","true"
"null","<div style=""font-size:60px;"">+</div>","null","html-keyboard-response","354","261129","0.0-6.0-0.174","MEVO","3","f","rechts","24","","fixation","","","",""
"997","img/60_270.png","70","image-keyboard-response","355","262127","0.0-6.0-1.174","MEVO","3","f","rechts","24","","","object","f","60","true"
"null","<div style=""font-size:60px;"">+</div>","null","html-keyboard-response","356","262629","0.0-6.0-0.175","MEVO","3","f","rechts","24","","fixation","","","",""
"928","img/30_120.png","74","image-keyboard-response","357","263559","0.0-6.0-1.175","MEVO","3","f","rechts","24","","","object","j","30","true"
"null","<div style=""font-size:60px;"">+</div>","null","html-keyboard-response","358","263860","0.0-6.0-0.176","MEVO","3","f","rechts","24","","fixation","","","",""
"959","img/90_210.png","70","image-keyboard-response","359","264820","0.0-6.0-1.176","MEVO","3","f","rechts","24","","","object","f","90","true"
"null","<div style=""font-size:60px;"">+</div>","null","html-keyboard-response","360","265172","0.0-6.0-0.177","MEVO","3","f","rechts","24","","fixation","","","",""
"826","img/0_120.png","74","image-keyboard-response","361","265999","0.0-6.0-1.177","MEVO","3","f","rechts","24","","","object","j","0","true"
"null","<div style=""font-size:60px;"">+</div>","null","html-keyboard-response","362","266401","0.0-6.0-0.178","MEVO","3","f","rechts","24","","fixation","","","",""
"991","img/90_30.png","70","image-keyboard-response","363","267393","0.0-6.0-1.178","MEVO","3","f","rechts","24","","","object","f","90","true"
"null","<div style=""font-size:60px;"">+</div>","null","html-keyboard-response","364","267795","0.0-6.0-0.179","MEVO","3","f","rechts","24","","fixation","","","",""
"1016","img/60_30.png","70","image-keyboard-response","365","268812","0.0-6.0-1.179","MEVO","3","f","rechts","24","","","object","f","60","true"
"null","<div style=""font-size:60px;"">+</div>","null","html-keyboard-response","366","269114","0.0-6.0-0.180","MEVO","3","f","rechts","24","","fixation","","","",""
"1378","img/60_150.png","74","image-keyboard-response","367","270493","0.0-6.0-1.180","MEVO","3","f","rechts","24","","","object","j","60","true"
"null","<div style=""font-size:60px;"">+</div>","null","html-keyboard-response","368","270945","0.0-6.0-0.181","MEVO","3","f","rechts","24","","fixation","","","",""
"796","img/0_60.png","74","image-keyboard-response","369","271742","0.0-6.0-1.181","MEVO","3","f","rechts","24","","","object","j","0","true"
"null","<div style=""font-size:60px;"">+</div>","null","html-keyboard-response","370","272044","0.0-6.0-0.182","MEVO","3","f","rechts","24","","fixation","","","",""
"1062","img/60_90.png","70","image-keyboard-response","371","273107","0.0-6.0-1.182","MEVO","3","f","rechts","24","","","object","j","60","false"
"null","<div style=""font-size:60px;"">+</div>","null","html-keyboard-response","372","273409","0.0-6.0-0.183","MEVO","3","f","rechts","24","","fixation","","","",""
"1004","img/120_150.png","74","image-keyboard-response","373","274415","0.0-6.0-1.183","MEVO","3","f","rechts","24","","","object","j","120","true"
"null","<div style=""font-size:60px;"">+</div>","null","html-keyboard-response","374","274816","0.0-6.0-0.184","MEVO","3","f","rechts","24","","fixation","","","",""
"899","img/30_300.png","70","image-keyboard-response","375","275716","0.0-6.0-1.184","MEVO","3","f","rechts","24","","","object","f","30","true"
"null","<div style=""font-size:60px;"">+</div>","null","html-keyboard-response","376","276118","0.0-6.0-0.185","MEVO","3","f","rechts","24","","fixation","","","",""
"1007","img/L90_180.png","74","image-keyboard-response","377","277126","0.0-6.0-1.185","MEVO","3","f","rechts","24","","","object","j","90","true"
"null","<div style=""font-size:60px;"">+</div>","null","html-keyboard-response","378","277527","0.0-6.0-0.186","MEVO","3","f","rechts","24","","fixation","","","",""
"1125","img/120_270.png","74","image-keyboard-response","379","278653","0.0-6.0-1.186","MEVO","3","f","rechts","24","","","object","j","120","true"
"null","<div style=""font-size:60px;"">+</div>","null","html-keyboard-response","380","279155","0.0-6.0-0.187","MEVO","3","f","rechts","24","","fixation","","","",""
"null","img/0_270.png","null","image-keyboard-response","381","282157","0.0-6.0-1.187","MEVO","3","f","rechts","24","","","object","f","0","false"
"null","<div style=""font-size:60px;"">+</div>","null","html-keyboard-response","382","282559","0.0-6.0-0.188","MEVO","3","f","rechts","24","","fixation","","","",""
"1332","img/150_240.png","74","image-keyboard-response","383","283892","0.0-6.0-1.188","MEVO","3","f","rechts","24","","","object","j","150","true"
"null","<div style=""font-size:60px;"">+</div>","null","html-keyboard-response","384","284244","0.0-6.0-0.189","MEVO","3","f","rechts","24","","fixation","","","",""
"783","img/0_300.png","70","image-keyboard-response","385","285027","0.0-6.0-1.189","MEVO","3","f","rechts","24","","","object","f","0","true"
"null","<div style=""font-size:60px;"">+</div>","null","html-keyboard-response","386","285529","0.0-6.0-0.190","MEVO","3","f","rechts","24","","fixation","","","",""
"689","img/60_330.png","74","image-keyboard-response","387","286218","0.0-6.0-1.190","MEVO","3","f","rechts","24","","","object","j","60","true"
"null","<div style=""font-size:60px;"">+</div>","null","html-keyboard-response","388","286720","0.0-6.0-0.191","MEVO","3","f","rechts","24","","fixation","","","",""
"979","img/L120_180.png","74","image-keyboard-response","389","287699","0.0-6.0-1.191","MEVO","3","f","rechts","24","","","object","j","120","true"
"null","<div style=""font-size:60px;"">+</div>","null","html-keyboard-response","390","288001","0.0-6.0-0.192","MEVO","3","f","rechts","24","","fixation","","","",""
"971","img/30_270.png","70","image-keyboard-response","391","288972","0.0-6.0-1.192","MEVO","3","f","rechts","24","","","object","f","30","true"
"null","<div style=""font-size:60px;"">+</div>","null","html-keyboard-response","392","289374","0.0-6.0-0.193","MEVO","3","f","rechts","24","","fixation","","","",""
"1079","img/150_90.png","70","image-keyboard-response","393","290453","0.0-6.0-1.193","MEVO","3","f","rechts","24","","","object","f","150","true"
"null","<div style=""font-size:60px;"">+</div>","null","html-keyboard-response","394","290905","0.0-6.0-0.194","MEVO","3","f","rechts","24","","fixation","","","",""
"811","img/0_90.png","74","image-keyboard-response","395","291717","0.0-6.0-1.194","MEVO","3","f","rechts","24","","","object","j","0","true"
"null","<div style=""font-size:60px;"">+</div>","null","html-keyboard-response","396","292219","0.0-6.0-0.195","MEVO","3","f","rechts","24","","fixation","","","",""
"906","img/60_180.png","70","image-keyboard-response","397","293125","0.0-6.0-1.195","MEVO","3","f","rechts","24","","","object","f","60","true"
"null","<div style=""font-size:60px;"">+</div>","null","html-keyboard-response","398","293527","0.0-6.0-0.196","MEVO","3","f","rechts","24","","fixation","","","",""
"982","img/30_180.png","70","image-keyboard-response","399","294509","0.0-6.0-1.196","MEVO","3","f","rechts","24","","","object","f","30","true"
"null","<div style=""font-size:60px;"">+</div>","null","html-keyboard-response","400","295010","0.0-6.0-0.197","MEVO","3","f","rechts","24","","fixation","","","",""
"866","img/L150_180.png","74","image-keyboard-response","401","295877","0.0-6.0-1.197","MEVO","3","f","rechts","24","","","object","j","150","true"
"null","<div style=""font-size:60px;"">+</div>","null","html-keyboard-response","402","296179","0.0-6.0-0.198","MEVO","3","f","rechts","24","","fixation","","","",""
"831","img/120_210.png","70","image-keyboard-response","403","297010","0.0-6.0-1.198","MEVO","3","f","rechts","24","","","object","f","120","true"
"null","<div style=""font-size:60px;"">+</div>","null","html-keyboard-response","404","297412","0.0-6.0-0.199","MEVO","3","f","rechts","24","","fixation","","","",""
"837","img/0_240.png","70","image-keyboard-response","405","298249","0.0-6.0-1.199","MEVO","3","f","rechts","24","","","object","f","0","true"
"null","<div style=""font-size:60px;"">+</div>","null","html-keyboard-response","406","298601","0.0-6.0-0.200","MEVO","3","f","rechts","24","","fixation","","","",""
"883","img/0_30.png","74","image-keyboard-response","407","299484","0.0-6.0-1.200","MEVO","3","f","rechts","24","","","object","j","0","true"
"null","<div style=""font-size:60px;"">+</div>","null","html-keyboard-response","408","299786","0.0-6.0-0.201","MEVO","3","f","rechts","24","","fixation","","","",""
"874","img/120_180.png","70","image-keyboard-response","409","300661","0.0-6.0-1.201","MEVO","3","f","rechts","24","","","object","f","120","true"
"null","<div style=""font-size:60px;"">+</div>","null","html-keyboard-response","410","300962","0.0-6.0-0.202","MEVO","3","f","rechts","24","","fixation","","","",""
"847","img/90_180.png","70","image-keyboard-response","411","301810","0.0-6.0-1.202","MEVO","3","f","rechts","24","","","object","f","90","true"
"null","<div style=""font-size:60px;"">+</div>","null","html-keyboard-response","412","302262","0.0-6.0-0.203","MEVO","3","f","rechts","24","","fixation","","","",""
"963","img/150_120.png","74","image-keyboard-response","413","303226","0.0-6.0-1.203","MEVO","3","f","rechts","24","","","object","f","150","false"
"null","<div style=""font-size:60px;"">+</div>","null","html-keyboard-response","414","303727","0.0-6.0-0.204","MEVO","3","f","rechts","24","","fixation","","","",""
"921","img/90_120.png","74","image-keyboard-response","415","304650","0.0-6.0-1.204","MEVO","3","f","rechts","24","","","object","j","90","true"
"null","<div style=""font-size:60px;"">+</div>","null","html-keyboard-response","416","305051","0.0-6.0-0.205","MEVO","3","f","rechts","24","","fixation","","","",""
"1233","img/150_270.png","74","image-keyboard-response","417","306286","0.0-6.0-1.205","MEVO","3","f","rechts","24","","","object","j","150","true"
"null","<div style=""font-size:60px;"">+</div>","null","html-keyboard-response","418","306738","0.0-6.0-0.206","MEVO","3","f","rechts","24","","fixation","","","",""
"1010","img/90_150.png","70","image-keyboard-response","419","307748","0.0-6.0-1.206","MEVO","3","f","rechts","24","","","object","j","90","false"
"null","<div style=""font-size:60px;"">+</div>","null","html-keyboard-response","420","308249","0.0-6.0-0.207","MEVO","3","f","rechts","24","","fixation","","","",""
"1295","img/150_300.png","74","image-keyboard-response","421","309546","0.0-6.0-1.207","MEVO","3","f","rechts","24","","","object","j","150","true"
"11225","<p>Du hast in 88% der Versuche korrekt entschieden.</p><p>Deine durchschnittliche Reaktionszeit war  969ms.</p><p>Dr&uuml;cke eine beliebige Taste, um die Session zu beenden. Vielen Dank!</p>","70","html-keyboard-response","422","320772","0.0-7.0","MEVO","3","f","rechts","24","","","","","",""
