"rt","stimulus","key_press","trial_type","trial_index","time_elapsed","internal_node_id","subject","session","sex","handedness","age","responses","test_part","condition","correct_response","angle","correct"
"2548","<p>Mental Rotation Experiment.</p> <p>Dr&uuml;cke eine beliebige Taste, um anzufangen.</p>","70","html-keyboard-response","0","2553","0.0-0.0","MEVO","2","f","rechts","24","","","","","",""
"3115","","","survey-text","1","5670","0.0-1.0","MEVO","2","f","rechts","24","{""Q0"":""MEVO""}","","","","",""
"1658","","","survey-text","2","7328","0.0-2.0","MEVO","2","f","rechts","24","{""Q0"":""2""}","","","","",""
"3926","","","survey-multi-choice","3","11257","0.0-3.0","MEVO","2","f","rechts","24","{""Q0"":""f"",""Q1"":""rechts""}","","","","",""
"2112","","","survey-text","4","13371","0.0-4.0","MEVO","2","f","rechts","24","{""Q0"":""24""}","","","","",""
"6666","<p>Stell dir vor, dass du vor einem runden Tisch stehst, auf dem sich ein blauer Ball am Tischrand befindet. Entlang des Tischrands ist jeweils ein verschieden langer Pfeil. Nun bleibst du an deinem Platz vor dem Tisch und rotierst den Tisch entlang des Pfeils (gleiche Richtung und Länge). </p> <img src='img/30_180.png'></img> <br><p> Nachdem du diese (vorgestellte) Rotation durchgef&uuml;hrt hast, schau in Richtung der Tischmitte, und entscheide dann, ob der Ball links oder rechts von dir liegt.</p> <p>Dr&uuml;cke die <strong>'f'</strong>-Taste f&uuml;r links, die <strong>'j'</strong>-Taste f&uuml;r rechts.</p><br><p> Das Bild wird jeweils 1 Sekunde lang pr&auml;sentiert. Du hast 3 Sekunden Zeit eine Entscheidung zu treffen.</p>","74","html-keyboard-response","5","20039","0.0-5.0","MEVO","2","f","rechts","24","","","","","",""
"null","<div style=""font-size:60px;"">+</div>","null","html-keyboard-response","6","21443","0.0-6.0-0.0","MEVO","2","f","rechts","24","","fixation","","","",""
"null","img/60_210.png","null","image-keyboard-response","7","24446","0.0-6.0-1.0","MEVO","2","f","rechts","24","","","object","f","60","false"
"null","<div style=""font-size:60px;"">+</div>","null","html-keyboard-response","8","24848","0.0-6.0-0.1","MEVO","2","f","rechts","24","","fixation","","","",""
"881","img/0_120.png","74","image-keyboard-response","9","25732","0.0-6.0-1.1","MEVO","2","f","rechts","24","","","object","j","0","true"
"null","<div style=""font-size:60px;"">+</div>","null","html-keyboard-response","10","26034","0.0-6.0-0.2","MEVO","2","f","rechts","24","","fixation","","","",""
"891","img/0_210.png","70","image-keyboard-response","11","26927","0.0-6.0-1.2","MEVO","2","f","rechts","24","","","object","f","0","true"
"null","<div style=""font-size:60px;"">+</div>","null","html-keyboard-response","12","27228","0.0-6.0-0.3","MEVO","2","f","rechts","24","","fixation","","","",""
"1254","img/90_120.png","74","image-keyboard-response","13","28483","0.0-6.0-1.3","MEVO","2","f","rechts","24","","","object","j","90","true"
"null","<div style=""font-size:60px;"">+</div>","null","html-keyboard-response","14","28835","0.0-6.0-0.4","MEVO","2","f","rechts","24","","fixation","","","",""
"1063","img/30_90.png","74","image-keyboard-response","15","29899","0.0-6.0-1.4","MEVO","2","f","rechts","24","","","object","j","30","true"
"null","<div style=""font-size:60px;"">+</div>","null","html-keyboard-response","16","30250","0.0-6.0-0.5","MEVO","2","f","rechts","24","","fixation","","","",""
"1103","img/L30_180.png","70","image-keyboard-response","17","31354","0.0-6.0-1.5","MEVO","2","f","rechts","24","","","object","j","30","false"
"null","<div style=""font-size:60px;"">+</div>","null","html-keyboard-response","18","31756","0.0-6.0-0.6","MEVO","2","f","rechts","24","","fixation","","","",""
"924","img/L90_180.png","74","image-keyboard-response","19","32682","0.0-6.0-1.6","MEVO","2","f","rechts","24","","","object","j","90","true"
"null","<div style=""font-size:60px;"">+</div>","null","html-keyboard-response","20","33183","0.0-6.0-0.7","MEVO","2","f","rechts","24","","fixation","","","",""
"876","img/30_60.png","70","image-keyboard-response","21","34061","0.0-6.0-1.7","MEVO","2","f","rechts","24","","","object","j","30","false"
"null","<div style=""font-size:60px;"">+</div>","null","html-keyboard-response","22","34412","0.0-6.0-0.8","MEVO","2","f","rechts","24","","fixation","","","",""
"890","img/L150_180.png","74","image-keyboard-response","23","35303","0.0-6.0-1.8","MEVO","2","f","rechts","24","","","object","j","150","true"
"null","<div style=""font-size:60px;"">+</div>","null","html-keyboard-response","24","35655","0.0-6.0-0.9","MEVO","2","f","rechts","24","","fixation","","","",""
"1305","img/60_270.png","74","image-keyboard-response","25","36961","0.0-6.0-1.9","MEVO","2","f","rechts","24","","","object","f","60","false"
"null","<div style=""font-size:60px;"">+</div>","null","html-keyboard-response","26","37463","0.0-6.0-0.10","MEVO","2","f","rechts","24","","fixation","","","",""
"830","img/90_300.png","74","image-keyboard-response","27","38294","0.0-6.0-1.10","MEVO","2","f","rechts","24","","","object","j","90","true"
"null","<div style=""font-size:60px;"">+</div>","null","html-keyboard-response","28","38596","0.0-6.0-0.11","MEVO","2","f","rechts","24","","fixation","","","",""
"887","img/0_90.png","74","image-keyboard-response","29","39484","0.0-6.0-1.11","MEVO","2","f","rechts","24","","","object","j","0","true"
"null","<div style=""font-size:60px;"">+</div>","null","html-keyboard-response","30","39936","0.0-6.0-0.12","MEVO","2","f","rechts","24","","fixation","","","",""
"2201","img/0_330.png","70","image-keyboard-response","31","42139","0.0-6.0-1.12","MEVO","2","f","rechts","24","","","object","f","0","true"
"null","<div style=""font-size:60px;"">+</div>","null","html-keyboard-response","32","42590","0.0-6.0-0.13","MEVO","2","f","rechts","24","","fixation","","","",""
"905","img/120_330.png","74","image-keyboard-response","33","43496","0.0-6.0-1.13","MEVO","2","f","rechts","24","","","object","j","120","true"
"null","<div style=""font-size:60px;"">+</div>","null","html-keyboard-response","34","43848","0.0-6.0-0.14","MEVO","2","f","rechts","24","","fixation","","","",""
"1131","img/60_90.png","70","image-keyboard-response","35","44980","0.0-6.0-1.14","MEVO","2","f","rechts","24","","","object","j","60","false"
"null","<div style=""font-size:60px;"">+</div>","null","html-keyboard-response","36","45282","0.0-6.0-0.15","MEVO","2","f","rechts","24","","fixation","","","",""
"833","img/0_300.png","70","image-keyboard-response","37","46116","0.0-6.0-1.15","MEVO","2","f","rechts","24","","","object","f","0","true"
"null","<div style=""font-size:60px;"">+</div>","null","html-keyboard-response","38","46468","0.0-6.0-0.16","MEVO","2","f","rechts","24","","fixation","","","",""
"929","img/0_240.png","70","image-keyboard-response","39","47398","0.0-6.0-1.16","MEVO","2","f","rechts","24","","","object","f","0","true"
"null","<div style=""font-size:60px;"">+</div>","null","html-keyboard-response","40","47750","0.0-6.0-0.17","MEVO","2","f","rechts","24","","fixation","","","",""
"1206","img/90_240.png","74","image-keyboard-response","41","48958","0.0-6.0-1.17","MEVO","2","f","rechts","24","","","object","f","90","false"
"null","<div style=""font-size:60px;"">+</div>","null","html-keyboard-response","42","49460","0.0-6.0-0.18","MEVO","2","f","rechts","24","","fixation","","","",""
"899","img/30_120.png","74","image-keyboard-response","43","50360","0.0-6.0-1.18","MEVO","2","f","rechts","24","","","object","j","30","true"
"null","<div style=""font-size:60px;"">+</div>","null","html-keyboard-response","44","50812","0.0-6.0-0.19","MEVO","2","f","rechts","24","","fixation","","","",""
"812","img/60_330.png","74","image-keyboard-response","45","51625","0.0-6.0-1.19","MEVO","2","f","rechts","24","","","object","j","60","true"
"null","<div style=""font-size:60px;"">+</div>","null","html-keyboard-response","46","52027","0.0-6.0-0.20","MEVO","2","f","rechts","24","","fixation","","","",""
"1369","img/150_300.png","74","image-keyboard-response","47","53397","0.0-6.0-1.20","MEVO","2","f","rechts","24","","","object","j","150","true"
"null","<div style=""font-size:60px;"">+</div>","null","html-keyboard-response","48","53799","0.0-6.0-0.21","MEVO","2","f","rechts","24","","fixation","","","",""
"860","img/120_270.png","74","image-keyboard-response","49","54660","0.0-6.0-1.21","MEVO","2","f","rechts","24","","","object","j","120","true"
"null","<div style=""font-size:60px;"">+</div>","null","html-keyboard-response","50","55011","0.0-6.0-0.22","MEVO","2","f","rechts","24","","fixation","","","",""
"1327","img/60_150.png","70","image-keyboard-response","51","56339","0.0-6.0-1.22","MEVO","2","f","rechts","24","","","object","j","60","false"
"null","<div style=""font-size:60px;"">+</div>","null","html-keyboard-response","52","56841","0.0-6.0-0.23","MEVO","2","f","rechts","24","","fixation","","","",""
"862","img/30_300.png","74","image-keyboard-response","53","57704","0.0-6.0-1.23","MEVO","2","f","rechts","24","","","object","f","30","false"
"null","<div style=""font-size:60px;"">+</div>","null","html-keyboard-response","54","58055","0.0-6.0-0.24","MEVO","2","f","rechts","24","","fixation","","","",""
"1811","img/150_90.png","74","image-keyboard-response","55","59867","0.0-6.0-1.24","MEVO","2","f","rechts","24","","","object","f","150","false"
"null","<div style=""font-size:60px;"">+</div>","null","html-keyboard-response","56","60269","0.0-6.0-0.25","MEVO","2","f","rechts","24","","fixation","","","",""
"1197","img/90_150.png","74","image-keyboard-response","57","61467","0.0-6.0-1.25","MEVO","2","f","rechts","24","","","object","j","90","true"
"null","<div style=""font-size:60px;"">+</div>","null","html-keyboard-response","58","61769","0.0-6.0-0.26","MEVO","2","f","rechts","24","","fixation","","","",""
"1204","img/90_330.png","74","image-keyboard-response","59","62975","0.0-6.0-1.26","MEVO","2","f","rechts","24","","","object","j","90","true"
"null","<div style=""font-size:60px;"">+</div>","null","html-keyboard-response","60","63426","0.0-6.0-0.27","MEVO","2","f","rechts","24","","fixation","","","",""
"1207","img/90_210.png","70","image-keyboard-response","61","64635","0.0-6.0-1.27","MEVO","2","f","rechts","24","","","object","f","90","true"
"null","<div style=""font-size:60px;"">+</div>","null","html-keyboard-response","62","64986","0.0-6.0-0.28","MEVO","2","f","rechts","24","","fixation","","","",""
"851","img/0_150.png","74","image-keyboard-response","63","65839","0.0-6.0-1.28","MEVO","2","f","rechts","24","","","object","j","0","true"
"null","<div style=""font-size:60px;"">+</div>","null","html-keyboard-response","64","66240","0.0-6.0-0.29","MEVO","2","f","rechts","24","","fixation","","","",""
"1063","img/150_240.png","74","image-keyboard-response","65","67304","0.0-6.0-1.29","MEVO","2","f","rechts","24","","","object","j","150","true"
"null","<div style=""font-size:60px;"">+</div>","null","html-keyboard-response","66","67606","0.0-6.0-0.30","MEVO","2","f","rechts","24","","fixation","","","",""
"949","img/90_60.png","70","image-keyboard-response","67","68557","0.0-6.0-1.30","MEVO","2","f","rechts","24","","","object","f","90","true"
"null","<div style=""font-size:60px;"">+</div>","null","html-keyboard-response","68","68859","0.0-6.0-0.31","MEVO","2","f","rechts","24","","fixation","","","",""
"1330","img/60_180.png","70","image-keyboard-response","69","70190","0.0-6.0-1.31","MEVO","2","f","rechts","24","","","object","f","60","true"
"null","<div style=""font-size:60px;"">+</div>","null","html-keyboard-response","70","70691","0.0-6.0-0.32","MEVO","2","f","rechts","24","","fixation","","","",""
"972","img/0_60.png","74","image-keyboard-response","71","71664","0.0-6.0-1.32","MEVO","2","f","rechts","24","","","object","j","0","true"
"null","<div style=""font-size:60px;"">+</div>","null","html-keyboard-response","72","72016","0.0-6.0-0.33","MEVO","2","f","rechts","24","","fixation","","","",""
"1393","img/120_150.png","74","image-keyboard-response","73","73410","0.0-6.0-1.33","MEVO","2","f","rechts","24","","","object","j","120","true"
"null","<div style=""font-size:60px;"">+</div>","null","html-keyboard-response","74","73712","0.0-6.0-0.34","MEVO","2","f","rechts","24","","fixation","","","",""
"1001","img/120_90.png","70","image-keyboard-response","75","74714","0.0-6.0-1.34","MEVO","2","f","rechts","24","","","object","f","120","true"
"null","<div style=""font-size:60px;"">+</div>","null","html-keyboard-response","76","75015","0.0-6.0-0.35","MEVO","2","f","rechts","24","","fixation","","","",""
"1398","img/150_180.png","70","image-keyboard-response","77","76416","0.0-6.0-1.35","MEVO","2","f","rechts","24","","","object","f","150","true"
"null","<div style=""font-size:60px;"">+</div>","null","html-keyboard-response","78","76767","0.0-6.0-0.36","MEVO","2","f","rechts","24","","fixation","","","",""
"1078","img/150_120.png","74","image-keyboard-response","79","77846","0.0-6.0-1.36","MEVO","2","f","rechts","24","","","object","f","150","false"
"null","<div style=""font-size:60px;"">+</div>","null","html-keyboard-response","80","78298","0.0-6.0-0.37","MEVO","2","f","rechts","24","","fixation","","","",""
"663","img/0_30.png","74","image-keyboard-response","81","78963","0.0-6.0-1.37","MEVO","2","f","rechts","24","","","object","j","0","true"
"null","<div style=""font-size:60px;"">+</div>","null","html-keyboard-response","82","79364","0.0-6.0-0.38","MEVO","2","f","rechts","24","","fixation","","","",""
"786","img/60_30.png","70","image-keyboard-response","83","80153","0.0-6.0-1.38","MEVO","2","f","rechts","24","","","object","f","60","true"
"null","<div style=""font-size:60px;"">+</div>","null","html-keyboard-response","84","80504","0.0-6.0-0.39","MEVO","2","f","rechts","24","","fixation","","","",""
"1319","img/120_210.png","74","image-keyboard-response","85","81825","0.0-6.0-1.39","MEVO","2","f","rechts","24","","","object","f","120","false"
"null","<div style=""font-size:60px;"">+</div>","null","html-keyboard-response","86","82176","0.0-6.0-0.40","MEVO","2","f","rechts","24","","fixation","","","",""
"1178","img/30_180.png","70","image-keyboard-response","87","83355","0.0-6.0-1.40","MEVO","2","f","rechts","24","","","object","f","30","true"
"null","<div style=""font-size:60px;"">+</div>","null","html-keyboard-response","88","83807","0.0-6.0-0.41","MEVO","2","f","rechts","24","","fixation","","","",""
"904","img/0_270.png","70","image-keyboard-response","89","84713","0.0-6.0-1.41","MEVO","2","f","rechts","24","","","object","f","0","true"
"null","<div style=""font-size:60px;"">+</div>","null","html-keyboard-response","90","85064","0.0-6.0-0.42","MEVO","2","f","rechts","24","","fixation","","","",""
"1219","img/30_240.png","70","image-keyboard-response","91","86285","0.0-6.0-1.42","MEVO","2","f","rechts","24","","","object","f","30","true"
"null","<div style=""font-size:60px;"">+</div>","null","html-keyboard-response","92","86737","0.0-6.0-0.43","MEVO","2","f","rechts","24","","fixation","","","",""
"1104","img/120_180.png","70","image-keyboard-response","93","87843","0.0-6.0-1.43","MEVO","2","f","rechts","24","","","object","f","120","true"
"null","<div style=""font-size:60px;"">+</div>","null","html-keyboard-response","94","88194","0.0-6.0-0.44","MEVO","2","f","rechts","24","","fixation","","","",""
"1346","img/L60_180.png","74","image-keyboard-response","95","89543","0.0-6.0-1.44","MEVO","2","f","rechts","24","","","object","j","60","true"
"null","<div style=""font-size:60px;"">+</div>","null","html-keyboard-response","96","89894","0.0-6.0-0.45","MEVO","2","f","rechts","24","","fixation","","","",""
"1039","img/90_30.png","70","image-keyboard-response","97","90935","0.0-6.0-1.45","MEVO","2","f","rechts","24","","","object","f","90","true"
"null","<div style=""font-size:60px;"">+</div>","null","html-keyboard-response","98","91387","0.0-6.0-0.46","MEVO","2","f","rechts","24","","fixation","","","",""
"1673","img/90_180.png","70","image-keyboard-response","99","93061","0.0-6.0-1.46","MEVO","2","f","rechts","24","","","object","f","90","true"
"null","<div style=""font-size:60px;"">+</div>","null","html-keyboard-response","100","93363","0.0-6.0-0.47","MEVO","2","f","rechts","24","","fixation","","","",""
"936","img/L120_180.png","74","image-keyboard-response","101","94300","0.0-6.0-1.47","MEVO","2","f","rechts","24","","","object","j","120","true"
"null","<div style=""font-size:60px;"">+</div>","null","html-keyboard-response","102","94802","0.0-6.0-0.48","MEVO","2","f","rechts","24","","fixation","","","",""
"856","img/120_30.png","70","image-keyboard-response","103","95659","0.0-6.0-1.48","MEVO","2","f","rechts","24","","","object","f","120","true"
"null","<div style=""font-size:60px;"">+</div>","null","html-keyboard-response","104","96111","0.0-6.0-0.49","MEVO","2","f","rechts","24","","fixation","","","",""
"1071","img/30_270.png","70","image-keyboard-response","105","97183","0.0-6.0-1.49","MEVO","2","f","rechts","24","","","object","f","30","true"
"null","<div style=""font-size:60px;"">+</div>","null","html-keyboard-response","106","97585","0.0-6.0-0.50","MEVO","2","f","rechts","24","","fixation","","","",""
"1188","img/150_270.png","70","image-keyboard-response","107","98774","0.0-6.0-1.50","MEVO","2","f","rechts","24","","","object","j","150","false"
"null","<div style=""font-size:60px;"">+</div>","null","html-keyboard-response","108","99076","0.0-6.0-0.51","MEVO","2","f","rechts","24","","fixation","","","",""
"1797","img/150_60.png","70","image-keyboard-response","109","100874","0.0-6.0-1.51","MEVO","2","f","rechts","24","","","object","f","150","true"
"null","<div style=""font-size:60px;"">+</div>","null","html-keyboard-response","110","101376","0.0-6.0-0.52","MEVO","2","f","rechts","24","","fixation","","","",""
"882","img/60_330.png","74","image-keyboard-response","111","102259","0.0-6.0-1.52","MEVO","2","f","rechts","24","","","object","j","60","true"
"null","<div style=""font-size:60px;"">+</div>","null","html-keyboard-response","112","102761","0.0-6.0-0.53","MEVO","2","f","rechts","24","","fixation","","","",""
"1165","img/150_300.png","74","image-keyboard-response","113","103927","0.0-6.0-1.53","MEVO","2","f","rechts","24","","","object","j","150","true"
"null","<div style=""font-size:60px;"">+</div>","null","html-keyboard-response","114","104379","0.0-6.0-0.54","MEVO","2","f","rechts","24","","fixation","","","",""
"942","img/60_210.png","70","image-keyboard-response","115","105321","0.0-6.0-1.54","MEVO","2","f","rechts","24","","","object","f","60","true"
"null","<div style=""font-size:60px;"">+</div>","null","html-keyboard-response","116","105773","0.0-6.0-0.55","MEVO","2","f","rechts","24","","fixation","","","",""
"1349","img/120_30.png","70","image-keyboard-response","117","107122","0.0-6.0-1.55","MEVO","2","f","rechts","24","","","object","f","120","true"
"null","<div style=""font-size:60px;"">+</div>","null","html-keyboard-response","118","107574","0.0-6.0-0.56","MEVO","2","f","rechts","24","","fixation","","","",""
"1556","img/120_90.png","70","image-keyboard-response","119","109131","0.0-6.0-1.56","MEVO","2","f","rechts","24","","","object","f","120","true"
"null","<div style=""font-size:60px;"">+</div>","null","html-keyboard-response","120","109632","0.0-6.0-0.57","MEVO","2","f","rechts","24","","fixation","","","",""
"1074","img/0_270.png","70","image-keyboard-response","121","110707","0.0-6.0-1.57","MEVO","2","f","rechts","24","","","object","f","0","true"
"null","<div style=""font-size:60px;"">+</div>","null","html-keyboard-response","122","111109","0.0-6.0-0.58","MEVO","2","f","rechts","24","","fixation","","","",""
"null","img/60_270.png","null","image-keyboard-response","123","114111","0.0-6.0-1.58","MEVO","2","f","rechts","24","","","object","f","60","false"
"null","<div style=""font-size:60px;"">+</div>","null","html-keyboard-response","124","114412","0.0-6.0-0.59","MEVO","2","f","rechts","24","","fixation","","","",""
"1087","img/30_240.png","74","image-keyboard-response","125","115500","0.0-6.0-1.59","MEVO","2","f","rechts","24","","","object","f","30","false"
"null","<div style=""font-size:60px;"">+</div>","null","html-keyboard-response","126","116002","0.0-6.0-0.60","MEVO","2","f","rechts","24","","fixation","","","",""
"null","img/0_30.png","null","image-keyboard-response","127","119004","0.0-6.0-1.60","MEVO","2","f","rechts","24","","","object","j","0","false"
"null","<div style=""font-size:60px;"">+</div>","null","html-keyboard-response","128","119306","0.0-6.0-0.61","MEVO","2","f","rechts","24","","fixation","","","",""
"624","img/L150_180.png","70","image-keyboard-response","129","119930","0.0-6.0-1.61","MEVO","2","f","rechts","24","","","object","j","150","false"
"null","<div style=""font-size:60px;"">+</div>","null","html-keyboard-response","130","120331","0.0-6.0-0.62","MEVO","2","f","rechts","24","","fixation","","","",""
"1439","img/30_180.png","70","image-keyboard-response","131","121772","0.0-6.0-1.62","MEVO","2","f","rechts","24","","","object","f","30","true"
"null","<div style=""font-size:60px;"">+</div>","null","html-keyboard-response","132","122223","0.0-6.0-0.63","MEVO","2","f","rechts","24","","fixation","","","",""
"1068","img/120_210.png","74","image-keyboard-response","133","123292","0.0-6.0-1.63","MEVO","2","f","rechts","24","","","object","f","120","false"
"null","<div style=""font-size:60px;"">+</div>","null","html-keyboard-response","134","123594","0.0-6.0-0.64","MEVO","2","f","rechts","24","","fixation","","","",""
"991","img/30_270.png","70","image-keyboard-response","135","124585","0.0-6.0-1.64","MEVO","2","f","rechts","24","","","object","f","30","true"
"null","<div style=""font-size:60px;"">+</div>","null","html-keyboard-response","136","124936","0.0-6.0-0.65","MEVO","2","f","rechts","24","","fixation","","","",""
"2369","img/120_150.png","70","image-keyboard-response","137","127307","0.0-6.0-1.65","MEVO","2","f","rechts","24","","","object","j","120","false"
"null","<div style=""font-size:60px;"">+</div>","null","html-keyboard-response","138","127608","0.0-6.0-0.66","MEVO","2","f","rechts","24","","fixation","","","",""
"707","img/60_30.png","70","image-keyboard-response","139","128316","0.0-6.0-1.66","MEVO","2","f","rechts","24","","","object","f","60","true"
"null","<div style=""font-size:60px;"">+</div>","null","html-keyboard-response","140","128668","0.0-6.0-0.67","MEVO","2","f","rechts","24","","fixation","","","",""
"950","img/0_150.png","74","image-keyboard-response","141","129618","0.0-6.0-1.67","MEVO","2","f","rechts","24","","","object","j","0","true"
"null","<div style=""font-size:60px;"">+</div>","null","html-keyboard-response","142","129920","0.0-6.0-0.68","MEVO","2","f","rechts","24","","fixation","","","",""
"889","img/0_60.png","74","image-keyboard-response","143","130810","0.0-6.0-1.68","MEVO","2","f","rechts","24","","","object","j","0","true"
"null","<div style=""font-size:60px;"">+</div>","null","html-keyboard-response","144","131311","0.0-6.0-0.69","MEVO","2","f","rechts","24","","fixation","","","",""
"992","img/L90_180.png","74","image-keyboard-response","145","132305","0.0-6.0-1.69","MEVO","2","f","rechts","24","","","object","j","90","true"
"null","<div style=""font-size:60px;"">+</div>","null","html-keyboard-response","146","132706","0.0-6.0-0.70","MEVO","2","f","rechts","24","","fixation","","","",""
"1553","img/30_60.png","70","image-keyboard-response","147","134260","0.0-6.0-1.70","MEVO","2","f","rechts","24","","","object","j","30","false"
"null","<div style=""font-size:60px;"">+</div>","null","html-keyboard-response","148","134662","0.0-6.0-0.71","MEVO","2","f","rechts","24","","fixation","","","",""
"1149","img/150_180.png","70","image-keyboard-response","149","135813","0.0-6.0-1.71","MEVO","2","f","rechts","24","","","object","f","150","true"
"null","<div style=""font-size:60px;"">+</div>","null","html-keyboard-response","150","136314","0.0-6.0-0.72","MEVO","2","f","rechts","24","","fixation","","","",""
"1063","img/90_120.png","74","image-keyboard-response","151","137378","0.0-6.0-1.72","MEVO","2","f","rechts","24","","","object","j","90","true"
"null","<div style=""font-size:60px;"">+</div>","null","html-keyboard-response","152","137680","0.0-6.0-0.73","MEVO","2","f","rechts","24","","fixation","","","",""
"927","img/0_240.png","70","image-keyboard-response","153","138608","0.0-6.0-1.73","MEVO","2","f","rechts","24","","","object","f","0","true"
"null","<div style=""font-size:60px;"">+</div>","null","html-keyboard-response","154","138960","0.0-6.0-0.74","MEVO","2","f","rechts","24","","fixation","","","",""
"929","img/0_210.png","70","image-keyboard-response","155","139891","0.0-6.0-1.74","MEVO","2","f","rechts","24","","","object","f","0","true"
"null","<div style=""font-size:60px;"">+</div>","null","html-keyboard-response","156","140292","0.0-6.0-0.75","MEVO","2","f","rechts","24","","fixation","","","",""
"1528","img/90_240.png","74","image-keyboard-response","157","141821","0.0-6.0-1.75","MEVO","2","f","rechts","24","","","object","f","90","false"
"null","<div style=""font-size:60px;"">+</div>","null","html-keyboard-response","158","142123","0.0-6.0-0.76","MEVO","2","f","rechts","24","","fixation","","","",""
"1652","img/150_270.png","74","image-keyboard-response","159","143776","0.0-6.0-1.76","MEVO","2","f","rechts","24","","","object","j","150","true"
"null","<div style=""font-size:60px;"">+</div>","null","html-keyboard-response","160","144228","0.0-6.0-0.77","MEVO","2","f","rechts","24","","fixation","","","",""
"849","img/0_120.png","74","image-keyboard-response","161","145078","0.0-6.0-1.77","MEVO","2","f","rechts","24","","","object","j","0","true"
"null","<div style=""font-size:60px;"">+</div>","null","html-keyboard-response","162","145480","0.0-6.0-0.78","MEVO","2","f","rechts","24","","fixation","","","",""
"1137","img/90_210.png","70","image-keyboard-response","163","146617","0.0-6.0-1.78","MEVO","2","f","rechts","24","","","object","f","90","true"
"null","<div style=""font-size:60px;"">+</div>","null","html-keyboard-response","164","147069","0.0-6.0-0.79","MEVO","2","f","rechts","24","","fixation","","","",""
"2112","img/60_150.png","74","image-keyboard-response","165","149181","0.0-6.0-1.79","MEVO","2","f","rechts","24","","","object","j","60","true"
"null","<div style=""font-size:60px;"">+</div>","null","html-keyboard-response","166","149583","0.0-6.0-0.80","MEVO","2","f","rechts","24","","fixation","","","",""
"690","img/0_90.png","74","image-keyboard-response","167","150273","0.0-6.0-1.80","MEVO","2","f","rechts","24","","","object","j","0","true"
"null","<div style=""font-size:60px;"">+</div>","null","html-keyboard-response","168","150725","0.0-6.0-0.81","MEVO","2","f","rechts","24","","fixation","","","",""
"954","img/60_180.png","70","image-keyboard-response","169","151679","0.0-6.0-1.81","MEVO","2","f","rechts","24","","","object","f","60","true"
"null","<div style=""font-size:60px;"">+</div>","null","html-keyboard-response","170","151981","0.0-6.0-0.82","MEVO","2","f","rechts","24","","fixation","","","",""
"1137","img/90_30.png","70","image-keyboard-response","171","153118","0.0-6.0-1.82","MEVO","2","f","rechts","24","","","object","f","90","true"
"null","<div style=""font-size:60px;"">+</div>","null","html-keyboard-response","172","153520","0.0-6.0-0.83","MEVO","2","f","rechts","24","","fixation","","","",""
"1090","img/150_240.png","74","image-keyboard-response","173","154610","0.0-6.0-1.83","MEVO","2","f","rechts","24","","","object","j","150","true"
"null","<div style=""font-size:60px;"">+</div>","null","html-keyboard-response","174","155062","0.0-6.0-0.84","MEVO","2","f","rechts","24","","fixation","","","",""
"933","img/30_90.png","74","image-keyboard-response","175","155995","0.0-6.0-1.84","MEVO","2","f","rechts","24","","","object","j","30","true"
"null","<div style=""font-size:60px;"">+</div>","null","html-keyboard-response","176","156297","0.0-6.0-0.85","MEVO","2","f","rechts","24","","fixation","","","",""
"924","img/60_90.png","74","image-keyboard-response","177","157222","0.0-6.0-1.85","MEVO","2","f","rechts","24","","","object","j","60","true"
"null","<div style=""font-size:60px;"">+</div>","null","html-keyboard-response","178","157574","0.0-6.0-0.86","MEVO","2","f","rechts","24","","fixation","","","",""
"1635","img/L30_180.png","74","image-keyboard-response","179","159209","0.0-6.0-1.86","MEVO","2","f","rechts","24","","","object","j","30","true"
"null","<div style=""font-size:60px;"">+</div>","null","html-keyboard-response","180","159611","0.0-6.0-0.87","MEVO","2","f","rechts","24","","fixation","","","",""
"1123","img/120_330.png","74","image-keyboard-response","181","160734","0.0-6.0-1.87","MEVO","2","f","rechts","24","","","object","j","120","true"
"null","<div style=""font-size:60px;"">+</div>","null","html-keyboard-response","182","161036","0.0-6.0-0.88","MEVO","2","f","rechts","24","","fixation","","","",""
"1006","img/120_270.png","74","image-keyboard-response","183","162042","0.0-6.0-1.88","MEVO","2","f","rechts","24","","","object","j","120","true"
"null","<div style=""font-size:60px;"">+</div>","null","html-keyboard-response","184","162394","0.0-6.0-0.89","MEVO","2","f","rechts","24","","fixation","","","",""
"1162","img/150_120.png","74","image-keyboard-response","185","163556","0.0-6.0-1.89","MEVO","2","f","rechts","24","","","object","f","150","false"
"null","<div style=""font-size:60px;"">+</div>","null","html-keyboard-response","186","163908","0.0-6.0-0.90","MEVO","2","f","rechts","24","","fixation","","","",""
"1135","img/90_330.png","74","image-keyboard-response","187","165043","0.0-6.0-1.90","MEVO","2","f","rechts","24","","","object","j","90","true"
"null","<div style=""font-size:60px;"">+</div>","null","html-keyboard-response","188","165445","0.0-6.0-0.91","MEVO","2","f","rechts","24","","fixation","","","",""
"1184","img/120_180.png","70","image-keyboard-response","189","166629","0.0-6.0-1.91","MEVO","2","f","rechts","24","","","object","f","120","true"
"null","<div style=""font-size:60px;"">+</div>","null","html-keyboard-response","190","167081","0.0-6.0-0.92","MEVO","2","f","rechts","24","","fixation","","","",""
"927","img/90_180.png","70","image-keyboard-response","191","168009","0.0-6.0-1.92","MEVO","2","f","rechts","24","","","object","f","90","true"
"null","<div style=""font-size:60px;"">+</div>","null","html-keyboard-response","192","168310","0.0-6.0-0.93","MEVO","2","f","rechts","24","","fixation","","","",""
"1258","img/L60_180.png","74","image-keyboard-response","193","169569","0.0-6.0-1.93","MEVO","2","f","rechts","24","","","object","j","60","true"
"null","<div style=""font-size:60px;"">+</div>","null","html-keyboard-response","194","169970","0.0-6.0-0.94","MEVO","2","f","rechts","24","","fixation","","","",""
"979","img/90_60.png","70","image-keyboard-response","195","170950","0.0-6.0-1.94","MEVO","2","f","rechts","24","","","object","f","90","true"
"null","<div style=""font-size:60px;"">+</div>","null","html-keyboard-response","196","171302","0.0-6.0-0.95","MEVO","2","f","rechts","24","","fixation","","","",""
"803","img/0_330.png","70","image-keyboard-response","197","172106","0.0-6.0-1.95","MEVO","2","f","rechts","24","","","object","f","0","true"
"null","<div style=""font-size:60px;"">+</div>","null","html-keyboard-response","198","172457","0.0-6.0-0.96","MEVO","2","f","rechts","24","","fixation","","","",""
"957","img/L120_180.png","74","image-keyboard-response","199","173415","0.0-6.0-1.96","MEVO","2","f","rechts","24","","","object","j","120","true"
"null","<div style=""font-size:60px;"">+</div>","null","html-keyboard-response","200","173817","0.0-6.0-0.97","MEVO","2","f","rechts","24","","fixation","","","",""
"1012","img/150_60.png","70","image-keyboard-response","201","174829","0.0-6.0-1.97","MEVO","2","f","rechts","24","","","object","f","150","true"
"null","<div style=""font-size:60px;"">+</div>","null","html-keyboard-response","202","175181","0.0-6.0-0.98","MEVO","2","f","rechts","24","","fixation","","","",""
"1229","img/30_300.png","74","image-keyboard-response","203","176411","0.0-6.0-1.98","MEVO","2","f","rechts","24","","","object","f","30","false"
"null","<div style=""font-size:60px;"">+</div>","null","html-keyboard-response","204","176862","0.0-6.0-0.99","MEVO","2","f","rechts","24","","fixation","","","",""
"897","img/30_120.png","70","image-keyboard-response","205","177760","0.0-6.0-1.99","MEVO","2","f","rechts","24","","","object","j","30","false"
"null","<div style=""font-size:60px;"">+</div>","null","html-keyboard-response","206","178212","0.0-6.0-0.100","MEVO","2","f","rechts","24","","fixation","","","",""
"2518","img/0_300.png","70","image-keyboard-response","207","180732","0.0-6.0-1.100","MEVO","2","f","rechts","24","","","object","f","0","true"
"null","<div style=""font-size:60px;"">+</div>","null","html-keyboard-response","208","181183","0.0-6.0-0.101","MEVO","2","f","rechts","24","","fixation","","","",""
"912","img/90_150.png","74","image-keyboard-response","209","182096","0.0-6.0-1.101","MEVO","2","f","rechts","24","","","object","j","90","true"
"null","<div style=""font-size:60px;"">+</div>","null","html-keyboard-response","210","182498","0.0-6.0-0.102","MEVO","2","f","rechts","24","","fixation","","","",""
"1094","img/90_300.png","74","image-keyboard-response","211","183593","0.0-6.0-1.102","MEVO","2","f","rechts","24","","","object","j","90","true"
"null","<div style=""font-size:60px;"">+</div>","null","html-keyboard-response","212","184095","0.0-6.0-0.103","MEVO","2","f","rechts","24","","fixation","","","",""
"1165","img/150_90.png","70","image-keyboard-response","213","185261","0.0-6.0-1.103","MEVO","2","f","rechts","24","","","object","f","150","true"
"null","<div style=""font-size:60px;"">+</div>","null","html-keyboard-response","214","185613","0.0-6.0-0.104","MEVO","2","f","rechts","24","","fixation","","","",""
"998","img/0_60.png","74","image-keyboard-response","215","186612","0.0-6.0-1.104","MEVO","2","f","rechts","24","","","object","j","0","true"
"null","<div style=""font-size:60px;"">+</div>","null","html-keyboard-response","216","187014","0.0-6.0-0.105","MEVO","2","f","rechts","24","","fixation","","","",""
"1005","img/L60_180.png","74","image-keyboard-response","217","188020","0.0-6.0-1.105","MEVO","2","f","rechts","24","","","object","j","60","true"
"null","<div style=""font-size:60px;"">+</div>","null","html-keyboard-response","218","188372","0.0-6.0-0.106","MEVO","2","f","rechts","24","","fixation","","","",""
"1166","img/90_120.png","74","image-keyboard-response","219","189539","0.0-6.0-1.106","MEVO","2","f","rechts","24","","","object","j","90","true"
"null","<div style=""font-size:60px;"">+</div>","null","html-keyboard-response","220","189841","0.0-6.0-0.107","MEVO","2","f","rechts","24","","fixation","","","",""
"1178","img/90_210.png","74","image-keyboard-response","221","191020","0.0-6.0-1.107","MEVO","2","f","rechts","24","","","object","f","90","false"
"null","<div style=""font-size:60px;"">+</div>","null","html-keyboard-response","222","191372","0.0-6.0-0.108","MEVO","2","f","rechts","24","","fixation","","","",""
"1655","img/120_150.png","74","image-keyboard-response","223","193028","0.0-6.0-1.108","MEVO","2","f","rechts","24","","","object","j","120","true"
"null","<div style=""font-size:60px;"">+</div>","null","html-keyboard-response","224","193429","0.0-6.0-0.109","MEVO","2","f","rechts","24","","fixation","","","",""
"921","img/0_150.png","74","image-keyboard-response","225","194351","0.0-6.0-1.109","MEVO","2","f","rechts","24","","","object","j","0","true"
"null","<div style=""font-size:60px;"">+</div>","null","html-keyboard-response","226","194852","0.0-6.0-0.110","MEVO","2","f","rechts","24","","fixation","","","",""
"790","img/60_330.png","74","image-keyboard-response","227","195643","0.0-6.0-1.110","MEVO","2","f","rechts","24","","","object","j","60","true"
"null","<div style=""font-size:60px;"">+</div>","null","html-keyboard-response","228","196095","0.0-6.0-0.111","MEVO","2","f","rechts","24","","fixation","","","",""
"1149","img/0_90.png","74","image-keyboard-response","229","197244","0.0-6.0-1.111","MEVO","2","f","rechts","24","","","object","j","0","true"
"null","<div style=""font-size:60px;"">+</div>","null","html-keyboard-response","230","197746","0.0-6.0-0.112","MEVO","2","f","rechts","24","","fixation","","","",""
"1080","img/150_240.png","74","image-keyboard-response","231","198827","0.0-6.0-1.112","MEVO","2","f","rechts","24","","","object","j","150","true"
"null","<div style=""font-size:60px;"">+</div>","null","html-keyboard-response","232","199279","0.0-6.0-0.113","MEVO","2","f","rechts","24","","fixation","","","",""
"1192","img/120_180.png","70","image-keyboard-response","233","200472","0.0-6.0-1.113","MEVO","2","f","rechts","24","","","object","f","120","true"
"null","<div style=""font-size:60px;"">+</div>","null","html-keyboard-response","234","200874","0.0-6.0-0.114","MEVO","2","f","rechts","24","","fixation","","","",""
"759","img/0_240.png","70","image-keyboard-response","235","201633","0.0-6.0-1.114","MEVO","2","f","rechts","24","","","object","f","0","true"
"null","<div style=""font-size:60px;"">+</div>","null","html-keyboard-response","236","202135","0.0-6.0-0.115","MEVO","2","f","rechts","24","","fixation","","","",""
"1071","img/L120_180.png","74","image-keyboard-response","237","203207","0.0-6.0-1.115","MEVO","2","f","rechts","24","","","object","j","120","true"
"null","<div style=""font-size:60px;"">+</div>","null","html-keyboard-response","238","203658","0.0-6.0-0.116","MEVO","2","f","rechts","24","","fixation","","","",""
"855","img/0_30.png","74","image-keyboard-response","239","204514","0.0-6.0-1.116","MEVO","2","f","rechts","24","","","object","j","0","true"
"null","<div style=""font-size:60px;"">+</div>","null","html-keyboard-response","240","205015","0.0-6.0-0.117","MEVO","2","f","rechts","24","","fixation","","","",""
"1110","img/60_270.png","74","image-keyboard-response","241","206126","0.0-6.0-1.117","MEVO","2","f","rechts","24","","","object","f","60","false"
"null","<div style=""font-size:60px;"">+</div>","null","html-keyboard-response","242","206578","0.0-6.0-0.118","MEVO","2","f","rechts","24","","fixation","","","",""
"1115","img/L30_180.png","74","image-keyboard-response","243","207693","0.0-6.0-1.118","MEVO","2","f","rechts","24","","","object","j","30","true"
"null","<div style=""font-size:60px;"">+</div>","null","html-keyboard-response","244","208195","0.0-6.0-0.119","MEVO","2","f","rechts","24","","fixation","","","",""
"1205","img/30_90.png","74","image-keyboard-response","245","209401","0.0-6.0-1.119","MEVO","2","f","rechts","24","","","object","j","30","true"
"null","<div style=""font-size:60px;"">+</div>","null","html-keyboard-response","246","209903","0.0-6.0-0.120","MEVO","2","f","rechts","24","","fixation","","","",""
"865","img/0_120.png","74","image-keyboard-response","247","210768","0.0-6.0-1.120","MEVO","2","f","rechts","24","","","object","j","0","true"
"null","<div style=""font-size:60px;"">+</div>","null","html-keyboard-response","248","211070","0.0-6.0-0.121","MEVO","2","f","rechts","24","","fixation","","","",""
"1144","img/30_60.png","74","image-keyboard-response","249","212214","0.0-6.0-1.121","MEVO","2","f","rechts","24","","","object","j","30","true"
"null","<div style=""font-size:60px;"">+</div>","null","html-keyboard-response","250","212516","0.0-6.0-0.122","MEVO","2","f","rechts","24","","fixation","","","",""
"1329","img/L150_180.png","74","image-keyboard-response","251","213845","0.0-6.0-1.122","MEVO","2","f","rechts","24","","","object","j","150","true"
"null","<div style=""font-size:60px;"">+</div>","null","html-keyboard-response","252","214345","0.0-6.0-0.123","MEVO","2","f","rechts","24","","fixation","","","",""
"985","img/150_180.png","70","image-keyboard-response","253","215331","0.0-6.0-1.123","MEVO","2","f","rechts","24","","","object","f","150","true"
"null","<div style=""font-size:60px;"">+</div>","null","html-keyboard-response","254","215682","0.0-6.0-0.124","MEVO","2","f","rechts","24","","fixation","","","",""
"1054","img/90_60.png","70","image-keyboard-response","255","216737","0.0-6.0-1.124","MEVO","2","f","rechts","24","","","object","f","90","true"
"null","<div style=""font-size:60px;"">+</div>","null","html-keyboard-response","256","217088","0.0-6.0-0.125","MEVO","2","f","rechts","24","","fixation","","","",""
"1559","img/60_180.png","70","image-keyboard-response","257","218648","0.0-6.0-1.125","MEVO","2","f","rechts","24","","","object","f","60","true"
"null","<div style=""font-size:60px;"">+</div>","null","html-keyboard-response","258","219000","0.0-6.0-0.126","MEVO","2","f","rechts","24","","fixation","","","",""
"1564","img/150_270.png","74","image-keyboard-response","259","220564","0.0-6.0-1.126","MEVO","2","f","rechts","24","","","object","j","150","true"
"null","<div style=""font-size:60px;"">+</div>","null","html-keyboard-response","260","220866","0.0-6.0-0.127","MEVO","2","f","rechts","24","","fixation","","","",""
"1073","img/60_30.png","70","image-keyboard-response","261","221940","0.0-6.0-1.127","MEVO","2","f","rechts","24","","","object","f","60","true"
"null","<div style=""font-size:60px;"">+</div>","null","html-keyboard-response","262","222391","0.0-6.0-0.128","MEVO","2","f","rechts","24","","fixation","","","",""
"1232","img/150_60.png","70","image-keyboard-response","263","223625","0.0-6.0-1.128","MEVO","2","f","rechts","24","","","object","f","150","true"
"null","<div style=""font-size:60px;"">+</div>","null","html-keyboard-response","264","223976","0.0-6.0-0.129","MEVO","2","f","rechts","24","","fixation","","","",""
"1540","img/90_240.png","74","image-keyboard-response","265","225517","0.0-6.0-1.129","MEVO","2","f","rechts","24","","","object","f","90","false"
"null","<div style=""font-size:60px;"">+</div>","null","html-keyboard-response","266","226019","0.0-6.0-0.130","MEVO","2","f","rechts","24","","fixation","","","",""
"777","img/90_30.png","70","image-keyboard-response","267","226796","0.0-6.0-1.130","MEVO","2","f","rechts","24","","","object","f","90","true"
"null","<div style=""font-size:60px;"">+</div>","null","html-keyboard-response","268","227098","0.0-6.0-0.131","MEVO","2","f","rechts","24","","fixation","","","",""
"1099","img/30_300.png","74","image-keyboard-response","269","228198","0.0-6.0-1.131","MEVO","2","f","rechts","24","","","object","f","30","false"
"null","<div style=""font-size:60px;"">+</div>","null","html-keyboard-response","270","228599","0.0-6.0-0.132","MEVO","2","f","rechts","24","","fixation","","","",""
"851","img/0_210.png","70","image-keyboard-response","271","229451","0.0-6.0-1.132","MEVO","2","f","rechts","24","","","object","f","0","true"
"null","<div style=""font-size:60px;"">+</div>","null","html-keyboard-response","272","229903","0.0-6.0-0.133","MEVO","2","f","rechts","24","","fixation","","","",""
"1326","img/30_240.png","70","image-keyboard-response","273","231230","0.0-6.0-1.133","MEVO","2","f","rechts","24","","","object","f","30","true"
"null","<div style=""font-size:60px;"">+</div>","null","html-keyboard-response","274","231682","0.0-6.0-0.134","MEVO","2","f","rechts","24","","fixation","","","",""
"1410","img/60_90.png","70","image-keyboard-response","275","233093","0.0-6.0-1.134","MEVO","2","f","rechts","24","","","object","j","60","false"
"null","<div style=""font-size:60px;"">+</div>","null","html-keyboard-response","276","233445","0.0-6.0-0.135","MEVO","2","f","rechts","24","","fixation","","","",""
"1222","img/30_120.png","74","image-keyboard-response","277","234668","0.0-6.0-1.135","MEVO","2","f","rechts","24","","","object","j","30","true"
"null","<div style=""font-size:60px;"">+</div>","null","html-keyboard-response","278","235170","0.0-6.0-0.136","MEVO","2","f","rechts","24","","fixation","","","",""
"1113","img/0_330.png","70","image-keyboard-response","279","236284","0.0-6.0-1.136","MEVO","2","f","rechts","24","","","object","f","0","true"
"null","<div style=""font-size:60px;"">+</div>","null","html-keyboard-response","280","236636","0.0-6.0-0.137","MEVO","2","f","rechts","24","","fixation","","","",""
"1072","img/90_300.png","74","image-keyboard-response","281","237709","0.0-6.0-1.137","MEVO","2","f","rechts","24","","","object","j","90","true"
"null","<div style=""font-size:60px;"">+</div>","null","html-keyboard-response","282","238060","0.0-6.0-0.138","MEVO","2","f","rechts","24","","fixation","","","",""
"756","img/120_330.png","74","image-keyboard-response","283","238817","0.0-6.0-1.138","MEVO","2","f","rechts","24","","","object","j","120","true"
"null","<div style=""font-size:60px;"">+</div>","null","html-keyboard-response","284","239169","0.0-6.0-0.139","MEVO","2","f","rechts","24","","fixation","","","",""
"1101","img/150_300.png","74","image-keyboard-response","285","240271","0.0-6.0-1.139","MEVO","2","f","rechts","24","","","object","j","150","true"
"null","<div style=""font-size:60px;"">+</div>","null","html-keyboard-response","286","240773","0.0-6.0-0.140","MEVO","2","f","rechts","24","","fixation","","","",""
"1212","img/0_270.png","70","image-keyboard-response","287","241986","0.0-6.0-1.140","MEVO","2","f","rechts","24","","","object","f","0","true"
"null","<div style=""font-size:60px;"">+</div>","null","html-keyboard-response","288","242288","0.0-6.0-0.141","MEVO","2","f","rechts","24","","fixation","","","",""
"1343","img/150_90.png","70","image-keyboard-response","289","243632","0.0-6.0-1.141","MEVO","2","f","rechts","24","","","object","f","150","true"
"null","<div style=""font-size:60px;"">+</div>","null","html-keyboard-response","290","244034","0.0-6.0-0.142","MEVO","2","f","rechts","24","","fixation","","","",""
"1261","img/60_150.png","74","image-keyboard-response","291","245296","0.0-6.0-1.142","MEVO","2","f","rechts","24","","","object","j","60","true"
"null","<div style=""font-size:60px;"">+</div>","null","html-keyboard-response","292","245597","0.0-6.0-0.143","MEVO","2","f","rechts","24","","fixation","","","",""
"972","img/30_270.png","70","image-keyboard-response","293","246570","0.0-6.0-1.143","MEVO","2","f","rechts","24","","","object","f","30","true"
"null","<div style=""font-size:60px;"">+</div>","null","html-keyboard-response","294","246871","0.0-6.0-0.144","MEVO","2","f","rechts","24","","fixation","","","",""
"948","img/120_270.png","74","image-keyboard-response","295","247819","0.0-6.0-1.144","MEVO","2","f","rechts","24","","","object","j","120","true"
"null","<div style=""font-size:60px;"">+</div>","null","html-keyboard-response","296","248221","0.0-6.0-0.145","MEVO","2","f","rechts","24","","fixation","","","",""
"984","img/120_30.png","70","image-keyboard-response","297","249206","0.0-6.0-1.145","MEVO","2","f","rechts","24","","","object","f","120","true"
"null","<div style=""font-size:60px;"">+</div>","null","html-keyboard-response","298","249608","0.0-6.0-0.146","MEVO","2","f","rechts","24","","fixation","","","",""
"1398","img/150_120.png","74","image-keyboard-response","299","251006","0.0-6.0-1.146","MEVO","2","f","rechts","24","","","object","f","150","false"
"null","<div style=""font-size:60px;"">+</div>","null","html-keyboard-response","300","251308","0.0-6.0-0.147","MEVO","2","f","rechts","24","","fixation","","","",""
"1123","img/60_210.png","70","image-keyboard-response","301","252432","0.0-6.0-1.147","MEVO","2","f","rechts","24","","","object","f","60","true"
"null","<div style=""font-size:60px;"">+</div>","null","html-keyboard-response","302","252784","0.0-6.0-0.148","MEVO","2","f","rechts","24","","fixation","","","",""
"1380","img/120_90.png","74","image-keyboard-response","303","254164","0.0-6.0-1.148","MEVO","2","f","rechts","24","","","object","f","120","false"
"null","<div style=""font-size:60px;"">+</div>","null","html-keyboard-response","304","254465","0.0-6.0-0.149","MEVO","2","f","rechts","24","","fixation","","","",""
"1274","img/120_210.png","70","image-keyboard-response","305","255740","0.0-6.0-1.149","MEVO","2","f","rechts","24","","","object","f","120","true"
"null","<div style=""font-size:60px;"">+</div>","null","html-keyboard-response","306","256192","0.0-6.0-0.150","MEVO","2","f","rechts","24","","fixation","","","",""
"734","img/0_300.png","70","image-keyboard-response","307","256927","0.0-6.0-1.150","MEVO","2","f","rechts","24","","","object","f","0","true"
"null","<div style=""font-size:60px;"">+</div>","null","html-keyboard-response","308","257429","0.0-6.0-0.151","MEVO","2","f","rechts","24","","fixation","","","",""
"881","img/90_330.png","74","image-keyboard-response","309","258310","0.0-6.0-1.151","MEVO","2","f","rechts","24","","","object","j","90","true"
"null","<div style=""font-size:60px;"">+</div>","null","html-keyboard-response","310","258611","0.0-6.0-0.152","MEVO","2","f","rechts","24","","fixation","","","",""
"1155","img/30_180.png","70","image-keyboard-response","311","259767","0.0-6.0-1.152","MEVO","2","f","rechts","24","","","object","f","30","true"
"null","<div style=""font-size:60px;"">+</div>","null","html-keyboard-response","312","260118","0.0-6.0-0.153","MEVO","2","f","rechts","24","","fixation","","","",""
"1072","img/90_180.png","70","image-keyboard-response","313","261191","0.0-6.0-1.153","MEVO","2","f","rechts","24","","","object","f","90","true"
"null","<div style=""font-size:60px;"">+</div>","null","html-keyboard-response","314","261592","0.0-6.0-0.154","MEVO","2","f","rechts","24","","fixation","","","",""
"1091","img/90_150.png","74","image-keyboard-response","315","262684","0.0-6.0-1.154","MEVO","2","f","rechts","24","","","object","j","90","true"
"null","<div style=""font-size:60px;"">+</div>","null","html-keyboard-response","316","263186","0.0-6.0-0.155","MEVO","2","f","rechts","24","","fixation","","","",""
"997","img/L90_180.png","74","image-keyboard-response","317","264183","0.0-6.0-1.155","MEVO","2","f","rechts","24","","","object","j","90","true"
"null","<div style=""font-size:60px;"">+</div>","null","html-keyboard-response","318","264634","0.0-6.0-0.156","MEVO","2","f","rechts","24","","fixation","","","",""
"944","img/150_180.png","70","image-keyboard-response","319","265579","0.0-6.0-1.156","MEVO","2","f","rechts","24","","","object","f","150","true"
"null","<div style=""font-size:60px;"">+</div>","null","html-keyboard-response","320","266029","0.0-6.0-0.157","MEVO","2","f","rechts","24","","fixation","","","",""
"1259","img/60_210.png","70","image-keyboard-response","321","267289","0.0-6.0-1.157","MEVO","2","f","rechts","24","","","object","f","60","true"
"null","<div style=""font-size:60px;"">+</div>","null","html-keyboard-response","322","267640","0.0-6.0-0.158","MEVO","2","f","rechts","24","","fixation","","","",""
"802","img/0_300.png","70","image-keyboard-response","323","268443","0.0-6.0-1.158","MEVO","2","f","rechts","24","","","object","f","0","true"
"null","<div style=""font-size:60px;"">+</div>","null","html-keyboard-response","324","268945","0.0-6.0-0.159","MEVO","2","f","rechts","24","","fixation","","","",""
"914","img/120_150.png","74","image-keyboard-response","325","269859","0.0-6.0-1.159","MEVO","2","f","rechts","24","","","object","j","120","true"
"null","<div style=""font-size:60px;"">+</div>","null","html-keyboard-response","326","270311","0.0-6.0-0.160","MEVO","2","f","rechts","24","","fixation","","","",""
"844","img/0_210.png","70","image-keyboard-response","327","271156","0.0-6.0-1.160","MEVO","2","f","rechts","24","","","object","f","0","true"
"null","<div style=""font-size:60px;"">+</div>","null","html-keyboard-response","328","271658","0.0-6.0-0.161","MEVO","2","f","rechts","24","","fixation","","","",""
"1144","img/90_240.png","70","image-keyboard-response","329","272803","0.0-6.0-1.161","MEVO","2","f","rechts","24","","","object","f","90","true"
"null","<div style=""font-size:60px;"">+</div>","null","html-keyboard-response","330","273104","0.0-6.0-0.162","MEVO","2","f","rechts","24","","fixation","","","",""
"1065","img/150_300.png","74","image-keyboard-response","331","274170","0.0-6.0-1.162","MEVO","2","f","rechts","24","","","object","j","150","true"
"null","<div style=""font-size:60px;"">+</div>","null","html-keyboard-response","332","274522","0.0-6.0-0.163","MEVO","2","f","rechts","24","","fixation","","","",""
"738","img/0_240.png","70","image-keyboard-response","333","275260","0.0-6.0-1.163","MEVO","2","f","rechts","24","","","object","f","0","true"
"null","<div style=""font-size:60px;"">+</div>","null","html-keyboard-response","334","275561","0.0-6.0-0.164","MEVO","2","f","rechts","24","","fixation","","","",""
"820","img/90_300.png","74","image-keyboard-response","335","276382","0.0-6.0-1.164","MEVO","2","f","rechts","24","","","object","j","90","true"
"null","<div style=""font-size:60px;"">+</div>","null","html-keyboard-response","336","276833","0.0-6.0-0.165","MEVO","2","f","rechts","24","","fixation","","","",""
"902","img/120_180.png","70","image-keyboard-response","337","277737","0.0-6.0-1.165","MEVO","2","f","rechts","24","","","object","f","120","true"
"null","<div style=""font-size:60px;"">+</div>","null","html-keyboard-response","338","278238","0.0-6.0-0.166","MEVO","2","f","rechts","24","","fixation","","","",""
"913","img/L90_180.png","74","image-keyboard-response","339","279153","0.0-6.0-1.166","MEVO","2","f","rechts","24","","","object","j","90","true"
"null","<div style=""font-size:60px;"">+</div>","null","html-keyboard-response","340","279554","0.0-6.0-0.167","MEVO","2","f","rechts","24","","fixation","","","",""
"832","img/90_120.png","74","image-keyboard-response","341","280387","0.0-6.0-1.167","MEVO","2","f","rechts","24","","","object","j","90","true"
"null","<div style=""font-size:60px;"">+</div>","null","html-keyboard-response","342","280789","0.0-6.0-0.168","MEVO","2","f","rechts","24","","fixation","","","",""
"706","img/0_120.png","74","image-keyboard-response","343","281496","0.0-6.0-1.168","MEVO","2","f","rechts","24","","","object","j","0","true"
"null","<div style=""font-size:60px;"">+</div>","null","html-keyboard-response","344","281798","0.0-6.0-0.169","MEVO","2","f","rechts","24","","fixation","","","",""
"943","img/150_90.png","70","image-keyboard-response","345","282743","0.0-6.0-1.169","MEVO","2","f","rechts","24","","","object","f","150","true"
"null","<div style=""font-size:60px;"">+</div>","null","html-keyboard-response","346","283244","0.0-6.0-0.170","MEVO","2","f","rechts","24","","fixation","","","",""
"824","img/150_120.png","70","image-keyboard-response","347","284070","0.0-6.0-1.170","MEVO","2","f","rechts","24","","","object","f","150","true"
"null","<div style=""font-size:60px;"">+</div>","null","html-keyboard-response","348","284371","0.0-6.0-0.171","MEVO","2","f","rechts","24","","fixation","","","",""
"1065","img/60_30.png","70","image-keyboard-response","349","285437","0.0-6.0-1.171","MEVO","2","f","rechts","24","","","object","f","60","true"
"null","<div style=""font-size:60px;"">+</div>","null","html-keyboard-response","350","285788","0.0-6.0-0.172","MEVO","2","f","rechts","24","","fixation","","","",""
"987","img/30_90.png","74","image-keyboard-response","351","286776","0.0-6.0-1.172","MEVO","2","f","rechts","24","","","object","j","30","true"
"null","<div style=""font-size:60px;"">+</div>","null","html-keyboard-response","352","287078","0.0-6.0-0.173","MEVO","2","f","rechts","24","","fixation","","","",""
"984","img/60_270.png","74","image-keyboard-response","353","288063","0.0-6.0-1.173","MEVO","2","f","rechts","24","","","object","f","60","false"
"null","<div style=""font-size:60px;"">+</div>","null","html-keyboard-response","354","288415","0.0-6.0-0.174","MEVO","2","f","rechts","24","","fixation","","","",""
"1078","img/30_180.png","70","image-keyboard-response","355","289494","0.0-6.0-1.174","MEVO","2","f","rechts","24","","","object","f","30","true"
"null","<div style=""font-size:60px;"">+</div>","null","html-keyboard-response","356","289896","0.0-6.0-0.175","MEVO","2","f","rechts","24","","fixation","","","",""
"884","img/90_330.png","74","image-keyboard-response","357","290781","0.0-6.0-1.175","MEVO","2","f","rechts","24","","","object","j","90","true"
"null","<div style=""font-size:60px;"">+</div>","null","html-keyboard-response","358","291083","0.0-6.0-0.176","MEVO","2","f","rechts","24","","fixation","","","",""
"1135","img/30_270.png","70","image-keyboard-response","359","292219","0.0-6.0-1.176","MEVO","2","f","rechts","24","","","object","f","30","true"
"null","<div style=""font-size:60px;"">+</div>","null","html-keyboard-response","360","292621","0.0-6.0-0.177","MEVO","2","f","rechts","24","","fixation","","","",""
"779","img/0_90.png","74","image-keyboard-response","361","293401","0.0-6.0-1.177","MEVO","2","f","rechts","24","","","object","j","0","true"
"null","<div style=""font-size:60px;"">+</div>","null","html-keyboard-response","362","293703","0.0-6.0-0.178","MEVO","2","f","rechts","24","","fixation","","","",""
"1067","img/120_270.png","74","image-keyboard-response","363","294770","0.0-6.0-1.178","MEVO","2","f","rechts","24","","","object","j","120","true"
"null","<div style=""font-size:60px;"">+</div>","null","html-keyboard-response","364","295122","0.0-6.0-0.179","MEVO","2","f","rechts","24","","fixation","","","",""
"1086","img/120_210.png","74","image-keyboard-response","365","296209","0.0-6.0-1.179","MEVO","2","f","rechts","24","","","object","f","120","false"
"null","<div style=""font-size:60px;"">+</div>","null","html-keyboard-response","366","296511","0.0-6.0-0.180","MEVO","2","f","rechts","24","","fixation","","","",""
"1335","img/90_150.png","70","image-keyboard-response","367","297847","0.0-6.0-1.180","MEVO","2","f","rechts","24","","","object","j","90","false"
"null","<div style=""font-size:60px;"">+</div>","null","html-keyboard-response","368","298249","0.0-6.0-0.181","MEVO","2","f","rechts","24","","fixation","","","",""
"1282","img/90_210.png","70","image-keyboard-response","369","299532","0.0-6.0-1.181","MEVO","2","f","rechts","24","","","object","f","90","true"
"null","<div style=""font-size:60px;"">+</div>","null","html-keyboard-response","370","299934","0.0-6.0-0.182","MEVO","2","f","rechts","24","","fixation","","","",""
"1198","img/L150_180.png","74","image-keyboard-response","371","301132","0.0-6.0-1.182","MEVO","2","f","rechts","24","","","object","j","150","true"
"null","<div style=""font-size:60px;"">+</div>","null","html-keyboard-response","372","301434","0.0-6.0-0.183","MEVO","2","f","rechts","24","","fixation","","","",""
"1455","img/120_90.png","70","image-keyboard-response","373","302890","0.0-6.0-1.183","MEVO","2","f","rechts","24","","","object","f","120","true"
"null","<div style=""font-size:60px;"">+</div>","null","html-keyboard-response","374","303392","0.0-6.0-0.184","MEVO","2","f","rechts","24","","fixation","","","",""
"1166","img/30_120.png","74","image-keyboard-response","375","304559","0.0-6.0-1.184","MEVO","2","f","rechts","24","","","object","j","30","true"
"null","<div style=""font-size:60px;"">+</div>","null","html-keyboard-response","376","305011","0.0-6.0-0.185","MEVO","2","f","rechts","24","","fixation","","","",""
"1204","img/L60_180.png","74","image-keyboard-response","377","306215","0.0-6.0-1.185","MEVO","2","f","rechts","24","","","object","j","60","true"
"null","<div style=""font-size:60px;"">+</div>","null","html-keyboard-response","378","306616","0.0-6.0-0.186","MEVO","2","f","rechts","24","","fixation","","","",""
"828","img/0_60.png","74","image-keyboard-response","379","307445","0.0-6.0-1.186","MEVO","2","f","rechts","24","","","object","j","0","true"
"null","<div style=""font-size:60px;"">+</div>","null","html-keyboard-response","380","307897","0.0-6.0-0.187","MEVO","2","f","rechts","24","","fixation","","","",""
"1104","img/30_240.png","70","image-keyboard-response","381","309002","0.0-6.0-1.187","MEVO","2","f","rechts","24","","","object","f","30","true"
"null","<div style=""font-size:60px;"">+</div>","null","html-keyboard-response","382","309504","0.0-6.0-0.188","MEVO","2","f","rechts","24","","fixation","","","",""
"948","img/90_30.png","70","image-keyboard-response","383","310453","0.0-6.0-1.188","MEVO","2","f","rechts","24","","","object","f","90","true"
"null","<div style=""font-size:60px;"">+</div>","null","html-keyboard-response","384","310755","0.0-6.0-0.189","MEVO","2","f","rechts","24","","fixation","","","",""
"1137","img/150_60.png","70","image-keyboard-response","385","311892","0.0-6.0-1.189","MEVO","2","f","rechts","24","","","object","f","150","true"
"null","<div style=""font-size:60px;"">+</div>","null","html-keyboard-response","386","312394","0.0-6.0-0.190","MEVO","2","f","rechts","24","","fixation","","","",""
"1223","img/150_270.png","70","image-keyboard-response","387","313617","0.0-6.0-1.190","MEVO","2","f","rechts","24","","","object","j","150","false"
"null","<div style=""font-size:60px;"">+</div>","null","html-keyboard-response","388","313918","0.0-6.0-0.191","MEVO","2","f","rechts","24","","fixation","","","",""
"764","img/120_330.png","74","image-keyboard-response","389","314683","0.0-6.0-1.191","MEVO","2","f","rechts","24","","","object","j","120","true"
"null","<div style=""font-size:60px;"">+</div>","null","html-keyboard-response","390","315084","0.0-6.0-0.192","MEVO","2","f","rechts","24","","fixation","","","",""
"1077","img/30_60.png","70","image-keyboard-response","391","316162","0.0-6.0-1.192","MEVO","2","f","rechts","24","","","object","j","30","false"
"null","<div style=""font-size:60px;"">+</div>","null","html-keyboard-response","392","316564","0.0-6.0-0.193","MEVO","2","f","rechts","24","","fixation","","","",""
"1161","img/90_180.png","74","image-keyboard-response","393","317725","0.0-6.0-1.193","MEVO","2","f","rechts","24","","","object","f","90","false"
"null","<div style=""font-size:60px;"">+</div>","null","html-keyboard-response","394","318077","0.0-6.0-0.194","MEVO","2","f","rechts","24","","fixation","","","",""
"1108","img/L30_180.png","74","image-keyboard-response","395","319185","0.0-6.0-1.194","MEVO","2","f","rechts","24","","","object","j","30","true"
"null","<div style=""font-size:60px;"">+</div>","null","html-keyboard-response","396","319687","0.0-6.0-0.195","MEVO","2","f","rechts","24","","fixation","","","",""
"1069","img/150_240.png","74","image-keyboard-response","397","320756","0.0-6.0-1.195","MEVO","2","f","rechts","24","","","object","j","150","true"
"null","<div style=""font-size:60px;"">+</div>","null","html-keyboard-response","398","321258","0.0-6.0-0.196","MEVO","2","f","rechts","24","","fixation","","","",""
"1004","img/60_90.png","70","image-keyboard-response","399","322262","0.0-6.0-1.196","MEVO","2","f","rechts","24","","","object","j","60","false"
"null","<div style=""font-size:60px;"">+</div>","null","html-keyboard-response","400","322614","0.0-6.0-0.197","MEVO","2","f","rechts","24","","fixation","","","",""
"1269","img/30_300.png","70","image-keyboard-response","401","323885","0.0-6.0-1.197","MEVO","2","f","rechts","24","","","object","f","30","true"
"null","<div style=""font-size:60px;"">+</div>","null","html-keyboard-response","402","324186","0.0-6.0-0.198","MEVO","2","f","rechts","24","","fixation","","","",""
"955","img/0_270.png","70","image-keyboard-response","403","325142","0.0-6.0-1.198","MEVO","2","f","rechts","24","","","object","f","0","true"
"null","<div style=""font-size:60px;"">+</div>","null","html-keyboard-response","404","325444","0.0-6.0-0.199","MEVO","2","f","rechts","24","","fixation","","","",""
"1178","img/120_30.png","70","image-keyboard-response","405","326623","0.0-6.0-1.199","MEVO","2","f","rechts","24","","","object","f","120","true"
"null","<div style=""font-size:60px;"">+</div>","null","html-keyboard-response","406","326924","0.0-6.0-0.200","MEVO","2","f","rechts","24","","fixation","","","",""
"1238","img/60_150.png","74","image-keyboard-response","407","328164","0.0-6.0-1.200","MEVO","2","f","rechts","24","","","object","j","60","true"
"null","<div style=""font-size:60px;"">+</div>","null","html-keyboard-response","408","328615","0.0-6.0-0.201","MEVO","2","f","rechts","24","","fixation","","","",""
"1069","img/60_330.png","74","image-keyboard-response","409","329685","0.0-6.0-1.201","MEVO","2","f","rechts","24","","","object","j","60","true"
"null","<div style=""font-size:60px;"">+</div>","null","html-keyboard-response","410","330137","0.0-6.0-0.202","MEVO","2","f","rechts","24","","fixation","","","",""
"1065","img/0_330.png","70","image-keyboard-response","411","331202","0.0-6.0-1.202","MEVO","2","f","rechts","24","","","object","f","0","true"
"null","<div style=""font-size:60px;"">+</div>","null","html-keyboard-response","412","331604","0.0-6.0-0.203","MEVO","2","f","rechts","24","","fixation","","","",""
"810","img/0_30.png","74","image-keyboard-response","413","332414","0.0-6.0-1.203","MEVO","2","f","rechts","24","","","object","j","0","true"
"null","<div style=""font-size:60px;"">+</div>","null","html-keyboard-response","414","332716","0.0-6.0-0.204","MEVO","2","f","rechts","24","","fixation","","","",""
"823","img/90_60.png","70","image-keyboard-response","415","333540","0.0-6.0-1.204","MEVO","2","f","rechts","24","","","object","f","90","true"
"null","<div style=""font-size:60px;"">+</div>","null","html-keyboard-response","416","333941","0.0-6.0-0.205","MEVO","2","f","rechts","24","","fixation","","","",""
"1079","img/L120_180.png","74","image-keyboard-response","417","335021","0.0-6.0-1.205","MEVO","2","f","rechts","24","","","object","j","120","true"
"null","<div style=""font-size:60px;"">+</div>","null","html-keyboard-response","418","335473","0.0-6.0-0.206","MEVO","2","f","rechts","24","","fixation","","","",""
"864","img/0_150.png","74","image-keyboard-response","419","336337","0.0-6.0-1.206","MEVO","2","f","rechts","24","","","object","j","0","true"
"null","<div style=""font-size:60px;"">+</div>","null","html-keyboard-response","420","336639","0.0-6.0-0.207","MEVO","2","f","rechts","24","","fixation","","","",""
"1410","img/60_180.png","70","image-keyboard-response","421","338050","0.0-6.0-1.207","MEVO","2","f","rechts","24","","","object","f","60","true"
"11286","<p>Du hast in 80% der Versuche korrekt entschieden.</p><p>Deine durchschnittliche Reaktionszeit war  1079ms.</p><p>Dr&uuml;cke eine beliebige Taste, um die Session zu beenden. Vielen Dank!</p>","74","html-keyboard-response","422","349339","0.0-7.0","MEVO","2","f","rechts","24","","","","","",""
