"rt","stimulus","key_press","trial_type","trial_index","time_elapsed","internal_node_id","subject","session","sex","handedness","age","responses","test_part","condition","correct_response","angle","correct"
"4738","<p>Mental Rotation Experiment.</p> <p>Dr&uuml;cke eine beliebige Taste, um anzufangen.</p>","71","html-keyboard-response","0","4738","0.0-0.0","MEVO","3","f","rechts","24","","","","","",""
"3458","","","survey-text","1","8197","0.0-1.0","MEVO","3","f","rechts","24","{""Q0"":""MEVO""}","","","","",""
"1596","","","survey-text","2","9793","0.0-2.0","MEVO","3","f","rechts","24","{""Q0"":""3""}","","","","",""
"3195","","","survey-multi-choice","3","12989","0.0-3.0","MEVO","3","f","rechts","24","{""Q0"":""f"",""Q1"":""rechts""}","","","","",""
"2414","","","survey-text","4","15403","0.0-4.0","MEVO","3","f","rechts","24","{""Q0"":""24""}","","","","",""
"23469","<p> Stell dir vor, dass du vor einem runden Tisch stehst, auf dem sich ein blauer Ball am Tischrand befindet. Entlang des Tischrands ist jeweils ein verschieden langer Pfeil. Nun bewegst du dich entlang dieses Pfeils bis an seine Spitze. Wenn du am Ende des Pfeils angekommen bist, schau zur Tischmitte. </p> <img src='img/90_180.png'></img> <br> <p>Entscheide dann, ob der Ball von deiner neuen (vorgestellten) Position links oder rechts von dir liegt.</p> <p>Dr&uuml;cke die <strong>'f'</strong>-Taste f&uuml;r links, die <strong>'j'</strong>-Taste f&uuml;r rechts.</p> <br><p> Das Bild wird jeweils 1 Sekunde lang pr&auml;sentiert. Du hast 3 Sekunden Zeit eine Entscheidung zu treffen.</p>","74","html-keyboard-response","5","38874","0.0-5.0","MEVO","3","f","rechts","24","","","","","",""
"null","<div style=""font-size:60px;"">+</div>","null","html-keyboard-response","6","40228","0.0-6.0-0.0","MEVO","3","f","rechts","24","","fixation","","","",""
"1196","img/30_240.png","70","image-keyboard-response","7","41426","0.0-6.0-1.0","MEVO","3","f","rechts","24","","","self","f","30","true"
"null","<div style=""font-size:60px;"">+</div>","null","html-keyboard-response","8","41727","0.0-6.0-0.1","MEVO","3","f","rechts","24","","fixation","","","",""
"1075","img/150_90.png","70","image-keyboard-response","9","42803","0.0-6.0-1.1","MEVO","3","f","rechts","24","","","self","f","150","true"
"null","<div style=""font-size:60px;"">+</div>","null","html-keyboard-response","10","43305","0.0-6.0-0.2","MEVO","3","f","rechts","24","","fixation","","","",""
"1072","img/90_30.png","74","image-keyboard-response","11","44378","0.0-6.0-1.2","MEVO","3","f","rechts","24","","","self","j","90","true"
"null","<div style=""font-size:60px;"">+</div>","null","html-keyboard-response","12","44830","0.0-6.0-0.3","MEVO","3","f","rechts","24","","fixation","","","",""
"1094","img/30_180.png","74","image-keyboard-response","13","45925","0.0-6.0-1.3","MEVO","3","f","rechts","24","","","self","j","30","true"
"null","<div style=""font-size:60px;"">+</div>","null","html-keyboard-response","14","46276","0.0-6.0-0.4","MEVO","3","f","rechts","24","","fixation","","","",""
"995","img/30_270.png","70","image-keyboard-response","15","47272","0.0-6.0-1.4","MEVO","3","f","rechts","24","","","self","f","30","true"
"null","<div style=""font-size:60px;"">+</div>","null","html-keyboard-response","16","47724","0.0-6.0-0.5","MEVO","3","f","rechts","24","","fixation","","","",""
"781","img/90_150.png","70","image-keyboard-response","17","48507","0.0-6.0-1.5","MEVO","3","f","rechts","24","","","self","f","90","true"
"null","<div style=""font-size:60px;"">+</div>","null","html-keyboard-response","18","48909","0.0-6.0-0.6","MEVO","3","f","rechts","24","","fixation","","","",""
"1055","img/30_90.png","74","image-keyboard-response","19","49965","0.0-6.0-1.6","MEVO","3","f","rechts","24","","","self","j","30","true"
"null","<div style=""font-size:60px;"">+</div>","null","html-keyboard-response","20","50315","0.0-6.0-0.7","MEVO","3","f","rechts","24","","fixation","","","",""
"1074","img/120_180.png","74","image-keyboard-response","21","51391","0.0-6.0-1.7","MEVO","3","f","rechts","24","","","self","j","120","true"
"null","<div style=""font-size:60px;"">+</div>","null","html-keyboard-response","22","51742","0.0-6.0-0.8","MEVO","3","f","rechts","24","","fixation","","","",""
"696","img/0_210.png","70","image-keyboard-response","23","52439","0.0-6.0-1.8","MEVO","3","f","rechts","24","","","self","f","0","true"
"null","<div style=""font-size:60px;"">+</div>","null","html-keyboard-response","24","52790","0.0-6.0-0.9","MEVO","3","f","rechts","24","","fixation","","","",""
"941","img/L30_180.png","70","image-keyboard-response","25","53733","0.0-6.0-1.9","MEVO","3","f","rechts","24","","","self","f","30","true"
"null","<div style=""font-size:60px;"">+</div>","null","html-keyboard-response","26","54034","0.0-6.0-0.10","MEVO","3","f","rechts","24","","fixation","","","",""
"917","img/90_330.png","70","image-keyboard-response","27","54953","0.0-6.0-1.10","MEVO","3","f","rechts","24","","","self","f","90","true"
"null","<div style=""font-size:60px;"">+</div>","null","html-keyboard-response","28","55454","0.0-6.0-0.11","MEVO","3","f","rechts","24","","fixation","","","",""
"801","img/60_30.png","74","image-keyboard-response","29","56256","0.0-6.0-1.11","MEVO","3","f","rechts","24","","","self","j","60","true"
"null","<div style=""font-size:60px;"">+</div>","null","html-keyboard-response","30","56608","0.0-6.0-0.12","MEVO","3","f","rechts","24","","fixation","","","",""
"703","img/0_90.png","74","image-keyboard-response","31","57311","0.0-6.0-1.12","MEVO","3","f","rechts","24","","","self","j","0","true"
"null","<div style=""font-size:60px;"">+</div>","null","html-keyboard-response","32","57813","0.0-6.0-0.13","MEVO","3","f","rechts","24","","fixation","","","",""
"875","img/30_300.png","70","image-keyboard-response","33","58689","0.0-6.0-1.13","MEVO","3","f","rechts","24","","","self","f","30","true"
"null","<div style=""font-size:60px;"">+</div>","null","html-keyboard-response","34","59041","0.0-6.0-0.14","MEVO","3","f","rechts","24","","fixation","","","",""
"1069","img/120_330.png","70","image-keyboard-response","35","60111","0.0-6.0-1.14","MEVO","3","f","rechts","24","","","self","f","120","true"
"null","<div style=""font-size:60px;"">+</div>","null","html-keyboard-response","36","60562","0.0-6.0-0.15","MEVO","3","f","rechts","24","","fixation","","","",""
"688","img/0_30.png","74","image-keyboard-response","37","61252","0.0-6.0-1.15","MEVO","3","f","rechts","24","","","self","j","0","true"
"null","<div style=""font-size:60px;"">+</div>","null","html-keyboard-response","38","61753","0.0-6.0-0.16","MEVO","3","f","rechts","24","","fixation","","","",""
"845","img/90_240.png","74","image-keyboard-response","39","62599","0.0-6.0-1.16","MEVO","3","f","rechts","24","","","self","j","90","true"
"null","<div style=""font-size:60px;"">+</div>","null","html-keyboard-response","40","63051","0.0-6.0-0.17","MEVO","3","f","rechts","24","","fixation","","","",""
"898","img/90_180.png","74","image-keyboard-response","41","63950","0.0-6.0-1.17","MEVO","3","f","rechts","24","","","self","j","90","true"
"null","<div style=""font-size:60px;"">+</div>","null","html-keyboard-response","42","64452","0.0-6.0-0.18","MEVO","3","f","rechts","24","","fixation","","","",""
"721","img/0_120.png","74","image-keyboard-response","43","65174","0.0-6.0-1.18","MEVO","3","f","rechts","24","","","self","j","0","true"
"null","<div style=""font-size:60px;"">+</div>","null","html-keyboard-response","44","65476","0.0-6.0-0.19","MEVO","3","f","rechts","24","","fixation","","","",""
"1034","img/90_60.png","74","image-keyboard-response","45","66511","0.0-6.0-1.19","MEVO","3","f","rechts","24","","","self","j","90","true"
"null","<div style=""font-size:60px;"">+</div>","null","html-keyboard-response","46","66813","0.0-6.0-0.20","MEVO","3","f","rechts","24","","fixation","","","",""
"819","img/0_240.png","70","image-keyboard-response","47","67633","0.0-6.0-1.20","MEVO","3","f","rechts","24","","","self","f","0","true"
"null","<div style=""font-size:60px;"">+</div>","null","html-keyboard-response","48","67985","0.0-6.0-0.21","MEVO","3","f","rechts","24","","fixation","","","",""
"1217","img/30_120.png","74","image-keyboard-response","49","69203","0.0-6.0-1.21","MEVO","3","f","rechts","24","","","self","j","30","true"
"null","<div style=""font-size:60px;"">+</div>","null","html-keyboard-response","50","69705","0.0-6.0-0.22","MEVO","3","f","rechts","24","","fixation","","","",""
"1182","img/150_240.png","74","image-keyboard-response","51","70888","0.0-6.0-1.22","MEVO","3","f","rechts","24","","","self","j","150","true"
"null","<div style=""font-size:60px;"">+</div>","null","html-keyboard-response","52","71390","0.0-6.0-0.23","MEVO","3","f","rechts","24","","fixation","","","",""
"969","img/60_150.png","70","image-keyboard-response","53","72360","0.0-6.0-1.23","MEVO","3","f","rechts","24","","","self","f","60","true"
"null","<div style=""font-size:60px;"">+</div>","null","html-keyboard-response","54","72812","0.0-6.0-0.24","MEVO","3","f","rechts","24","","fixation","","","",""
"911","img/90_300.png","70","image-keyboard-response","55","73724","0.0-6.0-1.24","MEVO","3","f","rechts","24","","","self","f","90","true"
"null","<div style=""font-size:60px;"">+</div>","null","html-keyboard-response","56","74226","0.0-6.0-0.25","MEVO","3","f","rechts","24","","fixation","","","",""
"833","img/90_210.png","74","image-keyboard-response","57","75060","0.0-6.0-1.25","MEVO","3","f","rechts","24","","","self","j","90","true"
"null","<div style=""font-size:60px;"">+</div>","null","html-keyboard-response","58","75412","0.0-6.0-0.26","MEVO","3","f","rechts","24","","fixation","","","",""
"882","img/L120_180.png","70","image-keyboard-response","59","76295","0.0-6.0-1.26","MEVO","3","f","rechts","24","","","self","f","120","true"
"null","<div style=""font-size:60px;"">+</div>","null","html-keyboard-response","60","76747","0.0-6.0-0.27","MEVO","3","f","rechts","24","","fixation","","","",""
"696","img/120_150.png","70","image-keyboard-response","61","77444","0.0-6.0-1.27","MEVO","3","f","rechts","24","","","self","f","120","true"
"null","<div style=""font-size:60px;"">+</div>","null","html-keyboard-response","62","77895","0.0-6.0-0.28","MEVO","3","f","rechts","24","","fixation","","","",""
"917","img/60_180.png","74","image-keyboard-response","63","78813","0.0-6.0-1.28","MEVO","3","f","rechts","24","","","self","j","60","true"
"null","<div style=""font-size:60px;"">+</div>","null","html-keyboard-response","64","79164","0.0-6.0-0.29","MEVO","3","f","rechts","24","","fixation","","","",""
"975","img/60_90.png","70","image-keyboard-response","65","80140","0.0-6.0-1.29","MEVO","3","f","rechts","24","","","self","j","60","false"
"null","<div style=""font-size:60px;"">+</div>","null","html-keyboard-response","66","80592","0.0-6.0-0.30","MEVO","3","f","rechts","24","","fixation","","","",""
"684","img/0_270.png","70","image-keyboard-response","67","81277","0.0-6.0-1.30","MEVO","3","f","rechts","24","","","self","f","0","true"
"null","<div style=""font-size:60px;"">+</div>","null","html-keyboard-response","68","81728","0.0-6.0-0.31","MEVO","3","f","rechts","24","","fixation","","","",""
"933","img/60_330.png","70","image-keyboard-response","69","82662","0.0-6.0-1.31","MEVO","3","f","rechts","24","","","self","f","60","true"
"null","<div style=""font-size:60px;"">+</div>","null","html-keyboard-response","70","83014","0.0-6.0-0.32","MEVO","3","f","rechts","24","","fixation","","","",""
"877","img/120_210.png","74","image-keyboard-response","71","83892","0.0-6.0-1.32","MEVO","3","f","rechts","24","","","self","j","120","true"
"null","<div style=""font-size:60px;"">+</div>","null","html-keyboard-response","72","84244","0.0-6.0-0.33","MEVO","3","f","rechts","24","","fixation","","","",""
"883","img/120_270.png","74","image-keyboard-response","73","85128","0.0-6.0-1.33","MEVO","3","f","rechts","24","","","self","j","120","true"
"null","<div style=""font-size:60px;"">+</div>","null","html-keyboard-response","74","85529","0.0-6.0-0.34","MEVO","3","f","rechts","24","","fixation","","","",""
"905","img/150_180.png","74","image-keyboard-response","75","86435","0.0-6.0-1.34","MEVO","3","f","rechts","24","","","self","j","150","true"
"null","<div style=""font-size:60px;"">+</div>","null","html-keyboard-response","76","86937","0.0-6.0-0.35","MEVO","3","f","rechts","24","","fixation","","","",""
"669","img/150_270.png","74","image-keyboard-response","77","87606","0.0-6.0-1.35","MEVO","3","f","rechts","24","","","self","j","150","true"
"null","<div style=""font-size:60px;"">+</div>","null","html-keyboard-response","78","88107","0.0-6.0-0.36","MEVO","3","f","rechts","24","","fixation","","","",""
"953","img/L90_180.png","70","image-keyboard-response","79","89061","0.0-6.0-1.36","MEVO","3","f","rechts","24","","","self","f","90","true"
"null","<div style=""font-size:60px;"">+</div>","null","html-keyboard-response","80","89413","0.0-6.0-0.37","MEVO","3","f","rechts","24","","fixation","","","",""
"930","img/60_210.png","74","image-keyboard-response","81","90343","0.0-6.0-1.37","MEVO","3","f","rechts","24","","","self","j","60","true"
"null","<div style=""font-size:60px;"">+</div>","null","html-keyboard-response","82","90744","0.0-6.0-0.38","MEVO","3","f","rechts","24","","fixation","","","",""
"838","img/120_90.png","70","image-keyboard-response","83","91584","0.0-6.0-1.38","MEVO","3","f","rechts","24","","","self","f","120","true"
"null","<div style=""font-size:60px;"">+</div>","null","html-keyboard-response","84","91985","0.0-6.0-0.39","MEVO","3","f","rechts","24","","fixation","","","",""
"700","img/0_60.png","74","image-keyboard-response","85","92686","0.0-6.0-1.39","MEVO","3","f","rechts","24","","","self","j","0","true"
"null","<div style=""font-size:60px;"">+</div>","null","html-keyboard-response","86","93187","0.0-6.0-0.40","MEVO","3","f","rechts","24","","fixation","","","",""
"745","img/L150_180.png","70","image-keyboard-response","87","93933","0.0-6.0-1.40","MEVO","3","f","rechts","24","","","self","f","150","true"
"null","<div style=""font-size:60px;"">+</div>","null","html-keyboard-response","88","94334","0.0-6.0-0.41","MEVO","3","f","rechts","24","","fixation","","","",""
"970","img/60_270.png","70","image-keyboard-response","89","95305","0.0-6.0-1.41","MEVO","3","f","rechts","24","","","self","f","60","true"
"null","<div style=""font-size:60px;"">+</div>","null","html-keyboard-response","90","95756","0.0-6.0-0.42","MEVO","3","f","rechts","24","","fixation","","","",""
"1117","img/120_30.png","74","image-keyboard-response","91","96875","0.0-6.0-1.42","MEVO","3","f","rechts","24","","","self","j","120","true"
"null","<div style=""font-size:60px;"">+</div>","null","html-keyboard-response","92","97227","0.0-6.0-0.43","MEVO","3","f","rechts","24","","fixation","","","",""
"1293","img/90_120.png","70","image-keyboard-response","93","98522","0.0-6.0-1.43","MEVO","3","f","rechts","24","","","self","f","90","true"
"null","<div style=""font-size:60px;"">+</div>","null","html-keyboard-response","94","98923","0.0-6.0-0.44","MEVO","3","f","rechts","24","","fixation","","","",""
"1079","img/150_300.png","74","image-keyboard-response","95","100004","0.0-6.0-1.44","MEVO","3","f","rechts","24","","","self","j","150","true"
"null","<div style=""font-size:60px;"">+</div>","null","html-keyboard-response","96","100305","0.0-6.0-0.45","MEVO","3","f","rechts","24","","fixation","","","",""
"914","img/0_300.png","70","image-keyboard-response","97","101221","0.0-6.0-1.45","MEVO","3","f","rechts","24","","","self","f","0","true"
"null","<div style=""font-size:60px;"">+</div>","null","html-keyboard-response","98","101622","0.0-6.0-0.46","MEVO","3","f","rechts","24","","fixation","","","",""
"1133","img/30_60.png","74","image-keyboard-response","99","102756","0.0-6.0-1.46","MEVO","3","f","rechts","24","","","self","j","30","true"
"null","<div style=""font-size:60px;"">+</div>","null","html-keyboard-response","100","103058","0.0-6.0-0.47","MEVO","3","f","rechts","24","","fixation","","","",""
"1092","img/L60_180.png","70","image-keyboard-response","101","104151","0.0-6.0-1.47","MEVO","3","f","rechts","24","","","self","f","60","true"
"null","<div style=""font-size:60px;"">+</div>","null","html-keyboard-response","102","104653","0.0-6.0-0.48","MEVO","3","f","rechts","24","","fixation","","","",""
"863","img/150_60.png","70","image-keyboard-response","103","105518","0.0-6.0-1.48","MEVO","3","f","rechts","24","","","self","f","150","true"
"null","<div style=""font-size:60px;"">+</div>","null","html-keyboard-response","104","105919","0.0-6.0-0.49","MEVO","3","f","rechts","24","","fixation","","","",""
"870","img/150_120.png","70","image-keyboard-response","105","106791","0.0-6.0-1.49","MEVO","3","f","rechts","24","","","self","f","150","true"
"null","<div style=""font-size:60px;"">+</div>","null","html-keyboard-response","106","107292","0.0-6.0-0.50","MEVO","3","f","rechts","24","","fixation","","","",""
"753","img/0_150.png","74","image-keyboard-response","107","108046","0.0-6.0-1.50","MEVO","3","f","rechts","24","","","self","j","0","true"
"null","<div style=""font-size:60px;"">+</div>","null","html-keyboard-response","108","108548","0.0-6.0-0.51","MEVO","3","f","rechts","24","","fixation","","","",""
"666","img/0_330.png","70","image-keyboard-response","109","109215","0.0-6.0-1.51","MEVO","3","f","rechts","24","","","self","f","0","true"
"null","<div style=""font-size:60px;"">+</div>","null","html-keyboard-response","110","109617","0.0-6.0-0.52","MEVO","3","f","rechts","24","","fixation","","","",""
"729","img/L120_180.png","70","image-keyboard-response","111","110347","0.0-6.0-1.52","MEVO","3","f","rechts","24","","","self","f","120","true"
"null","<div style=""font-size:60px;"">+</div>","null","html-keyboard-response","112","110649","0.0-6.0-0.53","MEVO","3","f","rechts","24","","fixation","","","",""
"840","img/60_180.png","74","image-keyboard-response","113","111489","0.0-6.0-1.53","MEVO","3","f","rechts","24","","","self","j","60","true"
"null","<div style=""font-size:60px;"">+</div>","null","html-keyboard-response","114","111991","0.0-6.0-0.54","MEVO","3","f","rechts","24","","fixation","","","",""
"840","img/60_330.png","70","image-keyboard-response","115","112833","0.0-6.0-1.54","MEVO","3","f","rechts","24","","","self","f","60","true"
"null","<div style=""font-size:60px;"">+</div>","null","html-keyboard-response","116","113334","0.0-6.0-0.55","MEVO","3","f","rechts","24","","fixation","","","",""
"930","img/L90_180.png","70","image-keyboard-response","117","114265","0.0-6.0-1.55","MEVO","3","f","rechts","24","","","self","f","90","true"
"null","<div style=""font-size:60px;"">+</div>","null","html-keyboard-response","118","114717","0.0-6.0-0.56","MEVO","3","f","rechts","24","","fixation","","","",""
"791","img/120_150.png","70","image-keyboard-response","119","115508","0.0-6.0-1.56","MEVO","3","f","rechts","24","","","self","f","120","true"
"null","<div style=""font-size:60px;"">+</div>","null","html-keyboard-response","120","115860","0.0-6.0-0.57","MEVO","3","f","rechts","24","","fixation","","","",""
"869","img/30_180.png","74","image-keyboard-response","121","116730","0.0-6.0-1.57","MEVO","3","f","rechts","24","","","self","j","30","true"
"null","<div style=""font-size:60px;"">+</div>","null","html-keyboard-response","122","117182","0.0-6.0-0.58","MEVO","3","f","rechts","24","","fixation","","","",""
"790","img/L150_180.png","70","image-keyboard-response","123","117972","0.0-6.0-1.58","MEVO","3","f","rechts","24","","","self","f","150","true"
"null","<div style=""font-size:60px;"">+</div>","null","html-keyboard-response","124","118374","0.0-6.0-0.59","MEVO","3","f","rechts","24","","fixation","","","",""
"696","img/0_90.png","74","image-keyboard-response","125","119070","0.0-6.0-1.59","MEVO","3","f","rechts","24","","","self","j","0","true"
"null","<div style=""font-size:60px;"">+</div>","null","html-keyboard-response","126","119472","0.0-6.0-0.60","MEVO","3","f","rechts","24","","fixation","","","",""
"641","img/150_270.png","74","image-keyboard-response","127","120114","0.0-6.0-1.60","MEVO","3","f","rechts","24","","","self","j","150","true"
"null","<div style=""font-size:60px;"">+</div>","null","html-keyboard-response","128","120416","0.0-6.0-0.61","MEVO","3","f","rechts","24","","fixation","","","",""
"874","img/90_60.png","70","image-keyboard-response","129","121290","0.0-6.0-1.61","MEVO","3","f","rechts","24","","","self","j","90","false"
"null","<div style=""font-size:60px;"">+</div>","null","html-keyboard-response","130","121792","0.0-6.0-0.62","MEVO","3","f","rechts","24","","fixation","","","",""
"964","img/30_300.png","70","image-keyboard-response","131","122756","0.0-6.0-1.62","MEVO","3","f","rechts","24","","","self","f","30","true"
"null","<div style=""font-size:60px;"">+</div>","null","html-keyboard-response","132","123058","0.0-6.0-0.63","MEVO","3","f","rechts","24","","fixation","","","",""
"870","img/30_240.png","70","image-keyboard-response","133","123928","0.0-6.0-1.63","MEVO","3","f","rechts","24","","","self","f","30","true"
"null","<div style=""font-size:60px;"">+</div>","null","html-keyboard-response","134","124280","0.0-6.0-0.64","MEVO","3","f","rechts","24","","fixation","","","",""
"1153","img/120_90.png","70","image-keyboard-response","135","125434","0.0-6.0-1.64","MEVO","3","f","rechts","24","","","self","f","120","true"
"null","<div style=""font-size:60px;"">+</div>","null","html-keyboard-response","136","125786","0.0-6.0-0.65","MEVO","3","f","rechts","24","","fixation","","","",""
"880","img/150_180.png","74","image-keyboard-response","137","126666","0.0-6.0-1.65","MEVO","3","f","rechts","24","","","self","j","150","true"
"null","<div style=""font-size:60px;"">+</div>","null","html-keyboard-response","138","127168","0.0-6.0-0.66","MEVO","3","f","rechts","24","","fixation","","","",""
"907","img/120_30.png","70","image-keyboard-response","139","128075","0.0-6.0-1.66","MEVO","3","f","rechts","24","","","self","j","120","false"
"null","<div style=""font-size:60px;"">+</div>","null","html-keyboard-response","140","128577","0.0-6.0-0.67","MEVO","3","f","rechts","24","","fixation","","","",""
"751","img/0_210.png","70","image-keyboard-response","141","129329","0.0-6.0-1.67","MEVO","3","f","rechts","24","","","self","f","0","true"
"null","<div style=""font-size:60px;"">+</div>","null","html-keyboard-response","142","129631","0.0-6.0-0.68","MEVO","3","f","rechts","24","","fixation","","","",""
"980","img/90_120.png","70","image-keyboard-response","143","130611","0.0-6.0-1.68","MEVO","3","f","rechts","24","","","self","f","90","true"
"null","<div style=""font-size:60px;"">+</div>","null","html-keyboard-response","144","131063","0.0-6.0-0.69","MEVO","3","f","rechts","24","","fixation","","","",""
"912","img/90_300.png","70","image-keyboard-response","145","131975","0.0-6.0-1.69","MEVO","3","f","rechts","24","","","self","f","90","true"
"null","<div style=""font-size:60px;"">+</div>","null","html-keyboard-response","146","132376","0.0-6.0-0.70","MEVO","3","f","rechts","24","","fixation","","","",""
"896","img/L60_180.png","70","image-keyboard-response","147","133273","0.0-6.0-1.70","MEVO","3","f","rechts","24","","","self","f","60","true"
"null","<div style=""font-size:60px;"">+</div>","null","html-keyboard-response","148","133574","0.0-6.0-0.71","MEVO","3","f","rechts","24","","fixation","","","",""
"1146","img/30_120.png","74","image-keyboard-response","149","134721","0.0-6.0-1.71","MEVO","3","f","rechts","24","","","self","j","30","true"
"null","<div style=""font-size:60px;"">+</div>","null","html-keyboard-response","150","135172","0.0-6.0-0.72","MEVO","3","f","rechts","24","","fixation","","","",""
"745","img/0_120.png","74","image-keyboard-response","151","135918","0.0-6.0-1.72","MEVO","3","f","rechts","24","","","self","j","0","true"
"null","<div style=""font-size:60px;"">+</div>","null","html-keyboard-response","152","136420","0.0-6.0-0.73","MEVO","3","f","rechts","24","","fixation","","","",""
"696","img/0_150.png","74","image-keyboard-response","153","137116","0.0-6.0-1.73","MEVO","3","f","rechts","24","","","self","j","0","true"
"null","<div style=""font-size:60px;"">+</div>","null","html-keyboard-response","154","137518","0.0-6.0-0.74","MEVO","3","f","rechts","24","","fixation","","","",""
"778","img/60_150.png","70","image-keyboard-response","155","138296","0.0-6.0-1.74","MEVO","3","f","rechts","24","","","self","f","60","true"
"null","<div style=""font-size:60px;"">+</div>","null","html-keyboard-response","156","138698","0.0-6.0-0.75","MEVO","3","f","rechts","24","","fixation","","","",""
"707","img/0_60.png","74","image-keyboard-response","157","139405","0.0-6.0-1.75","MEVO","3","f","rechts","24","","","self","j","0","true"
"null","<div style=""font-size:60px;"">+</div>","null","html-keyboard-response","158","139756","0.0-6.0-0.76","MEVO","3","f","rechts","24","","fixation","","","",""
"783","img/L30_180.png","70","image-keyboard-response","159","140540","0.0-6.0-1.76","MEVO","3","f","rechts","24","","","self","f","30","true"
"null","<div style=""font-size:60px;"">+</div>","null","html-keyboard-response","160","140992","0.0-6.0-0.77","MEVO","3","f","rechts","24","","fixation","","","",""
"696","img/90_150.png","70","image-keyboard-response","161","141688","0.0-6.0-1.77","MEVO","3","f","rechts","24","","","self","f","90","true"
"null","<div style=""font-size:60px;"">+</div>","null","html-keyboard-response","162","142089","0.0-6.0-0.78","MEVO","3","f","rechts","24","","fixation","","","",""
"729","img/90_210.png","74","image-keyboard-response","163","142820","0.0-6.0-1.78","MEVO","3","f","rechts","24","","","self","j","90","true"
"null","<div style=""font-size:60px;"">+</div>","null","html-keyboard-response","164","143321","0.0-6.0-0.79","MEVO","3","f","rechts","24","","fixation","","","",""
"713","img/60_90.png","74","image-keyboard-response","165","144035","0.0-6.0-1.79","MEVO","3","f","rechts","24","","","self","j","60","true"
"null","<div style=""font-size:60px;"">+</div>","null","html-keyboard-response","166","144536","0.0-6.0-0.80","MEVO","3","f","rechts","24","","fixation","","","",""
"782","img/30_270.png","70","image-keyboard-response","167","145319","0.0-6.0-1.80","MEVO","3","f","rechts","24","","","self","f","30","true"
"null","<div style=""font-size:60px;"">+</div>","null","html-keyboard-response","168","145821","0.0-6.0-0.81","MEVO","3","f","rechts","24","","fixation","","","",""
"690","img/120_270.png","74","image-keyboard-response","169","146512","0.0-6.0-1.81","MEVO","3","f","rechts","24","","","self","j","120","true"
"null","<div style=""font-size:60px;"">+</div>","null","html-keyboard-response","170","146863","0.0-6.0-0.82","MEVO","3","f","rechts","24","","fixation","","","",""
"1153","img/120_330.png","70","image-keyboard-response","171","148018","0.0-6.0-1.82","MEVO","3","f","rechts","24","","","self","f","120","true"
"null","<div style=""font-size:60px;"">+</div>","null","html-keyboard-response","172","148319","0.0-6.0-0.83","MEVO","3","f","rechts","24","","fixation","","","",""
"706","img/0_30.png","74","image-keyboard-response","173","149027","0.0-6.0-1.83","MEVO","3","f","rechts","24","","","self","j","0","true"
"null","<div style=""font-size:60px;"">+</div>","null","html-keyboard-response","174","149528","0.0-6.0-0.84","MEVO","3","f","rechts","24","","fixation","","","",""
"625","img/0_330.png","70","image-keyboard-response","175","150155","0.0-6.0-1.84","MEVO","3","f","rechts","24","","","self","f","0","true"
"null","<div style=""font-size:60px;"">+</div>","null","html-keyboard-response","176","150606","0.0-6.0-0.85","MEVO","3","f","rechts","24","","fixation","","","",""
"624","img/0_240.png","70","image-keyboard-response","177","151232","0.0-6.0-1.85","MEVO","3","f","rechts","24","","","self","f","0","true"
"null","<div style=""font-size:60px;"">+</div>","null","html-keyboard-response","178","151683","0.0-6.0-0.86","MEVO","3","f","rechts","24","","fixation","","","",""
"741","img/30_90.png","74","image-keyboard-response","179","152425","0.0-6.0-1.86","MEVO","3","f","rechts","24","","","self","j","30","true"
"null","<div style=""font-size:60px;"">+</div>","null","html-keyboard-response","180","152827","0.0-6.0-0.87","MEVO","3","f","rechts","24","","fixation","","","",""
"922","img/90_240.png","74","image-keyboard-response","181","153751","0.0-6.0-1.87","MEVO","3","f","rechts","24","","","self","j","90","true"
"null","<div style=""font-size:60px;"">+</div>","null","html-keyboard-response","182","154152","0.0-6.0-0.88","MEVO","3","f","rechts","24","","fixation","","","",""
"1107","img/60_30.png","74","image-keyboard-response","183","155260","0.0-6.0-1.88","MEVO","3","f","rechts","24","","","self","j","60","true"
"null","<div style=""font-size:60px;"">+</div>","null","html-keyboard-response","184","155611","0.0-6.0-0.89","MEVO","3","f","rechts","24","","fixation","","","",""
"766","img/90_30.png","74","image-keyboard-response","185","156377","0.0-6.0-1.89","MEVO","3","f","rechts","24","","","self","j","90","true"
"null","<div style=""font-size:60px;"">+</div>","null","html-keyboard-response","186","156828","0.0-6.0-0.90","MEVO","3","f","rechts","24","","fixation","","","",""
"751","img/30_60.png","74","image-keyboard-response","187","157580","0.0-6.0-1.90","MEVO","3","f","rechts","24","","","self","j","30","true"
"null","<div style=""font-size:60px;"">+</div>","null","html-keyboard-response","188","158032","0.0-6.0-0.91","MEVO","3","f","rechts","24","","fixation","","","",""
"914","img/60_210.png","74","image-keyboard-response","189","158947","0.0-6.0-1.91","MEVO","3","f","rechts","24","","","self","j","60","true"
"null","<div style=""font-size:60px;"">+</div>","null","html-keyboard-response","190","159349","0.0-6.0-0.92","MEVO","3","f","rechts","24","","fixation","","","",""
"1207","img/90_330.png","70","image-keyboard-response","191","160557","0.0-6.0-1.92","MEVO","3","f","rechts","24","","","self","f","90","true"
"null","<div style=""font-size:60px;"">+</div>","null","html-keyboard-response","192","161009","0.0-6.0-0.93","MEVO","3","f","rechts","24","","fixation","","","",""
"693","img/0_270.png","70","image-keyboard-response","193","161703","0.0-6.0-1.93","MEVO","3","f","rechts","24","","","self","f","0","true"
"null","<div style=""font-size:60px;"">+</div>","null","html-keyboard-response","194","162005","0.0-6.0-0.94","MEVO","3","f","rechts","24","","fixation","","","",""
"827","img/120_180.png","74","image-keyboard-response","195","162832","0.0-6.0-1.94","MEVO","3","f","rechts","24","","","self","j","120","true"
"null","<div style=""font-size:60px;"">+</div>","null","html-keyboard-response","196","163184","0.0-6.0-0.95","MEVO","3","f","rechts","24","","fixation","","","",""
"658","img/120_210.png","74","image-keyboard-response","197","163843","0.0-6.0-1.95","MEVO","3","f","rechts","24","","","self","j","120","true"
"null","<div style=""font-size:60px;"">+</div>","null","html-keyboard-response","198","164295","0.0-6.0-0.96","MEVO","3","f","rechts","24","","fixation","","","",""
"1201","img/150_90.png","74","image-keyboard-response","199","165497","0.0-6.0-1.96","MEVO","3","f","rechts","24","","","self","f","150","false"
"null","<div style=""font-size:60px;"">+</div>","null","html-keyboard-response","200","165999","0.0-6.0-0.97","MEVO","3","f","rechts","24","","fixation","","","",""
"1074","img/150_240.png","70","image-keyboard-response","201","167074","0.0-6.0-1.97","MEVO","3","f","rechts","24","","","self","j","150","false"
"null","<div style=""font-size:60px;"">+</div>","null","html-keyboard-response","202","167425","0.0-6.0-0.98","MEVO","3","f","rechts","24","","fixation","","","",""
"893","img/150_300.png","74","image-keyboard-response","203","168319","0.0-6.0-1.98","MEVO","3","f","rechts","24","","","self","j","150","true"
"null","<div style=""font-size:60px;"">+</div>","null","html-keyboard-response","204","168721","0.0-6.0-0.99","MEVO","3","f","rechts","24","","fixation","","","",""
"874","img/150_60.png","74","image-keyboard-response","205","169596","0.0-6.0-1.99","MEVO","3","f","rechts","24","","","self","f","150","false"
"null","<div style=""font-size:60px;"">+</div>","null","html-keyboard-response","206","169898","0.0-6.0-0.100","MEVO","3","f","rechts","24","","fixation","","","",""
"1367","img/60_270.png","70","image-keyboard-response","207","171266","0.0-6.0-1.100","MEVO","3","f","rechts","24","","","self","f","60","true"
"null","<div style=""font-size:60px;"">+</div>","null","html-keyboard-response","208","171668","0.0-6.0-0.101","MEVO","3","f","rechts","24","","fixation","","","",""
"776","img/90_180.png","74","image-keyboard-response","209","172445","0.0-6.0-1.101","MEVO","3","f","rechts","24","","","self","j","90","true"
"null","<div style=""font-size:60px;"">+</div>","null","html-keyboard-response","210","172747","0.0-6.0-0.102","MEVO","3","f","rechts","24","","fixation","","","",""
"927","img/150_120.png","70","image-keyboard-response","211","173674","0.0-6.0-1.102","MEVO","3","f","rechts","24","","","self","f","150","true"
"null","<div style=""font-size:60px;"">+</div>","null","html-keyboard-response","212","174176","0.0-6.0-0.103","MEVO","3","f","rechts","24","","fixation","","","",""
"673","img/0_300.png","70","image-keyboard-response","213","174849","0.0-6.0-1.103","MEVO","3","f","rechts","24","","","self","f","0","true"
"null","<div style=""font-size:60px;"">+</div>","null","html-keyboard-response","214","175351","0.0-6.0-0.104","MEVO","3","f","rechts","24","","fixation","","","",""
"912","img/90_300.png","74","image-keyboard-response","215","176264","0.0-6.0-1.104","MEVO","3","f","rechts","24","","","self","f","90","false"
"null","<div style=""font-size:60px;"">+</div>","null","html-keyboard-response","216","176616","0.0-6.0-0.105","MEVO","3","f","rechts","24","","fixation","","","",""
"727","img/0_90.png","74","image-keyboard-response","217","177343","0.0-6.0-1.105","MEVO","3","f","rechts","24","","","self","j","0","true"
"null","<div style=""font-size:60px;"">+</div>","null","html-keyboard-response","218","177745","0.0-6.0-0.106","MEVO","3","f","rechts","24","","fixation","","","",""
"1533","img/90_30.png","74","image-keyboard-response","219","179278","0.0-6.0-1.106","MEVO","3","f","rechts","24","","","self","j","90","true"
"null","<div style=""font-size:60px;"">+</div>","null","html-keyboard-response","220","179580","0.0-6.0-0.107","MEVO","3","f","rechts","24","","fixation","","","",""
"851","img/0_240.png","70","image-keyboard-response","221","180431","0.0-6.0-1.107","MEVO","3","f","rechts","24","","","self","f","0","true"
"null","<div style=""font-size:60px;"">+</div>","null","html-keyboard-response","222","180933","0.0-6.0-0.108","MEVO","3","f","rechts","24","","fixation","","","",""
"877","img/90_240.png","74","image-keyboard-response","223","181810","0.0-6.0-1.108","MEVO","3","f","rechts","24","","","self","j","90","true"
"null","<div style=""font-size:60px;"">+</div>","null","html-keyboard-response","224","182261","0.0-6.0-0.109","MEVO","3","f","rechts","24","","fixation","","","",""
"722","img/0_270.png","70","image-keyboard-response","225","182984","0.0-6.0-1.109","MEVO","3","f","rechts","24","","","self","f","0","true"
"null","<div style=""font-size:60px;"">+</div>","null","html-keyboard-response","226","183486","0.0-6.0-0.110","MEVO","3","f","rechts","24","","fixation","","","",""
"1006","img/30_60.png","74","image-keyboard-response","227","184492","0.0-6.0-1.110","MEVO","3","f","rechts","24","","","self","j","30","true"
"null","<div style=""font-size:60px;"">+</div>","null","html-keyboard-response","228","184894","0.0-6.0-0.111","MEVO","3","f","rechts","24","","fixation","","","",""
"869","img/L90_180.png","70","image-keyboard-response","229","185763","0.0-6.0-1.111","MEVO","3","f","rechts","24","","","self","f","90","true"
"null","<div style=""font-size:60px;"">+</div>","null","html-keyboard-response","230","186165","0.0-6.0-0.112","MEVO","3","f","rechts","24","","fixation","","","",""
"842","img/60_90.png","74","image-keyboard-response","231","187007","0.0-6.0-1.112","MEVO","3","f","rechts","24","","","self","j","60","true"
"null","<div style=""font-size:60px;"">+</div>","null","html-keyboard-response","232","187459","0.0-6.0-0.113","MEVO","3","f","rechts","24","","fixation","","","",""
"810","img/30_300.png","70","image-keyboard-response","233","188269","0.0-6.0-1.113","MEVO","3","f","rechts","24","","","self","f","30","true"
"null","<div style=""font-size:60px;"">+</div>","null","html-keyboard-response","234","188720","0.0-6.0-0.114","MEVO","3","f","rechts","24","","fixation","","","",""
"826","img/120_270.png","74","image-keyboard-response","235","189547","0.0-6.0-1.114","MEVO","3","f","rechts","24","","","self","j","120","true"
"null","<div style=""font-size:60px;"">+</div>","null","html-keyboard-response","236","189849","0.0-6.0-0.115","MEVO","3","f","rechts","24","","fixation","","","",""
"789","img/L120_180.png","70","image-keyboard-response","237","190639","0.0-6.0-1.115","MEVO","3","f","rechts","24","","","self","f","120","true"
"null","<div style=""font-size:60px;"">+</div>","null","html-keyboard-response","238","191040","0.0-6.0-0.116","MEVO","3","f","rechts","24","","fixation","","","",""
"1080","img/L60_180.png","70","image-keyboard-response","239","192121","0.0-6.0-1.116","MEVO","3","f","rechts","24","","","self","f","60","true"
"null","<div style=""font-size:60px;"">+</div>","null","html-keyboard-response","240","192473","0.0-6.0-0.117","MEVO","3","f","rechts","24","","fixation","","","",""
"1072","img/60_270.png","70","image-keyboard-response","241","193545","0.0-6.0-1.117","MEVO","3","f","rechts","24","","","self","f","60","true"
"null","<div style=""font-size:60px;"">+</div>","null","html-keyboard-response","242","193947","0.0-6.0-0.118","MEVO","3","f","rechts","24","","fixation","","","",""
"1079","img/30_180.png","74","image-keyboard-response","243","195026","0.0-6.0-1.118","MEVO","3","f","rechts","24","","","self","j","30","true"
"null","<div style=""font-size:60px;"">+</div>","null","html-keyboard-response","244","195478","0.0-6.0-0.119","MEVO","3","f","rechts","24","","fixation","","","",""
"819","img/60_150.png","70","image-keyboard-response","245","196297","0.0-6.0-1.119","MEVO","3","f","rechts","24","","","self","f","60","true"
"null","<div style=""font-size:60px;"">+</div>","null","html-keyboard-response","246","196599","0.0-6.0-0.120","MEVO","3","f","rechts","24","","fixation","","","",""
"723","img/0_60.png","74","image-keyboard-response","247","197322","0.0-6.0-1.120","MEVO","3","f","rechts","24","","","self","j","0","true"
"null","<div style=""font-size:60px;"">+</div>","null","html-keyboard-response","248","197823","0.0-6.0-0.121","MEVO","3","f","rechts","24","","fixation","","","",""
"795","img/60_210.png","74","image-keyboard-response","249","198620","0.0-6.0-1.121","MEVO","3","f","rechts","24","","","self","j","60","true"
"null","<div style=""font-size:60px;"">+</div>","null","html-keyboard-response","250","199071","0.0-6.0-0.122","MEVO","3","f","rechts","24","","fixation","","","",""
"903","img/150_60.png","70","image-keyboard-response","251","199976","0.0-6.0-1.122","MEVO","3","f","rechts","24","","","self","f","150","true"
"null","<div style=""font-size:60px;"">+</div>","null","html-keyboard-response","252","200477","0.0-6.0-0.123","MEVO","3","f","rechts","24","","fixation","","","",""
"998","img/60_30.png","74","image-keyboard-response","253","201477","0.0-6.0-1.123","MEVO","3","f","rechts","24","","","self","j","60","true"
"null","<div style=""font-size:60px;"">+</div>","null","html-keyboard-response","254","201928","0.0-6.0-0.124","MEVO","3","f","rechts","24","","fixation","","","",""
"879","img/L150_180.png","70","image-keyboard-response","255","202808","0.0-6.0-1.124","MEVO","3","f","rechts","24","","","self","f","150","true"
"null","<div style=""font-size:60px;"">+</div>","null","html-keyboard-response","256","203260","0.0-6.0-0.125","MEVO","3","f","rechts","24","","fixation","","","",""
"869","img/150_240.png","74","image-keyboard-response","257","204131","0.0-6.0-1.125","MEVO","3","f","rechts","24","","","self","j","150","true"
"null","<div style=""font-size:60px;"">+</div>","null","html-keyboard-response","258","204532","0.0-6.0-0.126","MEVO","3","f","rechts","24","","fixation","","","",""
"1069","img/30_240.png","70","image-keyboard-response","259","205603","0.0-6.0-1.126","MEVO","3","f","rechts","24","","","self","f","30","true"
"null","<div style=""font-size:60px;"">+</div>","null","html-keyboard-response","260","205954","0.0-6.0-0.127","MEVO","3","f","rechts","24","","fixation","","","",""
"692","img/0_150.png","74","image-keyboard-response","261","206648","0.0-6.0-1.127","MEVO","3","f","rechts","24","","","self","j","0","true"
"null","<div style=""font-size:60px;"">+</div>","null","html-keyboard-response","262","207049","0.0-6.0-0.128","MEVO","3","f","rechts","24","","fixation","","","",""
"718","img/0_300.png","70","image-keyboard-response","263","207769","0.0-6.0-1.128","MEVO","3","f","rechts","24","","","self","f","0","true"
"null","<div style=""font-size:60px;"">+</div>","null","html-keyboard-response","264","208220","0.0-6.0-0.129","MEVO","3","f","rechts","24","","fixation","","","",""
"859","img/120_180.png","74","image-keyboard-response","265","209081","0.0-6.0-1.129","MEVO","3","f","rechts","24","","","self","j","120","true"
"null","<div style=""font-size:60px;"">+</div>","null","html-keyboard-response","266","209382","0.0-6.0-0.130","MEVO","3","f","rechts","24","","fixation","","","",""
"1076","img/150_120.png","70","image-keyboard-response","267","210459","0.0-6.0-1.130","MEVO","3","f","rechts","24","","","self","f","150","true"
"null","<div style=""font-size:60px;"">+</div>","null","html-keyboard-response","268","210810","0.0-6.0-0.131","MEVO","3","f","rechts","24","","fixation","","","",""
"1171","img/60_180.png","74","image-keyboard-response","269","211982","0.0-6.0-1.131","MEVO","3","f","rechts","24","","","self","j","60","true"
"null","<div style=""font-size:60px;"">+</div>","null","html-keyboard-response","270","212384","0.0-6.0-0.132","MEVO","3","f","rechts","24","","fixation","","","",""
"822","img/90_120.png","70","image-keyboard-response","271","213207","0.0-6.0-1.132","MEVO","3","f","rechts","24","","","self","f","90","true"
"null","<div style=""font-size:60px;"">+</div>","null","html-keyboard-response","272","213609","0.0-6.0-0.133","MEVO","3","f","rechts","24","","fixation","","","",""
"723","img/0_330.png","70","image-keyboard-response","273","214333","0.0-6.0-1.133","MEVO","3","f","rechts","24","","","self","f","0","true"
"null","<div style=""font-size:60px;"">+</div>","null","html-keyboard-response","274","214685","0.0-6.0-0.134","MEVO","3","f","rechts","24","","fixation","","","",""
"983","img/L30_180.png","70","image-keyboard-response","275","215669","0.0-6.0-1.134","MEVO","3","f","rechts","24","","","self","f","30","true"
"null","<div style=""font-size:60px;"">+</div>","null","html-keyboard-response","276","216121","0.0-6.0-0.135","MEVO","3","f","rechts","24","","fixation","","","",""
"882","img/150_300.png","74","image-keyboard-response","277","217004","0.0-6.0-1.135","MEVO","3","f","rechts","24","","","self","j","150","true"
"null","<div style=""font-size:60px;"">+</div>","null","html-keyboard-response","278","217306","0.0-6.0-0.136","MEVO","3","f","rechts","24","","fixation","","","",""
"787","img/150_180.png","74","image-keyboard-response","279","218094","0.0-6.0-1.136","MEVO","3","f","rechts","24","","","self","j","150","true"
"null","<div style=""font-size:60px;"">+</div>","null","html-keyboard-response","280","218596","0.0-6.0-0.137","MEVO","3","f","rechts","24","","fixation","","","",""
"883","img/120_330.png","70","image-keyboard-response","281","219480","0.0-6.0-1.137","MEVO","3","f","rechts","24","","","self","f","120","true"
"null","<div style=""font-size:60px;"">+</div>","null","html-keyboard-response","282","219832","0.0-6.0-0.138","MEVO","3","f","rechts","24","","fixation","","","",""
"1145","img/90_150.png","70","image-keyboard-response","283","220978","0.0-6.0-1.138","MEVO","3","f","rechts","24","","","self","f","90","true"
"null","<div style=""font-size:60px;"">+</div>","null","html-keyboard-response","284","221329","0.0-6.0-0.139","MEVO","3","f","rechts","24","","fixation","","","",""
"1131","img/120_30.png","74","image-keyboard-response","285","222461","0.0-6.0-1.139","MEVO","3","f","rechts","24","","","self","j","120","true"
"null","<div style=""font-size:60px;"">+</div>","null","html-keyboard-response","286","222763","0.0-6.0-0.140","MEVO","3","f","rechts","24","","fixation","","","",""
"1690","img/90_330.png","70","image-keyboard-response","287","224454","0.0-6.0-1.140","MEVO","3","f","rechts","24","","","self","f","90","true"
"null","<div style=""font-size:60px;"">+</div>","null","html-keyboard-response","288","224906","0.0-6.0-0.141","MEVO","3","f","rechts","24","","fixation","","","",""
"683","img/0_120.png","74","image-keyboard-response","289","225590","0.0-6.0-1.141","MEVO","3","f","rechts","24","","","self","j","0","true"
"null","<div style=""font-size:60px;"">+</div>","null","html-keyboard-response","290","226042","0.0-6.0-0.142","MEVO","3","f","rechts","24","","fixation","","","",""
"802","img/150_270.png","74","image-keyboard-response","291","226845","0.0-6.0-1.142","MEVO","3","f","rechts","24","","","self","j","150","true"
"null","<div style=""font-size:60px;"">+</div>","null","html-keyboard-response","292","227247","0.0-6.0-0.143","MEVO","3","f","rechts","24","","fixation","","","",""
"689","img/120_210.png","74","image-keyboard-response","293","227937","0.0-6.0-1.143","MEVO","3","f","rechts","24","","","self","j","120","true"
"null","<div style=""font-size:60px;"">+</div>","null","html-keyboard-response","294","228239","0.0-6.0-0.144","MEVO","3","f","rechts","24","","fixation","","","",""
"916","img/120_150.png","70","image-keyboard-response","295","229155","0.0-6.0-1.144","MEVO","3","f","rechts","24","","","self","f","120","true"
"null","<div style=""font-size:60px;"">+</div>","null","html-keyboard-response","296","229457","0.0-6.0-0.145","MEVO","3","f","rechts","24","","fixation","","","",""
"770","img/0_210.png","70","image-keyboard-response","297","230227","0.0-6.0-1.145","MEVO","3","f","rechts","24","","","self","f","0","true"
"null","<div style=""font-size:60px;"">+</div>","null","html-keyboard-response","298","230529","0.0-6.0-0.146","MEVO","3","f","rechts","24","","fixation","","","",""
"1188","img/30_120.png","70","image-keyboard-response","299","231717","0.0-6.0-1.146","MEVO","3","f","rechts","24","","","self","j","30","false"
"null","<div style=""font-size:60px;"">+</div>","null","html-keyboard-response","300","232219","0.0-6.0-0.147","MEVO","3","f","rechts","24","","fixation","","","",""
"721","img/90_180.png","74","image-keyboard-response","301","232941","0.0-6.0-1.147","MEVO","3","f","rechts","24","","","self","j","90","true"
"null","<div style=""font-size:60px;"">+</div>","null","html-keyboard-response","302","233342","0.0-6.0-0.148","MEVO","3","f","rechts","24","","fixation","","","",""
"976","img/30_270.png","70","image-keyboard-response","303","234319","0.0-6.0-1.148","MEVO","3","f","rechts","24","","","self","f","30","true"
"null","<div style=""font-size:60px;"">+</div>","null","html-keyboard-response","304","234671","0.0-6.0-0.149","MEVO","3","f","rechts","24","","fixation","","","",""
"715","img/0_30.png","74","image-keyboard-response","305","235386","0.0-6.0-1.149","MEVO","3","f","rechts","24","","","self","j","0","true"
"null","<div style=""font-size:60px;"">+</div>","null","html-keyboard-response","306","235738","0.0-6.0-0.150","MEVO","3","f","rechts","24","","fixation","","","",""
"813","img/150_90.png","70","image-keyboard-response","307","236551","0.0-6.0-1.150","MEVO","3","f","rechts","24","","","self","f","150","true"
"null","<div style=""font-size:60px;"">+</div>","null","html-keyboard-response","308","236903","0.0-6.0-0.151","MEVO","3","f","rechts","24","","fixation","","","",""
"1660","img/30_90.png","70","image-keyboard-response","309","238563","0.0-6.0-1.151","MEVO","3","f","rechts","24","","","self","j","30","false"
"null","<div style=""font-size:60px;"">+</div>","null","html-keyboard-response","310","239063","0.0-6.0-0.152","MEVO","3","f","rechts","24","","fixation","","","",""
"893","img/120_90.png","70","image-keyboard-response","311","239957","0.0-6.0-1.152","MEVO","3","f","rechts","24","","","self","f","120","true"
"null","<div style=""font-size:60px;"">+</div>","null","html-keyboard-response","312","240309","0.0-6.0-0.153","MEVO","3","f","rechts","24","","fixation","","","",""
"1006","img/60_330.png","70","image-keyboard-response","313","241315","0.0-6.0-1.153","MEVO","3","f","rechts","24","","","self","f","60","true"
"null","<div style=""font-size:60px;"">+</div>","null","html-keyboard-response","314","241816","0.0-6.0-0.154","MEVO","3","f","rechts","24","","fixation","","","",""
"996","img/90_210.png","74","image-keyboard-response","315","242813","0.0-6.0-1.154","MEVO","3","f","rechts","24","","","self","j","90","true"
"null","<div style=""font-size:60px;"">+</div>","null","html-keyboard-response","316","243215","0.0-6.0-0.155","MEVO","3","f","rechts","24","","fixation","","","",""
"1062","img/90_60.png","74","image-keyboard-response","317","244278","0.0-6.0-1.155","MEVO","3","f","rechts","24","","","self","j","90","true"
"null","<div style=""font-size:60px;"">+</div>","null","html-keyboard-response","318","244579","0.0-6.0-0.156","MEVO","3","f","rechts","24","","fixation","","","",""
"848","img/30_60.png","74","image-keyboard-response","319","245428","0.0-6.0-1.156","MEVO","3","f","rechts","24","","","self","j","30","true"
"null","<div style=""font-size:60px;"">+</div>","null","html-keyboard-response","320","245830","0.0-6.0-0.157","MEVO","3","f","rechts","24","","fixation","","","",""
"872","img/30_120.png","74","image-keyboard-response","321","246702","0.0-6.0-1.157","MEVO","3","f","rechts","24","","","self","j","30","true"
"null","<div style=""font-size:60px;"">+</div>","null","html-keyboard-response","322","247103","0.0-6.0-0.158","MEVO","3","f","rechts","24","","fixation","","","",""
"969","img/L90_180.png","70","image-keyboard-response","323","248074","0.0-6.0-1.158","MEVO","3","f","rechts","24","","","self","f","90","true"
"null","<div style=""font-size:60px;"">+</div>","null","html-keyboard-response","324","248475","0.0-6.0-0.159","MEVO","3","f","rechts","24","","fixation","","","",""
"844","img/120_180.png","74","image-keyboard-response","325","249321","0.0-6.0-1.159","MEVO","3","f","rechts","24","","","self","j","120","true"
"null","<div style=""font-size:60px;"">+</div>","null","html-keyboard-response","326","249822","0.0-6.0-0.160","MEVO","3","f","rechts","24","","fixation","","","",""
"690","img/L120_180.png","70","image-keyboard-response","327","250514","0.0-6.0-1.160","MEVO","3","f","rechts","24","","","self","f","120","true"
"null","<div style=""font-size:60px;"">+</div>","null","html-keyboard-response","328","250965","0.0-6.0-0.161","MEVO","3","f","rechts","24","","fixation","","","",""
"748","img/0_120.png","74","image-keyboard-response","329","251714","0.0-6.0-1.161","MEVO","3","f","rechts","24","","","self","j","0","true"
"null","<div style=""font-size:60px;"">+</div>","null","html-keyboard-response","330","252065","0.0-6.0-0.162","MEVO","3","f","rechts","24","","fixation","","","",""
"922","img/60_180.png","74","image-keyboard-response","331","252989","0.0-6.0-1.162","MEVO","3","f","rechts","24","","","self","j","60","true"
"null","<div style=""font-size:60px;"">+</div>","null","html-keyboard-response","332","253340","0.0-6.0-0.163","MEVO","3","f","rechts","24","","fixation","","","",""
"758","img/90_150.png","70","image-keyboard-response","333","254100","0.0-6.0-1.163","MEVO","3","f","rechts","24","","","self","f","90","true"
"null","<div style=""font-size:60px;"">+</div>","null","html-keyboard-response","334","254401","0.0-6.0-0.164","MEVO","3","f","rechts","24","","fixation","","","",""
"838","img/L150_180.png","70","image-keyboard-response","335","255241","0.0-6.0-1.164","MEVO","3","f","rechts","24","","","self","f","150","true"
"null","<div style=""font-size:60px;"">+</div>","null","html-keyboard-response","336","255742","0.0-6.0-0.165","MEVO","3","f","rechts","24","","fixation","","","",""
"734","img/150_120.png","70","image-keyboard-response","337","256478","0.0-6.0-1.165","MEVO","3","f","rechts","24","","","self","f","150","true"
"null","<div style=""font-size:60px;"">+</div>","null","html-keyboard-response","338","256979","0.0-6.0-0.166","MEVO","3","f","rechts","24","","fixation","","","",""
"940","img/120_30.png","74","image-keyboard-response","339","257921","0.0-6.0-1.166","MEVO","3","f","rechts","24","","","self","j","120","true"
"null","<div style=""font-size:60px;"">+</div>","null","html-keyboard-response","340","258372","0.0-6.0-0.167","MEVO","3","f","rechts","24","","fixation","","","",""
"758","img/0_90.png","74","image-keyboard-response","341","259132","0.0-6.0-1.167","MEVO","3","f","rechts","24","","","self","j","0","true"
"null","<div style=""font-size:60px;"">+</div>","null","html-keyboard-response","342","259534","0.0-6.0-0.168","MEVO","3","f","rechts","24","","fixation","","","",""
"793","img/150_90.png","70","image-keyboard-response","343","260327","0.0-6.0-1.168","MEVO","3","f","rechts","24","","","self","f","150","true"
"null","<div style=""font-size:60px;"">+</div>","null","html-keyboard-response","344","260829","0.0-6.0-0.169","MEVO","3","f","rechts","24","","fixation","","","",""
"864","img/30_270.png","70","image-keyboard-response","345","261694","0.0-6.0-1.169","MEVO","3","f","rechts","24","","","self","f","30","true"
"null","<div style=""font-size:60px;"">+</div>","null","html-keyboard-response","346","262096","0.0-6.0-0.170","MEVO","3","f","rechts","24","","fixation","","","",""
"667","img/0_240.png","70","image-keyboard-response","347","262764","0.0-6.0-1.170","MEVO","3","f","rechts","24","","","self","f","0","true"
"null","<div style=""font-size:60px;"">+</div>","null","html-keyboard-response","348","263216","0.0-6.0-0.171","MEVO","3","f","rechts","24","","fixation","","","",""
"934","img/150_240.png","74","image-keyboard-response","349","264151","0.0-6.0-1.171","MEVO","3","f","rechts","24","","","self","j","150","true"
"null","<div style=""font-size:60px;"">+</div>","null","html-keyboard-response","350","264503","0.0-6.0-0.172","MEVO","3","f","rechts","24","","fixation","","","",""
"812","img/90_210.png","74","image-keyboard-response","351","265316","0.0-6.0-1.172","MEVO","3","f","rechts","24","","","self","j","90","true"
"null","<div style=""font-size:60px;"">+</div>","null","html-keyboard-response","352","265818","0.0-6.0-0.173","MEVO","3","f","rechts","24","","fixation","","","",""
"985","img/90_60.png","74","image-keyboard-response","353","266803","0.0-6.0-1.173","MEVO","3","f","rechts","24","","","self","j","90","true"
"null","<div style=""font-size:60px;"">+</div>","null","html-keyboard-response","354","267305","0.0-6.0-0.174","MEVO","3","f","rechts","24","","fixation","","","",""
"891","img/90_240.png","74","image-keyboard-response","355","268197","0.0-6.0-1.174","MEVO","3","f","rechts","24","","","self","j","90","true"
"null","<div style=""font-size:60px;"">+</div>","null","html-keyboard-response","356","268549","0.0-6.0-0.175","MEVO","3","f","rechts","24","","fixation","","","",""
"856","img/30_90.png","74","image-keyboard-response","357","269406","0.0-6.0-1.175","MEVO","3","f","rechts","24","","","self","j","30","true"
"null","<div style=""font-size:60px;"">+</div>","null","html-keyboard-response","358","269808","0.0-6.0-0.176","MEVO","3","f","rechts","24","","fixation","","","",""
"862","img/60_90.png","74","image-keyboard-response","359","270671","0.0-6.0-1.176","MEVO","3","f","rechts","24","","","self","j","60","true"
"null","<div style=""font-size:60px;"">+</div>","null","html-keyboard-response","360","271023","0.0-6.0-0.177","MEVO","3","f","rechts","24","","fixation","","","",""
"785","img/60_210.png","74","image-keyboard-response","361","271808","0.0-6.0-1.177","MEVO","3","f","rechts","24","","","self","j","60","true"
"null","<div style=""font-size:60px;"">+</div>","null","html-keyboard-response","362","272310","0.0-6.0-0.178","MEVO","3","f","rechts","24","","fixation","","","",""
"677","img/150_60.png","70","image-keyboard-response","363","272988","0.0-6.0-1.178","MEVO","3","f","rechts","24","","","self","f","150","true"
"null","<div style=""font-size:60px;"">+</div>","null","html-keyboard-response","364","273339","0.0-6.0-0.179","MEVO","3","f","rechts","24","","fixation","","","",""
"984","img/30_300.png","70","image-keyboard-response","365","274324","0.0-6.0-1.179","MEVO","3","f","rechts","24","","","self","f","30","true"
"null","<div style=""font-size:60px;"">+</div>","null","html-keyboard-response","366","274826","0.0-6.0-0.180","MEVO","3","f","rechts","24","","fixation","","","",""
"864","img/90_330.png","70","image-keyboard-response","367","275690","0.0-6.0-1.180","MEVO","3","f","rechts","24","","","self","f","90","true"
"null","<div style=""font-size:60px;"">+</div>","null","html-keyboard-response","368","275992","0.0-6.0-0.181","MEVO","3","f","rechts","24","","fixation","","","",""
"1149","img/120_210.png","74","image-keyboard-response","369","277141","0.0-6.0-1.181","MEVO","3","f","rechts","24","","","self","j","120","true"
"null","<div style=""font-size:60px;"">+</div>","null","html-keyboard-response","370","277543","0.0-6.0-0.182","MEVO","3","f","rechts","24","","fixation","","","",""
"849","img/90_300.png","70","image-keyboard-response","371","278392","0.0-6.0-1.182","MEVO","3","f","rechts","24","","","self","f","90","true"
"null","<div style=""font-size:60px;"">+</div>","null","html-keyboard-response","372","278694","0.0-6.0-0.183","MEVO","3","f","rechts","24","","fixation","","","",""
"939","img/150_180.png","74","image-keyboard-response","373","279633","0.0-6.0-1.183","MEVO","3","f","rechts","24","","","self","j","150","true"
"null","<div style=""font-size:60px;"">+</div>","null","html-keyboard-response","374","279985","0.0-6.0-0.184","MEVO","3","f","rechts","24","","fixation","","","",""
"920","img/120_330.png","70","image-keyboard-response","375","280905","0.0-6.0-1.184","MEVO","3","f","rechts","24","","","self","f","120","true"
"null","<div style=""font-size:60px;"">+</div>","null","html-keyboard-response","376","281257","0.0-6.0-0.185","MEVO","3","f","rechts","24","","fixation","","","",""
"935","img/120_270.png","70","image-keyboard-response","377","282192","0.0-6.0-1.185","MEVO","3","f","rechts","24","","","self","j","120","false"
"null","<div style=""font-size:60px;"">+</div>","null","html-keyboard-response","378","282494","0.0-6.0-0.186","MEVO","3","f","rechts","24","","fixation","","","",""
"1025","img/0_300.png","70","image-keyboard-response","379","283520","0.0-6.0-1.186","MEVO","3","f","rechts","24","","","self","f","0","true"
"null","<div style=""font-size:60px;"">+</div>","null","html-keyboard-response","380","283821","0.0-6.0-0.187","MEVO","3","f","rechts","24","","fixation","","","",""
"1436","img/L30_180.png","70","image-keyboard-response","381","285258","0.0-6.0-1.187","MEVO","3","f","rechts","24","","","self","f","30","true"
"null","<div style=""font-size:60px;"">+</div>","null","html-keyboard-response","382","285560","0.0-6.0-0.188","MEVO","3","f","rechts","24","","fixation","","","",""
"1068","img/90_120.png","74","image-keyboard-response","383","286628","0.0-6.0-1.188","MEVO","3","f","rechts","24","","","self","f","90","false"
"null","<div style=""font-size:60px;"">+</div>","null","html-keyboard-response","384","286980","0.0-6.0-0.189","MEVO","3","f","rechts","24","","fixation","","","",""
"851","img/L60_180.png","70","image-keyboard-response","385","287831","0.0-6.0-1.189","MEVO","3","f","rechts","24","","","self","f","60","true"
"null","<div style=""font-size:60px;"">+</div>","null","html-keyboard-response","386","288333","0.0-6.0-0.190","MEVO","3","f","rechts","24","","fixation","","","",""
"733","img/60_150.png","70","image-keyboard-response","387","289066","0.0-6.0-1.190","MEVO","3","f","rechts","24","","","self","f","60","true"
"null","<div style=""font-size:60px;"">+</div>","null","html-keyboard-response","388","289367","0.0-6.0-0.191","MEVO","3","f","rechts","24","","fixation","","","",""
"696","img/0_210.png","70","image-keyboard-response","389","290064","0.0-6.0-1.191","MEVO","3","f","rechts","24","","","self","f","0","true"
"null","<div style=""font-size:60px;"">+</div>","null","html-keyboard-response","390","290516","0.0-6.0-0.192","MEVO","3","f","rechts","24","","fixation","","","",""
"667","img/0_330.png","70","image-keyboard-response","391","291183","0.0-6.0-1.192","MEVO","3","f","rechts","24","","","self","f","0","true"
"null","<div style=""font-size:60px;"">+</div>","null","html-keyboard-response","392","291685","0.0-6.0-0.193","MEVO","3","f","rechts","24","","fixation","","","",""
"590","img/0_270.png","70","image-keyboard-response","393","292275","0.0-6.0-1.193","MEVO","3","f","rechts","24","","","self","f","0","true"
"null","<div style=""font-size:60px;"">+</div>","null","html-keyboard-response","394","292577","0.0-6.0-0.194","MEVO","3","f","rechts","24","","fixation","","","",""
"791","img/90_180.png","74","image-keyboard-response","395","293368","0.0-6.0-1.194","MEVO","3","f","rechts","24","","","self","j","90","true"
"null","<div style=""font-size:60px;"">+</div>","null","html-keyboard-response","396","293769","0.0-6.0-0.195","MEVO","3","f","rechts","24","","fixation","","","",""
"637","img/0_30.png","74","image-keyboard-response","397","294408","0.0-6.0-1.195","MEVO","3","f","rechts","24","","","self","j","0","true"
"null","<div style=""font-size:60px;"">+</div>","null","html-keyboard-response","398","294759","0.0-6.0-0.196","MEVO","3","f","rechts","24","","fixation","","","",""
"868","img/60_270.png","70","image-keyboard-response","399","295629","0.0-6.0-1.196","MEVO","3","f","rechts","24","","","self","f","60","true"
"null","<div style=""font-size:60px;"">+</div>","null","html-keyboard-response","400","296030","0.0-6.0-0.197","MEVO","3","f","rechts","24","","fixation","","","",""
"638","img/0_150.png","74","image-keyboard-response","401","296669","0.0-6.0-1.197","MEVO","3","f","rechts","24","","","self","j","0","true"
"null","<div style=""font-size:60px;"">+</div>","null","html-keyboard-response","402","296970","0.0-6.0-0.198","MEVO","3","f","rechts","24","","fixation","","","",""
"669","img/0_60.png","74","image-keyboard-response","403","297639","0.0-6.0-1.198","MEVO","3","f","rechts","24","","","self","j","0","true"
"null","<div style=""font-size:60px;"">+</div>","null","html-keyboard-response","404","297990","0.0-6.0-0.199","MEVO","3","f","rechts","24","","fixation","","","",""
"702","img/60_30.png","70","image-keyboard-response","405","298694","0.0-6.0-1.199","MEVO","3","f","rechts","24","","","self","j","60","false"
"null","<div style=""font-size:60px;"">+</div>","null","html-keyboard-response","406","299145","0.0-6.0-0.200","MEVO","3","f","rechts","24","","fixation","","","",""
"908","img/90_30.png","74","image-keyboard-response","407","300053","0.0-6.0-1.200","MEVO","3","f","rechts","24","","","self","j","90","true"
"null","<div style=""font-size:60px;"">+</div>","null","html-keyboard-response","408","300354","0.0-6.0-0.201","MEVO","3","f","rechts","24","","fixation","","","",""
"1068","img/150_300.png","70","image-keyboard-response","409","301423","0.0-6.0-1.201","MEVO","3","f","rechts","24","","","self","j","150","false"
"null","<div style=""font-size:60px;"">+</div>","null","html-keyboard-response","410","301825","0.0-6.0-0.202","MEVO","3","f","rechts","24","","fixation","","","",""
"1129","img/60_330.png","70","image-keyboard-response","411","302955","0.0-6.0-1.202","MEVO","3","f","rechts","24","","","self","f","60","true"
"null","<div style=""font-size:60px;"">+</div>","null","html-keyboard-response","412","303256","0.0-6.0-0.203","MEVO","3","f","rechts","24","","fixation","","","",""
"1141","img/120_150.png","70","image-keyboard-response","413","304399","0.0-6.0-1.203","MEVO","3","f","rechts","24","","","self","f","120","true"
"null","<div style=""font-size:60px;"">+</div>","null","html-keyboard-response","414","304900","0.0-6.0-0.204","MEVO","3","f","rechts","24","","fixation","","","",""
"843","img/150_270.png","74","image-keyboard-response","415","305745","0.0-6.0-1.204","MEVO","3","f","rechts","24","","","self","j","150","true"
"null","<div style=""font-size:60px;"">+</div>","null","html-keyboard-response","416","306046","0.0-6.0-0.205","MEVO","3","f","rechts","24","","fixation","","","",""
"1174","img/120_90.png","70","image-keyboard-response","417","307221","0.0-6.0-1.205","MEVO","3","f","rechts","24","","","self","f","120","true"
"null","<div style=""font-size:60px;"">+</div>","null","html-keyboard-response","418","307623","0.0-6.0-0.206","MEVO","3","f","rechts","24","","fixation","","","",""
"1073","img/30_240.png","74","image-keyboard-response","419","308697","0.0-6.0-1.206","MEVO","3","f","rechts","24","","","self","f","30","false"
"null","<div style=""font-size:60px;"">+</div>","null","html-keyboard-response","420","309098","0.0-6.0-0.207","MEVO","3","f","rechts","24","","fixation","","","",""
"813","img/30_180.png","74","image-keyboard-response","421","309912","0.0-6.0-1.207","MEVO","3","f","rechts","24","","","self","j","30","true"
"7912","<p>Du hast in 91% der Versuche korrekt entschieden.</p><p>Deine durchschnittliche Reaktionszeit war  883ms.</p><p>Dr&uuml;cke eine beliebige Taste, um die Session zu beenden. Vielen Dank!</p>","71","html-keyboard-response","422","317825","0.0-7.0","MEVO","3","f","rechts","24","","","","","",""
