"rt","stimulus","key_press","trial_type","trial_index","time_elapsed","internal_node_id","subject","session","sex","handedness","age","responses","test_part","condition","correct_response","angle","correct"
"1120","<p>Mental Rotation Experiment.</p> <p>Dr&uuml;cke eine beliebige Taste, um anzufangen.</p>","72","html-keyboard-response","0","1123","0.0-0.0","MEVO","4","f","rechts","24","","","","","",""
"6728","","","survey-text","1","7853","0.0-1.0","MEVO","4","f","rechts","24","{""Q0"":""MEVO""}","","","","",""
"3850","","","survey-text","2","11703","0.0-2.0","MEVO","4","f","rechts","24","{""Q0"":""4""}","","","","",""
"3497","","","survey-multi-choice","3","15202","0.0-3.0","MEVO","4","f","rechts","24","{""Q0"":""f"",""Q1"":""rechts""}","","","","",""
"2743","","","survey-text","4","17946","0.0-4.0","MEVO","4","f","rechts","24","{""Q0"":""24""}","","","","",""
"251070","<p> Stell dir vor, dass du vor einem runden Tisch stehst, auf dem sich ein blauer Ball am Tischrand befindet. Entlang des Tischrands ist jeweils ein verschieden langer Pfeil. Nun bewegst du dich entlang dieses Pfeils bis an seine Spitze. Wenn du am Ende des Pfeils angekommen bist, schau zur Tischmitte. </p> <img src='img/90_180.png'></img> <br> <p>Entscheide dann, ob der Ball von deiner neuen (vorgestellten) Position links oder rechts von dir liegt.</p> <p>Dr&uuml;cke die <strong>'f'</strong>-Taste f&uuml;r links, die <strong>'j'</strong>-Taste f&uuml;r rechts.</p> <br><p> Das Bild wird jeweils 1 Sekunde lang pr&auml;sentiert. Du hast 3 Sekunden Zeit eine Entscheidung zu treffen.</p>","74","html-keyboard-response","5","269017","0.0-5.0","MEVO","4","f","rechts","24","","","","","",""
"null","<div style=""font-size:60px;"">+</div>","null","html-keyboard-response","6","270520","0.0-6.0-0.0","MEVO","4","f","rechts","24","","fixation","","","",""
"842","img/120_210.png","74","image-keyboard-response","7","271364","0.0-6.0-1.0","MEVO","4","f","rechts","24","","","self","j","120","true"
"null","<div style=""font-size:60px;"">+</div>","null","html-keyboard-response","8","271666","0.0-6.0-0.1","MEVO","4","f","rechts","24","","fixation","","","",""
"1077","img/30_240.png","70","image-keyboard-response","9","272744","0.0-6.0-1.1","MEVO","4","f","rechts","24","","","self","f","30","true"
"null","<div style=""font-size:60px;"">+</div>","null","html-keyboard-response","10","273246","0.0-6.0-0.2","MEVO","4","f","rechts","24","","fixation","","","",""
"695","img/0_150.png","74","image-keyboard-response","11","273942","0.0-6.0-1.2","MEVO","4","f","rechts","24","","","self","j","0","true"
"null","<div style=""font-size:60px;"">+</div>","null","html-keyboard-response","12","274294","0.0-6.0-0.3","MEVO","4","f","rechts","24","","fixation","","","",""
"995","img/90_60.png","74","image-keyboard-response","13","275290","0.0-6.0-1.3","MEVO","4","f","rechts","24","","","self","j","90","true"
"null","<div style=""font-size:60px;"">+</div>","null","html-keyboard-response","14","275592","0.0-6.0-0.4","MEVO","4","f","rechts","24","","fixation","","","",""
"1079","img/90_300.png","74","image-keyboard-response","15","276672","0.0-6.0-1.4","MEVO","4","f","rechts","24","","","self","f","90","false"
"null","<div style=""font-size:60px;"">+</div>","null","html-keyboard-response","16","276973","0.0-6.0-0.5","MEVO","4","f","rechts","24","","fixation","","","",""
"1119","img/120_180.png","74","image-keyboard-response","17","278093","0.0-6.0-1.5","MEVO","4","f","rechts","24","","","self","j","120","true"
"null","<div style=""font-size:60px;"">+</div>","null","html-keyboard-response","18","278595","0.0-6.0-0.6","MEVO","4","f","rechts","24","","fixation","","","",""
"736","img/L30_180.png","70","image-keyboard-response","19","279331","0.0-6.0-1.6","MEVO","4","f","rechts","24","","","self","f","30","true"
"null","<div style=""font-size:60px;"">+</div>","null","html-keyboard-response","20","279633","0.0-6.0-0.7","MEVO","4","f","rechts","24","","fixation","","","",""
"986","img/60_30.png","74","image-keyboard-response","21","280620","0.0-6.0-1.7","MEVO","4","f","rechts","24","","","self","j","60","true"
"null","<div style=""font-size:60px;"">+</div>","null","html-keyboard-response","22","280922","0.0-6.0-0.8","MEVO","4","f","rechts","24","","fixation","","","",""
"737","img/0_120.png","74","image-keyboard-response","23","281660","0.0-6.0-1.8","MEVO","4","f","rechts","24","","","self","j","0","true"
"null","<div style=""font-size:60px;"">+</div>","null","html-keyboard-response","24","281961","0.0-6.0-0.9","MEVO","4","f","rechts","24","","fixation","","","",""
"857","img/30_60.png","74","image-keyboard-response","25","282819","0.0-6.0-1.9","MEVO","4","f","rechts","24","","","self","j","30","true"
"null","<div style=""font-size:60px;"">+</div>","null","html-keyboard-response","26","283171","0.0-6.0-0.10","MEVO","4","f","rechts","24","","fixation","","","",""
"986","img/90_30.png","70","image-keyboard-response","27","284157","0.0-6.0-1.10","MEVO","4","f","rechts","24","","","self","j","90","false"
"null","<div style=""font-size:60px;"">+</div>","null","html-keyboard-response","28","284609","0.0-6.0-0.11","MEVO","4","f","rechts","24","","fixation","","","",""
"1075","img/120_30.png","74","image-keyboard-response","29","285684","0.0-6.0-1.11","MEVO","4","f","rechts","24","","","self","j","120","true"
"null","<div style=""font-size:60px;"">+</div>","null","html-keyboard-response","30","286185","0.0-6.0-0.12","MEVO","4","f","rechts","24","","fixation","","","",""
"799","img/60_90.png","74","image-keyboard-response","31","286985","0.0-6.0-1.12","MEVO","4","f","rechts","24","","","self","j","60","true"
"null","<div style=""font-size:60px;"">+</div>","null","html-keyboard-response","32","287336","0.0-6.0-0.13","MEVO","4","f","rechts","24","","fixation","","","",""
"797","img/60_210.png","74","image-keyboard-response","33","288134","0.0-6.0-1.13","MEVO","4","f","rechts","24","","","self","j","60","true"
"null","<div style=""font-size:60px;"">+</div>","null","html-keyboard-response","34","288635","0.0-6.0-0.14","MEVO","4","f","rechts","24","","fixation","","","",""
"640","img/150_240.png","74","image-keyboard-response","35","289276","0.0-6.0-1.14","MEVO","4","f","rechts","24","","","self","j","150","true"
"null","<div style=""font-size:60px;"">+</div>","null","html-keyboard-response","36","289578","0.0-6.0-0.15","MEVO","4","f","rechts","24","","fixation","","","",""
"802","img/60_150.png","74","image-keyboard-response","37","290380","0.0-6.0-1.15","MEVO","4","f","rechts","24","","","self","f","60","false"
"null","<div style=""font-size:60px;"">+</div>","null","html-keyboard-response","38","290782","0.0-6.0-0.16","MEVO","4","f","rechts","24","","fixation","","","",""
"890","img/90_210.png","74","image-keyboard-response","39","291673","0.0-6.0-1.16","MEVO","4","f","rechts","24","","","self","j","90","true"
"null","<div style=""font-size:60px;"">+</div>","null","html-keyboard-response","40","292175","0.0-6.0-0.17","MEVO","4","f","rechts","24","","fixation","","","",""
"788","img/150_120.png","70","image-keyboard-response","41","292964","0.0-6.0-1.17","MEVO","4","f","rechts","24","","","self","f","150","true"
"null","<div style=""font-size:60px;"">+</div>","null","html-keyboard-response","42","293465","0.0-6.0-0.18","MEVO","4","f","rechts","24","","fixation","","","",""
"897","img/60_330.png","70","image-keyboard-response","43","294363","0.0-6.0-1.18","MEVO","4","f","rechts","24","","","self","f","60","true"
"null","<div style=""font-size:60px;"">+</div>","null","html-keyboard-response","44","294665","0.0-6.0-0.19","MEVO","4","f","rechts","24","","fixation","","","",""
"873","img/120_90.png","70","image-keyboard-response","45","295539","0.0-6.0-1.19","MEVO","4","f","rechts","24","","","self","f","120","true"
"null","<div style=""font-size:60px;"">+</div>","null","html-keyboard-response","46","295840","0.0-6.0-0.20","MEVO","4","f","rechts","24","","fixation","","","",""
"750","img/0_270.png","70","image-keyboard-response","47","296591","0.0-6.0-1.20","MEVO","4","f","rechts","24","","","self","f","0","true"
"null","<div style=""font-size:60px;"">+</div>","null","html-keyboard-response","48","296993","0.0-6.0-0.21","MEVO","4","f","rechts","24","","fixation","","","",""
"765","img/120_270.png","74","image-keyboard-response","49","297760","0.0-6.0-1.21","MEVO","4","f","rechts","24","","","self","j","120","true"
"null","<div style=""font-size:60px;"">+</div>","null","html-keyboard-response","50","298111","0.0-6.0-0.22","MEVO","4","f","rechts","24","","fixation","","","",""
"726","img/120_150.png","70","image-keyboard-response","51","298839","0.0-6.0-1.22","MEVO","4","f","rechts","24","","","self","f","120","true"
"null","<div style=""font-size:60px;"">+</div>","null","html-keyboard-response","52","299190","0.0-6.0-0.23","MEVO","4","f","rechts","24","","fixation","","","",""
"816","img/30_300.png","70","image-keyboard-response","53","300007","0.0-6.0-1.23","MEVO","4","f","rechts","24","","","self","f","30","true"
"null","<div style=""font-size:60px;"">+</div>","null","html-keyboard-response","54","300308","0.0-6.0-0.24","MEVO","4","f","rechts","24","","fixation","","","",""
"808","img/L60_180.png","70","image-keyboard-response","55","301118","0.0-6.0-1.24","MEVO","4","f","rechts","24","","","self","f","60","true"
"null","<div style=""font-size:60px;"">+</div>","null","html-keyboard-response","56","301519","0.0-6.0-0.25","MEVO","4","f","rechts","24","","fixation","","","",""
"722","img/90_150.png","70","image-keyboard-response","57","302242","0.0-6.0-1.25","MEVO","4","f","rechts","24","","","self","f","90","true"
"null","<div style=""font-size:60px;"">+</div>","null","html-keyboard-response","58","302544","0.0-6.0-0.26","MEVO","4","f","rechts","24","","fixation","","","",""
"1077","img/120_330.png","70","image-keyboard-response","59","303622","0.0-6.0-1.26","MEVO","4","f","rechts","24","","","self","f","120","true"
"null","<div style=""font-size:60px;"">+</div>","null","html-keyboard-response","60","303923","0.0-6.0-0.27","MEVO","4","f","rechts","24","","fixation","","","",""
"880","img/60_180.png","74","image-keyboard-response","61","304804","0.0-6.0-1.27","MEVO","4","f","rechts","24","","","self","j","60","true"
"null","<div style=""font-size:60px;"">+</div>","null","html-keyboard-response","62","305105","0.0-6.0-0.28","MEVO","4","f","rechts","24","","fixation","","","",""
"815","img/90_120.png","70","image-keyboard-response","63","305922","0.0-6.0-1.28","MEVO","4","f","rechts","24","","","self","f","90","true"
"null","<div style=""font-size:60px;"">+</div>","null","html-keyboard-response","64","306273","0.0-6.0-0.29","MEVO","4","f","rechts","24","","fixation","","","",""
"669","img/L150_180.png","70","image-keyboard-response","65","306944","0.0-6.0-1.29","MEVO","4","f","rechts","24","","","self","f","150","true"
"null","<div style=""font-size:60px;"">+</div>","null","html-keyboard-response","66","307395","0.0-6.0-0.30","MEVO","4","f","rechts","24","","fixation","","","",""
"702","img/30_180.png","74","image-keyboard-response","67","308098","0.0-6.0-1.30","MEVO","4","f","rechts","24","","","self","j","30","true"
"null","<div style=""font-size:60px;"">+</div>","null","html-keyboard-response","68","308600","0.0-6.0-0.31","MEVO","4","f","rechts","24","","fixation","","","",""
"652","img/L90_180.png","70","image-keyboard-response","69","309253","0.0-6.0-1.31","MEVO","4","f","rechts","24","","","self","f","90","true"
"null","<div style=""font-size:60px;"">+</div>","null","html-keyboard-response","70","309605","0.0-6.0-0.32","MEVO","4","f","rechts","24","","fixation","","","",""
"714","img/150_90.png","70","image-keyboard-response","71","310321","0.0-6.0-1.32","MEVO","4","f","rechts","24","","","self","f","150","true"
"null","<div style=""font-size:60px;"">+</div>","null","html-keyboard-response","72","310722","0.0-6.0-0.33","MEVO","4","f","rechts","24","","fixation","","","",""
"591","img/0_210.png","70","image-keyboard-response","73","311315","0.0-6.0-1.33","MEVO","4","f","rechts","24","","","self","f","0","true"
"null","<div style=""font-size:60px;"">+</div>","null","html-keyboard-response","74","311616","0.0-6.0-0.34","MEVO","4","f","rechts","24","","fixation","","","",""
"694","img/90_240.png","74","image-keyboard-response","75","312311","0.0-6.0-1.34","MEVO","4","f","rechts","24","","","self","j","90","true"
"null","<div style=""font-size:60px;"">+</div>","null","html-keyboard-response","76","312813","0.0-6.0-0.35","MEVO","4","f","rechts","24","","fixation","","","",""
"582","img/0_300.png","70","image-keyboard-response","77","313396","0.0-6.0-1.35","MEVO","4","f","rechts","24","","","self","f","0","true"
"null","<div style=""font-size:60px;"">+</div>","null","html-keyboard-response","78","313848","0.0-6.0-0.36","MEVO","4","f","rechts","24","","fixation","","","",""
"513","img/0_60.png","74","image-keyboard-response","79","314362","0.0-6.0-1.36","MEVO","4","f","rechts","24","","","self","j","0","true"
"null","<div style=""font-size:60px;"">+</div>","null","html-keyboard-response","80","314864","0.0-6.0-0.37","MEVO","4","f","rechts","24","","fixation","","","",""
"793","img/150_60.png","70","image-keyboard-response","81","315658","0.0-6.0-1.37","MEVO","4","f","rechts","24","","","self","f","150","true"
"null","<div style=""font-size:60px;"">+</div>","null","html-keyboard-response","82","315960","0.0-6.0-0.38","MEVO","4","f","rechts","24","","fixation","","","",""
"604","img/0_90.png","74","image-keyboard-response","83","316565","0.0-6.0-1.38","MEVO","4","f","rechts","24","","","self","j","0","true"
"null","<div style=""font-size:60px;"">+</div>","null","html-keyboard-response","84","317067","0.0-6.0-0.39","MEVO","4","f","rechts","24","","fixation","","","",""
"649","img/150_180.png","74","image-keyboard-response","85","317717","0.0-6.0-1.39","MEVO","4","f","rechts","24","","","self","j","150","true"
"null","<div style=""font-size:60px;"">+</div>","null","html-keyboard-response","86","318219","0.0-6.0-0.40","MEVO","4","f","rechts","24","","fixation","","","",""
"1259","img/90_330.png","70","image-keyboard-response","87","319479","0.0-6.0-1.40","MEVO","4","f","rechts","24","","","self","f","90","true"
"null","<div style=""font-size:60px;"">+</div>","null","html-keyboard-response","88","319781","0.0-6.0-0.41","MEVO","4","f","rechts","24","","fixation","","","",""
"849","img/30_270.png","70","image-keyboard-response","89","320631","0.0-6.0-1.41","MEVO","4","f","rechts","24","","","self","f","30","true"
"null","<div style=""font-size:60px;"">+</div>","null","html-keyboard-response","90","321033","0.0-6.0-0.42","MEVO","4","f","rechts","24","","fixation","","","",""
"759","img/90_180.png","74","image-keyboard-response","91","321792","0.0-6.0-1.42","MEVO","4","f","rechts","24","","","self","j","90","true"
"null","<div style=""font-size:60px;"">+</div>","null","html-keyboard-response","92","322094","0.0-6.0-0.43","MEVO","4","f","rechts","24","","fixation","","","",""
"630","img/0_30.png","74","image-keyboard-response","93","322725","0.0-6.0-1.43","MEVO","4","f","rechts","24","","","self","j","0","true"
"null","<div style=""font-size:60px;"">+</div>","null","html-keyboard-response","94","323227","0.0-6.0-0.44","MEVO","4","f","rechts","24","","fixation","","","",""
"1052","img/30_120.png","74","image-keyboard-response","95","324280","0.0-6.0-1.44","MEVO","4","f","rechts","24","","","self","j","30","true"
"null","<div style=""font-size:60px;"">+</div>","null","html-keyboard-response","96","324731","0.0-6.0-0.45","MEVO","4","f","rechts","24","","fixation","","","",""
"876","img/60_270.png","70","image-keyboard-response","97","325608","0.0-6.0-1.45","MEVO","4","f","rechts","24","","","self","f","60","true"
"null","<div style=""font-size:60px;"">+</div>","null","html-keyboard-response","98","325910","0.0-6.0-0.46","MEVO","4","f","rechts","24","","fixation","","","",""
"1069","img/150_300.png","74","image-keyboard-response","99","326980","0.0-6.0-1.46","MEVO","4","f","rechts","24","","","self","j","150","true"
"null","<div style=""font-size:60px;"">+</div>","null","html-keyboard-response","100","327331","0.0-6.0-0.47","MEVO","4","f","rechts","24","","fixation","","","",""
"728","img/30_90.png","74","image-keyboard-response","101","328060","0.0-6.0-1.47","MEVO","4","f","rechts","24","","","self","j","30","true"
"null","<div style=""font-size:60px;"">+</div>","null","html-keyboard-response","102","328412","0.0-6.0-0.48","MEVO","4","f","rechts","24","","fixation","","","",""
"600","img/0_240.png","70","image-keyboard-response","103","329012","0.0-6.0-1.48","MEVO","4","f","rechts","24","","","self","f","0","true"
"null","<div style=""font-size:60px;"">+</div>","null","html-keyboard-response","104","329514","0.0-6.0-0.49","MEVO","4","f","rechts","24","","fixation","","","",""
"641","img/150_270.png","74","image-keyboard-response","105","330155","0.0-6.0-1.49","MEVO","4","f","rechts","24","","","self","j","150","true"
"null","<div style=""font-size:60px;"">+</div>","null","html-keyboard-response","106","330607","0.0-6.0-0.50","MEVO","4","f","rechts","24","","fixation","","","",""
"647","img/L120_180.png","70","image-keyboard-response","107","331254","0.0-6.0-1.50","MEVO","4","f","rechts","24","","","self","f","120","true"
"null","<div style=""font-size:60px;"">+</div>","null","html-keyboard-response","108","331606","0.0-6.0-0.51","MEVO","4","f","rechts","24","","fixation","","","",""
"656","img/0_330.png","70","image-keyboard-response","109","332262","0.0-6.0-1.51","MEVO","4","f","rechts","24","","","self","f","0","true"
"null","<div style=""font-size:60px;"">+</div>","null","html-keyboard-response","110","332614","0.0-6.0-0.52","MEVO","4","f","rechts","24","","fixation","","","",""
"608","img/0_90.png","74","image-keyboard-response","111","333222","0.0-6.0-1.52","MEVO","4","f","rechts","24","","","self","j","0","true"
"null","<div style=""font-size:60px;"">+</div>","null","html-keyboard-response","112","333723","0.0-6.0-0.53","MEVO","4","f","rechts","24","","fixation","","","",""
"731","img/120_30.png","74","image-keyboard-response","113","334454","0.0-6.0-1.53","MEVO","4","f","rechts","24","","","self","j","120","true"
"null","<div style=""font-size:60px;"">+</div>","null","html-keyboard-response","114","334906","0.0-6.0-0.54","MEVO","4","f","rechts","24","","fixation","","","",""
"1136","img/150_60.png","70","image-keyboard-response","115","336043","0.0-6.0-1.54","MEVO","4","f","rechts","24","","","self","f","150","true"
"null","<div style=""font-size:60px;"">+</div>","null","html-keyboard-response","116","336345","0.0-6.0-0.55","MEVO","4","f","rechts","24","","fixation","","","",""
"733","img/90_150.png","70","image-keyboard-response","117","337078","0.0-6.0-1.55","MEVO","4","f","rechts","24","","","self","f","90","true"
"null","<div style=""font-size:60px;"">+</div>","null","html-keyboard-response","118","337480","0.0-6.0-0.56","MEVO","4","f","rechts","24","","fixation","","","",""
"711","img/90_30.png","74","image-keyboard-response","119","338191","0.0-6.0-1.56","MEVO","4","f","rechts","24","","","self","j","90","true"
"null","<div style=""font-size:60px;"">+</div>","null","html-keyboard-response","120","338493","0.0-6.0-0.57","MEVO","4","f","rechts","24","","fixation","","","",""
"658","img/30_60.png","74","image-keyboard-response","121","339151","0.0-6.0-1.57","MEVO","4","f","rechts","24","","","self","j","30","true"
"null","<div style=""font-size:60px;"">+</div>","null","html-keyboard-response","122","339652","0.0-6.0-0.58","MEVO","4","f","rechts","24","","fixation","","","",""
"572","img/90_120.png","70","image-keyboard-response","123","340225","0.0-6.0-1.58","MEVO","4","f","rechts","24","","","self","f","90","true"
"null","<div style=""font-size:60px;"">+</div>","null","html-keyboard-response","124","340576","0.0-6.0-0.59","MEVO","4","f","rechts","24","","fixation","","","",""
"604","img/30_120.png","74","image-keyboard-response","125","341181","0.0-6.0-1.59","MEVO","4","f","rechts","24","","","self","j","30","true"
"null","<div style=""font-size:60px;"">+</div>","null","html-keyboard-response","126","341583","0.0-6.0-0.60","MEVO","4","f","rechts","24","","fixation","","","",""
"627","img/60_30.png","74","image-keyboard-response","127","342210","0.0-6.0-1.60","MEVO","4","f","rechts","24","","","self","j","60","true"
"null","<div style=""font-size:60px;"">+</div>","null","html-keyboard-response","128","342711","0.0-6.0-0.61","MEVO","4","f","rechts","24","","fixation","","","",""
"586","img/0_330.png","74","image-keyboard-response","129","343298","0.0-6.0-1.61","MEVO","4","f","rechts","24","","","self","f","0","false"
"null","<div style=""font-size:60px;"">+</div>","null","html-keyboard-response","130","343700","0.0-6.0-0.62","MEVO","4","f","rechts","24","","fixation","","","",""
"741","img/L30_180.png","70","image-keyboard-response","131","344442","0.0-6.0-1.62","MEVO","4","f","rechts","24","","","self","f","30","true"
"null","<div style=""font-size:60px;"">+</div>","null","html-keyboard-response","132","344843","0.0-6.0-0.63","MEVO","4","f","rechts","24","","fixation","","","",""
"568","img/60_150.png","70","image-keyboard-response","133","345412","0.0-6.0-1.63","MEVO","4","f","rechts","24","","","self","f","60","true"
"null","<div style=""font-size:60px;"">+</div>","null","html-keyboard-response","134","345914","0.0-6.0-0.64","MEVO","4","f","rechts","24","","fixation","","","",""
"718","img/30_90.png","74","image-keyboard-response","135","346632","0.0-6.0-1.64","MEVO","4","f","rechts","24","","","self","j","30","true"
"null","<div style=""font-size:60px;"">+</div>","null","html-keyboard-response","136","347132","0.0-6.0-0.65","MEVO","4","f","rechts","24","","fixation","","","",""
"714","img/120_210.png","74","image-keyboard-response","137","347847","0.0-6.0-1.65","MEVO","4","f","rechts","24","","","self","j","120","true"
"null","<div style=""font-size:60px;"">+</div>","null","html-keyboard-response","138","348198","0.0-6.0-0.66","MEVO","4","f","rechts","24","","fixation","","","",""
"605","img/0_270.png","70","image-keyboard-response","139","348805","0.0-6.0-1.66","MEVO","4","f","rechts","24","","","self","f","0","true"
"null","<div style=""font-size:60px;"">+</div>","null","html-keyboard-response","140","349156","0.0-6.0-0.67","MEVO","4","f","rechts","24","","fixation","","","",""
"998","img/30_240.png","70","image-keyboard-response","141","350156","0.0-6.0-1.67","MEVO","4","f","rechts","24","","","self","f","30","true"
"null","<div style=""font-size:60px;"">+</div>","null","html-keyboard-response","142","350457","0.0-6.0-0.68","MEVO","4","f","rechts","24","","fixation","","","",""
"690","img/150_180.png","74","image-keyboard-response","143","351149","0.0-6.0-1.68","MEVO","4","f","rechts","24","","","self","j","150","true"
"null","<div style=""font-size:60px;"">+</div>","null","html-keyboard-response","144","351600","0.0-6.0-0.69","MEVO","4","f","rechts","24","","fixation","","","",""
"606","img/L120_180.png","70","image-keyboard-response","145","352208","0.0-6.0-1.69","MEVO","4","f","rechts","24","","","self","f","120","true"
"null","<div style=""font-size:60px;"">+</div>","null","html-keyboard-response","146","352709","0.0-6.0-0.70","MEVO","4","f","rechts","24","","fixation","","","",""
"531","img/150_120.png","70","image-keyboard-response","147","353242","0.0-6.0-1.70","MEVO","4","f","rechts","24","","","self","f","150","true"
"null","<div style=""font-size:60px;"">+</div>","null","html-keyboard-response","148","353593","0.0-6.0-0.71","MEVO","4","f","rechts","24","","fixation","","","",""
"630","img/0_300.png","70","image-keyboard-response","149","354225","0.0-6.0-1.71","MEVO","4","f","rechts","24","","","self","f","0","true"
"null","<div style=""font-size:60px;"">+</div>","null","html-keyboard-response","150","354676","0.0-6.0-0.72","MEVO","4","f","rechts","24","","fixation","","","",""
"638","img/30_300.png","74","image-keyboard-response","151","355316","0.0-6.0-1.72","MEVO","4","f","rechts","24","","","self","f","30","false"
"null","<div style=""font-size:60px;"">+</div>","null","html-keyboard-response","152","355667","0.0-6.0-0.73","MEVO","4","f","rechts","24","","fixation","","","",""
"793","img/150_300.png","74","image-keyboard-response","153","356461","0.0-6.0-1.73","MEVO","4","f","rechts","24","","","self","j","150","true"
"null","<div style=""font-size:60px;"">+</div>","null","html-keyboard-response","154","356813","0.0-6.0-0.74","MEVO","4","f","rechts","24","","fixation","","","",""
"663","img/60_330.png","70","image-keyboard-response","155","357478","0.0-6.0-1.74","MEVO","4","f","rechts","24","","","self","f","60","true"
"null","<div style=""font-size:60px;"">+</div>","null","html-keyboard-response","156","357878","0.0-6.0-0.75","MEVO","4","f","rechts","24","","fixation","","","",""
"835","img/90_60.png","74","image-keyboard-response","157","358714","0.0-6.0-1.75","MEVO","4","f","rechts","24","","","self","j","90","true"
"null","<div style=""font-size:60px;"">+</div>","null","html-keyboard-response","158","359116","0.0-6.0-0.76","MEVO","4","f","rechts","24","","fixation","","","",""
"618","img/150_240.png","74","image-keyboard-response","159","359735","0.0-6.0-1.76","MEVO","4","f","rechts","24","","","self","j","150","true"
"null","<div style=""font-size:60px;"">+</div>","null","html-keyboard-response","160","360086","0.0-6.0-0.77","MEVO","4","f","rechts","24","","fixation","","","",""
"731","img/30_180.png","74","image-keyboard-response","161","360819","0.0-6.0-1.77","MEVO","4","f","rechts","24","","","self","j","30","true"
"null","<div style=""font-size:60px;"">+</div>","null","html-keyboard-response","162","361270","0.0-6.0-0.78","MEVO","4","f","rechts","24","","fixation","","","",""
"558","img/120_150.png","70","image-keyboard-response","163","361830","0.0-6.0-1.78","MEVO","4","f","rechts","24","","","self","f","120","true"
"null","<div style=""font-size:60px;"">+</div>","null","html-keyboard-response","164","362331","0.0-6.0-0.79","MEVO","4","f","rechts","24","","fixation","","","",""
"478","img/L150_180.png","70","image-keyboard-response","165","362810","0.0-6.0-1.79","MEVO","4","f","rechts","24","","","self","f","150","true"
"null","<div style=""font-size:60px;"">+</div>","null","html-keyboard-response","166","363212","0.0-6.0-0.80","MEVO","4","f","rechts","24","","fixation","","","",""
"560","img/L90_180.png","70","image-keyboard-response","167","363773","0.0-6.0-1.80","MEVO","4","f","rechts","24","","","self","f","90","true"
"null","<div style=""font-size:60px;"">+</div>","null","html-keyboard-response","168","364275","0.0-6.0-0.81","MEVO","4","f","rechts","24","","fixation","","","",""
"556","img/150_90.png","70","image-keyboard-response","169","364832","0.0-6.0-1.81","MEVO","4","f","rechts","24","","","self","f","150","true"
"null","<div style=""font-size:60px;"">+</div>","null","html-keyboard-response","170","365234","0.0-6.0-0.82","MEVO","4","f","rechts","24","","fixation","","","",""
"728","img/30_270.png","70","image-keyboard-response","171","365963","0.0-6.0-1.82","MEVO","4","f","rechts","24","","","self","f","30","true"
"null","<div style=""font-size:60px;"">+</div>","null","html-keyboard-response","172","366265","0.0-6.0-0.83","MEVO","4","f","rechts","24","","fixation","","","",""
"645","img/0_150.png","74","image-keyboard-response","173","366911","0.0-6.0-1.83","MEVO","4","f","rechts","24","","","self","j","0","true"
"null","<div style=""font-size:60px;"">+</div>","null","html-keyboard-response","174","367213","0.0-6.0-0.84","MEVO","4","f","rechts","24","","fixation","","","",""
"581","img/0_210.png","70","image-keyboard-response","175","367795","0.0-6.0-1.84","MEVO","4","f","rechts","24","","","self","f","0","true"
"null","<div style=""font-size:60px;"">+</div>","null","html-keyboard-response","176","368147","0.0-6.0-0.85","MEVO","4","f","rechts","24","","fixation","","","",""
"564","img/60_90.png","74","image-keyboard-response","177","368711","0.0-6.0-1.85","MEVO","4","f","rechts","24","","","self","j","60","true"
"null","<div style=""font-size:60px;"">+</div>","null","html-keyboard-response","178","369013","0.0-6.0-0.86","MEVO","4","f","rechts","24","","fixation","","","",""
"826","img/120_330.png","74","image-keyboard-response","179","369840","0.0-6.0-1.86","MEVO","4","f","rechts","24","","","self","f","120","false"
"null","<div style=""font-size:60px;"">+</div>","null","html-keyboard-response","180","370242","0.0-6.0-0.87","MEVO","4","f","rechts","24","","fixation","","","",""
"738","img/0_120.png","74","image-keyboard-response","181","370981","0.0-6.0-1.87","MEVO","4","f","rechts","24","","","self","j","0","true"
"null","<div style=""font-size:60px;"">+</div>","null","html-keyboard-response","182","371333","0.0-6.0-0.88","MEVO","4","f","rechts","24","","fixation","","","",""
"658","img/120_270.png","70","image-keyboard-response","183","371991","0.0-6.0-1.88","MEVO","4","f","rechts","24","","","self","j","120","false"
"null","<div style=""font-size:60px;"">+</div>","null","html-keyboard-response","184","372293","0.0-6.0-0.89","MEVO","4","f","rechts","24","","fixation","","","",""
"655","img/60_180.png","74","image-keyboard-response","185","372949","0.0-6.0-1.89","MEVO","4","f","rechts","24","","","self","j","60","true"
"null","<div style=""font-size:60px;"">+</div>","null","html-keyboard-response","186","373351","0.0-6.0-0.90","MEVO","4","f","rechts","24","","fixation","","","",""
"659","img/150_270.png","74","image-keyboard-response","187","374010","0.0-6.0-1.90","MEVO","4","f","rechts","24","","","self","j","150","true"
"null","<div style=""font-size:60px;"">+</div>","null","html-keyboard-response","188","374462","0.0-6.0-0.91","MEVO","4","f","rechts","24","","fixation","","","",""
"796","img/90_300.png","70","image-keyboard-response","189","375258","0.0-6.0-1.91","MEVO","4","f","rechts","24","","","self","f","90","true"
"null","<div style=""font-size:60px;"">+</div>","null","html-keyboard-response","190","375610","0.0-6.0-0.92","MEVO","4","f","rechts","24","","fixation","","","",""
"733","img/90_240.png","74","image-keyboard-response","191","376343","0.0-6.0-1.92","MEVO","4","f","rechts","24","","","self","j","90","true"
"null","<div style=""font-size:60px;"">+</div>","null","html-keyboard-response","192","376845","0.0-6.0-0.93","MEVO","4","f","rechts","24","","fixation","","","",""
"652","img/120_90.png","70","image-keyboard-response","193","377497","0.0-6.0-1.93","MEVO","4","f","rechts","24","","","self","f","120","true"
"null","<div style=""font-size:60px;"">+</div>","null","html-keyboard-response","194","377899","0.0-6.0-0.94","MEVO","4","f","rechts","24","","fixation","","","",""
"719","img/60_270.png","70","image-keyboard-response","195","378618","0.0-6.0-1.94","MEVO","4","f","rechts","24","","","self","f","60","true"
"null","<div style=""font-size:60px;"">+</div>","null","html-keyboard-response","196","379020","0.0-6.0-0.95","MEVO","4","f","rechts","24","","fixation","","","",""
"620","img/0_60.png","74","image-keyboard-response","197","379640","0.0-6.0-1.95","MEVO","4","f","rechts","24","","","self","j","0","true"
"null","<div style=""font-size:60px;"">+</div>","null","html-keyboard-response","198","379992","0.0-6.0-0.96","MEVO","4","f","rechts","24","","fixation","","","",""
"636","img/90_210.png","74","image-keyboard-response","199","380628","0.0-6.0-1.96","MEVO","4","f","rechts","24","","","self","j","90","true"
"null","<div style=""font-size:60px;"">+</div>","null","html-keyboard-response","200","380929","0.0-6.0-0.97","MEVO","4","f","rechts","24","","fixation","","","",""
"569","img/90_180.png","74","image-keyboard-response","201","381498","0.0-6.0-1.97","MEVO","4","f","rechts","24","","","self","j","90","true"
"null","<div style=""font-size:60px;"">+</div>","null","html-keyboard-response","202","382000","0.0-6.0-0.98","MEVO","4","f","rechts","24","","fixation","","","",""
"716","img/60_210.png","74","image-keyboard-response","203","382716","0.0-6.0-1.98","MEVO","4","f","rechts","24","","","self","j","60","true"
"null","<div style=""font-size:60px;"">+</div>","null","html-keyboard-response","204","383018","0.0-6.0-0.99","MEVO","4","f","rechts","24","","fixation","","","",""
"626","img/120_180.png","74","image-keyboard-response","205","383644","0.0-6.0-1.99","MEVO","4","f","rechts","24","","","self","j","120","true"
"null","<div style=""font-size:60px;"">+</div>","null","html-keyboard-response","206","383945","0.0-6.0-0.100","MEVO","4","f","rechts","24","","fixation","","","",""
"622","img/0_240.png","70","image-keyboard-response","207","384568","0.0-6.0-1.100","MEVO","4","f","rechts","24","","","self","f","0","true"
"null","<div style=""font-size:60px;"">+</div>","null","html-keyboard-response","208","385019","0.0-6.0-0.101","MEVO","4","f","rechts","24","","fixation","","","",""
"774","img/L60_180.png","70","image-keyboard-response","209","385794","0.0-6.0-1.101","MEVO","4","f","rechts","24","","","self","f","60","true"
"null","<div style=""font-size:60px;"">+</div>","null","html-keyboard-response","210","386096","0.0-6.0-0.102","MEVO","4","f","rechts","24","","fixation","","","",""
"610","img/0_30.png","74","image-keyboard-response","211","386706","0.0-6.0-1.102","MEVO","4","f","rechts","24","","","self","j","0","true"
"null","<div style=""font-size:60px;"">+</div>","null","html-keyboard-response","212","387207","0.0-6.0-0.103","MEVO","4","f","rechts","24","","fixation","","","",""
"885","img/90_330.png","70","image-keyboard-response","213","388093","0.0-6.0-1.103","MEVO","4","f","rechts","24","","","self","f","90","true"
"null","<div style=""font-size:60px;"">+</div>","null","html-keyboard-response","214","388545","0.0-6.0-0.104","MEVO","4","f","rechts","24","","fixation","","","",""
"622","img/60_330.png","70","image-keyboard-response","215","389167","0.0-6.0-1.104","MEVO","4","f","rechts","24","","","self","f","60","true"
"null","<div style=""font-size:60px;"">+</div>","null","html-keyboard-response","216","389518","0.0-6.0-0.105","MEVO","4","f","rechts","24","","fixation","","","",""
"744","img/30_180.png","74","image-keyboard-response","217","390263","0.0-6.0-1.105","MEVO","4","f","rechts","24","","","self","j","30","true"
"null","<div style=""font-size:60px;"">+</div>","null","html-keyboard-response","218","390615","0.0-6.0-0.106","MEVO","4","f","rechts","24","","fixation","","","",""
"679","img/30_90.png","74","image-keyboard-response","219","391294","0.0-6.0-1.106","MEVO","4","f","rechts","24","","","self","j","30","true"
"null","<div style=""font-size:60px;"">+</div>","null","html-keyboard-response","220","391595","0.0-6.0-0.107","MEVO","4","f","rechts","24","","fixation","","","",""
"823","img/120_330.png","70","image-keyboard-response","221","392420","0.0-6.0-1.107","MEVO","4","f","rechts","24","","","self","f","120","true"
"null","<div style=""font-size:60px;"">+</div>","null","html-keyboard-response","222","392921","0.0-6.0-0.108","MEVO","4","f","rechts","24","","fixation","","","",""
"711","img/150_240.png","74","image-keyboard-response","223","393633","0.0-6.0-1.108","MEVO","4","f","rechts","24","","","self","j","150","true"
"null","<div style=""font-size:60px;"">+</div>","null","html-keyboard-response","224","394135","0.0-6.0-0.109","MEVO","4","f","rechts","24","","fixation","","","",""
"626","img/120_210.png","74","image-keyboard-response","225","394761","0.0-6.0-1.109","MEVO","4","f","rechts","24","","","self","j","120","true"
"null","<div style=""font-size:60px;"">+</div>","null","html-keyboard-response","226","395213","0.0-6.0-0.110","MEVO","4","f","rechts","24","","fixation","","","",""
"839","img/120_30.png","74","image-keyboard-response","227","396053","0.0-6.0-1.110","MEVO","4","f","rechts","24","","","self","j","120","true"
"null","<div style=""font-size:60px;"">+</div>","null","html-keyboard-response","228","396355","0.0-6.0-0.111","MEVO","4","f","rechts","24","","fixation","","","",""
"650","img/0_60.png","74","image-keyboard-response","229","397005","0.0-6.0-1.111","MEVO","4","f","rechts","24","","","self","j","0","true"
"null","<div style=""font-size:60px;"">+</div>","null","html-keyboard-response","230","397456","0.0-6.0-0.112","MEVO","4","f","rechts","24","","fixation","","","",""
"761","img/90_330.png","70","image-keyboard-response","231","398218","0.0-6.0-1.112","MEVO","4","f","rechts","24","","","self","f","90","true"
"null","<div style=""font-size:60px;"">+</div>","null","html-keyboard-response","232","398619","0.0-6.0-0.113","MEVO","4","f","rechts","24","","fixation","","","",""
"611","img/60_270.png","70","image-keyboard-response","233","399230","0.0-6.0-1.113","MEVO","4","f","rechts","24","","","self","f","60","true"
"null","<div style=""font-size:60px;"">+</div>","null","html-keyboard-response","234","399731","0.0-6.0-0.114","MEVO","4","f","rechts","24","","fixation","","","",""
"608","img/90_300.png","70","image-keyboard-response","235","400341","0.0-6.0-1.114","MEVO","4","f","rechts","24","","","self","f","90","true"
"null","<div style=""font-size:60px;"">+</div>","null","html-keyboard-response","236","400692","0.0-6.0-0.115","MEVO","4","f","rechts","24","","fixation","","","",""
"638","img/120_180.png","74","image-keyboard-response","237","401331","0.0-6.0-1.115","MEVO","4","f","rechts","24","","","self","j","120","true"
"null","<div style=""font-size:60px;"">+</div>","null","html-keyboard-response","238","401733","0.0-6.0-0.116","MEVO","4","f","rechts","24","","fixation","","","",""
"669","img/90_60.png","74","image-keyboard-response","239","402404","0.0-6.0-1.116","MEVO","4","f","rechts","24","","","self","j","90","true"
"null","<div style=""font-size:60px;"">+</div>","null","html-keyboard-response","240","402704","0.0-6.0-0.117","MEVO","4","f","rechts","24","","fixation","","","",""
"578","img/0_330.png","70","image-keyboard-response","241","403284","0.0-6.0-1.117","MEVO","4","f","rechts","24","","","self","f","0","true"
"null","<div style=""font-size:60px;"">+</div>","null","html-keyboard-response","242","403785","0.0-6.0-0.118","MEVO","4","f","rechts","24","","fixation","","","",""
"679","img/150_90.png","70","image-keyboard-response","243","404466","0.0-6.0-1.118","MEVO","4","f","rechts","24","","","self","f","150","true"
"null","<div style=""font-size:60px;"">+</div>","null","html-keyboard-response","244","404866","0.0-6.0-0.119","MEVO","4","f","rechts","24","","fixation","","","",""
"539","img/L90_180.png","70","image-keyboard-response","245","405406","0.0-6.0-1.119","MEVO","4","f","rechts","24","","","self","f","90","true"
"null","<div style=""font-size:60px;"">+</div>","null","html-keyboard-response","246","405807","0.0-6.0-0.120","MEVO","4","f","rechts","24","","fixation","","","",""
"556","img/L120_180.png","70","image-keyboard-response","247","406364","0.0-6.0-1.120","MEVO","4","f","rechts","24","","","self","f","120","true"
"null","<div style=""font-size:60px;"">+</div>","null","html-keyboard-response","248","406666","0.0-6.0-0.121","MEVO","4","f","rechts","24","","fixation","","","",""
"534","img/L150_180.png","70","image-keyboard-response","249","407202","0.0-6.0-1.121","MEVO","4","f","rechts","24","","","self","f","150","true"
"null","<div style=""font-size:60px;"">+</div>","null","html-keyboard-response","250","407603","0.0-6.0-0.122","MEVO","4","f","rechts","24","","fixation","","","",""
"557","img/90_210.png","74","image-keyboard-response","251","408162","0.0-6.0-1.122","MEVO","4","f","rechts","24","","","self","j","90","true"
"null","<div style=""font-size:60px;"">+</div>","null","html-keyboard-response","252","408663","0.0-6.0-0.123","MEVO","4","f","rechts","24","","fixation","","","",""
"488","img/150_120.png","70","image-keyboard-response","253","409153","0.0-6.0-1.123","MEVO","4","f","rechts","24","","","self","f","150","true"
"null","<div style=""font-size:60px;"">+</div>","null","html-keyboard-response","254","409554","0.0-6.0-0.124","MEVO","4","f","rechts","24","","fixation","","","",""
"596","img/0_300.png","70","image-keyboard-response","255","410151","0.0-6.0-1.124","MEVO","4","f","rechts","24","","","self","f","0","true"
"null","<div style=""font-size:60px;"">+</div>","null","html-keyboard-response","256","410503","0.0-6.0-0.125","MEVO","4","f","rechts","24","","fixation","","","",""
"597","img/0_210.png","70","image-keyboard-response","257","411101","0.0-6.0-1.125","MEVO","4","f","rechts","24","","","self","f","0","true"
"null","<div style=""font-size:60px;"">+</div>","null","html-keyboard-response","258","411553","0.0-6.0-0.126","MEVO","4","f","rechts","24","","fixation","","","",""
"542","img/L60_180.png","70","image-keyboard-response","259","412096","0.0-6.0-1.126","MEVO","4","f","rechts","24","","","self","f","60","true"
"null","<div style=""font-size:60px;"">+</div>","null","html-keyboard-response","260","412448","0.0-6.0-0.127","MEVO","4","f","rechts","24","","fixation","","","",""
"608","img/0_90.png","74","image-keyboard-response","261","413056","0.0-6.0-1.127","MEVO","4","f","rechts","24","","","self","j","0","true"
"null","<div style=""font-size:60px;"">+</div>","null","html-keyboard-response","262","413358","0.0-6.0-0.128","MEVO","4","f","rechts","24","","fixation","","","",""
"563","img/90_150.png","70","image-keyboard-response","263","413922","0.0-6.0-1.128","MEVO","4","f","rechts","24","","","self","f","90","true"
"null","<div style=""font-size:60px;"">+</div>","null","html-keyboard-response","264","414424","0.0-6.0-0.129","MEVO","4","f","rechts","24","","fixation","","","",""
"470","img/120_150.png","70","image-keyboard-response","265","414895","0.0-6.0-1.129","MEVO","4","f","rechts","24","","","self","f","120","true"
"null","<div style=""font-size:60px;"">+</div>","null","html-keyboard-response","266","415297","0.0-6.0-0.130","MEVO","4","f","rechts","24","","fixation","","","",""
"558","img/90_120.png","70","image-keyboard-response","267","415856","0.0-6.0-1.130","MEVO","4","f","rechts","24","","","self","f","90","true"
"null","<div style=""font-size:60px;"">+</div>","null","html-keyboard-response","268","416258","0.0-6.0-0.131","MEVO","4","f","rechts","24","","fixation","","","",""
"746","img/30_270.png","70","image-keyboard-response","269","417005","0.0-6.0-1.131","MEVO","4","f","rechts","24","","","self","f","30","true"
"null","<div style=""font-size:60px;"">+</div>","null","html-keyboard-response","270","417307","0.0-6.0-0.132","MEVO","4","f","rechts","24","","fixation","","","",""
"678","img/0_120.png","74","image-keyboard-response","271","417986","0.0-6.0-1.132","MEVO","4","f","rechts","24","","","self","j","0","true"
"null","<div style=""font-size:60px;"">+</div>","null","html-keyboard-response","272","418388","0.0-6.0-0.133","MEVO","4","f","rechts","24","","fixation","","","",""
"587","img/30_300.png","70","image-keyboard-response","273","418976","0.0-6.0-1.133","MEVO","4","f","rechts","24","","","self","f","30","true"
"null","<div style=""font-size:60px;"">+</div>","null","html-keyboard-response","274","419328","0.0-6.0-0.134","MEVO","4","f","rechts","24","","fixation","","","",""
"565","img/L30_180.png","70","image-keyboard-response","275","419894","0.0-6.0-1.134","MEVO","4","f","rechts","24","","","self","f","30","true"
"null","<div style=""font-size:60px;"">+</div>","null","html-keyboard-response","276","420246","0.0-6.0-0.135","MEVO","4","f","rechts","24","","fixation","","","",""
"681","img/30_120.png","74","image-keyboard-response","277","420928","0.0-6.0-1.135","MEVO","4","f","rechts","24","","","self","j","30","true"
"null","<div style=""font-size:60px;"">+</div>","null","html-keyboard-response","278","421430","0.0-6.0-0.136","MEVO","4","f","rechts","24","","fixation","","","",""
"569","img/60_180.png","74","image-keyboard-response","279","421999","0.0-6.0-1.136","MEVO","4","f","rechts","24","","","self","j","60","true"
"null","<div style=""font-size:60px;"">+</div>","null","html-keyboard-response","280","422301","0.0-6.0-0.137","MEVO","4","f","rechts","24","","fixation","","","",""
"666","img/150_180.png","74","image-keyboard-response","281","422967","0.0-6.0-1.137","MEVO","4","f","rechts","24","","","self","j","150","true"
"null","<div style=""font-size:60px;"">+</div>","null","html-keyboard-response","282","423469","0.0-6.0-0.138","MEVO","4","f","rechts","24","","fixation","","","",""
"596","img/0_30.png","70","image-keyboard-response","283","424066","0.0-6.0-1.138","MEVO","4","f","rechts","24","","","self","j","0","false"
"null","<div style=""font-size:60px;"">+</div>","null","html-keyboard-response","284","424368","0.0-6.0-0.139","MEVO","4","f","rechts","24","","fixation","","","",""
"925","img/30_240.png","70","image-keyboard-response","285","425293","0.0-6.0-1.139","MEVO","4","f","rechts","24","","","self","f","30","true"
"null","<div style=""font-size:60px;"">+</div>","null","html-keyboard-response","286","425795","0.0-6.0-0.140","MEVO","4","f","rechts","24","","fixation","","","",""
"809","img/90_240.png","74","image-keyboard-response","287","426605","0.0-6.0-1.140","MEVO","4","f","rechts","24","","","self","j","90","true"
"null","<div style=""font-size:60px;"">+</div>","null","html-keyboard-response","288","427007","0.0-6.0-0.141","MEVO","4","f","rechts","24","","fixation","","","",""
"560","img/0_240.png","70","image-keyboard-response","289","427568","0.0-6.0-1.141","MEVO","4","f","rechts","24","","","self","f","0","true"
"null","<div style=""font-size:60px;"">+</div>","null","html-keyboard-response","290","428070","0.0-6.0-0.142","MEVO","4","f","rechts","24","","fixation","","","",""
"723","img/150_60.png","74","image-keyboard-response","291","428794","0.0-6.0-1.142","MEVO","4","f","rechts","24","","","self","f","150","false"
"null","<div style=""font-size:60px;"">+</div>","null","html-keyboard-response","292","429146","0.0-6.0-0.143","MEVO","4","f","rechts","24","","fixation","","","",""
"902","img/150_270.png","70","image-keyboard-response","293","430048","0.0-6.0-1.143","MEVO","4","f","rechts","24","","","self","j","150","false"
"null","<div style=""font-size:60px;"">+</div>","null","html-keyboard-response","294","430350","0.0-6.0-0.144","MEVO","4","f","rechts","24","","fixation","","","",""
"1068","img/90_30.png","74","image-keyboard-response","295","431418","0.0-6.0-1.144","MEVO","4","f","rechts","24","","","self","j","90","true"
"null","<div style=""font-size:60px;"">+</div>","null","html-keyboard-response","296","431720","0.0-6.0-0.145","MEVO","4","f","rechts","24","","fixation","","","",""
"609","img/30_60.png","74","image-keyboard-response","297","432329","0.0-6.0-1.145","MEVO","4","f","rechts","24","","","self","j","30","true"
"null","<div style=""font-size:60px;"">+</div>","null","html-keyboard-response","298","432781","0.0-6.0-0.146","MEVO","4","f","rechts","24","","fixation","","","",""
"733","img/120_90.png","70","image-keyboard-response","299","433514","0.0-6.0-1.146","MEVO","4","f","rechts","24","","","self","f","120","true"
"null","<div style=""font-size:60px;"">+</div>","null","html-keyboard-response","300","433916","0.0-6.0-0.147","MEVO","4","f","rechts","24","","fixation","","","",""
"610","img/120_270.png","74","image-keyboard-response","301","434526","0.0-6.0-1.147","MEVO","4","f","rechts","24","","","self","j","120","true"
"null","<div style=""font-size:60px;"">+</div>","null","html-keyboard-response","302","434878","0.0-6.0-0.148","MEVO","4","f","rechts","24","","fixation","","","",""
"611","img/60_210.png","74","image-keyboard-response","303","435489","0.0-6.0-1.148","MEVO","4","f","rechts","24","","","self","j","60","true"
"null","<div style=""font-size:60px;"">+</div>","null","html-keyboard-response","304","435941","0.0-6.0-0.149","MEVO","4","f","rechts","24","","fixation","","","",""
"565","img/90_180.png","74","image-keyboard-response","305","436506","0.0-6.0-1.149","MEVO","4","f","rechts","24","","","self","j","90","true"
"null","<div style=""font-size:60px;"">+</div>","null","html-keyboard-response","306","437008","0.0-6.0-0.150","MEVO","4","f","rechts","24","","fixation","","","",""
"764","img/60_90.png","74","image-keyboard-response","307","437772","0.0-6.0-1.150","MEVO","4","f","rechts","24","","","self","j","60","true"
"null","<div style=""font-size:60px;"">+</div>","null","html-keyboard-response","308","438273","0.0-6.0-0.151","MEVO","4","f","rechts","24","","fixation","","","",""
"495","img/0_150.png","74","image-keyboard-response","309","438769","0.0-6.0-1.151","MEVO","4","f","rechts","24","","","self","j","0","true"
"null","<div style=""font-size:60px;"">+</div>","null","html-keyboard-response","310","439121","0.0-6.0-0.152","MEVO","4","f","rechts","24","","fixation","","","",""
"811","img/60_30.png","74","image-keyboard-response","311","439932","0.0-6.0-1.152","MEVO","4","f","rechts","24","","","self","j","60","true"
"null","<div style=""font-size:60px;"">+</div>","null","html-keyboard-response","312","440284","0.0-6.0-0.153","MEVO","4","f","rechts","24","","fixation","","","",""
"631","img/0_270.png","70","image-keyboard-response","313","440915","0.0-6.0-1.153","MEVO","4","f","rechts","24","","","self","f","0","true"
"null","<div style=""font-size:60px;"">+</div>","null","html-keyboard-response","314","441267","0.0-6.0-0.154","MEVO","4","f","rechts","24","","fixation","","","",""
"811","img/150_300.png","74","image-keyboard-response","315","442078","0.0-6.0-1.154","MEVO","4","f","rechts","24","","","self","j","150","true"
"null","<div style=""font-size:60px;"">+</div>","null","html-keyboard-response","316","442379","0.0-6.0-0.155","MEVO","4","f","rechts","24","","fixation","","","",""
"770","img/60_150.png","70","image-keyboard-response","317","443151","0.0-6.0-1.155","MEVO","4","f","rechts","24","","","self","f","60","true"
"null","<div style=""font-size:60px;"">+</div>","null","html-keyboard-response","318","443452","0.0-6.0-0.156","MEVO","4","f","rechts","24","","fixation","","","",""
"715","img/L30_180.png","70","image-keyboard-response","319","444168","0.0-6.0-1.156","MEVO","4","f","rechts","24","","","self","f","30","true"
"null","<div style=""font-size:60px;"">+</div>","null","html-keyboard-response","320","444570","0.0-6.0-0.157","MEVO","4","f","rechts","24","","fixation","","","",""
"673","img/30_180.png","74","image-keyboard-response","321","445244","0.0-6.0-1.157","MEVO","4","f","rechts","24","","","self","j","30","true"
"null","<div style=""font-size:60px;"">+</div>","null","html-keyboard-response","322","445695","0.0-6.0-0.158","MEVO","4","f","rechts","24","","fixation","","","",""
"550","img/0_270.png","70","image-keyboard-response","323","446246","0.0-6.0-1.158","MEVO","4","f","rechts","24","","","self","f","0","true"
"null","<div style=""font-size:60px;"">+</div>","null","html-keyboard-response","324","446748","0.0-6.0-0.159","MEVO","4","f","rechts","24","","fixation","","","",""
"574","img/90_240.png","74","image-keyboard-response","325","447322","0.0-6.0-1.159","MEVO","4","f","rechts","24","","","self","j","90","true"
"null","<div style=""font-size:60px;"">+</div>","null","html-keyboard-response","326","447723","0.0-6.0-0.160","MEVO","4","f","rechts","24","","fixation","","","",""
"988","img/60_330.png","70","image-keyboard-response","327","448713","0.0-6.0-1.160","MEVO","4","f","rechts","24","","","self","f","60","true"
"null","<div style=""font-size:60px;"">+</div>","null","html-keyboard-response","328","449014","0.0-6.0-0.161","MEVO","4","f","rechts","24","","fixation","","","",""
"771","img/L150_180.png","70","image-keyboard-response","329","449787","0.0-6.0-1.161","MEVO","4","f","rechts","24","","","self","f","150","true"
"null","<div style=""font-size:60px;"">+</div>","null","html-keyboard-response","330","450138","0.0-6.0-0.162","MEVO","4","f","rechts","24","","fixation","","","",""
"669","img/60_180.png","74","image-keyboard-response","331","450809","0.0-6.0-1.162","MEVO","4","f","rechts","24","","","self","j","60","true"
"null","<div style=""font-size:60px;"">+</div>","null","html-keyboard-response","332","451160","0.0-6.0-0.163","MEVO","4","f","rechts","24","","fixation","","","",""
"556","img/0_210.png","70","image-keyboard-response","333","451718","0.0-6.0-1.163","MEVO","4","f","rechts","24","","","self","f","0","true"
"null","<div style=""font-size:60px;"">+</div>","null","html-keyboard-response","334","452019","0.0-6.0-0.164","MEVO","4","f","rechts","24","","fixation","","","",""
"700","img/60_270.png","70","image-keyboard-response","335","452720","0.0-6.0-1.164","MEVO","4","f","rechts","24","","","self","f","60","true"
"null","<div style=""font-size:60px;"">+</div>","null","html-keyboard-response","336","453172","0.0-6.0-0.165","MEVO","4","f","rechts","24","","fixation","","","",""
"608","img/150_120.png","70","image-keyboard-response","337","453781","0.0-6.0-1.165","MEVO","4","f","rechts","24","","","self","f","150","true"
"null","<div style=""font-size:60px;"">+</div>","null","html-keyboard-response","338","454132","0.0-6.0-0.166","MEVO","4","f","rechts","24","","fixation","","","",""
"619","img/0_300.png","70","image-keyboard-response","339","454752","0.0-6.0-1.166","MEVO","4","f","rechts","24","","","self","f","0","true"
"null","<div style=""font-size:60px;"">+</div>","null","html-keyboard-response","340","455204","0.0-6.0-0.167","MEVO","4","f","rechts","24","","fixation","","","",""
"563","img/0_60.png","74","image-keyboard-response","341","455769","0.0-6.0-1.167","MEVO","4","f","rechts","24","","","self","j","0","true"
"null","<div style=""font-size:60px;"">+</div>","null","html-keyboard-response","342","456170","0.0-6.0-0.168","MEVO","4","f","rechts","24","","fixation","","","",""
"637","img/30_270.png","70","image-keyboard-response","343","456809","0.0-6.0-1.168","MEVO","4","f","rechts","24","","","self","f","30","true"
"null","<div style=""font-size:60px;"">+</div>","null","html-keyboard-response","344","457160","0.0-6.0-0.169","MEVO","4","f","rechts","24","","fixation","","","",""
"690","img/L120_180.png","70","image-keyboard-response","345","457851","0.0-6.0-1.169","MEVO","4","f","rechts","24","","","self","f","120","true"
"null","<div style=""font-size:60px;"">+</div>","null","html-keyboard-response","346","458353","0.0-6.0-0.170","MEVO","4","f","rechts","24","","fixation","","","",""
"545","img/30_90.png","74","image-keyboard-response","347","458900","0.0-6.0-1.170","MEVO","4","f","rechts","24","","","self","j","30","true"
"null","<div style=""font-size:60px;"">+</div>","null","html-keyboard-response","348","459351","0.0-6.0-0.171","MEVO","4","f","rechts","24","","fixation","","","",""
"678","img/90_300.png","70","image-keyboard-response","349","460030","0.0-6.0-1.171","MEVO","4","f","rechts","24","","","self","f","90","true"
"null","<div style=""font-size:60px;"">+</div>","null","html-keyboard-response","350","460382","0.0-6.0-0.172","MEVO","4","f","rechts","24","","fixation","","","",""
"669","img/30_60.png","74","image-keyboard-response","351","461053","0.0-6.0-1.172","MEVO","4","f","rechts","24","","","self","j","30","true"
"null","<div style=""font-size:60px;"">+</div>","null","html-keyboard-response","352","461354","0.0-6.0-0.173","MEVO","4","f","rechts","24","","fixation","","","",""
"621","img/30_300.png","70","image-keyboard-response","353","461975","0.0-6.0-1.173","MEVO","4","f","rechts","24","","","self","f","30","true"
"null","<div style=""font-size:60px;"">+</div>","null","html-keyboard-response","354","462327","0.0-6.0-0.174","MEVO","4","f","rechts","24","","fixation","","","",""
"671","img/L60_180.png","70","image-keyboard-response","355","462999","0.0-6.0-1.174","MEVO","4","f","rechts","24","","","self","f","60","true"
"null","<div style=""font-size:60px;"">+</div>","null","html-keyboard-response","356","463301","0.0-6.0-0.175","MEVO","4","f","rechts","24","","fixation","","","",""
"817","img/30_120.png","74","image-keyboard-response","357","464119","0.0-6.0-1.175","MEVO","4","f","rechts","24","","","self","j","30","true"
"null","<div style=""font-size:60px;"">+</div>","null","html-keyboard-response","358","464471","0.0-6.0-0.176","MEVO","4","f","rechts","24","","fixation","","","",""
"705","img/90_150.png","70","image-keyboard-response","359","465177","0.0-6.0-1.176","MEVO","4","f","rechts","24","","","self","f","90","true"
"null","<div style=""font-size:60px;"">+</div>","null","html-keyboard-response","360","465628","0.0-6.0-0.177","MEVO","4","f","rechts","24","","fixation","","","",""
"659","img/150_270.png","74","image-keyboard-response","361","466288","0.0-6.0-1.177","MEVO","4","f","rechts","24","","","self","j","150","true"
"null","<div style=""font-size:60px;"">+</div>","null","html-keyboard-response","362","466640","0.0-6.0-0.178","MEVO","4","f","rechts","24","","fixation","","","",""
"631","img/L90_180.png","70","image-keyboard-response","363","467272","0.0-6.0-1.178","MEVO","4","f","rechts","24","","","self","f","90","true"
"null","<div style=""font-size:60px;"">+</div>","null","html-keyboard-response","364","467774","0.0-6.0-0.179","MEVO","4","f","rechts","24","","fixation","","","",""
"616","img/60_90.png","74","image-keyboard-response","365","468391","0.0-6.0-1.179","MEVO","4","f","rechts","24","","","self","j","60","true"
"null","<div style=""font-size:60px;"">+</div>","null","html-keyboard-response","366","468843","0.0-6.0-0.180","MEVO","4","f","rechts","24","","fixation","","","",""
"551","img/0_240.png","70","image-keyboard-response","367","469395","0.0-6.0-1.180","MEVO","4","f","rechts","24","","","self","f","0","true"
"null","<div style=""font-size:60px;"">+</div>","null","html-keyboard-response","368","469847","0.0-6.0-0.181","MEVO","4","f","rechts","24","","fixation","","","",""
"636","img/0_30.png","74","image-keyboard-response","369","470484","0.0-6.0-1.181","MEVO","4","f","rechts","24","","","self","j","0","true"
"null","<div style=""font-size:60px;"">+</div>","null","html-keyboard-response","370","470986","0.0-6.0-0.182","MEVO","4","f","rechts","24","","fixation","","","",""
"744","img/60_150.png","74","image-keyboard-response","371","471731","0.0-6.0-1.182","MEVO","4","f","rechts","24","","","self","f","60","false"
"null","<div style=""font-size:60px;"">+</div>","null","html-keyboard-response","372","472133","0.0-6.0-0.183","MEVO","4","f","rechts","24","","fixation","","","",""
"627","img/0_90.png","74","image-keyboard-response","373","472761","0.0-6.0-1.183","MEVO","4","f","rechts","24","","","self","j","0","true"
"null","<div style=""font-size:60px;"">+</div>","null","html-keyboard-response","374","473263","0.0-6.0-0.184","MEVO","4","f","rechts","24","","fixation","","","",""
"580","img/120_210.png","74","image-keyboard-response","375","473844","0.0-6.0-1.184","MEVO","4","f","rechts","24","","","self","j","120","true"
"null","<div style=""font-size:60px;"">+</div>","null","html-keyboard-response","376","474196","0.0-6.0-0.185","MEVO","4","f","rechts","24","","fixation","","","",""
"636","img/150_300.png","74","image-keyboard-response","377","474833","0.0-6.0-1.185","MEVO","4","f","rechts","24","","","self","j","150","true"
"null","<div style=""font-size:60px;"">+</div>","null","html-keyboard-response","378","475285","0.0-6.0-0.186","MEVO","4","f","rechts","24","","fixation","","","",""
"676","img/120_90.png","70","image-keyboard-response","379","475961","0.0-6.0-1.186","MEVO","4","f","rechts","24","","","self","f","120","true"
"null","<div style=""font-size:60px;"">+</div>","null","html-keyboard-response","380","476463","0.0-6.0-0.187","MEVO","4","f","rechts","24","","fixation","","","",""
"534","img/120_30.png","70","image-keyboard-response","381","476997","0.0-6.0-1.187","MEVO","4","f","rechts","24","","","self","j","120","false"
"null","<div style=""font-size:60px;"">+</div>","null","html-keyboard-response","382","477449","0.0-6.0-0.188","MEVO","4","f","rechts","24","","fixation","","","",""
"978","img/30_240.png","70","image-keyboard-response","383","478428","0.0-6.0-1.188","MEVO","4","f","rechts","24","","","self","f","30","true"
"null","<div style=""font-size:60px;"">+</div>","null","html-keyboard-response","384","478780","0.0-6.0-0.189","MEVO","4","f","rechts","24","","fixation","","","",""
"689","img/60_30.png","74","image-keyboard-response","385","479470","0.0-6.0-1.189","MEVO","4","f","rechts","24","","","self","j","60","true"
"null","<div style=""font-size:60px;"">+</div>","null","html-keyboard-response","386","479972","0.0-6.0-0.190","MEVO","4","f","rechts","24","","fixation","","","",""
"652","img/90_180.png","74","image-keyboard-response","387","480625","0.0-6.0-1.190","MEVO","4","f","rechts","24","","","self","j","90","true"
"null","<div style=""font-size:60px;"">+</div>","null","html-keyboard-response","388","481077","0.0-6.0-0.191","MEVO","4","f","rechts","24","","fixation","","","",""
"602","img/0_120.png","74","image-keyboard-response","389","481679","0.0-6.0-1.191","MEVO","4","f","rechts","24","","","self","j","0","true"
"null","<div style=""font-size:60px;"">+</div>","null","html-keyboard-response","390","482081","0.0-6.0-0.192","MEVO","4","f","rechts","24","","fixation","","","",""
"584","img/120_150.png","70","image-keyboard-response","391","482666","0.0-6.0-1.192","MEVO","4","f","rechts","24","","","self","f","120","true"
"null","<div style=""font-size:60px;"">+</div>","null","html-keyboard-response","392","483167","0.0-6.0-0.193","MEVO","4","f","rechts","24","","fixation","","","",""
"567","img/150_90.png","70","image-keyboard-response","393","483735","0.0-6.0-1.193","MEVO","4","f","rechts","24","","","self","f","150","true"
"null","<div style=""font-size:60px;"">+</div>","null","html-keyboard-response","394","484237","0.0-6.0-0.194","MEVO","4","f","rechts","24","","fixation","","","",""
"690","img/90_210.png","74","image-keyboard-response","395","484927","0.0-6.0-1.194","MEVO","4","f","rechts","24","","","self","j","90","true"
"null","<div style=""font-size:60px;"">+</div>","null","html-keyboard-response","396","485379","0.0-6.0-0.195","MEVO","4","f","rechts","24","","fixation","","","",""
"823","img/90_330.png","70","image-keyboard-response","397","486202","0.0-6.0-1.195","MEVO","4","f","rechts","24","","","self","f","90","true"
"null","<div style=""font-size:60px;"">+</div>","null","html-keyboard-response","398","486554","0.0-6.0-0.196","MEVO","4","f","rechts","24","","fixation","","","",""
"615","img/150_180.png","74","image-keyboard-response","399","487170","0.0-6.0-1.196","MEVO","4","f","rechts","24","","","self","j","150","true"
"null","<div style=""font-size:60px;"">+</div>","null","html-keyboard-response","400","487522","0.0-6.0-0.197","MEVO","4","f","rechts","24","","fixation","","","",""
"589","img/0_330.png","70","image-keyboard-response","401","488111","0.0-6.0-1.197","MEVO","4","f","rechts","24","","","self","f","0","true"
"null","<div style=""font-size:60px;"">+</div>","null","html-keyboard-response","402","488563","0.0-6.0-0.198","MEVO","4","f","rechts","24","","fixation","","","",""
"637","img/150_240.png","74","image-keyboard-response","403","489200","0.0-6.0-1.198","MEVO","4","f","rechts","24","","","self","j","150","true"
"null","<div style=""font-size:60px;"">+</div>","null","html-keyboard-response","404","489552","0.0-6.0-0.199","MEVO","4","f","rechts","24","","fixation","","","",""
"614","img/0_150.png","74","image-keyboard-response","405","490166","0.0-6.0-1.199","MEVO","4","f","rechts","24","","","self","j","0","true"
"null","<div style=""font-size:60px;"">+</div>","null","html-keyboard-response","406","490568","0.0-6.0-0.200","MEVO","4","f","rechts","24","","fixation","","","",""
"699","img/150_60.png","70","image-keyboard-response","407","491267","0.0-6.0-1.200","MEVO","4","f","rechts","24","","","self","f","150","true"
"null","<div style=""font-size:60px;"">+</div>","null","html-keyboard-response","408","491669","0.0-6.0-0.201","MEVO","4","f","rechts","24","","fixation","","","",""
"555","img/60_210.png","74","image-keyboard-response","409","492224","0.0-6.0-1.201","MEVO","4","f","rechts","24","","","self","j","60","true"
"null","<div style=""font-size:60px;"">+</div>","null","html-keyboard-response","410","492675","0.0-6.0-0.202","MEVO","4","f","rechts","24","","fixation","","","",""
"692","img/120_180.png","74","image-keyboard-response","411","493368","0.0-6.0-1.202","MEVO","4","f","rechts","24","","","self","j","120","true"
"null","<div style=""font-size:60px;"">+</div>","null","html-keyboard-response","412","493669","0.0-6.0-0.203","MEVO","4","f","rechts","24","","fixation","","","",""
"694","img/120_270.png","74","image-keyboard-response","413","494364","0.0-6.0-1.203","MEVO","4","f","rechts","24","","","self","j","120","true"
"null","<div style=""font-size:60px;"">+</div>","null","html-keyboard-response","414","494665","0.0-6.0-0.204","MEVO","4","f","rechts","24","","fixation","","","",""
"813","img/120_330.png","70","image-keyboard-response","415","495480","0.0-6.0-1.204","MEVO","4","f","rechts","24","","","self","f","120","true"
"null","<div style=""font-size:60px;"">+</div>","null","html-keyboard-response","416","495781","0.0-6.0-0.205","MEVO","4","f","rechts","24","","fixation","","","",""
"904","img/90_30.png","74","image-keyboard-response","417","496687","0.0-6.0-1.205","MEVO","4","f","rechts","24","","","self","j","90","true"
"null","<div style=""font-size:60px;"">+</div>","null","html-keyboard-response","418","497138","0.0-6.0-0.206","MEVO","4","f","rechts","24","","fixation","","","",""
"570","img/90_120.png","74","image-keyboard-response","419","497710","0.0-6.0-1.206","MEVO","4","f","rechts","24","","","self","f","90","false"
"null","<div style=""font-size:60px;"">+</div>","null","html-keyboard-response","420","498111","0.0-6.0-0.207","MEVO","4","f","rechts","24","","fixation","","","",""
"830","img/90_60.png","74","image-keyboard-response","421","498942","0.0-6.0-1.207","MEVO","4","f","rechts","24","","","self","j","90","true"
"8508","<p>Du hast in 91% der Versuche korrekt entschieden.</p><p>Deine durchschnittliche Reaktionszeit war  700ms.</p><p>Dr&uuml;cke eine beliebige Taste, um die Session zu beenden. Vielen Dank!</p>","71","html-keyboard-response","422","507451","0.0-7.0","MEVO","4","f","rechts","24","","","","","",""
