"rt","stimulus","key_press","trial_type","trial_index","time_elapsed","internal_node_id","subject","session","sex","handedness","age","responses","test_part","condition","correct_response","angle","correct"
"1311","<p>Mental Rotation Experiment.</p> <p>Dr&uuml;cke eine beliebige Taste, um anzufangen.</p>","71","html-keyboard-response","0","1316","0.0-0.0","MEVO","2","f","rechts","24","","","","","",""
"2887","","","survey-text","1","4203","0.0-1.0","MEVO","2","f","rechts","24","{""Q0"":""MEVO""}","","","","",""
"1802","","","survey-text","2","6006","0.0-2.0","MEVO","2","f","rechts","24","{""Q0"":""2""}","","","","",""
"11128","","","survey-multi-choice","3","17137","0.0-3.0","MEVO","2","f","rechts","24","{""Q0"":""f"",""Q1"":""rechts""}","","","","",""
"8198","","","survey-text","4","25337","0.0-4.0","MEVO","2","f","rechts","24","{""Q0"":""24""}","","","","",""
"16416","<p> Stell dir vor, dass du vor einem runden Tisch stehst, auf dem sich ein blauer Ball am Tischrand befindet. Entlang des Tischrands ist jeweils ein verschieden langer Pfeil. Nun bewegst du dich entlang dieses Pfeils bis an seine Spitze. Wenn du am Ende des Pfeils angekommen bist, schau zur Tischmitte. </p> <img src='img/90_180.png'></img> <br> <p>Entscheide dann, ob der Ball von deiner neuen (vorgestellten) Position links oder rechts von dir liegt.</p> <p>Dr&uuml;cke die <strong>'f'</strong>-Taste f&uuml;r links, die <strong>'j'</strong>-Taste f&uuml;r rechts.</p> <br><p> Das Bild wird jeweils 1 Sekunde lang pr&auml;sentiert. Du hast 3 Sekunden Zeit eine Entscheidung zu treffen.</p>","74","html-keyboard-response","5","41754","0.0-5.0","MEVO","2","f","rechts","24","","","","","",""
"null","<div style=""font-size:60px;"">+</div>","null","html-keyboard-response","6","43058","0.0-6.0-0.0","MEVO","2","f","rechts","24","","fixation","","","",""
"995","img/120_270.png","74","image-keyboard-response","7","44056","0.0-6.0-1.0","MEVO","2","f","rechts","24","","","self","j","120","true"
"null","<div style=""font-size:60px;"">+</div>","null","html-keyboard-response","8","44408","0.0-6.0-0.1","MEVO","2","f","rechts","24","","fixation","","","",""
"733","img/0_30.png","74","image-keyboard-response","9","45142","0.0-6.0-1.1","MEVO","2","f","rechts","24","","","self","j","0","true"
"null","<div style=""font-size:60px;"">+</div>","null","html-keyboard-response","10","45643","0.0-6.0-0.2","MEVO","2","f","rechts","24","","fixation","","","",""
"1138","img/60_210.png","74","image-keyboard-response","11","46784","0.0-6.0-1.2","MEVO","2","f","rechts","24","","","self","j","60","true"
"null","<div style=""font-size:60px;"">+</div>","null","html-keyboard-response","12","47235","0.0-6.0-0.3","MEVO","2","f","rechts","24","","fixation","","","",""
"713","img/90_180.png","74","image-keyboard-response","13","47949","0.0-6.0-1.3","MEVO","2","f","rechts","24","","","self","j","90","true"
"null","<div style=""font-size:60px;"">+</div>","null","html-keyboard-response","14","48351","0.0-6.0-0.4","MEVO","2","f","rechts","24","","fixation","","","",""
"804","img/0_90.png","74","image-keyboard-response","15","49156","0.0-6.0-1.4","MEVO","2","f","rechts","24","","","self","j","0","true"
"null","<div style=""font-size:60px;"">+</div>","null","html-keyboard-response","16","49658","0.0-6.0-0.5","MEVO","2","f","rechts","24","","fixation","","","",""
"735","img/0_150.png","74","image-keyboard-response","17","50394","0.0-6.0-1.5","MEVO","2","f","rechts","24","","","self","j","0","true"
"null","<div style=""font-size:60px;"">+</div>","null","html-keyboard-response","18","50795","0.0-6.0-0.6","MEVO","2","f","rechts","24","","fixation","","","",""
"1144","img/90_240.png","74","image-keyboard-response","19","51941","0.0-6.0-1.6","MEVO","2","f","rechts","24","","","self","j","90","true"
"null","<div style=""font-size:60px;"">+</div>","null","html-keyboard-response","20","52392","0.0-6.0-0.7","MEVO","2","f","rechts","24","","fixation","","","",""
"731","img/90_210.png","74","image-keyboard-response","21","53124","0.0-6.0-1.7","MEVO","2","f","rechts","24","","","self","j","90","true"
"null","<div style=""font-size:60px;"">+</div>","null","html-keyboard-response","22","53576","0.0-6.0-0.8","MEVO","2","f","rechts","24","","fixation","","","",""
"1203","img/90_120.png","70","image-keyboard-response","23","54780","0.0-6.0-1.8","MEVO","2","f","rechts","24","","","self","f","90","true"
"null","<div style=""font-size:60px;"">+</div>","null","html-keyboard-response","24","55182","0.0-6.0-0.9","MEVO","2","f","rechts","24","","fixation","","","",""
"777","img/0_210.png","70","image-keyboard-response","25","55961","0.0-6.0-1.9","MEVO","2","f","rechts","24","","","self","f","0","true"
"null","<div style=""font-size:60px;"">+</div>","null","html-keyboard-response","26","56362","0.0-6.0-0.10","MEVO","2","f","rechts","24","","fixation","","","",""
"1726","img/30_270.png","70","image-keyboard-response","27","58091","0.0-6.0-1.10","MEVO","2","f","rechts","24","","","self","f","30","true"
"null","<div style=""font-size:60px;"">+</div>","null","html-keyboard-response","28","58542","0.0-6.0-0.11","MEVO","2","f","rechts","24","","fixation","","","",""
"1224","img/L60_180.png","74","image-keyboard-response","29","59768","0.0-6.0-1.11","MEVO","2","f","rechts","24","","","self","f","60","false"
"null","<div style=""font-size:60px;"">+</div>","null","html-keyboard-response","30","60070","0.0-6.0-0.12","MEVO","2","f","rechts","24","","fixation","","","",""
"1674","img/60_30.png","74","image-keyboard-response","31","61745","0.0-6.0-1.12","MEVO","2","f","rechts","24","","","self","j","60","true"
"null","<div style=""font-size:60px;"">+</div>","null","html-keyboard-response","32","62097","0.0-6.0-0.13","MEVO","2","f","rechts","24","","fixation","","","",""
"690","img/90_30.png","74","image-keyboard-response","33","62789","0.0-6.0-1.13","MEVO","2","f","rechts","24","","","self","j","90","true"
"null","<div style=""font-size:60px;"">+</div>","null","html-keyboard-response","34","63140","0.0-6.0-0.14","MEVO","2","f","rechts","24","","fixation","","","",""
"1355","img/30_240.png","74","image-keyboard-response","35","64497","0.0-6.0-1.14","MEVO","2","f","rechts","24","","","self","f","30","false"
"null","<div style=""font-size:60px;"">+</div>","null","html-keyboard-response","36","64948","0.0-6.0-0.15","MEVO","2","f","rechts","24","","fixation","","","",""
"1052","img/150_300.png","74","image-keyboard-response","37","66002","0.0-6.0-1.15","MEVO","2","f","rechts","24","","","self","j","150","true"
"null","<div style=""font-size:60px;"">+</div>","null","html-keyboard-response","38","66453","0.0-6.0-0.16","MEVO","2","f","rechts","24","","fixation","","","",""
"1167","img/120_150.png","70","image-keyboard-response","39","67621","0.0-6.0-1.16","MEVO","2","f","rechts","24","","","self","f","120","true"
"null","<div style=""font-size:60px;"">+</div>","null","html-keyboard-response","40","68023","0.0-6.0-0.17","MEVO","2","f","rechts","24","","fixation","","","",""
"1338","img/120_180.png","74","image-keyboard-response","41","69362","0.0-6.0-1.17","MEVO","2","f","rechts","24","","","self","j","120","true"
"null","<div style=""font-size:60px;"">+</div>","null","html-keyboard-response","42","69764","0.0-6.0-0.18","MEVO","2","f","rechts","24","","fixation","","","",""
"724","img/0_240.png","70","image-keyboard-response","43","70489","0.0-6.0-1.18","MEVO","2","f","rechts","24","","","self","f","0","true"
"null","<div style=""font-size:60px;"">+</div>","null","html-keyboard-response","44","70891","0.0-6.0-0.19","MEVO","2","f","rechts","24","","fixation","","","",""
"1374","img/90_330.png","70","image-keyboard-response","45","72266","0.0-6.0-1.19","MEVO","2","f","rechts","24","","","self","f","90","true"
"null","<div style=""font-size:60px;"">+</div>","null","html-keyboard-response","46","72718","0.0-6.0-0.20","MEVO","2","f","rechts","24","","fixation","","","",""
"626","img/0_330.png","70","image-keyboard-response","47","73345","0.0-6.0-1.20","MEVO","2","f","rechts","24","","","self","f","0","true"
"null","<div style=""font-size:60px;"">+</div>","null","html-keyboard-response","48","73847","0.0-6.0-0.21","MEVO","2","f","rechts","24","","fixation","","","",""
"1074","img/150_240.png","74","image-keyboard-response","49","74922","0.0-6.0-1.21","MEVO","2","f","rechts","24","","","self","j","150","true"
"null","<div style=""font-size:60px;"">+</div>","null","html-keyboard-response","50","75274","0.0-6.0-0.22","MEVO","2","f","rechts","24","","fixation","","","",""
"963","img/30_60.png","70","image-keyboard-response","51","76238","0.0-6.0-1.22","MEVO","2","f","rechts","24","","","self","j","30","false"
"null","<div style=""font-size:60px;"">+</div>","null","html-keyboard-response","52","76690","0.0-6.0-0.23","MEVO","2","f","rechts","24","","fixation","","","",""
"760","img/0_270.png","70","image-keyboard-response","53","77451","0.0-6.0-1.23","MEVO","2","f","rechts","24","","","self","f","0","true"
"null","<div style=""font-size:60px;"">+</div>","null","html-keyboard-response","54","77753","0.0-6.0-0.24","MEVO","2","f","rechts","24","","fixation","","","",""
"1345","img/60_330.png","70","image-keyboard-response","55","79099","0.0-6.0-1.24","MEVO","2","f","rechts","24","","","self","f","60","true"
"null","<div style=""font-size:60px;"">+</div>","null","html-keyboard-response","56","79451","0.0-6.0-0.25","MEVO","2","f","rechts","24","","fixation","","","",""
"1076","img/120_330.png","70","image-keyboard-response","57","80528","0.0-6.0-1.25","MEVO","2","f","rechts","24","","","self","f","120","true"
"null","<div style=""font-size:60px;"">+</div>","null","html-keyboard-response","58","80880","0.0-6.0-0.26","MEVO","2","f","rechts","24","","fixation","","","",""
"1155","img/90_60.png","74","image-keyboard-response","59","82036","0.0-6.0-1.26","MEVO","2","f","rechts","24","","","self","j","90","true"
"null","<div style=""font-size:60px;"">+</div>","null","html-keyboard-response","60","82538","0.0-6.0-0.27","MEVO","2","f","rechts","24","","fixation","","","",""
"923","img/30_300.png","70","image-keyboard-response","61","83462","0.0-6.0-1.27","MEVO","2","f","rechts","24","","","self","f","30","true"
"null","<div style=""font-size:60px;"">+</div>","null","html-keyboard-response","62","83914","0.0-6.0-0.28","MEVO","2","f","rechts","24","","fixation","","","",""
"919","img/60_270.png","70","image-keyboard-response","63","84834","0.0-6.0-1.28","MEVO","2","f","rechts","24","","","self","f","60","true"
"null","<div style=""font-size:60px;"">+</div>","null","html-keyboard-response","64","85136","0.0-6.0-0.29","MEVO","2","f","rechts","24","","fixation","","","",""
"1168","img/90_300.png","74","image-keyboard-response","65","86305","0.0-6.0-1.29","MEVO","2","f","rechts","24","","","self","f","90","false"
"null","<div style=""font-size:60px;"">+</div>","null","html-keyboard-response","66","86757","0.0-6.0-0.30","MEVO","2","f","rechts","24","","fixation","","","",""
"985","img/120_90.png","70","image-keyboard-response","67","87743","0.0-6.0-1.30","MEVO","2","f","rechts","24","","","self","f","120","true"
"null","<div style=""font-size:60px;"">+</div>","null","html-keyboard-response","68","88145","0.0-6.0-0.31","MEVO","2","f","rechts","24","","fixation","","","",""
"914","img/30_180.png","74","image-keyboard-response","69","89060","0.0-6.0-1.31","MEVO","2","f","rechts","24","","","self","j","30","true"
"null","<div style=""font-size:60px;"">+</div>","null","html-keyboard-response","70","89462","0.0-6.0-0.32","MEVO","2","f","rechts","24","","fixation","","","",""
"1075","img/L30_180.png","70","image-keyboard-response","71","90538","0.0-6.0-1.32","MEVO","2","f","rechts","24","","","self","f","30","true"
"null","<div style=""font-size:60px;"">+</div>","null","html-keyboard-response","72","90890","0.0-6.0-0.33","MEVO","2","f","rechts","24","","fixation","","","",""
"1070","img/150_60.png","70","image-keyboard-response","73","91961","0.0-6.0-1.33","MEVO","2","f","rechts","24","","","self","f","150","true"
"null","<div style=""font-size:60px;"">+</div>","null","html-keyboard-response","74","92413","0.0-6.0-0.34","MEVO","2","f","rechts","24","","fixation","","","",""
"1281","img/150_270.png","74","image-keyboard-response","75","93695","0.0-6.0-1.34","MEVO","2","f","rechts","24","","","self","j","150","true"
"null","<div style=""font-size:60px;"">+</div>","null","html-keyboard-response","76","93997","0.0-6.0-0.35","MEVO","2","f","rechts","24","","fixation","","","",""
"808","img/0_60.png","74","image-keyboard-response","77","94806","0.0-6.0-1.35","MEVO","2","f","rechts","24","","","self","j","0","true"
"null","<div style=""font-size:60px;"">+</div>","null","html-keyboard-response","78","95156","0.0-6.0-0.36","MEVO","2","f","rechts","24","","fixation","","","",""
"1188","img/150_180.png","70","image-keyboard-response","79","96345","0.0-6.0-1.36","MEVO","2","f","rechts","24","","","self","j","150","false"
"null","<div style=""font-size:60px;"">+</div>","null","html-keyboard-response","80","96847","0.0-6.0-0.37","MEVO","2","f","rechts","24","","fixation","","","",""
"759","img/120_210.png","74","image-keyboard-response","81","97607","0.0-6.0-1.37","MEVO","2","f","rechts","24","","","self","j","120","true"
"null","<div style=""font-size:60px;"">+</div>","null","html-keyboard-response","82","98109","0.0-6.0-0.38","MEVO","2","f","rechts","24","","fixation","","","",""
"1185","img/60_90.png","74","image-keyboard-response","83","99296","0.0-6.0-1.38","MEVO","2","f","rechts","24","","","self","j","60","true"
"null","<div style=""font-size:60px;"">+</div>","null","html-keyboard-response","84","99797","0.0-6.0-0.39","MEVO","2","f","rechts","24","","fixation","","","",""
"1197","img/120_30.png","74","image-keyboard-response","85","100996","0.0-6.0-1.39","MEVO","2","f","rechts","24","","","self","j","120","true"
"null","<div style=""font-size:60px;"">+</div>","null","html-keyboard-response","86","101447","0.0-6.0-0.40","MEVO","2","f","rechts","24","","fixation","","","",""
"1139","img/60_150.png","70","image-keyboard-response","87","102588","0.0-6.0-1.40","MEVO","2","f","rechts","24","","","self","f","60","true"
"null","<div style=""font-size:60px;"">+</div>","null","html-keyboard-response","88","103089","0.0-6.0-0.41","MEVO","2","f","rechts","24","","fixation","","","",""
"877","img/0_300.png","70","image-keyboard-response","89","103968","0.0-6.0-1.41","MEVO","2","f","rechts","24","","","self","f","0","true"
"null","<div style=""font-size:60px;"">+</div>","null","html-keyboard-response","90","104419","0.0-6.0-0.42","MEVO","2","f","rechts","24","","fixation","","","",""
"1728","img/30_90.png","74","image-keyboard-response","91","106149","0.0-6.0-1.42","MEVO","2","f","rechts","24","","","self","j","30","true"
"null","<div style=""font-size:60px;"">+</div>","null","html-keyboard-response","92","106650","0.0-6.0-0.43","MEVO","2","f","rechts","24","","fixation","","","",""
"1079","img/150_90.png","70","image-keyboard-response","93","107732","0.0-6.0-1.43","MEVO","2","f","rechts","24","","","self","f","150","true"
"null","<div style=""font-size:60px;"">+</div>","null","html-keyboard-response","94","108033","0.0-6.0-0.44","MEVO","2","f","rechts","24","","fixation","","","",""
"871","img/L90_180.png","70","image-keyboard-response","95","108906","0.0-6.0-1.44","MEVO","2","f","rechts","24","","","self","f","90","true"
"null","<div style=""font-size:60px;"">+</div>","null","html-keyboard-response","96","109207","0.0-6.0-0.45","MEVO","2","f","rechts","24","","fixation","","","",""
"937","img/L150_180.png","70","image-keyboard-response","97","110146","0.0-6.0-1.45","MEVO","2","f","rechts","24","","","self","f","150","true"
"null","<div style=""font-size:60px;"">+</div>","null","html-keyboard-response","98","110447","0.0-6.0-0.46","MEVO","2","f","rechts","24","","fixation","","","",""
"1211","img/30_120.png","74","image-keyboard-response","99","111661","0.0-6.0-1.46","MEVO","2","f","rechts","24","","","self","j","30","true"
"null","<div style=""font-size:60px;"">+</div>","null","html-keyboard-response","100","112012","0.0-6.0-0.47","MEVO","2","f","rechts","24","","fixation","","","",""
"890","img/90_150.png","70","image-keyboard-response","101","112904","0.0-6.0-1.47","MEVO","2","f","rechts","24","","","self","f","90","true"
"null","<div style=""font-size:60px;"">+</div>","null","html-keyboard-response","102","113355","0.0-6.0-0.48","MEVO","2","f","rechts","24","","fixation","","","",""
"918","img/150_120.png","70","image-keyboard-response","103","114274","0.0-6.0-1.48","MEVO","2","f","rechts","24","","","self","f","150","true"
"null","<div style=""font-size:60px;"">+</div>","null","html-keyboard-response","104","114776","0.0-6.0-0.49","MEVO","2","f","rechts","24","","fixation","","","",""
"676","img/L120_180.png","70","image-keyboard-response","105","115453","0.0-6.0-1.49","MEVO","2","f","rechts","24","","","self","f","120","true"
"null","<div style=""font-size:60px;"">+</div>","null","html-keyboard-response","106","115905","0.0-6.0-0.50","MEVO","2","f","rechts","24","","fixation","","","",""
"788","img/0_120.png","74","image-keyboard-response","107","116694","0.0-6.0-1.50","MEVO","2","f","rechts","24","","","self","j","0","true"
"null","<div style=""font-size:60px;"">+</div>","null","html-keyboard-response","108","117046","0.0-6.0-0.51","MEVO","2","f","rechts","24","","fixation","","","",""
"1158","img/60_180.png","74","image-keyboard-response","109","118205","0.0-6.0-1.51","MEVO","2","f","rechts","24","","","self","j","60","true"
"null","<div style=""font-size:60px;"">+</div>","null","html-keyboard-response","110","118707","0.0-6.0-0.52","MEVO","2","f","rechts","24","","fixation","","","",""
"1231","img/30_240.png","70","image-keyboard-response","111","119939","0.0-6.0-1.52","MEVO","2","f","rechts","24","","","self","f","30","true"
"null","<div style=""font-size:60px;"">+</div>","null","html-keyboard-response","112","120391","0.0-6.0-0.53","MEVO","2","f","rechts","24","","fixation","","","",""
"995","img/150_180.png","74","image-keyboard-response","113","121386","0.0-6.0-1.53","MEVO","2","f","rechts","24","","","self","j","150","true"
"null","<div style=""font-size:60px;"">+</div>","null","html-keyboard-response","114","121838","0.0-6.0-0.54","MEVO","2","f","rechts","24","","fixation","","","",""
"928","img/90_120.png","70","image-keyboard-response","115","122766","0.0-6.0-1.54","MEVO","2","f","rechts","24","","","self","f","90","true"
"null","<div style=""font-size:60px;"">+</div>","null","html-keyboard-response","116","123218","0.0-6.0-0.55","MEVO","2","f","rechts","24","","fixation","","","",""
"1071","img/60_270.png","70","image-keyboard-response","117","124290","0.0-6.0-1.55","MEVO","2","f","rechts","24","","","self","f","60","true"
"null","<div style=""font-size:60px;"">+</div>","null","html-keyboard-response","118","124792","0.0-6.0-0.56","MEVO","2","f","rechts","24","","fixation","","","",""
"952","img/150_90.png","70","image-keyboard-response","119","125745","0.0-6.0-1.56","MEVO","2","f","rechts","24","","","self","f","150","true"
"null","<div style=""font-size:60px;"">+</div>","null","html-keyboard-response","120","126097","0.0-6.0-0.57","MEVO","2","f","rechts","24","","fixation","","","",""
"1274","img/90_240.png","74","image-keyboard-response","121","127372","0.0-6.0-1.57","MEVO","2","f","rechts","24","","","self","j","90","true"
"null","<div style=""font-size:60px;"">+</div>","null","html-keyboard-response","122","127824","0.0-6.0-0.58","MEVO","2","f","rechts","24","","fixation","","","",""
"783","img/L90_180.png","70","image-keyboard-response","123","128608","0.0-6.0-1.58","MEVO","2","f","rechts","24","","","self","f","90","true"
"null","<div style=""font-size:60px;"">+</div>","null","html-keyboard-response","124","128910","0.0-6.0-0.59","MEVO","2","f","rechts","24","","fixation","","","",""
"1240","img/30_90.png","74","image-keyboard-response","125","130151","0.0-6.0-1.59","MEVO","2","f","rechts","24","","","self","j","30","true"
"null","<div style=""font-size:60px;"">+</div>","null","html-keyboard-response","126","130653","0.0-6.0-0.60","MEVO","2","f","rechts","24","","fixation","","","",""
"668","img/0_150.png","74","image-keyboard-response","127","131321","0.0-6.0-1.60","MEVO","2","f","rechts","24","","","self","j","0","true"
"null","<div style=""font-size:60px;"">+</div>","null","html-keyboard-response","128","131673","0.0-6.0-0.61","MEVO","2","f","rechts","24","","fixation","","","",""
"1201","img/150_60.png","70","image-keyboard-response","129","132874","0.0-6.0-1.61","MEVO","2","f","rechts","24","","","self","f","150","true"
"null","<div style=""font-size:60px;"">+</div>","null","html-keyboard-response","130","133176","0.0-6.0-0.62","MEVO","2","f","rechts","24","","fixation","","","",""
"791","img/L120_180.png","70","image-keyboard-response","131","133967","0.0-6.0-1.62","MEVO","2","f","rechts","24","","","self","f","120","true"
"null","<div style=""font-size:60px;"">+</div>","null","html-keyboard-response","132","134268","0.0-6.0-0.63","MEVO","2","f","rechts","24","","fixation","","","",""
"980","img/60_210.png","74","image-keyboard-response","133","135249","0.0-6.0-1.63","MEVO","2","f","rechts","24","","","self","j","60","true"
"null","<div style=""font-size:60px;"">+</div>","null","html-keyboard-response","134","135700","0.0-6.0-0.64","MEVO","2","f","rechts","24","","fixation","","","",""
"754","img/120_210.png","74","image-keyboard-response","135","136455","0.0-6.0-1.64","MEVO","2","f","rechts","24","","","self","j","120","true"
"null","<div style=""font-size:60px;"">+</div>","null","html-keyboard-response","136","136907","0.0-6.0-0.65","MEVO","2","f","rechts","24","","fixation","","","",""
"1069","img/60_30.png","74","image-keyboard-response","137","137977","0.0-6.0-1.65","MEVO","2","f","rechts","24","","","self","j","60","true"
"null","<div style=""font-size:60px;"">+</div>","null","html-keyboard-response","138","138379","0.0-6.0-0.66","MEVO","2","f","rechts","24","","fixation","","","",""
"1155","img/60_90.png","74","image-keyboard-response","139","139534","0.0-6.0-1.66","MEVO","2","f","rechts","24","","","self","j","60","true"
"null","<div style=""font-size:60px;"">+</div>","null","html-keyboard-response","140","139936","0.0-6.0-0.67","MEVO","2","f","rechts","24","","fixation","","","",""
"795","img/120_180.png","74","image-keyboard-response","141","140731","0.0-6.0-1.67","MEVO","2","f","rechts","24","","","self","j","120","true"
"null","<div style=""font-size:60px;"">+</div>","null","html-keyboard-response","142","141133","0.0-6.0-0.68","MEVO","2","f","rechts","24","","fixation","","","",""
"743","img/0_300.png","74","image-keyboard-response","143","141876","0.0-6.0-1.68","MEVO","2","f","rechts","24","","","self","f","0","false"
"null","<div style=""font-size:60px;"">+</div>","null","html-keyboard-response","144","142278","0.0-6.0-0.69","MEVO","2","f","rechts","24","","fixation","","","",""
"923","img/90_180.png","74","image-keyboard-response","145","143201","0.0-6.0-1.69","MEVO","2","f","rechts","24","","","self","j","90","true"
"null","<div style=""font-size:60px;"">+</div>","null","html-keyboard-response","146","143553","0.0-6.0-0.70","MEVO","2","f","rechts","24","","fixation","","","",""
"831","img/0_60.png","74","image-keyboard-response","147","144385","0.0-6.0-1.70","MEVO","2","f","rechts","24","","","self","j","0","true"
"null","<div style=""font-size:60px;"">+</div>","null","html-keyboard-response","148","144887","0.0-6.0-0.71","MEVO","2","f","rechts","24","","fixation","","","",""
"717","img/0_330.png","70","image-keyboard-response","149","145604","0.0-6.0-1.71","MEVO","2","f","rechts","24","","","self","f","0","true"
"null","<div style=""font-size:60px;"">+</div>","null","html-keyboard-response","150","146005","0.0-6.0-0.72","MEVO","2","f","rechts","24","","fixation","","","",""
"981","img/150_270.png","74","image-keyboard-response","151","146987","0.0-6.0-1.72","MEVO","2","f","rechts","24","","","self","j","150","true"
"null","<div style=""font-size:60px;"">+</div>","null","html-keyboard-response","152","147488","0.0-6.0-0.73","MEVO","2","f","rechts","24","","fixation","","","",""
"691","img/0_30.png","74","image-keyboard-response","153","148180","0.0-6.0-1.73","MEVO","2","f","rechts","24","","","self","j","0","true"
"null","<div style=""font-size:60px;"">+</div>","null","html-keyboard-response","154","148481","0.0-6.0-0.74","MEVO","2","f","rechts","24","","fixation","","","",""
"979","img/60_150.png","70","image-keyboard-response","155","149461","0.0-6.0-1.74","MEVO","2","f","rechts","24","","","self","f","60","true"
"null","<div style=""font-size:60px;"">+</div>","null","html-keyboard-response","156","149863","0.0-6.0-0.75","MEVO","2","f","rechts","24","","fixation","","","",""
"686","img/0_270.png","70","image-keyboard-response","157","150550","0.0-6.0-1.75","MEVO","2","f","rechts","24","","","self","f","0","true"
"null","<div style=""font-size:60px;"">+</div>","null","html-keyboard-response","158","151001","0.0-6.0-0.76","MEVO","2","f","rechts","24","","fixation","","","",""
"1352","img/90_30.png","70","image-keyboard-response","159","152353","0.0-6.0-1.76","MEVO","2","f","rechts","24","","","self","j","90","false"
"null","<div style=""font-size:60px;"">+</div>","null","html-keyboard-response","160","152805","0.0-6.0-0.77","MEVO","2","f","rechts","24","","fixation","","","",""
"1105","img/90_60.png","70","image-keyboard-response","161","153912","0.0-6.0-1.77","MEVO","2","f","rechts","24","","","self","j","90","false"
"null","<div style=""font-size:60px;"">+</div>","null","html-keyboard-response","162","154263","0.0-6.0-0.78","MEVO","2","f","rechts","24","","fixation","","","",""
"674","img/0_240.png","70","image-keyboard-response","163","154939","0.0-6.0-1.78","MEVO","2","f","rechts","24","","","self","f","0","true"
"null","<div style=""font-size:60px;"">+</div>","null","html-keyboard-response","164","155290","0.0-6.0-0.79","MEVO","2","f","rechts","24","","fixation","","","",""
"887","img/120_150.png","70","image-keyboard-response","165","156178","0.0-6.0-1.79","MEVO","2","f","rechts","24","","","self","f","120","true"
"null","<div style=""font-size:60px;"">+</div>","null","html-keyboard-response","166","156580","0.0-6.0-0.80","MEVO","2","f","rechts","24","","fixation","","","",""
"1147","img/30_270.png","70","image-keyboard-response","167","157729","0.0-6.0-1.80","MEVO","2","f","rechts","24","","","self","f","30","true"
"null","<div style=""font-size:60px;"">+</div>","null","html-keyboard-response","168","158080","0.0-6.0-0.81","MEVO","2","f","rechts","24","","fixation","","","",""
"1427","img/120_30.png","74","image-keyboard-response","169","159509","0.0-6.0-1.81","MEVO","2","f","rechts","24","","","self","j","120","true"
"null","<div style=""font-size:60px;"">+</div>","null","html-keyboard-response","170","159810","0.0-6.0-0.82","MEVO","2","f","rechts","24","","fixation","","","",""
"1121","img/120_90.png","70","image-keyboard-response","171","160933","0.0-6.0-1.82","MEVO","2","f","rechts","24","","","self","f","120","true"
"null","<div style=""font-size:60px;"">+</div>","null","html-keyboard-response","172","161234","0.0-6.0-0.83","MEVO","2","f","rechts","24","","fixation","","","",""
"1352","img/30_120.png","74","image-keyboard-response","173","162588","0.0-6.0-1.83","MEVO","2","f","rechts","24","","","self","j","30","true"
"null","<div style=""font-size:60px;"">+</div>","null","html-keyboard-response","174","162889","0.0-6.0-0.84","MEVO","2","f","rechts","24","","fixation","","","",""
"995","img/90_150.png","70","image-keyboard-response","175","163886","0.0-6.0-1.84","MEVO","2","f","rechts","24","","","self","f","90","true"
"null","<div style=""font-size:60px;"">+</div>","null","html-keyboard-response","176","164287","0.0-6.0-0.85","MEVO","2","f","rechts","24","","fixation","","","",""
"774","img/0_210.png","70","image-keyboard-response","177","165063","0.0-6.0-1.85","MEVO","2","f","rechts","24","","","self","f","0","true"
"null","<div style=""font-size:60px;"">+</div>","null","html-keyboard-response","178","165564","0.0-6.0-0.86","MEVO","2","f","rechts","24","","fixation","","","",""
"968","img/90_210.png","74","image-keyboard-response","179","166534","0.0-6.0-1.86","MEVO","2","f","rechts","24","","","self","j","90","true"
"null","<div style=""font-size:60px;"">+</div>","null","html-keyboard-response","180","167035","0.0-6.0-0.87","MEVO","2","f","rechts","24","","fixation","","","",""
"1834","img/30_300.png","70","image-keyboard-response","181","168870","0.0-6.0-1.87","MEVO","2","f","rechts","24","","","self","f","30","true"
"null","<div style=""font-size:60px;"">+</div>","null","html-keyboard-response","182","169222","0.0-6.0-0.88","MEVO","2","f","rechts","24","","fixation","","","",""
"1364","img/60_330.png","70","image-keyboard-response","183","170587","0.0-6.0-1.88","MEVO","2","f","rechts","24","","","self","f","60","true"
"null","<div style=""font-size:60px;"">+</div>","null","html-keyboard-response","184","171089","0.0-6.0-0.89","MEVO","2","f","rechts","24","","fixation","","","",""
"1109","img/L150_180.png","70","image-keyboard-response","185","172199","0.0-6.0-1.89","MEVO","2","f","rechts","24","","","self","f","150","true"
"null","<div style=""font-size:60px;"">+</div>","null","html-keyboard-response","186","172601","0.0-6.0-0.90","MEVO","2","f","rechts","24","","fixation","","","",""
"1442","img/30_60.png","74","image-keyboard-response","187","174043","0.0-6.0-1.90","MEVO","2","f","rechts","24","","","self","j","30","true"
"null","<div style=""font-size:60px;"">+</div>","null","html-keyboard-response","188","174445","0.0-6.0-0.91","MEVO","2","f","rechts","24","","fixation","","","",""
"1075","img/60_180.png","74","image-keyboard-response","189","175521","0.0-6.0-1.91","MEVO","2","f","rechts","24","","","self","j","60","true"
"null","<div style=""font-size:60px;"">+</div>","null","html-keyboard-response","190","175872","0.0-6.0-0.92","MEVO","2","f","rechts","24","","fixation","","","",""
"1082","img/90_300.png","70","image-keyboard-response","191","176955","0.0-6.0-1.92","MEVO","2","f","rechts","24","","","self","f","90","true"
"null","<div style=""font-size:60px;"">+</div>","null","html-keyboard-response","192","177456","0.0-6.0-0.93","MEVO","2","f","rechts","24","","fixation","","","",""
"943","img/120_270.png","74","image-keyboard-response","193","178400","0.0-6.0-1.93","MEVO","2","f","rechts","24","","","self","j","120","true"
"null","<div style=""font-size:60px;"">+</div>","null","html-keyboard-response","194","178702","0.0-6.0-0.94","MEVO","2","f","rechts","24","","fixation","","","",""
"1069","img/150_240.png","74","image-keyboard-response","195","179772","0.0-6.0-1.94","MEVO","2","f","rechts","24","","","self","j","150","true"
"null","<div style=""font-size:60px;"">+</div>","null","html-keyboard-response","196","180224","0.0-6.0-0.95","MEVO","2","f","rechts","24","","fixation","","","",""
"1369","img/150_120.png","70","image-keyboard-response","197","181594","0.0-6.0-1.95","MEVO","2","f","rechts","24","","","self","f","150","true"
"null","<div style=""font-size:60px;"">+</div>","null","html-keyboard-response","198","181896","0.0-6.0-0.96","MEVO","2","f","rechts","24","","fixation","","","",""
"1596","img/120_330.png","70","image-keyboard-response","199","183492","0.0-6.0-1.96","MEVO","2","f","rechts","24","","","self","f","120","true"
"null","<div style=""font-size:60px;"">+</div>","null","html-keyboard-response","200","183844","0.0-6.0-0.97","MEVO","2","f","rechts","24","","fixation","","","",""
"1344","img/L60_180.png","70","image-keyboard-response","201","185188","0.0-6.0-1.97","MEVO","2","f","rechts","24","","","self","f","60","true"
"null","<div style=""font-size:60px;"">+</div>","null","html-keyboard-response","202","185490","0.0-6.0-0.98","MEVO","2","f","rechts","24","","fixation","","","",""
"1363","img/30_180.png","74","image-keyboard-response","203","186855","0.0-6.0-1.98","MEVO","2","f","rechts","24","","","self","j","30","true"
"null","<div style=""font-size:60px;"">+</div>","null","html-keyboard-response","204","187256","0.0-6.0-0.99","MEVO","2","f","rechts","24","","fixation","","","",""
"1115","img/L30_180.png","70","image-keyboard-response","205","188372","0.0-6.0-1.99","MEVO","2","f","rechts","24","","","self","f","30","true"
"null","<div style=""font-size:60px;"">+</div>","null","html-keyboard-response","206","188674","0.0-6.0-0.100","MEVO","2","f","rechts","24","","fixation","","","",""
"1273","img/150_300.png","74","image-keyboard-response","207","189947","0.0-6.0-1.100","MEVO","2","f","rechts","24","","","self","j","150","true"
"null","<div style=""font-size:60px;"">+</div>","null","html-keyboard-response","208","190449","0.0-6.0-0.101","MEVO","2","f","rechts","24","","fixation","","","",""
"1200","img/90_330.png","70","image-keyboard-response","209","191649","0.0-6.0-1.101","MEVO","2","f","rechts","24","","","self","f","90","true"
"null","<div style=""font-size:60px;"">+</div>","null","html-keyboard-response","210","192100","0.0-6.0-0.102","MEVO","2","f","rechts","24","","fixation","","","",""
"923","img/0_120.png","74","image-keyboard-response","211","193024","0.0-6.0-1.102","MEVO","2","f","rechts","24","","","self","j","0","true"
"null","<div style=""font-size:60px;"">+</div>","null","html-keyboard-response","212","193376","0.0-6.0-0.103","MEVO","2","f","rechts","24","","fixation","","","",""
"685","img/0_90.png","74","image-keyboard-response","213","194061","0.0-6.0-1.103","MEVO","2","f","rechts","24","","","self","j","0","true"
"null","<div style=""font-size:60px;"">+</div>","null","html-keyboard-response","214","194462","0.0-6.0-0.104","MEVO","2","f","rechts","24","","fixation","","","",""
"930","img/90_180.png","74","image-keyboard-response","215","195393","0.0-6.0-1.104","MEVO","2","f","rechts","24","","","self","j","90","true"
"null","<div style=""font-size:60px;"">+</div>","null","html-keyboard-response","216","195795","0.0-6.0-0.105","MEVO","2","f","rechts","24","","fixation","","","",""
"1067","img/120_90.png","70","image-keyboard-response","217","196862","0.0-6.0-1.105","MEVO","2","f","rechts","24","","","self","f","120","true"
"null","<div style=""font-size:60px;"">+</div>","null","html-keyboard-response","218","197214","0.0-6.0-0.106","MEVO","2","f","rechts","24","","fixation","","","",""
"842","img/L150_180.png","70","image-keyboard-response","219","198056","0.0-6.0-1.106","MEVO","2","f","rechts","24","","","self","f","150","true"
"null","<div style=""font-size:60px;"">+</div>","null","html-keyboard-response","220","198407","0.0-6.0-0.107","MEVO","2","f","rechts","24","","fixation","","","",""
"915","img/90_150.png","70","image-keyboard-response","221","199324","0.0-6.0-1.107","MEVO","2","f","rechts","24","","","self","f","90","true"
"null","<div style=""font-size:60px;"">+</div>","null","html-keyboard-response","222","199625","0.0-6.0-0.108","MEVO","2","f","rechts","24","","fixation","","","",""
"753","img/0_60.png","74","image-keyboard-response","223","200379","0.0-6.0-1.108","MEVO","2","f","rechts","24","","","self","j","0","true"
"null","<div style=""font-size:60px;"">+</div>","null","html-keyboard-response","224","200781","0.0-6.0-0.109","MEVO","2","f","rechts","24","","fixation","","","",""
"718","img/150_180.png","74","image-keyboard-response","225","201499","0.0-6.0-1.109","MEVO","2","f","rechts","24","","","self","j","150","true"
"null","<div style=""font-size:60px;"">+</div>","null","html-keyboard-response","226","201900","0.0-6.0-0.110","MEVO","2","f","rechts","24","","fixation","","","",""
"775","img/0_210.png","70","image-keyboard-response","227","202676","0.0-6.0-1.110","MEVO","2","f","rechts","24","","","self","f","0","true"
"null","<div style=""font-size:60px;"">+</div>","null","html-keyboard-response","228","203027","0.0-6.0-0.111","MEVO","2","f","rechts","24","","fixation","","","",""
"931","img/60_210.png","74","image-keyboard-response","229","203959","0.0-6.0-1.111","MEVO","2","f","rechts","24","","","self","j","60","true"
"null","<div style=""font-size:60px;"">+</div>","null","html-keyboard-response","230","204360","0.0-6.0-0.112","MEVO","2","f","rechts","24","","fixation","","","",""
"869","img/120_30.png","70","image-keyboard-response","231","205230","0.0-6.0-1.112","MEVO","2","f","rechts","24","","","self","j","120","false"
"null","<div style=""font-size:60px;"">+</div>","null","html-keyboard-response","232","205581","0.0-6.0-0.113","MEVO","2","f","rechts","24","","fixation","","","",""
"1056","img/L60_180.png","70","image-keyboard-response","233","206639","0.0-6.0-1.113","MEVO","2","f","rechts","24","","","self","f","60","true"
"null","<div style=""font-size:60px;"">+</div>","null","html-keyboard-response","234","207040","0.0-6.0-0.114","MEVO","2","f","rechts","24","","fixation","","","",""
"1235","img/90_330.png","74","image-keyboard-response","235","208277","0.0-6.0-1.114","MEVO","2","f","rechts","24","","","self","f","90","false"
"null","<div style=""font-size:60px;"">+</div>","null","html-keyboard-response","236","208628","0.0-6.0-0.115","MEVO","2","f","rechts","24","","fixation","","","",""
"1296","img/150_270.png","70","image-keyboard-response","237","209926","0.0-6.0-1.115","MEVO","2","f","rechts","24","","","self","j","150","false"
"null","<div style=""font-size:60px;"">+</div>","null","html-keyboard-response","238","210327","0.0-6.0-0.116","MEVO","2","f","rechts","24","","fixation","","","",""
"992","img/L90_180.png","70","image-keyboard-response","239","211321","0.0-6.0-1.116","MEVO","2","f","rechts","24","","","self","f","90","true"
"null","<div style=""font-size:60px;"">+</div>","null","html-keyboard-response","240","211772","0.0-6.0-0.117","MEVO","2","f","rechts","24","","fixation","","","",""
"1073","img/30_90.png","74","image-keyboard-response","241","212846","0.0-6.0-1.117","MEVO","2","f","rechts","24","","","self","j","30","true"
"null","<div style=""font-size:60px;"">+</div>","null","html-keyboard-response","242","213348","0.0-6.0-0.118","MEVO","2","f","rechts","24","","fixation","","","",""
"745","img/60_180.png","74","image-keyboard-response","243","214094","0.0-6.0-1.118","MEVO","2","f","rechts","24","","","self","j","60","true"
"null","<div style=""font-size:60px;"">+</div>","null","html-keyboard-response","244","214595","0.0-6.0-0.119","MEVO","2","f","rechts","24","","fixation","","","",""
"816","img/150_120.png","70","image-keyboard-response","245","215412","0.0-6.0-1.119","MEVO","2","f","rechts","24","","","self","f","150","true"
"null","<div style=""font-size:60px;"">+</div>","null","html-keyboard-response","246","215764","0.0-6.0-0.120","MEVO","2","f","rechts","24","","fixation","","","",""
"1657","img/30_60.png","70","image-keyboard-response","247","217422","0.0-6.0-1.120","MEVO","2","f","rechts","24","","","self","j","30","false"
"null","<div style=""font-size:60px;"">+</div>","null","html-keyboard-response","248","217724","0.0-6.0-0.121","MEVO","2","f","rechts","24","","fixation","","","",""
"998","img/90_240.png","74","image-keyboard-response","249","218723","0.0-6.0-1.121","MEVO","2","f","rechts","24","","","self","j","90","true"
"null","<div style=""font-size:60px;"">+</div>","null","html-keyboard-response","250","219225","0.0-6.0-0.122","MEVO","2","f","rechts","24","","fixation","","","",""
"680","img/0_150.png","74","image-keyboard-response","251","219907","0.0-6.0-1.122","MEVO","2","f","rechts","24","","","self","j","0","true"
"null","<div style=""font-size:60px;"">+</div>","null","html-keyboard-response","252","220358","0.0-6.0-0.123","MEVO","2","f","rechts","24","","fixation","","","",""
"1011","img/150_240.png","74","image-keyboard-response","253","221370","0.0-6.0-1.123","MEVO","2","f","rechts","24","","","self","j","150","true"
"null","<div style=""font-size:60px;"">+</div>","null","html-keyboard-response","254","221772","0.0-6.0-0.124","MEVO","2","f","rechts","24","","fixation","","","",""
"815","img/0_90.png","74","image-keyboard-response","255","222588","0.0-6.0-1.124","MEVO","2","f","rechts","24","","","self","j","0","true"
"null","<div style=""font-size:60px;"">+</div>","null","html-keyboard-response","256","223040","0.0-6.0-0.125","MEVO","2","f","rechts","24","","fixation","","","",""
"710","img/0_300.png","70","image-keyboard-response","257","223750","0.0-6.0-1.125","MEVO","2","f","rechts","24","","","self","f","0","true"
"null","<div style=""font-size:60px;"">+</div>","null","html-keyboard-response","258","224202","0.0-6.0-0.126","MEVO","2","f","rechts","24","","fixation","","","",""
"1072","img/90_120.png","70","image-keyboard-response","259","225274","0.0-6.0-1.126","MEVO","2","f","rechts","24","","","self","f","90","true"
"null","<div style=""font-size:60px;"">+</div>","null","html-keyboard-response","260","225675","0.0-6.0-0.127","MEVO","2","f","rechts","24","","fixation","","","",""
"900","img/30_180.png","74","image-keyboard-response","261","226576","0.0-6.0-1.127","MEVO","2","f","rechts","24","","","self","j","30","true"
"null","<div style=""font-size:60px;"">+</div>","null","html-keyboard-response","262","227028","0.0-6.0-0.128","MEVO","2","f","rechts","24","","fixation","","","",""
"870","img/0_120.png","74","image-keyboard-response","263","227899","0.0-6.0-1.128","MEVO","2","f","rechts","24","","","self","j","0","true"
"null","<div style=""font-size:60px;"">+</div>","null","html-keyboard-response","264","228350","0.0-6.0-0.129","MEVO","2","f","rechts","24","","fixation","","","",""
"1064","img/150_60.png","70","image-keyboard-response","265","229416","0.0-6.0-1.129","MEVO","2","f","rechts","24","","","self","f","150","true"
"null","<div style=""font-size:60px;"">+</div>","null","html-keyboard-response","266","229717","0.0-6.0-0.130","MEVO","2","f","rechts","24","","fixation","","","",""
"880","img/60_150.png","70","image-keyboard-response","267","230598","0.0-6.0-1.130","MEVO","2","f","rechts","24","","","self","f","60","true"
"null","<div style=""font-size:60px;"">+</div>","null","html-keyboard-response","268","230950","0.0-6.0-0.131","MEVO","2","f","rechts","24","","fixation","","","",""
"1393","img/30_270.png","70","image-keyboard-response","269","232344","0.0-6.0-1.131","MEVO","2","f","rechts","24","","","self","f","30","true"
"null","<div style=""font-size:60px;"">+</div>","null","html-keyboard-response","270","232696","0.0-6.0-0.132","MEVO","2","f","rechts","24","","fixation","","","",""
"938","img/30_240.png","70","image-keyboard-response","271","233635","0.0-6.0-1.132","MEVO","2","f","rechts","24","","","self","f","30","true"
"null","<div style=""font-size:60px;"">+</div>","null","html-keyboard-response","272","234087","0.0-6.0-0.133","MEVO","2","f","rechts","24","","fixation","","","",""
"890","img/0_270.png","70","image-keyboard-response","273","234978","0.0-6.0-1.133","MEVO","2","f","rechts","24","","","self","f","0","true"
"null","<div style=""font-size:60px;"">+</div>","null","html-keyboard-response","274","235380","0.0-6.0-0.134","MEVO","2","f","rechts","24","","fixation","","","",""
"1470","img/90_60.png","74","image-keyboard-response","275","236850","0.0-6.0-1.134","MEVO","2","f","rechts","24","","","self","j","90","true"
"null","<div style=""font-size:60px;"">+</div>","null","html-keyboard-response","276","237302","0.0-6.0-0.135","MEVO","2","f","rechts","24","","fixation","","","",""
"855","img/120_150.png","70","image-keyboard-response","277","238157","0.0-6.0-1.135","MEVO","2","f","rechts","24","","","self","f","120","true"
"null","<div style=""font-size:60px;"">+</div>","null","html-keyboard-response","278","238509","0.0-6.0-0.136","MEVO","2","f","rechts","24","","fixation","","","",""
"1069","img/L30_180.png","70","image-keyboard-response","279","239579","0.0-6.0-1.136","MEVO","2","f","rechts","24","","","self","f","30","true"
"null","<div style=""font-size:60px;"">+</div>","null","html-keyboard-response","280","239930","0.0-6.0-0.137","MEVO","2","f","rechts","24","","fixation","","","",""
"1199","img/90_300.png","70","image-keyboard-response","281","241130","0.0-6.0-1.137","MEVO","2","f","rechts","24","","","self","f","90","true"
"null","<div style=""font-size:60px;"">+</div>","null","html-keyboard-response","282","241432","0.0-6.0-0.138","MEVO","2","f","rechts","24","","fixation","","","",""
"1263","img/60_270.png","70","image-keyboard-response","283","242695","0.0-6.0-1.138","MEVO","2","f","rechts","24","","","self","f","60","true"
"null","<div style=""font-size:60px;"">+</div>","null","html-keyboard-response","284","242997","0.0-6.0-0.139","MEVO","2","f","rechts","24","","fixation","","","",""
"1226","img/0_240.png","70","image-keyboard-response","285","244223","0.0-6.0-1.139","MEVO","2","f","rechts","24","","","self","f","0","true"
"null","<div style=""font-size:60px;"">+</div>","null","html-keyboard-response","286","244725","0.0-6.0-0.140","MEVO","2","f","rechts","24","","fixation","","","",""
"937","img/90_210.png","74","image-keyboard-response","287","245662","0.0-6.0-1.140","MEVO","2","f","rechts","24","","","self","j","90","true"
"null","<div style=""font-size:60px;"">+</div>","null","html-keyboard-response","288","246163","0.0-6.0-0.141","MEVO","2","f","rechts","24","","fixation","","","",""
"1077","img/60_30.png","74","image-keyboard-response","289","247242","0.0-6.0-1.141","MEVO","2","f","rechts","24","","","self","j","60","true"
"null","<div style=""font-size:60px;"">+</div>","null","html-keyboard-response","290","247543","0.0-6.0-0.142","MEVO","2","f","rechts","24","","fixation","","","",""
"795","img/0_30.png","74","image-keyboard-response","291","248339","0.0-6.0-1.142","MEVO","2","f","rechts","24","","","self","j","0","true"
"null","<div style=""font-size:60px;"">+</div>","null","html-keyboard-response","292","248841","0.0-6.0-0.143","MEVO","2","f","rechts","24","","fixation","","","",""
"671","img/0_330.png","70","image-keyboard-response","293","249512","0.0-6.0-1.143","MEVO","2","f","rechts","24","","","self","f","0","true"
"null","<div style=""font-size:60px;"">+</div>","null","html-keyboard-response","294","249913","0.0-6.0-0.144","MEVO","2","f","rechts","24","","fixation","","","",""
"1572","img/120_330.png","70","image-keyboard-response","295","251486","0.0-6.0-1.144","MEVO","2","f","rechts","24","","","self","f","120","true"
"null","<div style=""font-size:60px;"">+</div>","null","html-keyboard-response","296","251838","0.0-6.0-0.145","MEVO","2","f","rechts","24","","fixation","","","",""
"1156","img/L120_180.png","70","image-keyboard-response","297","252995","0.0-6.0-1.145","MEVO","2","f","rechts","24","","","self","f","120","true"
"null","<div style=""font-size:60px;"">+</div>","null","html-keyboard-response","298","253496","0.0-6.0-0.146","MEVO","2","f","rechts","24","","fixation","","","",""
"924","img/150_90.png","70","image-keyboard-response","299","254421","0.0-6.0-1.146","MEVO","2","f","rechts","24","","","self","f","150","true"
"null","<div style=""font-size:60px;"">+</div>","null","html-keyboard-response","300","254722","0.0-6.0-0.147","MEVO","2","f","rechts","24","","fixation","","","",""
"1162","img/90_30.png","74","image-keyboard-response","301","255886","0.0-6.0-1.147","MEVO","2","f","rechts","24","","","self","j","90","true"
"null","<div style=""font-size:60px;"">+</div>","null","html-keyboard-response","302","256187","0.0-6.0-0.148","MEVO","2","f","rechts","24","","fixation","","","",""
"1169","img/60_330.png","70","image-keyboard-response","303","257358","0.0-6.0-1.148","MEVO","2","f","rechts","24","","","self","f","60","true"
"null","<div style=""font-size:60px;"">+</div>","null","html-keyboard-response","304","257659","0.0-6.0-0.149","MEVO","2","f","rechts","24","","fixation","","","",""
"976","img/120_180.png","74","image-keyboard-response","305","258636","0.0-6.0-1.149","MEVO","2","f","rechts","24","","","self","j","120","true"
"null","<div style=""font-size:60px;"">+</div>","null","html-keyboard-response","306","259087","0.0-6.0-0.150","MEVO","2","f","rechts","24","","fixation","","","",""
"1076","img/60_90.png","74","image-keyboard-response","307","260165","0.0-6.0-1.150","MEVO","2","f","rechts","24","","","self","j","60","true"
"null","<div style=""font-size:60px;"">+</div>","null","html-keyboard-response","308","260666","0.0-6.0-0.151","MEVO","2","f","rechts","24","","fixation","","","",""
"950","img/150_300.png","74","image-keyboard-response","309","261618","0.0-6.0-1.151","MEVO","2","f","rechts","24","","","self","j","150","true"
"null","<div style=""font-size:60px;"">+</div>","null","html-keyboard-response","310","261969","0.0-6.0-0.152","MEVO","2","f","rechts","24","","fixation","","","",""
"1483","img/30_300.png","70","image-keyboard-response","311","263453","0.0-6.0-1.152","MEVO","2","f","rechts","24","","","self","f","30","true"
"null","<div style=""font-size:60px;"">+</div>","null","html-keyboard-response","312","263755","0.0-6.0-0.153","MEVO","2","f","rechts","24","","fixation","","","",""
"973","img/30_120.png","74","image-keyboard-response","313","264730","0.0-6.0-1.153","MEVO","2","f","rechts","24","","","self","j","30","true"
"null","<div style=""font-size:60px;"">+</div>","null","html-keyboard-response","314","265181","0.0-6.0-0.154","MEVO","2","f","rechts","24","","fixation","","","",""
"1056","img/120_270.png","70","image-keyboard-response","315","266238","0.0-6.0-1.154","MEVO","2","f","rechts","24","","","self","j","120","false"
"null","<div style=""font-size:60px;"">+</div>","null","html-keyboard-response","316","266739","0.0-6.0-0.155","MEVO","2","f","rechts","24","","fixation","","","",""
"939","img/120_210.png","74","image-keyboard-response","317","267679","0.0-6.0-1.155","MEVO","2","f","rechts","24","","","self","j","120","true"
"null","<div style=""font-size:60px;"">+</div>","null","html-keyboard-response","318","268130","0.0-6.0-0.156","MEVO","2","f","rechts","24","","fixation","","","",""
"695","img/120_180.png","74","image-keyboard-response","319","268826","0.0-6.0-1.156","MEVO","2","f","rechts","24","","","self","j","120","true"
"null","<div style=""font-size:60px;"">+</div>","null","html-keyboard-response","320","269228","0.0-6.0-0.157","MEVO","2","f","rechts","24","","fixation","","","",""
"1079","img/150_60.png","70","image-keyboard-response","321","270308","0.0-6.0-1.157","MEVO","2","f","rechts","24","","","self","f","150","true"
"null","<div style=""font-size:60px;"">+</div>","null","html-keyboard-response","322","270710","0.0-6.0-0.158","MEVO","2","f","rechts","24","","fixation","","","",""
"927","img/0_120.png","74","image-keyboard-response","323","271638","0.0-6.0-1.158","MEVO","2","f","rechts","24","","","self","j","0","true"
"null","<div style=""font-size:60px;"">+</div>","null","html-keyboard-response","324","271990","0.0-6.0-0.159","MEVO","2","f","rechts","24","","fixation","","","",""
"822","img/L90_180.png","70","image-keyboard-response","325","272813","0.0-6.0-1.159","MEVO","2","f","rechts","24","","","self","f","90","true"
"null","<div style=""font-size:60px;"">+</div>","null","html-keyboard-response","326","273115","0.0-6.0-0.160","MEVO","2","f","rechts","24","","fixation","","","",""
"1283","img/90_240.png","74","image-keyboard-response","327","274399","0.0-6.0-1.160","MEVO","2","f","rechts","24","","","self","j","90","true"
"null","<div style=""font-size:60px;"">+</div>","null","html-keyboard-response","328","274901","0.0-6.0-0.161","MEVO","2","f","rechts","24","","fixation","","","",""
"718","img/0_300.png","70","image-keyboard-response","329","275620","0.0-6.0-1.161","MEVO","2","f","rechts","24","","","self","f","0","true"
"null","<div style=""font-size:60px;"">+</div>","null","html-keyboard-response","330","275972","0.0-6.0-0.162","MEVO","2","f","rechts","24","","fixation","","","",""
"1065","img/90_180.png","74","image-keyboard-response","331","277039","0.0-6.0-1.162","MEVO","2","f","rechts","24","","","self","j","90","true"
"null","<div style=""font-size:60px;"">+</div>","null","html-keyboard-response","332","277390","0.0-6.0-0.163","MEVO","2","f","rechts","24","","fixation","","","",""
"812","img/0_210.png","70","image-keyboard-response","333","278203","0.0-6.0-1.163","MEVO","2","f","rechts","24","","","self","f","0","true"
"null","<div style=""font-size:60px;"">+</div>","null","html-keyboard-response","334","278505","0.0-6.0-0.164","MEVO","2","f","rechts","24","","fixation","","","",""
"1208","img/60_270.png","70","image-keyboard-response","335","279714","0.0-6.0-1.164","MEVO","2","f","rechts","24","","","self","f","60","true"
"null","<div style=""font-size:60px;"">+</div>","null","html-keyboard-response","336","280216","0.0-6.0-0.165","MEVO","2","f","rechts","24","","fixation","","","",""
"944","img/30_120.png","74","image-keyboard-response","337","281161","0.0-6.0-1.165","MEVO","2","f","rechts","24","","","self","j","30","true"
"null","<div style=""font-size:60px;"">+</div>","null","html-keyboard-response","338","281663","0.0-6.0-0.166","MEVO","2","f","rechts","24","","fixation","","","",""
"1308","img/90_30.png","74","image-keyboard-response","339","282972","0.0-6.0-1.166","MEVO","2","f","rechts","24","","","self","j","90","true"
"null","<div style=""font-size:60px;"">+</div>","null","html-keyboard-response","340","283424","0.0-6.0-0.167","MEVO","2","f","rechts","24","","fixation","","","",""
"997","img/120_30.png","74","image-keyboard-response","341","284421","0.0-6.0-1.167","MEVO","2","f","rechts","24","","","self","j","120","true"
"null","<div style=""font-size:60px;"">+</div>","null","html-keyboard-response","342","284723","0.0-6.0-0.168","MEVO","2","f","rechts","24","","fixation","","","",""
"1898","img/150_240.png","74","image-keyboard-response","343","286622","0.0-6.0-1.168","MEVO","2","f","rechts","24","","","self","j","150","true"
"null","<div style=""font-size:60px;"">+</div>","null","html-keyboard-response","344","286974","0.0-6.0-0.169","MEVO","2","f","rechts","24","","fixation","","","",""
"1245","img/30_300.png","70","image-keyboard-response","345","288219","0.0-6.0-1.169","MEVO","2","f","rechts","24","","","self","f","30","true"
"null","<div style=""font-size:60px;"">+</div>","null","html-keyboard-response","346","288521","0.0-6.0-0.170","MEVO","2","f","rechts","24","","fixation","","","",""
"1101","img/120_150.png","74","image-keyboard-response","347","289622","0.0-6.0-1.170","MEVO","2","f","rechts","24","","","self","f","120","false"
"null","<div style=""font-size:60px;"">+</div>","null","html-keyboard-response","348","290024","0.0-6.0-0.171","MEVO","2","f","rechts","24","","fixation","","","",""
"1283","img/L60_180.png","74","image-keyboard-response","349","291308","0.0-6.0-1.171","MEVO","2","f","rechts","24","","","self","f","60","false"
"null","<div style=""font-size:60px;"">+</div>","null","html-keyboard-response","350","291710","0.0-6.0-0.172","MEVO","2","f","rechts","24","","fixation","","","",""
"911","img/150_180.png","74","image-keyboard-response","351","292621","0.0-6.0-1.172","MEVO","2","f","rechts","24","","","self","j","150","true"
"null","<div style=""font-size:60px;"">+</div>","null","html-keyboard-response","352","293023","0.0-6.0-0.173","MEVO","2","f","rechts","24","","fixation","","","",""
"1345","img/60_210.png","74","image-keyboard-response","353","294369","0.0-6.0-1.173","MEVO","2","f","rechts","24","","","self","j","60","true"
"null","<div style=""font-size:60px;"">+</div>","null","html-keyboard-response","354","294721","0.0-6.0-0.174","MEVO","2","f","rechts","24","","fixation","","","",""
"1196","img/150_270.png","74","image-keyboard-response","355","295917","0.0-6.0-1.174","MEVO","2","f","rechts","24","","","self","j","150","true"
"null","<div style=""font-size:60px;"">+</div>","null","html-keyboard-response","356","296368","0.0-6.0-0.175","MEVO","2","f","rechts","24","","fixation","","","",""
"1093","img/90_60.png","74","image-keyboard-response","357","297463","0.0-6.0-1.175","MEVO","2","f","rechts","24","","","self","j","90","true"
"null","<div style=""font-size:60px;"">+</div>","null","html-keyboard-response","358","297964","0.0-6.0-0.176","MEVO","2","f","rechts","24","","fixation","","","",""
"867","img/90_210.png","74","image-keyboard-response","359","298832","0.0-6.0-1.176","MEVO","2","f","rechts","24","","","self","j","90","true"
"null","<div style=""font-size:60px;"">+</div>","null","html-keyboard-response","360","299134","0.0-6.0-0.177","MEVO","2","f","rechts","24","","fixation","","","",""
"870","img/0_270.png","70","image-keyboard-response","361","300004","0.0-6.0-1.177","MEVO","2","f","rechts","24","","","self","f","0","true"
"null","<div style=""font-size:60px;"">+</div>","null","html-keyboard-response","362","300456","0.0-6.0-0.178","MEVO","2","f","rechts","24","","fixation","","","",""
"1304","img/30_60.png","74","image-keyboard-response","363","301761","0.0-6.0-1.178","MEVO","2","f","rechts","24","","","self","j","30","true"
"null","<div style=""font-size:60px;"">+</div>","null","html-keyboard-response","364","302112","0.0-6.0-0.179","MEVO","2","f","rechts","24","","fixation","","","",""
"999","img/90_150.png","70","image-keyboard-response","365","303113","0.0-6.0-1.179","MEVO","2","f","rechts","24","","","self","f","90","true"
"null","<div style=""font-size:60px;"">+</div>","null","html-keyboard-response","366","303565","0.0-6.0-0.180","MEVO","2","f","rechts","24","","fixation","","","",""
"975","img/150_120.png","70","image-keyboard-response","367","304540","0.0-6.0-1.180","MEVO","2","f","rechts","24","","","self","f","150","true"
"null","<div style=""font-size:60px;"">+</div>","null","html-keyboard-response","368","305040","0.0-6.0-0.181","MEVO","2","f","rechts","24","","fixation","","","",""
"847","img/0_240.png","70","image-keyboard-response","369","305889","0.0-6.0-1.181","MEVO","2","f","rechts","24","","","self","f","0","true"
"null","<div style=""font-size:60px;"">+</div>","null","html-keyboard-response","370","306390","0.0-6.0-0.182","MEVO","2","f","rechts","24","","fixation","","","",""
"819","img/0_60.png","74","image-keyboard-response","371","307210","0.0-6.0-1.182","MEVO","2","f","rechts","24","","","self","j","0","true"
"null","<div style=""font-size:60px;"">+</div>","null","html-keyboard-response","372","307561","0.0-6.0-0.183","MEVO","2","f","rechts","24","","fixation","","","",""
"1118","img/60_180.png","70","image-keyboard-response","373","308680","0.0-6.0-1.183","MEVO","2","f","rechts","24","","","self","j","60","false"
"null","<div style=""font-size:60px;"">+</div>","null","html-keyboard-response","374","309132","0.0-6.0-0.184","MEVO","2","f","rechts","24","","fixation","","","",""
"923","img/L150_180.png","74","image-keyboard-response","375","310057","0.0-6.0-1.184","MEVO","2","f","rechts","24","","","self","f","150","false"
"null","<div style=""font-size:60px;"">+</div>","null","html-keyboard-response","376","310408","0.0-6.0-0.185","MEVO","2","f","rechts","24","","fixation","","","",""
"1226","img/90_330.png","70","image-keyboard-response","377","311636","0.0-6.0-1.185","MEVO","2","f","rechts","24","","","self","f","90","true"
"null","<div style=""font-size:60px;"">+</div>","null","html-keyboard-response","378","311937","0.0-6.0-0.186","MEVO","2","f","rechts","24","","fixation","","","",""
"979","img/30_90.png","74","image-keyboard-response","379","312917","0.0-6.0-1.186","MEVO","2","f","rechts","24","","","self","j","30","true"
"null","<div style=""font-size:60px;"">+</div>","null","html-keyboard-response","380","313369","0.0-6.0-0.187","MEVO","2","f","rechts","24","","fixation","","","",""
"1053","img/150_300.png","74","image-keyboard-response","381","314423","0.0-6.0-1.187","MEVO","2","f","rechts","24","","","self","j","150","true"
"null","<div style=""font-size:60px;"">+</div>","null","html-keyboard-response","382","314725","0.0-6.0-0.188","MEVO","2","f","rechts","24","","fixation","","","",""
"859","img/0_90.png","74","image-keyboard-response","383","315585","0.0-6.0-1.188","MEVO","2","f","rechts","24","","","self","j","0","true"
"null","<div style=""font-size:60px;"">+</div>","null","html-keyboard-response","384","315936","0.0-6.0-0.189","MEVO","2","f","rechts","24","","fixation","","","",""
"883","img/120_210.png","74","image-keyboard-response","385","316820","0.0-6.0-1.189","MEVO","2","f","rechts","24","","","self","j","120","true"
"null","<div style=""font-size:60px;"">+</div>","null","html-keyboard-response","386","317222","0.0-6.0-0.190","MEVO","2","f","rechts","24","","fixation","","","",""
"1888","img/90_300.png","70","image-keyboard-response","387","319111","0.0-6.0-1.190","MEVO","2","f","rechts","24","","","self","f","90","true"
"null","<div style=""font-size:60px;"">+</div>","null","html-keyboard-response","388","319413","0.0-6.0-0.191","MEVO","2","f","rechts","24","","fixation","","","",""
"680","img/0_330.png","70","image-keyboard-response","389","320094","0.0-6.0-1.191","MEVO","2","f","rechts","24","","","self","f","0","true"
"null","<div style=""font-size:60px;"">+</div>","null","html-keyboard-response","390","320396","0.0-6.0-0.192","MEVO","2","f","rechts","24","","fixation","","","",""
"1069","img/L120_180.png","70","image-keyboard-response","391","321466","0.0-6.0-1.192","MEVO","2","f","rechts","24","","","self","f","120","true"
"null","<div style=""font-size:60px;"">+</div>","null","html-keyboard-response","392","321917","0.0-6.0-0.193","MEVO","2","f","rechts","24","","fixation","","","",""
"874","img/60_30.png","70","image-keyboard-response","393","322792","0.0-6.0-1.193","MEVO","2","f","rechts","24","","","self","j","60","false"
"null","<div style=""font-size:60px;"">+</div>","null","html-keyboard-response","394","323244","0.0-6.0-0.194","MEVO","2","f","rechts","24","","fixation","","","",""
"1527","img/L30_180.png","70","image-keyboard-response","395","324772","0.0-6.0-1.194","MEVO","2","f","rechts","24","","","self","f","30","true"
"null","<div style=""font-size:60px;"">+</div>","null","html-keyboard-response","396","325274","0.0-6.0-0.195","MEVO","2","f","rechts","24","","fixation","","","",""
"1547","img/150_90.png","70","image-keyboard-response","397","326822","0.0-6.0-1.195","MEVO","2","f","rechts","24","","","self","f","150","true"
"null","<div style=""font-size:60px;"">+</div>","null","html-keyboard-response","398","327274","0.0-6.0-0.196","MEVO","2","f","rechts","24","","fixation","","","",""
"1416","img/120_330.png","70","image-keyboard-response","399","328691","0.0-6.0-1.196","MEVO","2","f","rechts","24","","","self","f","120","true"
"null","<div style=""font-size:60px;"">+</div>","null","html-keyboard-response","400","329193","0.0-6.0-0.197","MEVO","2","f","rechts","24","","fixation","","","",""
"1067","img/120_270.png","74","image-keyboard-response","401","330261","0.0-6.0-1.197","MEVO","2","f","rechts","24","","","self","j","120","true"
"null","<div style=""font-size:60px;"">+</div>","null","html-keyboard-response","402","330713","0.0-6.0-0.198","MEVO","2","f","rechts","24","","fixation","","","",""
"1065","img/30_180.png","74","image-keyboard-response","403","331779","0.0-6.0-1.198","MEVO","2","f","rechts","24","","","self","j","30","true"
"null","<div style=""font-size:60px;"">+</div>","null","html-keyboard-response","404","332080","0.0-6.0-0.199","MEVO","2","f","rechts","24","","fixation","","","",""
"752","img/0_30.png","74","image-keyboard-response","405","332833","0.0-6.0-1.199","MEVO","2","f","rechts","24","","","self","j","0","true"
"null","<div style=""font-size:60px;"">+</div>","null","html-keyboard-response","406","333235","0.0-6.0-0.200","MEVO","2","f","rechts","24","","fixation","","","",""
"1064","img/60_330.png","70","image-keyboard-response","407","334300","0.0-6.0-1.200","MEVO","2","f","rechts","24","","","self","f","60","true"
"null","<div style=""font-size:60px;"">+</div>","null","html-keyboard-response","408","334702","0.0-6.0-0.201","MEVO","2","f","rechts","24","","fixation","","","",""
"967","img/30_270.png","70","image-keyboard-response","409","335670","0.0-6.0-1.201","MEVO","2","f","rechts","24","","","self","f","30","true"
"null","<div style=""font-size:60px;"">+</div>","null","html-keyboard-response","410","336171","0.0-6.0-0.202","MEVO","2","f","rechts","24","","fixation","","","",""
"996","img/30_240.png","70","image-keyboard-response","411","337168","0.0-6.0-1.202","MEVO","2","f","rechts","24","","","self","f","30","true"
"null","<div style=""font-size:60px;"">+</div>","null","html-keyboard-response","412","337620","0.0-6.0-0.203","MEVO","2","f","rechts","24","","fixation","","","",""
"1066","img/60_90.png","74","image-keyboard-response","413","338687","0.0-6.0-1.203","MEVO","2","f","rechts","24","","","self","j","60","true"
"null","<div style=""font-size:60px;"">+</div>","null","html-keyboard-response","414","339088","0.0-6.0-0.204","MEVO","2","f","rechts","24","","fixation","","","",""
"1065","img/90_120.png","70","image-keyboard-response","415","340154","0.0-6.0-1.204","MEVO","2","f","rechts","24","","","self","f","90","true"
"null","<div style=""font-size:60px;"">+</div>","null","html-keyboard-response","416","340606","0.0-6.0-0.205","MEVO","2","f","rechts","24","","fixation","","","",""
"1138","img/120_90.png","70","image-keyboard-response","417","341745","0.0-6.0-1.205","MEVO","2","f","rechts","24","","","self","f","120","true"
"null","<div style=""font-size:60px;"">+</div>","null","html-keyboard-response","418","342146","0.0-6.0-0.206","MEVO","2","f","rechts","24","","fixation","","","",""
"844","img/0_150.png","74","image-keyboard-response","419","342991","0.0-6.0-1.206","MEVO","2","f","rechts","24","","","self","j","0","true"
"null","<div style=""font-size:60px;"">+</div>","null","html-keyboard-response","420","343493","0.0-6.0-0.207","MEVO","2","f","rechts","24","","fixation","","","",""
"1067","img/60_150.png","70","image-keyboard-response","421","344561","0.0-6.0-1.207","MEVO","2","f","rechts","24","","","self","f","60","true"
"9412","<p>Du hast in 89% der Versuche korrekt entschieden.</p><p>Deine durchschnittliche Reaktionszeit war  1038ms.</p><p>Dr&uuml;cke eine beliebige Taste, um die Session zu beenden. Vielen Dank!</p>","76","html-keyboard-response","422","353974","0.0-7.0","MEVO","2","f","rechts","24","","","","","",""
