"rt","stimulus","key_press","trial_type","trial_index","time_elapsed","internal_node_id","subject","session","sex","handedness","age","responses","test_part","condition","correct_response","angle","correct"
"7309","<p>Mental Rotation Experiment.</p> <p>Dr&uuml;cke eine beliebige Taste, um anzufangen.</p>","70","html-keyboard-response","0","7313","0.0-0.0","MEVO","1","f","rechts","24","","","","","",""
"9459","","","survey-text","1","16773","0.0-1.0","MEVO","1","f","rechts","24","{""Q0"":""MEVO""}","","","","",""
"7640","","","survey-text","2","24413","0.0-2.0","MEVO","1","f","rechts","24","{""Q0"":""1""}","","","","",""
"2868","","","survey-multi-choice","3","27283","0.0-3.0","MEVO","1","f","rechts","24","{""Q0"":""f"",""Q1"":""rechts""}","","","","",""
"2617","","","survey-text","4","29901","0.0-4.0","MEVO","1","f","rechts","24","{""Q0"":""24""}","","","","",""
"10343","<p> Stell dir vor, dass du vor einem runden Tisch stehst, auf dem sich ein blauer Ball am Tischrand befindet. Entlang des Tischrands ist jeweils ein verschieden langer Pfeil. Nun bewegst du dich entlang dieses Pfeils bis an seine Spitze. Wenn du am Ende des Pfeils angekommen bist, schau zur Tischmitte. </p> <img src='img/90_180.png'></img> <br> <p>Entscheide dann, ob der Ball von deiner neuen (vorgestellten) Position links oder rechts von dir liegt.</p> <p>Dr&uuml;cke die <strong>'f'</strong>-Taste f&uuml;r links, die <strong>'j'</strong>-Taste f&uuml;r rechts.</p> <br><p> Das Bild wird jeweils 1 Sekunde lang pr&auml;sentiert. Du hast 3 Sekunden Zeit eine Entscheidung zu treffen.</p>","74","html-keyboard-response","5","40246","0.0-5.0","MEVO","1","f","rechts","24","","","","","",""
"null","<div style=""font-size:60px;"">+</div>","null","html-keyboard-response","6","41700","0.0-6.0-0.0","MEVO","1","f","rechts","24","","fixation","","","",""
"1952","img/150_270.png","74","image-keyboard-response","7","43655","0.0-6.0-1.0","MEVO","1","f","rechts","24","","","self","j","150","true"
"null","<div style=""font-size:60px;"">+</div>","null","html-keyboard-response","8","44107","0.0-6.0-0.1","MEVO","1","f","rechts","24","","fixation","","","",""
"1074","img/150_90.png","70","image-keyboard-response","9","45182","0.0-6.0-1.1","MEVO","1","f","rechts","24","","","self","f","150","true"
"null","<div style=""font-size:60px;"">+</div>","null","html-keyboard-response","10","45534","0.0-6.0-0.2","MEVO","1","f","rechts","24","","fixation","","","",""
"936","img/L60_180.png","70","image-keyboard-response","11","46471","0.0-6.0-1.2","MEVO","1","f","rechts","24","","","self","f","60","true"
"null","<div style=""font-size:60px;"">+</div>","null","html-keyboard-response","12","46823","0.0-6.0-0.3","MEVO","1","f","rechts","24","","fixation","","","",""
"809","img/0_240.png","70","image-keyboard-response","13","47633","0.0-6.0-1.3","MEVO","1","f","rechts","24","","","self","f","0","true"
"null","<div style=""font-size:60px;"">+</div>","null","html-keyboard-response","14","48135","0.0-6.0-0.4","MEVO","1","f","rechts","24","","fixation","","","",""
"1095","img/30_90.png","74","image-keyboard-response","15","49231","0.0-6.0-1.4","MEVO","1","f","rechts","24","","","self","j","30","true"
"null","<div style=""font-size:60px;"">+</div>","null","html-keyboard-response","16","49633","0.0-6.0-0.5","MEVO","1","f","rechts","24","","fixation","","","",""
"879","img/60_270.png","70","image-keyboard-response","17","50513","0.0-6.0-1.5","MEVO","1","f","rechts","24","","","self","f","60","true"
"null","<div style=""font-size:60px;"">+</div>","null","html-keyboard-response","18","50864","0.0-6.0-0.6","MEVO","1","f","rechts","24","","fixation","","","",""
"1009","img/90_120.png","70","image-keyboard-response","19","51875","0.0-6.0-1.6","MEVO","1","f","rechts","24","","","self","f","90","true"
"null","<div style=""font-size:60px;"">+</div>","null","html-keyboard-response","20","52277","0.0-6.0-0.7","MEVO","1","f","rechts","24","","fixation","","","",""
"1139","img/120_210.png","74","image-keyboard-response","21","53417","0.0-6.0-1.7","MEVO","1","f","rechts","24","","","self","j","120","true"
"null","<div style=""font-size:60px;"">+</div>","null","html-keyboard-response","22","53719","0.0-6.0-0.8","MEVO","1","f","rechts","24","","fixation","","","",""
"1124","img/120_330.png","74","image-keyboard-response","23","54844","0.0-6.0-1.8","MEVO","1","f","rechts","24","","","self","f","120","false"
"null","<div style=""font-size:60px;"">+</div>","null","html-keyboard-response","24","55246","0.0-6.0-0.9","MEVO","1","f","rechts","24","","fixation","","","",""
"866","img/150_180.png","74","image-keyboard-response","25","56113","0.0-6.0-1.9","MEVO","1","f","rechts","24","","","self","j","150","true"
"null","<div style=""font-size:60px;"">+</div>","null","html-keyboard-response","26","56515","0.0-6.0-0.10","MEVO","1","f","rechts","24","","fixation","","","",""
"870","img/0_270.png","70","image-keyboard-response","27","57386","0.0-6.0-1.10","MEVO","1","f","rechts","24","","","self","f","0","true"
"null","<div style=""font-size:60px;"">+</div>","null","html-keyboard-response","28","57738","0.0-6.0-0.11","MEVO","1","f","rechts","24","","fixation","","","",""
"913","img/L30_180.png","70","image-keyboard-response","29","58653","0.0-6.0-1.11","MEVO","1","f","rechts","24","","","self","f","30","true"
"null","<div style=""font-size:60px;"">+</div>","null","html-keyboard-response","30","59154","0.0-6.0-0.12","MEVO","1","f","rechts","24","","fixation","","","",""
"890","img/90_30.png","74","image-keyboard-response","31","60045","0.0-6.0-1.12","MEVO","1","f","rechts","24","","","self","j","90","true"
"null","<div style=""font-size:60px;"">+</div>","null","html-keyboard-response","32","60396","0.0-6.0-0.13","MEVO","1","f","rechts","24","","fixation","","","",""
"1792","img/L120_180.png","70","image-keyboard-response","33","62189","0.0-6.0-1.13","MEVO","1","f","rechts","24","","","self","f","120","true"
"null","<div style=""font-size:60px;"">+</div>","null","html-keyboard-response","34","62541","0.0-6.0-0.14","MEVO","1","f","rechts","24","","fixation","","","",""
"818","img/0_30.png","74","image-keyboard-response","35","63360","0.0-6.0-1.14","MEVO","1","f","rechts","24","","","self","j","0","true"
"null","<div style=""font-size:60px;"">+</div>","null","html-keyboard-response","36","63862","0.0-6.0-0.15","MEVO","1","f","rechts","24","","fixation","","","",""
"687","img/0_60.png","74","image-keyboard-response","37","64550","0.0-6.0-1.15","MEVO","1","f","rechts","24","","","self","j","0","true"
"null","<div style=""font-size:60px;"">+</div>","null","html-keyboard-response","38","64952","0.0-6.0-0.16","MEVO","1","f","rechts","24","","fixation","","","",""
"938","img/120_270.png","74","image-keyboard-response","39","65892","0.0-6.0-1.16","MEVO","1","f","rechts","24","","","self","j","120","true"
"null","<div style=""font-size:60px;"">+</div>","null","html-keyboard-response","40","66193","0.0-6.0-0.17","MEVO","1","f","rechts","24","","fixation","","","",""
"1163","img/30_270.png","70","image-keyboard-response","41","67359","0.0-6.0-1.17","MEVO","1","f","rechts","24","","","self","f","30","true"
"null","<div style=""font-size:60px;"">+</div>","null","html-keyboard-response","42","67859","0.0-6.0-0.18","MEVO","1","f","rechts","24","","fixation","","","",""
"1202","img/90_240.png","74","image-keyboard-response","43","69063","0.0-6.0-1.18","MEVO","1","f","rechts","24","","","self","j","90","true"
"null","<div style=""font-size:60px;"">+</div>","null","html-keyboard-response","44","69564","0.0-6.0-0.19","MEVO","1","f","rechts","24","","fixation","","","",""
"1069","img/120_90.png","70","image-keyboard-response","45","70635","0.0-6.0-1.19","MEVO","1","f","rechts","24","","","self","f","120","true"
"null","<div style=""font-size:60px;"">+</div>","null","html-keyboard-response","46","70986","0.0-6.0-0.20","MEVO","1","f","rechts","24","","fixation","","","",""
"1157","img/90_330.png","74","image-keyboard-response","47","72145","0.0-6.0-1.20","MEVO","1","f","rechts","24","","","self","f","90","false"
"null","<div style=""font-size:60px;"">+</div>","null","html-keyboard-response","48","72597","0.0-6.0-0.21","MEVO","1","f","rechts","24","","fixation","","","",""
"1281","img/L150_180.png","70","image-keyboard-response","49","73879","0.0-6.0-1.21","MEVO","1","f","rechts","24","","","self","f","150","true"
"null","<div style=""font-size:60px;"">+</div>","null","html-keyboard-response","50","74181","0.0-6.0-0.22","MEVO","1","f","rechts","24","","fixation","","","",""
"1392","img/60_330.png","70","image-keyboard-response","51","75574","0.0-6.0-1.22","MEVO","1","f","rechts","24","","","self","f","60","true"
"null","<div style=""font-size:60px;"">+</div>","null","html-keyboard-response","52","76076","0.0-6.0-0.23","MEVO","1","f","rechts","24","","fixation","","","",""
"1243","img/60_150.png","70","image-keyboard-response","53","77321","0.0-6.0-1.23","MEVO","1","f","rechts","24","","","self","f","60","true"
"null","<div style=""font-size:60px;"">+</div>","null","html-keyboard-response","54","77722","0.0-6.0-0.24","MEVO","1","f","rechts","24","","fixation","","","",""
"1178","img/90_300.png","74","image-keyboard-response","55","78902","0.0-6.0-1.24","MEVO","1","f","rechts","24","","","self","f","90","false"
"null","<div style=""font-size:60px;"">+</div>","null","html-keyboard-response","56","79304","0.0-6.0-0.25","MEVO","1","f","rechts","24","","fixation","","","",""
"1191","img/120_30.png","70","image-keyboard-response","57","80496","0.0-6.0-1.25","MEVO","1","f","rechts","24","","","self","j","120","false"
"null","<div style=""font-size:60px;"">+</div>","null","html-keyboard-response","58","80998","0.0-6.0-0.26","MEVO","1","f","rechts","24","","fixation","","","",""
"1365","img/90_60.png","70","image-keyboard-response","59","82364","0.0-6.0-1.26","MEVO","1","f","rechts","24","","","self","j","90","false"
"null","<div style=""font-size:60px;"">+</div>","null","html-keyboard-response","60","82766","0.0-6.0-0.27","MEVO","1","f","rechts","24","","fixation","","","",""
"910","img/0_150.png","74","image-keyboard-response","61","83677","0.0-6.0-1.27","MEVO","1","f","rechts","24","","","self","j","0","true"
"null","<div style=""font-size:60px;"">+</div>","null","html-keyboard-response","62","84079","0.0-6.0-0.28","MEVO","1","f","rechts","24","","fixation","","","",""
"667","img/0_120.png","74","image-keyboard-response","63","84747","0.0-6.0-1.28","MEVO","1","f","rechts","24","","","self","j","0","true"
"null","<div style=""font-size:60px;"">+</div>","null","html-keyboard-response","64","85149","0.0-6.0-0.29","MEVO","1","f","rechts","24","","fixation","","","",""
"741","img/0_90.png","74","image-keyboard-response","65","85891","0.0-6.0-1.29","MEVO","1","f","rechts","24","","","self","j","0","true"
"null","<div style=""font-size:60px;"">+</div>","null","html-keyboard-response","66","86393","0.0-6.0-0.30","MEVO","1","f","rechts","24","","fixation","","","",""
"914","img/L90_180.png","70","image-keyboard-response","67","87309","0.0-6.0-1.30","MEVO","1","f","rechts","24","","","self","f","90","true"
"null","<div style=""font-size:60px;"">+</div>","null","html-keyboard-response","68","87810","0.0-6.0-0.31","MEVO","1","f","rechts","24","","fixation","","","",""
"867","img/150_60.png","70","image-keyboard-response","69","88678","0.0-6.0-1.31","MEVO","1","f","rechts","24","","","self","f","150","true"
"null","<div style=""font-size:60px;"">+</div>","null","html-keyboard-response","70","89130","0.0-6.0-0.32","MEVO","1","f","rechts","24","","fixation","","","",""
"1277","img/30_180.png","74","image-keyboard-response","71","90408","0.0-6.0-1.32","MEVO","1","f","rechts","24","","","self","j","30","true"
"null","<div style=""font-size:60px;"">+</div>","null","html-keyboard-response","72","90710","0.0-6.0-0.33","MEVO","1","f","rechts","24","","fixation","","","",""
"1261","img/150_300.png","74","image-keyboard-response","73","91972","0.0-6.0-1.33","MEVO","1","f","rechts","24","","","self","j","150","true"
"null","<div style=""font-size:60px;"">+</div>","null","html-keyboard-response","74","92373","0.0-6.0-0.34","MEVO","1","f","rechts","24","","fixation","","","",""
"784","img/150_240.png","74","image-keyboard-response","75","93158","0.0-6.0-1.34","MEVO","1","f","rechts","24","","","self","j","150","true"
"null","<div style=""font-size:60px;"">+</div>","null","html-keyboard-response","76","93660","0.0-6.0-0.35","MEVO","1","f","rechts","24","","fixation","","","",""
"816","img/90_210.png","74","image-keyboard-response","77","94477","0.0-6.0-1.35","MEVO","1","f","rechts","24","","","self","j","90","true"
"null","<div style=""font-size:60px;"">+</div>","null","html-keyboard-response","78","94879","0.0-6.0-0.36","MEVO","1","f","rechts","24","","fixation","","","",""
"849","img/0_330.png","74","image-keyboard-response","79","95729","0.0-6.0-1.36","MEVO","1","f","rechts","24","","","self","f","0","false"
"null","<div style=""font-size:60px;"">+</div>","null","html-keyboard-response","80","96181","0.0-6.0-0.37","MEVO","1","f","rechts","24","","fixation","","","",""
"1544","img/150_120.png","70","image-keyboard-response","81","97726","0.0-6.0-1.37","MEVO","1","f","rechts","24","","","self","f","150","true"
"null","<div style=""font-size:60px;"">+</div>","null","html-keyboard-response","82","98228","0.0-6.0-0.38","MEVO","1","f","rechts","24","","fixation","","","",""
"1120","img/60_210.png","74","image-keyboard-response","83","99349","0.0-6.0-1.38","MEVO","1","f","rechts","24","","","self","j","60","true"
"null","<div style=""font-size:60px;"">+</div>","null","html-keyboard-response","84","99651","0.0-6.0-0.39","MEVO","1","f","rechts","24","","fixation","","","",""
"1078","img/30_120.png","70","image-keyboard-response","85","100730","0.0-6.0-1.39","MEVO","1","f","rechts","24","","","self","j","30","false"
"null","<div style=""font-size:60px;"">+</div>","null","html-keyboard-response","86","101182","0.0-6.0-0.40","MEVO","1","f","rechts","24","","fixation","","","",""
"1072","img/60_90.png","70","image-keyboard-response","87","102255","0.0-6.0-1.40","MEVO","1","f","rechts","24","","","self","j","60","false"
"null","<div style=""font-size:60px;"">+</div>","null","html-keyboard-response","88","102657","0.0-6.0-0.41","MEVO","1","f","rechts","24","","fixation","","","",""
"844","img/0_210.png","70","image-keyboard-response","89","103502","0.0-6.0-1.41","MEVO","1","f","rechts","24","","","self","f","0","true"
"null","<div style=""font-size:60px;"">+</div>","null","html-keyboard-response","90","103904","0.0-6.0-0.42","MEVO","1","f","rechts","24","","fixation","","","",""
"919","img/90_180.png","74","image-keyboard-response","91","104823","0.0-6.0-1.42","MEVO","1","f","rechts","24","","","self","j","90","true"
"null","<div style=""font-size:60px;"">+</div>","null","html-keyboard-response","92","105325","0.0-6.0-0.43","MEVO","1","f","rechts","24","","fixation","","","",""
"909","img/120_150.png","70","image-keyboard-response","93","106235","0.0-6.0-1.43","MEVO","1","f","rechts","24","","","self","f","120","true"
"null","<div style=""font-size:60px;"">+</div>","null","html-keyboard-response","94","106687","0.0-6.0-0.44","MEVO","1","f","rechts","24","","fixation","","","",""
"713","img/0_300.png","70","image-keyboard-response","95","107401","0.0-6.0-1.44","MEVO","1","f","rechts","24","","","self","f","0","true"
"null","<div style=""font-size:60px;"">+</div>","null","html-keyboard-response","96","107703","0.0-6.0-0.45","MEVO","1","f","rechts","24","","fixation","","","",""
"893","img/30_240.png","74","image-keyboard-response","97","108597","0.0-6.0-1.45","MEVO","1","f","rechts","24","","","self","f","30","false"
"null","<div style=""font-size:60px;"">+</div>","null","html-keyboard-response","98","109099","0.0-6.0-0.46","MEVO","1","f","rechts","24","","fixation","","","",""
"1051","img/120_180.png","74","image-keyboard-response","99","110151","0.0-6.0-1.46","MEVO","1","f","rechts","24","","","self","j","120","true"
"null","<div style=""font-size:60px;"">+</div>","null","html-keyboard-response","100","110603","0.0-6.0-0.47","MEVO","1","f","rechts","24","","fixation","","","",""
"1402","img/30_60.png","74","image-keyboard-response","101","112007","0.0-6.0-1.47","MEVO","1","f","rechts","24","","","self","j","30","true"
"null","<div style=""font-size:60px;"">+</div>","null","html-keyboard-response","102","112308","0.0-6.0-0.48","MEVO","1","f","rechts","24","","fixation","","","",""
"1747","img/30_300.png","70","image-keyboard-response","103","114056","0.0-6.0-1.48","MEVO","1","f","rechts","24","","","self","f","30","true"
"null","<div style=""font-size:60px;"">+</div>","null","html-keyboard-response","104","114507","0.0-6.0-0.49","MEVO","1","f","rechts","24","","fixation","","","",""
"937","img/90_150.png","70","image-keyboard-response","105","115445","0.0-6.0-1.49","MEVO","1","f","rechts","24","","","self","f","90","true"
"null","<div style=""font-size:60px;"">+</div>","null","html-keyboard-response","106","115747","0.0-6.0-0.50","MEVO","1","f","rechts","24","","fixation","","","",""
"1077","img/60_180.png","74","image-keyboard-response","107","116825","0.0-6.0-1.50","MEVO","1","f","rechts","24","","","self","j","60","true"
"null","<div style=""font-size:60px;"">+</div>","null","html-keyboard-response","108","117127","0.0-6.0-0.51","MEVO","1","f","rechts","24","","fixation","","","",""
"1307","img/60_30.png","74","image-keyboard-response","109","118435","0.0-6.0-1.51","MEVO","1","f","rechts","24","","","self","j","60","true"
"null","<div style=""font-size:60px;"">+</div>","null","html-keyboard-response","110","118837","0.0-6.0-0.52","MEVO","1","f","rechts","24","","fixation","","","",""
"1233","img/90_60.png","74","image-keyboard-response","111","120072","0.0-6.0-1.52","MEVO","1","f","rechts","24","","","self","j","90","true"
"null","<div style=""font-size:60px;"">+</div>","null","html-keyboard-response","112","120523","0.0-6.0-0.53","MEVO","1","f","rechts","24","","fixation","","","",""
"1540","img/60_270.png","74","image-keyboard-response","113","122064","0.0-6.0-1.53","MEVO","1","f","rechts","24","","","self","f","60","false"
"null","<div style=""font-size:60px;"">+</div>","null","html-keyboard-response","114","122416","0.0-6.0-0.54","MEVO","1","f","rechts","24","","fixation","","","",""
"1106","img/90_330.png","70","image-keyboard-response","115","123524","0.0-6.0-1.54","MEVO","1","f","rechts","24","","","self","f","90","true"
"null","<div style=""font-size:60px;"">+</div>","null","html-keyboard-response","116","123975","0.0-6.0-0.55","MEVO","1","f","rechts","24","","fixation","","","",""
"1252","img/60_210.png","74","image-keyboard-response","117","125229","0.0-6.0-1.55","MEVO","1","f","rechts","24","","","self","j","60","true"
"null","<div style=""font-size:60px;"">+</div>","null","html-keyboard-response","118","125530","0.0-6.0-0.56","MEVO","1","f","rechts","24","","fixation","","","",""
"1273","img/120_30.png","74","image-keyboard-response","119","126804","0.0-6.0-1.56","MEVO","1","f","rechts","24","","","self","j","120","true"
"null","<div style=""font-size:60px;"">+</div>","null","html-keyboard-response","120","127206","0.0-6.0-0.57","MEVO","1","f","rechts","24","","fixation","","","",""
"1078","img/60_180.png","74","image-keyboard-response","121","128286","0.0-6.0-1.57","MEVO","1","f","rechts","24","","","self","j","60","true"
"null","<div style=""font-size:60px;"">+</div>","null","html-keyboard-response","122","128587","0.0-6.0-0.58","MEVO","1","f","rechts","24","","fixation","","","",""
"1317","img/60_90.png","70","image-keyboard-response","123","129905","0.0-6.0-1.58","MEVO","1","f","rechts","24","","","self","j","60","false"
"null","<div style=""font-size:60px;"">+</div>","null","html-keyboard-response","124","130307","0.0-6.0-0.59","MEVO","1","f","rechts","24","","fixation","","","",""
"860","img/0_30.png","74","image-keyboard-response","125","131168","0.0-6.0-1.59","MEVO","1","f","rechts","24","","","self","j","0","true"
"null","<div style=""font-size:60px;"">+</div>","null","html-keyboard-response","126","131470","0.0-6.0-0.60","MEVO","1","f","rechts","24","","fixation","","","",""
"1073","img/90_240.png","74","image-keyboard-response","127","132544","0.0-6.0-1.60","MEVO","1","f","rechts","24","","","self","j","90","true"
"null","<div style=""font-size:60px;"">+</div>","null","html-keyboard-response","128","132946","0.0-6.0-0.61","MEVO","1","f","rechts","24","","fixation","","","",""
"1064","img/150_90.png","70","image-keyboard-response","129","134011","0.0-6.0-1.61","MEVO","1","f","rechts","24","","","self","f","150","true"
"null","<div style=""font-size:60px;"">+</div>","null","html-keyboard-response","130","134312","0.0-6.0-0.62","MEVO","1","f","rechts","24","","fixation","","","",""
"1370","img/150_60.png","70","image-keyboard-response","131","135683","0.0-6.0-1.62","MEVO","1","f","rechts","24","","","self","f","150","true"
"null","<div style=""font-size:60px;"">+</div>","null","html-keyboard-response","132","136135","0.0-6.0-0.63","MEVO","1","f","rechts","24","","fixation","","","",""
"1211","img/30_270.png","70","image-keyboard-response","133","137347","0.0-6.0-1.63","MEVO","1","f","rechts","24","","","self","f","30","true"
"null","<div style=""font-size:60px;"">+</div>","null","html-keyboard-response","134","137649","0.0-6.0-0.64","MEVO","1","f","rechts","24","","fixation","","","",""
"1169","img/90_120.png","70","image-keyboard-response","135","138819","0.0-6.0-1.64","MEVO","1","f","rechts","24","","","self","f","90","true"
"null","<div style=""font-size:60px;"">+</div>","null","html-keyboard-response","136","139321","0.0-6.0-0.65","MEVO","1","f","rechts","24","","fixation","","","",""
"1382","img/30_180.png","74","image-keyboard-response","137","140704","0.0-6.0-1.65","MEVO","1","f","rechts","24","","","self","j","30","true"
"null","<div style=""font-size:60px;"">+</div>","null","html-keyboard-response","138","141056","0.0-6.0-0.66","MEVO","1","f","rechts","24","","fixation","","","",""
"1289","img/150_240.png","74","image-keyboard-response","139","142346","0.0-6.0-1.66","MEVO","1","f","rechts","24","","","self","j","150","true"
"null","<div style=""font-size:60px;"">+</div>","null","html-keyboard-response","140","142848","0.0-6.0-0.67","MEVO","1","f","rechts","24","","fixation","","","",""
"849","img/120_210.png","74","image-keyboard-response","141","143698","0.0-6.0-1.67","MEVO","1","f","rechts","24","","","self","j","120","true"
"null","<div style=""font-size:60px;"">+</div>","null","html-keyboard-response","142","144100","0.0-6.0-0.68","MEVO","1","f","rechts","24","","fixation","","","",""
"964","img/L60_180.png","70","image-keyboard-response","143","145065","0.0-6.0-1.68","MEVO","1","f","rechts","24","","","self","f","60","true"
"null","<div style=""font-size:60px;"">+</div>","null","html-keyboard-response","144","145567","0.0-6.0-0.69","MEVO","1","f","rechts","24","","fixation","","","",""
"758","img/0_60.png","74","image-keyboard-response","145","146325","0.0-6.0-1.69","MEVO","1","f","rechts","24","","","self","j","0","true"
"null","<div style=""font-size:60px;"">+</div>","null","html-keyboard-response","146","146627","0.0-6.0-0.70","MEVO","1","f","rechts","24","","fixation","","","",""
"1069","img/150_120.png","70","image-keyboard-response","147","147697","0.0-6.0-1.70","MEVO","1","f","rechts","24","","","self","f","150","true"
"null","<div style=""font-size:60px;"">+</div>","null","html-keyboard-response","148","148199","0.0-6.0-0.71","MEVO","1","f","rechts","24","","fixation","","","",""
"782","img/0_300.png","70","image-keyboard-response","149","148981","0.0-6.0-1.71","MEVO","1","f","rechts","24","","","self","f","0","true"
"null","<div style=""font-size:60px;"">+</div>","null","html-keyboard-response","150","149433","0.0-6.0-0.72","MEVO","1","f","rechts","24","","fixation","","","",""
"694","img/0_150.png","74","image-keyboard-response","151","150127","0.0-6.0-1.72","MEVO","1","f","rechts","24","","","self","j","0","true"
"null","<div style=""font-size:60px;"">+</div>","null","html-keyboard-response","152","150629","0.0-6.0-0.73","MEVO","1","f","rechts","24","","fixation","","","",""
"1238","img/90_300.png","70","image-keyboard-response","153","151867","0.0-6.0-1.73","MEVO","1","f","rechts","24","","","self","f","90","true"
"null","<div style=""font-size:60px;"">+</div>","null","html-keyboard-response","154","152169","0.0-6.0-0.74","MEVO","1","f","rechts","24","","fixation","","","",""
"1065","img/L150_180.png","70","image-keyboard-response","155","153234","0.0-6.0-1.74","MEVO","1","f","rechts","24","","","self","f","150","true"
"null","<div style=""font-size:60px;"">+</div>","null","html-keyboard-response","156","153735","0.0-6.0-0.75","MEVO","1","f","rechts","24","","fixation","","","",""
"682","img/0_270.png","70","image-keyboard-response","157","154418","0.0-6.0-1.75","MEVO","1","f","rechts","24","","","self","f","0","true"
"null","<div style=""font-size:60px;"">+</div>","null","html-keyboard-response","158","154769","0.0-6.0-0.76","MEVO","1","f","rechts","24","","fixation","","","",""
"699","img/0_120.png","74","image-keyboard-response","159","155469","0.0-6.0-1.76","MEVO","1","f","rechts","24","","","self","j","0","true"
"null","<div style=""font-size:60px;"">+</div>","null","html-keyboard-response","160","155821","0.0-6.0-0.77","MEVO","1","f","rechts","24","","fixation","","","",""
"796","img/120_90.png","70","image-keyboard-response","161","156617","0.0-6.0-1.77","MEVO","1","f","rechts","24","","","self","f","120","true"
"null","<div style=""font-size:60px;"">+</div>","null","html-keyboard-response","162","156919","0.0-6.0-0.78","MEVO","1","f","rechts","24","","fixation","","","",""
"1235","img/150_300.png","70","image-keyboard-response","163","158154","0.0-6.0-1.78","MEVO","1","f","rechts","24","","","self","j","150","false"
"null","<div style=""font-size:60px;"">+</div>","null","html-keyboard-response","164","158456","0.0-6.0-0.79","MEVO","1","f","rechts","24","","fixation","","","",""
"1677","img/120_330.png","70","image-keyboard-response","165","160133","0.0-6.0-1.79","MEVO","1","f","rechts","24","","","self","f","120","true"
"null","<div style=""font-size:60px;"">+</div>","null","html-keyboard-response","166","160585","0.0-6.0-0.80","MEVO","1","f","rechts","24","","fixation","","","",""
"1216","img/90_150.png","70","image-keyboard-response","167","161801","0.0-6.0-1.80","MEVO","1","f","rechts","24","","","self","f","90","true"
"null","<div style=""font-size:60px;"">+</div>","null","html-keyboard-response","168","162303","0.0-6.0-0.81","MEVO","1","f","rechts","24","","fixation","","","",""
"1060","img/30_90.png","74","image-keyboard-response","169","163363","0.0-6.0-1.81","MEVO","1","f","rechts","24","","","self","j","30","true"
"null","<div style=""font-size:60px;"">+</div>","null","html-keyboard-response","170","163765","0.0-6.0-0.82","MEVO","1","f","rechts","24","","fixation","","","",""
"1069","img/30_300.png","70","image-keyboard-response","171","164835","0.0-6.0-1.82","MEVO","1","f","rechts","24","","","self","f","30","true"
"null","<div style=""font-size:60px;"">+</div>","null","html-keyboard-response","172","165286","0.0-6.0-0.83","MEVO","1","f","rechts","24","","fixation","","","",""
"841","img/0_90.png","74","image-keyboard-response","173","166129","0.0-6.0-1.83","MEVO","1","f","rechts","24","","","self","j","0","true"
"null","<div style=""font-size:60px;"">+</div>","null","html-keyboard-response","174","166530","0.0-6.0-0.84","MEVO","1","f","rechts","24","","fixation","","","",""
"932","img/120_180.png","70","image-keyboard-response","175","167463","0.0-6.0-1.84","MEVO","1","f","rechts","24","","","self","j","120","false"
"null","<div style=""font-size:60px;"">+</div>","null","html-keyboard-response","176","167864","0.0-6.0-0.85","MEVO","1","f","rechts","24","","fixation","","","",""
"1071","img/120_150.png","70","image-keyboard-response","177","168936","0.0-6.0-1.85","MEVO","1","f","rechts","24","","","self","f","120","true"
"null","<div style=""font-size:60px;"">+</div>","null","html-keyboard-response","178","169338","0.0-6.0-0.86","MEVO","1","f","rechts","24","","fixation","","","",""
"1184","img/120_270.png","70","image-keyboard-response","179","170523","0.0-6.0-1.86","MEVO","1","f","rechts","24","","","self","j","120","false"
"null","<div style=""font-size:60px;"">+</div>","null","html-keyboard-response","180","170874","0.0-6.0-0.87","MEVO","1","f","rechts","24","","fixation","","","",""
"932","img/L30_180.png","70","image-keyboard-response","181","171807","0.0-6.0-1.87","MEVO","1","f","rechts","24","","","self","f","30","true"
"null","<div style=""font-size:60px;"">+</div>","null","html-keyboard-response","182","172159","0.0-6.0-0.88","MEVO","1","f","rechts","24","","fixation","","","",""
"1313","img/90_180.png","74","image-keyboard-response","183","173473","0.0-6.0-1.88","MEVO","1","f","rechts","24","","","self","j","90","true"
"null","<div style=""font-size:60px;"">+</div>","null","html-keyboard-response","184","173874","0.0-6.0-0.89","MEVO","1","f","rechts","24","","fixation","","","",""
"1252","img/30_240.png","70","image-keyboard-response","185","175127","0.0-6.0-1.89","MEVO","1","f","rechts","24","","","self","f","30","true"
"null","<div style=""font-size:60px;"">+</div>","null","html-keyboard-response","186","175629","0.0-6.0-0.90","MEVO","1","f","rechts","24","","fixation","","","",""
"996","img/L120_180.png","70","image-keyboard-response","187","176625","0.0-6.0-1.90","MEVO","1","f","rechts","24","","","self","f","120","true"
"null","<div style=""font-size:60px;"">+</div>","null","html-keyboard-response","188","177027","0.0-6.0-0.91","MEVO","1","f","rechts","24","","fixation","","","",""
"1058","img/90_30.png","74","image-keyboard-response","189","178086","0.0-6.0-1.91","MEVO","1","f","rechts","24","","","self","j","90","true"
"null","<div style=""font-size:60px;"">+</div>","null","html-keyboard-response","190","178488","0.0-6.0-0.92","MEVO","1","f","rechts","24","","fixation","","","",""
"1106","img/90_210.png","74","image-keyboard-response","191","179594","0.0-6.0-1.92","MEVO","1","f","rechts","24","","","self","j","90","true"
"null","<div style=""font-size:60px;"">+</div>","null","html-keyboard-response","192","179946","0.0-6.0-0.93","MEVO","1","f","rechts","24","","fixation","","","",""
"982","img/60_150.png","70","image-keyboard-response","193","180930","0.0-6.0-1.93","MEVO","1","f","rechts","24","","","self","f","60","true"
"null","<div style=""font-size:60px;"">+</div>","null","html-keyboard-response","194","181231","0.0-6.0-0.94","MEVO","1","f","rechts","24","","fixation","","","",""
"818","img/L90_180.png","70","image-keyboard-response","195","182051","0.0-6.0-1.94","MEVO","1","f","rechts","24","","","self","f","90","true"
"null","<div style=""font-size:60px;"">+</div>","null","html-keyboard-response","196","182352","0.0-6.0-0.95","MEVO","1","f","rechts","24","","fixation","","","",""
"1334","img/60_30.png","74","image-keyboard-response","197","183687","0.0-6.0-1.95","MEVO","1","f","rechts","24","","","self","j","60","true"
"null","<div style=""font-size:60px;"">+</div>","null","html-keyboard-response","198","184089","0.0-6.0-0.96","MEVO","1","f","rechts","24","","fixation","","","",""
"1078","img/30_60.png","74","image-keyboard-response","199","185168","0.0-6.0-1.96","MEVO","1","f","rechts","24","","","self","j","30","true"
"null","<div style=""font-size:60px;"">+</div>","null","html-keyboard-response","200","185570","0.0-6.0-0.97","MEVO","1","f","rechts","24","","fixation","","","",""
"1064","img/60_330.png","70","image-keyboard-response","201","186635","0.0-6.0-1.97","MEVO","1","f","rechts","24","","","self","f","60","true"
"null","<div style=""font-size:60px;"">+</div>","null","html-keyboard-response","202","187037","0.0-6.0-0.98","MEVO","1","f","rechts","24","","fixation","","","",""
"677","img/0_240.png","70","image-keyboard-response","203","187715","0.0-6.0-1.98","MEVO","1","f","rechts","24","","","self","f","0","true"
"null","<div style=""font-size:60px;"">+</div>","null","html-keyboard-response","204","188167","0.0-6.0-0.99","MEVO","1","f","rechts","24","","fixation","","","",""
"1161","img/30_120.png","74","image-keyboard-response","205","189329","0.0-6.0-1.99","MEVO","1","f","rechts","24","","","self","j","30","true"
"null","<div style=""font-size:60px;"">+</div>","null","html-keyboard-response","206","189631","0.0-6.0-0.100","MEVO","1","f","rechts","24","","fixation","","","",""
"683","img/0_330.png","70","image-keyboard-response","207","190316","0.0-6.0-1.100","MEVO","1","f","rechts","24","","","self","f","0","true"
"null","<div style=""font-size:60px;"">+</div>","null","html-keyboard-response","208","190717","0.0-6.0-0.101","MEVO","1","f","rechts","24","","fixation","","","",""
"1301","img/150_270.png","70","image-keyboard-response","209","192019","0.0-6.0-1.101","MEVO","1","f","rechts","24","","","self","j","150","false"
"null","<div style=""font-size:60px;"">+</div>","null","html-keyboard-response","210","192521","0.0-6.0-0.102","MEVO","1","f","rechts","24","","fixation","","","",""
"1155","img/150_180.png","74","image-keyboard-response","211","193677","0.0-6.0-1.102","MEVO","1","f","rechts","24","","","self","j","150","true"
"null","<div style=""font-size:60px;"">+</div>","null","html-keyboard-response","212","194128","0.0-6.0-0.103","MEVO","1","f","rechts","24","","fixation","","","",""
"961","img/0_210.png","74","image-keyboard-response","213","195090","0.0-6.0-1.103","MEVO","1","f","rechts","24","","","self","f","0","false"
"null","<div style=""font-size:60px;"">+</div>","null","html-keyboard-response","214","195592","0.0-6.0-0.104","MEVO","1","f","rechts","24","","fixation","","","",""
"990","img/90_150.png","70","image-keyboard-response","215","196583","0.0-6.0-1.104","MEVO","1","f","rechts","24","","","self","f","90","true"
"null","<div style=""font-size:60px;"">+</div>","null","html-keyboard-response","216","196884","0.0-6.0-0.105","MEVO","1","f","rechts","24","","fixation","","","",""
"1675","img/30_300.png","74","image-keyboard-response","217","198560","0.0-6.0-1.105","MEVO","1","f","rechts","24","","","self","f","30","false"
"null","<div style=""font-size:60px;"">+</div>","null","html-keyboard-response","218","198912","0.0-6.0-0.106","MEVO","1","f","rechts","24","","fixation","","","",""
"1176","img/120_330.png","70","image-keyboard-response","219","200089","0.0-6.0-1.106","MEVO","1","f","rechts","24","","","self","f","120","true"
"null","<div style=""font-size:60px;"">+</div>","null","html-keyboard-response","220","200391","0.0-6.0-0.107","MEVO","1","f","rechts","24","","fixation","","","",""
"1080","img/L90_180.png","70","image-keyboard-response","221","201471","0.0-6.0-1.107","MEVO","1","f","rechts","24","","","self","f","90","true"
"null","<div style=""font-size:60px;"">+</div>","null","html-keyboard-response","222","201773","0.0-6.0-0.108","MEVO","1","f","rechts","24","","fixation","","","",""
"1578","img/30_240.png","70","image-keyboard-response","223","203351","0.0-6.0-1.108","MEVO","1","f","rechts","24","","","self","f","30","true"
"null","<div style=""font-size:60px;"">+</div>","null","html-keyboard-response","224","203803","0.0-6.0-0.109","MEVO","1","f","rechts","24","","fixation","","","",""
"1211","img/30_120.png","74","image-keyboard-response","225","205015","0.0-6.0-1.109","MEVO","1","f","rechts","24","","","self","j","30","true"
"null","<div style=""font-size:60px;"">+</div>","null","html-keyboard-response","226","205416","0.0-6.0-0.110","MEVO","1","f","rechts","24","","fixation","","","",""
"751","img/0_240.png","70","image-keyboard-response","227","206168","0.0-6.0-1.110","MEVO","1","f","rechts","24","","","self","f","0","true"
"null","<div style=""font-size:60px;"">+</div>","null","html-keyboard-response","228","206519","0.0-6.0-0.111","MEVO","1","f","rechts","24","","fixation","","","",""
"949","img/L60_180.png","70","image-keyboard-response","229","207468","0.0-6.0-1.111","MEVO","1","f","rechts","24","","","self","f","60","true"
"null","<div style=""font-size:60px;"">+</div>","null","html-keyboard-response","230","207970","0.0-6.0-0.112","MEVO","1","f","rechts","24","","fixation","","","",""
"701","img/0_120.png","74","image-keyboard-response","231","208671","0.0-6.0-1.112","MEVO","1","f","rechts","24","","","self","j","0","true"
"null","<div style=""font-size:60px;"">+</div>","null","html-keyboard-response","232","209173","0.0-6.0-0.113","MEVO","1","f","rechts","24","","fixation","","","",""
"997","img/120_90.png","70","image-keyboard-response","233","210170","0.0-6.0-1.113","MEVO","1","f","rechts","24","","","self","f","120","true"
"null","<div style=""font-size:60px;"">+</div>","null","html-keyboard-response","234","210571","0.0-6.0-0.114","MEVO","1","f","rechts","24","","fixation","","","",""
"903","img/90_120.png","70","image-keyboard-response","235","211474","0.0-6.0-1.114","MEVO","1","f","rechts","24","","","self","f","90","true"
"null","<div style=""font-size:60px;"">+</div>","null","html-keyboard-response","236","211976","0.0-6.0-0.115","MEVO","1","f","rechts","24","","fixation","","","",""
"750","img/0_60.png","74","image-keyboard-response","237","212727","0.0-6.0-1.115","MEVO","1","f","rechts","24","","","self","j","0","true"
"null","<div style=""font-size:60px;"">+</div>","null","html-keyboard-response","238","213179","0.0-6.0-0.116","MEVO","1","f","rechts","24","","fixation","","","",""
"1120","img/90_330.png","70","image-keyboard-response","239","214299","0.0-6.0-1.116","MEVO","1","f","rechts","24","","","self","f","90","true"
"null","<div style=""font-size:60px;"">+</div>","null","html-keyboard-response","240","214700","0.0-6.0-0.117","MEVO","1","f","rechts","24","","fixation","","","",""
"1072","img/L30_180.png","70","image-keyboard-response","241","215772","0.0-6.0-1.117","MEVO","1","f","rechts","24","","","self","f","30","true"
"null","<div style=""font-size:60px;"">+</div>","null","html-keyboard-response","242","216174","0.0-6.0-0.118","MEVO","1","f","rechts","24","","fixation","","","",""
"983","img/60_210.png","74","image-keyboard-response","243","217158","0.0-6.0-1.118","MEVO","1","f","rechts","24","","","self","j","60","true"
"null","<div style=""font-size:60px;"">+</div>","null","html-keyboard-response","244","217559","0.0-6.0-0.119","MEVO","1","f","rechts","24","","fixation","","","",""
"996","img/150_180.png","74","image-keyboard-response","245","218556","0.0-6.0-1.119","MEVO","1","f","rechts","24","","","self","j","150","true"
"null","<div style=""font-size:60px;"">+</div>","null","html-keyboard-response","246","218907","0.0-6.0-0.120","MEVO","1","f","rechts","24","","fixation","","","",""
"744","img/150_240.png","74","image-keyboard-response","247","219653","0.0-6.0-1.120","MEVO","1","f","rechts","24","","","self","j","150","true"
"null","<div style=""font-size:60px;"">+</div>","null","html-keyboard-response","248","220054","0.0-6.0-0.121","MEVO","1","f","rechts","24","","fixation","","","",""
"1332","img/60_90.png","74","image-keyboard-response","249","221387","0.0-6.0-1.121","MEVO","1","f","rechts","24","","","self","j","60","true"
"null","<div style=""font-size:60px;"">+</div>","null","html-keyboard-response","250","221889","0.0-6.0-0.122","MEVO","1","f","rechts","24","","fixation","","","",""
"1458","img/150_90.png","70","image-keyboard-response","251","223348","0.0-6.0-1.122","MEVO","1","f","rechts","24","","","self","f","150","true"
"null","<div style=""font-size:60px;"">+</div>","null","html-keyboard-response","252","223800","0.0-6.0-0.123","MEVO","1","f","rechts","24","","fixation","","","",""
"708","img/L150_180.png","70","image-keyboard-response","253","224508","0.0-6.0-1.123","MEVO","1","f","rechts","24","","","self","f","150","true"
"null","<div style=""font-size:60px;"">+</div>","null","html-keyboard-response","254","224810","0.0-6.0-0.124","MEVO","1","f","rechts","24","","fixation","","","",""
"752","img/L120_180.png","70","image-keyboard-response","255","225562","0.0-6.0-1.124","MEVO","1","f","rechts","24","","","self","f","120","true"
"null","<div style=""font-size:60px;"">+</div>","null","html-keyboard-response","256","225914","0.0-6.0-0.125","MEVO","1","f","rechts","24","","fixation","","","",""
"1066","img/90_210.png","74","image-keyboard-response","257","226981","0.0-6.0-1.125","MEVO","1","f","rechts","24","","","self","j","90","true"
"null","<div style=""font-size:60px;"">+</div>","null","html-keyboard-response","258","227333","0.0-6.0-0.126","MEVO","1","f","rechts","24","","fixation","","","",""
"1064","img/150_300.png","74","image-keyboard-response","259","228398","0.0-6.0-1.126","MEVO","1","f","rechts","24","","","self","j","150","true"
"null","<div style=""font-size:60px;"">+</div>","null","html-keyboard-response","260","228850","0.0-6.0-0.127","MEVO","1","f","rechts","24","","fixation","","","",""
"889","img/60_150.png","70","image-keyboard-response","261","229740","0.0-6.0-1.127","MEVO","1","f","rechts","24","","","self","f","60","true"
"null","<div style=""font-size:60px;"">+</div>","null","html-keyboard-response","262","230041","0.0-6.0-0.128","MEVO","1","f","rechts","24","","fixation","","","",""
"1106","img/30_60.png","74","image-keyboard-response","263","231148","0.0-6.0-1.128","MEVO","1","f","rechts","24","","","self","j","30","true"
"null","<div style=""font-size:60px;"">+</div>","null","html-keyboard-response","264","231499","0.0-6.0-0.129","MEVO","1","f","rechts","24","","fixation","","","",""
"865","img/0_330.png","70","image-keyboard-response","265","232366","0.0-6.0-1.129","MEVO","1","f","rechts","24","","","self","f","0","true"
"null","<div style=""font-size:60px;"">+</div>","null","html-keyboard-response","266","232666","0.0-6.0-0.130","MEVO","1","f","rechts","24","","fixation","","","",""
"1283","img/30_270.png","70","image-keyboard-response","267","233950","0.0-6.0-1.130","MEVO","1","f","rechts","24","","","self","f","30","true"
"null","<div style=""font-size:60px;"">+</div>","null","html-keyboard-response","268","234301","0.0-6.0-0.131","MEVO","1","f","rechts","24","","fixation","","","",""
"735","img/0_90.png","74","image-keyboard-response","269","235037","0.0-6.0-1.131","MEVO","1","f","rechts","24","","","self","j","0","true"
"null","<div style=""font-size:60px;"">+</div>","null","html-keyboard-response","270","235439","0.0-6.0-0.132","MEVO","1","f","rechts","24","","fixation","","","",""
"1073","img/150_270.png","74","image-keyboard-response","271","236513","0.0-6.0-1.132","MEVO","1","f","rechts","24","","","self","j","150","true"
"null","<div style=""font-size:60px;"">+</div>","null","html-keyboard-response","272","236815","0.0-6.0-0.133","MEVO","1","f","rechts","24","","fixation","","","",""
"727","img/120_210.png","74","image-keyboard-response","273","237543","0.0-6.0-1.133","MEVO","1","f","rechts","24","","","self","j","120","true"
"null","<div style=""font-size:60px;"">+</div>","null","html-keyboard-response","274","237894","0.0-6.0-0.134","MEVO","1","f","rechts","24","","fixation","","","",""
"839","img/60_180.png","74","image-keyboard-response","275","238734","0.0-6.0-1.134","MEVO","1","f","rechts","24","","","self","j","60","true"
"null","<div style=""font-size:60px;"">+</div>","null","html-keyboard-response","276","239036","0.0-6.0-0.135","MEVO","1","f","rechts","24","","fixation","","","",""
"1320","img/90_60.png","74","image-keyboard-response","277","240356","0.0-6.0-1.135","MEVO","1","f","rechts","24","","","self","j","90","true"
"null","<div style=""font-size:60px;"">+</div>","null","html-keyboard-response","278","240708","0.0-6.0-0.136","MEVO","1","f","rechts","24","","fixation","","","",""
"1065","img/120_150.png","70","image-keyboard-response","279","241774","0.0-6.0-1.136","MEVO","1","f","rechts","24","","","self","f","120","true"
"null","<div style=""font-size:60px;"">+</div>","null","html-keyboard-response","280","242276","0.0-6.0-0.137","MEVO","1","f","rechts","24","","fixation","","","",""
"1144","img/120_30.png","74","image-keyboard-response","281","243420","0.0-6.0-1.137","MEVO","1","f","rechts","24","","","self","j","120","true"
"null","<div style=""font-size:60px;"">+</div>","null","html-keyboard-response","282","243721","0.0-6.0-0.138","MEVO","1","f","rechts","24","","fixation","","","",""
"912","img/150_120.png","70","image-keyboard-response","283","244633","0.0-6.0-1.138","MEVO","1","f","rechts","24","","","self","f","150","true"
"null","<div style=""font-size:60px;"">+</div>","null","html-keyboard-response","284","244985","0.0-6.0-0.139","MEVO","1","f","rechts","24","","fixation","","","",""
"912","img/90_180.png","74","image-keyboard-response","285","245898","0.0-6.0-1.139","MEVO","1","f","rechts","24","","","self","j","90","true"
"null","<div style=""font-size:60px;"">+</div>","null","html-keyboard-response","286","246350","0.0-6.0-0.140","MEVO","1","f","rechts","24","","fixation","","","",""
"731","img/0_30.png","74","image-keyboard-response","287","247082","0.0-6.0-1.140","MEVO","1","f","rechts","24","","","self","j","0","true"
"null","<div style=""font-size:60px;"">+</div>","null","html-keyboard-response","288","247584","0.0-6.0-0.141","MEVO","1","f","rechts","24","","fixation","","","",""
"1005","img/60_330.png","70","image-keyboard-response","289","248590","0.0-6.0-1.141","MEVO","1","f","rechts","24","","","self","f","60","true"
"null","<div style=""font-size:60px;"">+</div>","null","html-keyboard-response","290","249042","0.0-6.0-0.142","MEVO","1","f","rechts","24","","fixation","","","",""
"908","img/90_240.png","74","image-keyboard-response","291","249951","0.0-6.0-1.142","MEVO","1","f","rechts","24","","","self","j","90","true"
"null","<div style=""font-size:60px;"">+</div>","null","html-keyboard-response","292","250353","0.0-6.0-0.143","MEVO","1","f","rechts","24","","fixation","","","",""
"1102","img/90_30.png","74","image-keyboard-response","293","251456","0.0-6.0-1.143","MEVO","1","f","rechts","24","","","self","j","90","true"
"null","<div style=""font-size:60px;"">+</div>","null","html-keyboard-response","294","251958","0.0-6.0-0.144","MEVO","1","f","rechts","24","","fixation","","","",""
"957","img/150_60.png","70","image-keyboard-response","295","252915","0.0-6.0-1.144","MEVO","1","f","rechts","24","","","self","f","150","true"
"null","<div style=""font-size:60px;"">+</div>","null","html-keyboard-response","296","253216","0.0-6.0-0.145","MEVO","1","f","rechts","24","","fixation","","","",""
"1129","img/120_270.png","74","image-keyboard-response","297","254346","0.0-6.0-1.145","MEVO","1","f","rechts","24","","","self","j","120","true"
"null","<div style=""font-size:60px;"">+</div>","null","html-keyboard-response","298","254748","0.0-6.0-0.146","MEVO","1","f","rechts","24","","fixation","","","",""
"884","img/30_90.png","70","image-keyboard-response","299","255633","0.0-6.0-1.146","MEVO","1","f","rechts","24","","","self","j","30","false"
"null","<div style=""font-size:60px;"">+</div>","null","html-keyboard-response","300","255935","0.0-6.0-0.147","MEVO","1","f","rechts","24","","fixation","","","",""
"874","img/0_210.png","70","image-keyboard-response","301","256809","0.0-6.0-1.147","MEVO","1","f","rechts","24","","","self","f","0","true"
"null","<div style=""font-size:60px;"">+</div>","null","html-keyboard-response","302","257111","0.0-6.0-0.148","MEVO","1","f","rechts","24","","fixation","","","",""
"791","img/120_180.png","74","image-keyboard-response","303","257902","0.0-6.0-1.148","MEVO","1","f","rechts","24","","","self","j","120","true"
"null","<div style=""font-size:60px;"">+</div>","null","html-keyboard-response","304","258203","0.0-6.0-0.149","MEVO","1","f","rechts","24","","fixation","","","",""
"1261","img/60_270.png","70","image-keyboard-response","305","259465","0.0-6.0-1.149","MEVO","1","f","rechts","24","","","self","f","60","true"
"null","<div style=""font-size:60px;"">+</div>","null","html-keyboard-response","306","259966","0.0-6.0-0.150","MEVO","1","f","rechts","24","","fixation","","","",""
"882","img/60_30.png","74","image-keyboard-response","307","260849","0.0-6.0-1.150","MEVO","1","f","rechts","24","","","self","j","60","true"
"null","<div style=""font-size:60px;"">+</div>","null","html-keyboard-response","308","261301","0.0-6.0-0.151","MEVO","1","f","rechts","24","","fixation","","","",""
"831","img/90_300.png","70","image-keyboard-response","309","262132","0.0-6.0-1.151","MEVO","1","f","rechts","24","","","self","f","90","true"
"null","<div style=""font-size:60px;"">+</div>","null","html-keyboard-response","310","262434","0.0-6.0-0.152","MEVO","1","f","rechts","24","","fixation","","","",""
"771","img/0_150.png","74","image-keyboard-response","311","263205","0.0-6.0-1.152","MEVO","1","f","rechts","24","","","self","j","0","true"
"null","<div style=""font-size:60px;"">+</div>","null","html-keyboard-response","312","263655","0.0-6.0-0.153","MEVO","1","f","rechts","24","","fixation","","","",""
"725","img/0_300.png","70","image-keyboard-response","313","264381","0.0-6.0-1.153","MEVO","1","f","rechts","24","","","self","f","0","true"
"null","<div style=""font-size:60px;"">+</div>","null","html-keyboard-response","314","264832","0.0-6.0-0.154","MEVO","1","f","rechts","24","","fixation","","","",""
"594","img/0_270.png","70","image-keyboard-response","315","265428","0.0-6.0-1.154","MEVO","1","f","rechts","24","","","self","f","0","true"
"null","<div style=""font-size:60px;"">+</div>","null","html-keyboard-response","316","265729","0.0-6.0-0.155","MEVO","1","f","rechts","24","","fixation","","","",""
"1188","img/30_180.png","74","image-keyboard-response","317","266919","0.0-6.0-1.155","MEVO","1","f","rechts","24","","","self","j","30","true"
"null","<div style=""font-size:60px;"">+</div>","null","html-keyboard-response","318","267370","0.0-6.0-0.156","MEVO","1","f","rechts","24","","fixation","","","",""
"909","img/30_90.png","70","image-keyboard-response","319","268279","0.0-6.0-1.156","MEVO","1","f","rechts","24","","","self","j","30","false"
"null","<div style=""font-size:60px;"">+</div>","null","html-keyboard-response","320","268631","0.0-6.0-0.157","MEVO","1","f","rechts","24","","fixation","","","",""
"1647","img/150_90.png","70","image-keyboard-response","321","270278","0.0-6.0-1.157","MEVO","1","f","rechts","24","","","self","f","150","true"
"null","<div style=""font-size:60px;"">+</div>","null","html-keyboard-response","322","270729","0.0-6.0-0.158","MEVO","1","f","rechts","24","","fixation","","","",""
"1135","img/L90_180.png","70","image-keyboard-response","323","271866","0.0-6.0-1.158","MEVO","1","f","rechts","24","","","self","f","90","true"
"null","<div style=""font-size:60px;"">+</div>","null","html-keyboard-response","324","272317","0.0-6.0-0.159","MEVO","1","f","rechts","24","","fixation","","","",""
"1306","img/30_180.png","74","image-keyboard-response","325","273625","0.0-6.0-1.159","MEVO","1","f","rechts","24","","","self","j","30","true"
"null","<div style=""font-size:60px;"">+</div>","null","html-keyboard-response","326","273976","0.0-6.0-0.160","MEVO","1","f","rechts","24","","fixation","","","",""
"953","img/120_150.png","70","image-keyboard-response","327","274931","0.0-6.0-1.160","MEVO","1","f","rechts","24","","","self","f","120","true"
"null","<div style=""font-size:60px;"">+</div>","null","html-keyboard-response","328","275232","0.0-6.0-0.161","MEVO","1","f","rechts","24","","fixation","","","",""
"967","img/150_180.png","74","image-keyboard-response","329","276201","0.0-6.0-1.161","MEVO","1","f","rechts","24","","","self","j","150","true"
"null","<div style=""font-size:60px;"">+</div>","null","html-keyboard-response","330","276702","0.0-6.0-0.162","MEVO","1","f","rechts","24","","fixation","","","",""
"1169","img/90_30.png","74","image-keyboard-response","331","277872","0.0-6.0-1.162","MEVO","1","f","rechts","24","","","self","j","90","true"
"null","<div style=""font-size:60px;"">+</div>","null","html-keyboard-response","332","278173","0.0-6.0-0.163","MEVO","1","f","rechts","24","","fixation","","","",""
"1173","img/150_120.png","70","image-keyboard-response","333","279347","0.0-6.0-1.163","MEVO","1","f","rechts","24","","","self","f","150","true"
"null","<div style=""font-size:60px;"">+</div>","null","html-keyboard-response","334","279849","0.0-6.0-0.164","MEVO","1","f","rechts","24","","fixation","","","",""
"1148","img/150_240.png","74","image-keyboard-response","335","280998","0.0-6.0-1.164","MEVO","1","f","rechts","24","","","self","j","150","true"
"null","<div style=""font-size:60px;"">+</div>","null","html-keyboard-response","336","281350","0.0-6.0-0.165","MEVO","1","f","rechts","24","","fixation","","","",""
"885","img/90_180.png","74","image-keyboard-response","337","282236","0.0-6.0-1.165","MEVO","1","f","rechts","24","","","self","j","90","true"
"null","<div style=""font-size:60px;"">+</div>","null","html-keyboard-response","338","282538","0.0-6.0-0.166","MEVO","1","f","rechts","24","","fixation","","","",""
"942","img/0_90.png","74","image-keyboard-response","339","283481","0.0-6.0-1.166","MEVO","1","f","rechts","24","","","self","j","0","true"
"null","<div style=""font-size:60px;"">+</div>","null","html-keyboard-response","340","283833","0.0-6.0-0.167","MEVO","1","f","rechts","24","","fixation","","","",""
"1183","img/150_60.png","70","image-keyboard-response","341","285017","0.0-6.0-1.167","MEVO","1","f","rechts","24","","","self","f","150","true"
"null","<div style=""font-size:60px;"">+</div>","null","html-keyboard-response","342","285369","0.0-6.0-0.168","MEVO","1","f","rechts","24","","fixation","","","",""
"764","img/0_270.png","70","image-keyboard-response","343","286134","0.0-6.0-1.168","MEVO","1","f","rechts","24","","","self","f","0","true"
"null","<div style=""font-size:60px;"">+</div>","null","html-keyboard-response","344","286636","0.0-6.0-0.169","MEVO","1","f","rechts","24","","fixation","","","",""
"1063","img/60_210.png","74","image-keyboard-response","345","287701","0.0-6.0-1.169","MEVO","1","f","rechts","24","","","self","j","60","true"
"null","<div style=""font-size:60px;"">+</div>","null","html-keyboard-response","346","288002","0.0-6.0-0.170","MEVO","1","f","rechts","24","","fixation","","","",""
"1179","img/30_120.png","74","image-keyboard-response","347","289182","0.0-6.0-1.170","MEVO","1","f","rechts","24","","","self","j","30","true"
"null","<div style=""font-size:60px;"">+</div>","null","html-keyboard-response","348","289584","0.0-6.0-0.171","MEVO","1","f","rechts","24","","fixation","","","",""
"880","img/0_330.png","70","image-keyboard-response","349","290465","0.0-6.0-1.171","MEVO","1","f","rechts","24","","","self","f","0","true"
"null","<div style=""font-size:60px;"">+</div>","null","html-keyboard-response","350","290867","0.0-6.0-0.172","MEVO","1","f","rechts","24","","fixation","","","",""
"1101","img/90_120.png","70","image-keyboard-response","351","291969","0.0-6.0-1.172","MEVO","1","f","rechts","24","","","self","f","90","true"
"null","<div style=""font-size:60px;"">+</div>","null","html-keyboard-response","352","292371","0.0-6.0-0.173","MEVO","1","f","rechts","24","","fixation","","","",""
"802","img/L60_180.png","70","image-keyboard-response","353","293173","0.0-6.0-1.173","MEVO","1","f","rechts","24","","","self","f","60","true"
"null","<div style=""font-size:60px;"">+</div>","null","html-keyboard-response","354","293675","0.0-6.0-0.174","MEVO","1","f","rechts","24","","fixation","","","",""
"720","img/0_240.png","70","image-keyboard-response","355","294396","0.0-6.0-1.174","MEVO","1","f","rechts","24","","","self","f","0","true"
"null","<div style=""font-size:60px;"">+</div>","null","html-keyboard-response","356","294798","0.0-6.0-0.175","MEVO","1","f","rechts","24","","fixation","","","",""
"907","img/30_270.png","70","image-keyboard-response","357","295706","0.0-6.0-1.175","MEVO","1","f","rechts","24","","","self","f","30","true"
"null","<div style=""font-size:60px;"">+</div>","null","html-keyboard-response","358","296108","0.0-6.0-0.176","MEVO","1","f","rechts","24","","fixation","","","",""
"921","img/30_240.png","70","image-keyboard-response","359","297029","0.0-6.0-1.176","MEVO","1","f","rechts","24","","","self","f","30","true"
"null","<div style=""font-size:60px;"">+</div>","null","html-keyboard-response","360","297380","0.0-6.0-0.177","MEVO","1","f","rechts","24","","fixation","","","",""
"987","img/60_270.png","70","image-keyboard-response","361","298368","0.0-6.0-1.177","MEVO","1","f","rechts","24","","","self","f","60","true"
"null","<div style=""font-size:60px;"">+</div>","null","html-keyboard-response","362","298770","0.0-6.0-0.178","MEVO","1","f","rechts","24","","fixation","","","",""
"920","img/90_300.png","74","image-keyboard-response","363","299691","0.0-6.0-1.178","MEVO","1","f","rechts","24","","","self","f","90","false"
"null","<div style=""font-size:60px;"">+</div>","null","html-keyboard-response","364","299993","0.0-6.0-0.179","MEVO","1","f","rechts","24","","fixation","","","",""
"1108","img/150_270.png","74","image-keyboard-response","365","301102","0.0-6.0-1.179","MEVO","1","f","rechts","24","","","self","j","150","true"
"null","<div style=""font-size:60px;"">+</div>","null","html-keyboard-response","366","301404","0.0-6.0-0.180","MEVO","1","f","rechts","24","","fixation","","","",""
"761","img/0_300.png","70","image-keyboard-response","367","302165","0.0-6.0-1.180","MEVO","1","f","rechts","24","","","self","f","0","true"
"null","<div style=""font-size:60px;"">+</div>","null","html-keyboard-response","368","302617","0.0-6.0-0.181","MEVO","1","f","rechts","24","","fixation","","","",""
"1073","img/60_150.png","70","image-keyboard-response","369","303691","0.0-6.0-1.181","MEVO","1","f","rechts","24","","","self","f","60","true"
"null","<div style=""font-size:60px;"">+</div>","null","html-keyboard-response","370","303992","0.0-6.0-0.182","MEVO","1","f","rechts","24","","fixation","","","",""
"1051","img/60_180.png","74","image-keyboard-response","371","305044","0.0-6.0-1.182","MEVO","1","f","rechts","24","","","self","j","60","true"
"null","<div style=""font-size:60px;"">+</div>","null","html-keyboard-response","372","305396","0.0-6.0-0.183","MEVO","1","f","rechts","24","","fixation","","","",""
"948","img/90_150.png","70","image-keyboard-response","373","306344","0.0-6.0-1.183","MEVO","1","f","rechts","24","","","self","f","90","true"
"null","<div style=""font-size:60px;"">+</div>","null","html-keyboard-response","374","306746","0.0-6.0-0.184","MEVO","1","f","rechts","24","","fixation","","","",""
"1280","img/120_330.png","70","image-keyboard-response","375","308027","0.0-6.0-1.184","MEVO","1","f","rechts","24","","","self","f","120","true"
"null","<div style=""font-size:60px;"">+</div>","null","html-keyboard-response","376","308329","0.0-6.0-0.185","MEVO","1","f","rechts","24","","fixation","","","",""
"1155","img/60_30.png","74","image-keyboard-response","377","309484","0.0-6.0-1.185","MEVO","1","f","rechts","24","","","self","j","60","true"
"null","<div style=""font-size:60px;"">+</div>","null","html-keyboard-response","378","309835","0.0-6.0-0.186","MEVO","1","f","rechts","24","","fixation","","","",""
"694","img/0_150.png","74","image-keyboard-response","379","310529","0.0-6.0-1.186","MEVO","1","f","rechts","24","","","self","j","0","true"
"null","<div style=""font-size:60px;"">+</div>","null","html-keyboard-response","380","310931","0.0-6.0-0.187","MEVO","1","f","rechts","24","","fixation","","","",""
"1146","img/120_30.png","74","image-keyboard-response","381","312077","0.0-6.0-1.187","MEVO","1","f","rechts","24","","","self","j","120","true"
"null","<div style=""font-size:60px;"">+</div>","null","html-keyboard-response","382","312429","0.0-6.0-0.188","MEVO","1","f","rechts","24","","fixation","","","",""
"1216","img/150_300.png","74","image-keyboard-response","383","313645","0.0-6.0-1.188","MEVO","1","f","rechts","24","","","self","j","150","true"
"null","<div style=""font-size:60px;"">+</div>","null","html-keyboard-response","384","314146","0.0-6.0-0.189","MEVO","1","f","rechts","24","","fixation","","","",""
"1108","img/90_210.png","74","image-keyboard-response","385","315255","0.0-6.0-1.189","MEVO","1","f","rechts","24","","","self","j","90","true"
"null","<div style=""font-size:60px;"">+</div>","null","html-keyboard-response","386","315757","0.0-6.0-0.190","MEVO","1","f","rechts","24","","fixation","","","",""
"778","img/L120_180.png","70","image-keyboard-response","387","316535","0.0-6.0-1.190","MEVO","1","f","rechts","24","","","self","f","120","true"
"null","<div style=""font-size:60px;"">+</div>","null","html-keyboard-response","388","316887","0.0-6.0-0.191","MEVO","1","f","rechts","24","","fixation","","","",""
"1200","img/90_330.png","74","image-keyboard-response","389","318088","0.0-6.0-1.191","MEVO","1","f","rechts","24","","","self","f","90","false"
"null","<div style=""font-size:60px;"">+</div>","null","html-keyboard-response","390","318489","0.0-6.0-0.192","MEVO","1","f","rechts","24","","fixation","","","",""
"942","img/30_300.png","70","image-keyboard-response","391","319432","0.0-6.0-1.192","MEVO","1","f","rechts","24","","","self","f","30","true"
"null","<div style=""font-size:60px;"">+</div>","null","html-keyboard-response","392","319934","0.0-6.0-0.193","MEVO","1","f","rechts","24","","fixation","","","",""
"1015","img/30_60.png","70","image-keyboard-response","393","320949","0.0-6.0-1.193","MEVO","1","f","rechts","24","","","self","j","30","false"
"null","<div style=""font-size:60px;"">+</div>","null","html-keyboard-response","394","321251","0.0-6.0-0.194","MEVO","1","f","rechts","24","","fixation","","","",""
"1093","img/60_330.png","70","image-keyboard-response","395","322346","0.0-6.0-1.194","MEVO","1","f","rechts","24","","","self","f","60","true"
"null","<div style=""font-size:60px;"">+</div>","null","html-keyboard-response","396","322747","0.0-6.0-0.195","MEVO","1","f","rechts","24","","fixation","","","",""
"1509","img/120_270.png","74","image-keyboard-response","397","324257","0.0-6.0-1.195","MEVO","1","f","rechts","24","","","self","j","120","true"
"null","<div style=""font-size:60px;"">+</div>","null","html-keyboard-response","398","324709","0.0-6.0-0.196","MEVO","1","f","rechts","24","","fixation","","","",""
"822","img/120_180.png","74","image-keyboard-response","399","325532","0.0-6.0-1.196","MEVO","1","f","rechts","24","","","self","j","120","true"
"null","<div style=""font-size:60px;"">+</div>","null","html-keyboard-response","400","325934","0.0-6.0-0.197","MEVO","1","f","rechts","24","","fixation","","","",""
"1084","img/90_240.png","74","image-keyboard-response","401","327020","0.0-6.0-1.197","MEVO","1","f","rechts","24","","","self","j","90","true"
"null","<div style=""font-size:60px;"">+</div>","null","html-keyboard-response","402","327321","0.0-6.0-0.198","MEVO","1","f","rechts","24","","fixation","","","",""
"886","img/60_90.png","74","image-keyboard-response","403","328209","0.0-6.0-1.198","MEVO","1","f","rechts","24","","","self","j","60","true"
"null","<div style=""font-size:60px;"">+</div>","null","html-keyboard-response","404","328560","0.0-6.0-0.199","MEVO","1","f","rechts","24","","fixation","","","",""
"1263","img/90_60.png","70","image-keyboard-response","405","329824","0.0-6.0-1.199","MEVO","1","f","rechts","24","","","self","j","90","false"
"null","<div style=""font-size:60px;"">+</div>","null","html-keyboard-response","406","330276","0.0-6.0-0.200","MEVO","1","f","rechts","24","","fixation","","","",""
"1071","img/120_90.png","70","image-keyboard-response","407","331348","0.0-6.0-1.200","MEVO","1","f","rechts","24","","","self","f","120","true"
"null","<div style=""font-size:60px;"">+</div>","null","html-keyboard-response","408","331700","0.0-6.0-0.201","MEVO","1","f","rechts","24","","fixation","","","",""
"785","img/0_30.png","74","image-keyboard-response","409","332485","0.0-6.0-1.201","MEVO","1","f","rechts","24","","","self","j","0","true"
"null","<div style=""font-size:60px;"">+</div>","null","html-keyboard-response","410","332786","0.0-6.0-0.202","MEVO","1","f","rechts","24","","fixation","","","",""
"1092","img/120_210.png","74","image-keyboard-response","411","333880","0.0-6.0-1.202","MEVO","1","f","rechts","24","","","self","j","120","true"
"null","<div style=""font-size:60px;"">+</div>","null","html-keyboard-response","412","334281","0.0-6.0-0.203","MEVO","1","f","rechts","24","","fixation","","","",""
"987","img/L150_180.png","70","image-keyboard-response","413","335269","0.0-6.0-1.203","MEVO","1","f","rechts","24","","","self","f","150","true"
"null","<div style=""font-size:60px;"">+</div>","null","html-keyboard-response","414","335571","0.0-6.0-0.204","MEVO","1","f","rechts","24","","fixation","","","",""
"815","img/0_210.png","70","image-keyboard-response","415","336387","0.0-6.0-1.204","MEVO","1","f","rechts","24","","","self","f","0","true"
"null","<div style=""font-size:60px;"">+</div>","null","html-keyboard-response","416","336889","0.0-6.0-0.205","MEVO","1","f","rechts","24","","fixation","","","",""
"681","img/0_120.png","74","image-keyboard-response","417","337571","0.0-6.0-1.205","MEVO","1","f","rechts","24","","","self","j","0","true"
"null","<div style=""font-size:60px;"">+</div>","null","html-keyboard-response","418","337973","0.0-6.0-0.206","MEVO","1","f","rechts","24","","fixation","","","",""
"649","img/0_60.png","74","image-keyboard-response","419","338623","0.0-6.0-1.206","MEVO","1","f","rechts","24","","","self","j","0","true"
"null","<div style=""font-size:60px;"">+</div>","null","html-keyboard-response","420","338925","0.0-6.0-0.207","MEVO","1","f","rechts","24","","fixation","","","",""
"1743","img/L30_180.png","70","image-keyboard-response","421","340669","0.0-6.0-1.207","MEVO","1","f","rechts","24","","","self","f","30","true"
"8747","<p>Du hast in 86% der Versuche korrekt entschieden.</p><p>Deine durchschnittliche Reaktionszeit war  1030ms.</p><p>Dr&uuml;cke eine beliebige Taste, um die Session zu beenden. Vielen Dank!</p>","75","html-keyboard-response","422","349418","0.0-7.0","MEVO","1","f","rechts","24","","","","","",""
