"rt","stimulus","key_press","trial_type","trial_index","time_elapsed","internal_node_id","subject","session","sex","handedness","age","responses","test_part","condition","correct_response","angle","correct"
"4369","<p>Mental Rotation Experiment.</p> <p>Dr&uuml;cke eine beliebige Taste, um anzufangen.</p>","72","html-keyboard-response","0","4372","0.0-0.0","MASC","4","f","rechts","23","","","","","",""
"2540","","","survey-text","1","6914","0.0-1.0","MASC","4","f","rechts","23","{""Q0"":""MASC""}","","","","",""
"2733","","","survey-text","2","9647","0.0-2.0","MASC","4","f","rechts","23","{""Q0"":""4""}","","","","",""
"2662","","","survey-multi-choice","3","12312","0.0-3.0","MASC","4","f","rechts","23","{""Q0"":""f"",""Q1"":""rechts""}","","","","",""
"1250","","","survey-text","4","13562","0.0-4.0","MASC","4","f","rechts","23","{""Q0"":""23""}","","","","",""
"128258","<p>Stell dir vor, dass du vor einem runden Tisch stehst, auf dem sich ein blauer Ball am Tischrand befindet. Entlang des Tischrands ist jeweils ein verschieden langer Pfeil. Nun bleibst du an deinem Platz vor dem Tisch und rotierst den Tisch entlang des Pfeils (gleiche Richtung und Länge). </p> <img src='img/30_180.png'></img> <br><p> Nachdem du diese (vorgestellte) Rotation durchgef&uuml;hrt hast, schau in Richtung der Tischmitte, und entscheide dann, ob der Ball links oder rechts von dir liegt.</p> <p>Dr&uuml;cke die <strong>'f'</strong>-Taste f&uuml;r links, die <strong>'j'</strong>-Taste f&uuml;r rechts.</p><br><p> Das Bild wird jeweils 1 Sekunde lang pr&auml;sentiert. Du hast 3 Sekunden Zeit eine Entscheidung zu treffen.</p>","74","html-keyboard-response","5","141823","0.0-5.0","MASC","4","f","rechts","23","","","","","",""
"null","<div style=""font-size:60px;"">+</div>","null","html-keyboard-response","6","143326","0.0-6.0-0.0","MASC","4","f","rechts","23","","fixation","","","",""
"912","img/L60_180.png","74","image-keyboard-response","7","144240","0.0-6.0-1.0","MASC","4","f","rechts","23","","","object","j","60","true"
"null","<div style=""font-size:60px;"">+</div>","null","html-keyboard-response","8","144692","0.0-6.0-0.1","MASC","4","f","rechts","23","","fixation","","","",""
"843","img/60_210.png","70","image-keyboard-response","9","145536","0.0-6.0-1.1","MASC","4","f","rechts","23","","","object","f","60","true"
"null","<div style=""font-size:60px;"">+</div>","null","html-keyboard-response","10","145938","0.0-6.0-0.2","MASC","4","f","rechts","23","","fixation","","","",""
"799","img/150_120.png","70","image-keyboard-response","11","146738","0.0-6.0-1.2","MASC","4","f","rechts","23","","","object","f","150","true"
"null","<div style=""font-size:60px;"">+</div>","null","html-keyboard-response","12","147240","0.0-6.0-0.3","MASC","4","f","rechts","23","","fixation","","","",""
"936","img/60_270.png","74","image-keyboard-response","13","148177","0.0-6.0-1.3","MASC","4","f","rechts","23","","","object","f","60","false"
"null","<div style=""font-size:60px;"">+</div>","null","html-keyboard-response","14","148529","0.0-6.0-0.4","MASC","4","f","rechts","23","","fixation","","","",""
"704","img/0_270.png","70","image-keyboard-response","15","149234","0.0-6.0-1.4","MASC","4","f","rechts","23","","","object","f","0","true"
"null","<div style=""font-size:60px;"">+</div>","null","html-keyboard-response","16","149586","0.0-6.0-0.5","MASC","4","f","rechts","23","","fixation","","","",""
"830","img/30_90.png","74","image-keyboard-response","17","150417","0.0-6.0-1.5","MASC","4","f","rechts","23","","","object","j","30","true"
"null","<div style=""font-size:60px;"">+</div>","null","html-keyboard-response","18","150919","0.0-6.0-0.6","MASC","4","f","rechts","23","","fixation","","","",""
"796","img/120_270.png","74","image-keyboard-response","19","151716","0.0-6.0-1.6","MASC","4","f","rechts","23","","","object","j","120","true"
"null","<div style=""font-size:60px;"">+</div>","null","html-keyboard-response","20","152018","0.0-6.0-0.7","MASC","4","f","rechts","23","","fixation","","","",""
"705","img/0_30.png","74","image-keyboard-response","21","152724","0.0-6.0-1.7","MASC","4","f","rechts","23","","","object","j","0","true"
"null","<div style=""font-size:60px;"">+</div>","null","html-keyboard-response","22","153026","0.0-6.0-0.8","MASC","4","f","rechts","23","","fixation","","","",""
"732","img/150_270.png","74","image-keyboard-response","23","153759","0.0-6.0-1.8","MASC","4","f","rechts","23","","","object","j","150","true"
"null","<div style=""font-size:60px;"">+</div>","null","html-keyboard-response","24","154211","0.0-6.0-0.9","MASC","4","f","rechts","23","","fixation","","","",""
"704","img/90_300.png","74","image-keyboard-response","25","154915","0.0-6.0-1.9","MASC","4","f","rechts","23","","","object","j","90","true"
"null","<div style=""font-size:60px;"">+</div>","null","html-keyboard-response","26","155367","0.0-6.0-0.10","MASC","4","f","rechts","23","","fixation","","","",""
"726","img/0_300.png","70","image-keyboard-response","27","156093","0.0-6.0-1.10","MASC","4","f","rechts","23","","","object","f","0","true"
"null","<div style=""font-size:60px;"">+</div>","null","html-keyboard-response","28","156595","0.0-6.0-0.11","MASC","4","f","rechts","23","","fixation","","","",""
"919","img/120_180.png","70","image-keyboard-response","29","157515","0.0-6.0-1.11","MASC","4","f","rechts","23","","","object","f","120","true"
"null","<div style=""font-size:60px;"">+</div>","null","html-keyboard-response","30","157816","0.0-6.0-0.12","MASC","4","f","rechts","23","","fixation","","","",""
"737","img/90_330.png","74","image-keyboard-response","31","158554","0.0-6.0-1.12","MASC","4","f","rechts","23","","","object","j","90","true"
"null","<div style=""font-size:60px;"">+</div>","null","html-keyboard-response","32","159056","0.0-6.0-0.13","MASC","4","f","rechts","23","","fixation","","","",""
"676","img/0_120.png","74","image-keyboard-response","33","159733","0.0-6.0-1.13","MASC","4","f","rechts","23","","","object","j","0","true"
"null","<div style=""font-size:60px;"">+</div>","null","html-keyboard-response","34","160235","0.0-6.0-0.14","MASC","4","f","rechts","23","","fixation","","","",""
"697","img/30_240.png","70","image-keyboard-response","35","160933","0.0-6.0-1.14","MASC","4","f","rechts","23","","","object","f","30","true"
"null","<div style=""font-size:60px;"">+</div>","null","html-keyboard-response","36","161385","0.0-6.0-0.15","MASC","4","f","rechts","23","","fixation","","","",""
"720","img/150_300.png","74","image-keyboard-response","37","162107","0.0-6.0-1.15","MASC","4","f","rechts","23","","","object","j","150","true"
"null","<div style=""font-size:60px;"">+</div>","null","html-keyboard-response","38","162458","0.0-6.0-0.16","MASC","4","f","rechts","23","","fixation","","","",""
"720","img/150_90.png","70","image-keyboard-response","39","163180","0.0-6.0-1.16","MASC","4","f","rechts","23","","","object","f","150","true"
"null","<div style=""font-size:60px;"">+</div>","null","html-keyboard-response","40","163481","0.0-6.0-0.17","MASC","4","f","rechts","23","","fixation","","","",""
"691","img/0_60.png","74","image-keyboard-response","41","164174","0.0-6.0-1.17","MASC","4","f","rechts","23","","","object","j","0","true"
"null","<div style=""font-size:60px;"">+</div>","null","html-keyboard-response","42","164675","0.0-6.0-0.18","MASC","4","f","rechts","23","","fixation","","","",""
"695","img/150_60.png","70","image-keyboard-response","43","165372","0.0-6.0-1.18","MASC","4","f","rechts","23","","","object","f","150","true"
"null","<div style=""font-size:60px;"">+</div>","null","html-keyboard-response","44","165723","0.0-6.0-0.19","MASC","4","f","rechts","23","","fixation","","","",""
"920","img/120_210.png","70","image-keyboard-response","45","166645","0.0-6.0-1.19","MASC","4","f","rechts","23","","","object","f","120","true"
"null","<div style=""font-size:60px;"">+</div>","null","html-keyboard-response","46","167146","0.0-6.0-0.20","MASC","4","f","rechts","23","","fixation","","","",""
"891","img/90_240.png","70","image-keyboard-response","47","168039","0.0-6.0-1.20","MASC","4","f","rechts","23","","","object","f","90","true"
"null","<div style=""font-size:60px;"">+</div>","null","html-keyboard-response","48","168440","0.0-6.0-0.21","MASC","4","f","rechts","23","","fixation","","","",""
"884","img/150_240.png","74","image-keyboard-response","49","169326","0.0-6.0-1.21","MASC","4","f","rechts","23","","","object","j","150","true"
"null","<div style=""font-size:60px;"">+</div>","null","html-keyboard-response","50","169827","0.0-6.0-0.22","MASC","4","f","rechts","23","","fixation","","","",""
"792","img/120_30.png","70","image-keyboard-response","51","170620","0.0-6.0-1.22","MASC","4","f","rechts","23","","","object","f","120","true"
"null","<div style=""font-size:60px;"">+</div>","null","html-keyboard-response","52","171072","0.0-6.0-0.23","MASC","4","f","rechts","23","","fixation","","","",""
"632","img/0_90.png","74","image-keyboard-response","53","171704","0.0-6.0-1.23","MASC","4","f","rechts","23","","","object","j","0","true"
"null","<div style=""font-size:60px;"">+</div>","null","html-keyboard-response","54","172206","0.0-6.0-0.24","MASC","4","f","rechts","23","","fixation","","","",""
"709","img/60_180.png","70","image-keyboard-response","55","172916","0.0-6.0-1.24","MASC","4","f","rechts","23","","","object","f","60","true"
"null","<div style=""font-size:60px;"">+</div>","null","html-keyboard-response","56","173267","0.0-6.0-0.25","MASC","4","f","rechts","23","","fixation","","","",""
"733","img/60_330.png","74","image-keyboard-response","57","174002","0.0-6.0-1.25","MASC","4","f","rechts","23","","","object","j","60","true"
"null","<div style=""font-size:60px;"">+</div>","null","html-keyboard-response","58","174452","0.0-6.0-0.26","MASC","4","f","rechts","23","","fixation","","","",""
"609","img/60_30.png","70","image-keyboard-response","59","175062","0.0-6.0-1.26","MASC","4","f","rechts","23","","","object","f","60","true"
"null","<div style=""font-size:60px;"">+</div>","null","html-keyboard-response","60","175564","0.0-6.0-0.27","MASC","4","f","rechts","23","","fixation","","","",""
"633","img/0_210.png","70","image-keyboard-response","61","176198","0.0-6.0-1.27","MASC","4","f","rechts","23","","","object","f","0","true"
"null","<div style=""font-size:60px;"">+</div>","null","html-keyboard-response","62","176500","0.0-6.0-0.28","MASC","4","f","rechts","23","","fixation","","","",""
"919","img/L150_180.png","74","image-keyboard-response","63","177420","0.0-6.0-1.28","MASC","4","f","rechts","23","","","object","j","150","true"
"null","<div style=""font-size:60px;"">+</div>","null","html-keyboard-response","64","177722","0.0-6.0-0.29","MASC","4","f","rechts","23","","fixation","","","",""
"794","img/120_90.png","70","image-keyboard-response","65","178517","0.0-6.0-1.29","MASC","4","f","rechts","23","","","object","f","120","true"
"null","<div style=""font-size:60px;"">+</div>","null","html-keyboard-response","66","179019","0.0-6.0-0.30","MASC","4","f","rechts","23","","fixation","","","",""
"785","img/60_150.png","74","image-keyboard-response","67","179805","0.0-6.0-1.30","MASC","4","f","rechts","23","","","object","j","60","true"
"null","<div style=""font-size:60px;"">+</div>","null","html-keyboard-response","68","180257","0.0-6.0-0.31","MASC","4","f","rechts","23","","fixation","","","",""
"680","img/0_150.png","74","image-keyboard-response","69","180938","0.0-6.0-1.31","MASC","4","f","rechts","23","","","object","j","0","true"
"null","<div style=""font-size:60px;"">+</div>","null","html-keyboard-response","70","181240","0.0-6.0-0.32","MASC","4","f","rechts","23","","fixation","","","",""
"771","img/90_180.png","70","image-keyboard-response","71","182012","0.0-6.0-1.32","MASC","4","f","rechts","23","","","object","f","90","true"
"null","<div style=""font-size:60px;"">+</div>","null","html-keyboard-response","72","182414","0.0-6.0-0.33","MASC","4","f","rechts","23","","fixation","","","",""
"995","img/90_120.png","74","image-keyboard-response","73","183410","0.0-6.0-1.33","MASC","4","f","rechts","23","","","object","j","90","true"
"null","<div style=""font-size:60px;"">+</div>","null","html-keyboard-response","74","183711","0.0-6.0-0.34","MASC","4","f","rechts","23","","fixation","","","",""
"772","img/30_120.png","74","image-keyboard-response","75","184484","0.0-6.0-1.34","MASC","4","f","rechts","23","","","object","j","30","true"
"null","<div style=""font-size:60px;"">+</div>","null","html-keyboard-response","76","184986","0.0-6.0-0.35","MASC","4","f","rechts","23","","fixation","","","",""
"720","img/120_330.png","74","image-keyboard-response","77","185707","0.0-6.0-1.35","MASC","4","f","rechts","23","","","object","j","120","true"
"null","<div style=""font-size:60px;"">+</div>","null","html-keyboard-response","78","186059","0.0-6.0-0.36","MASC","4","f","rechts","23","","fixation","","","",""
"762","img/120_150.png","70","image-keyboard-response","79","186822","0.0-6.0-1.36","MASC","4","f","rechts","23","","","object","j","120","false"
"null","<div style=""font-size:60px;"">+</div>","null","html-keyboard-response","80","187324","0.0-6.0-0.37","MASC","4","f","rechts","23","","fixation","","","",""
"799","img/30_60.png","74","image-keyboard-response","81","188124","0.0-6.0-1.37","MASC","4","f","rechts","23","","","object","j","30","true"
"null","<div style=""font-size:60px;"">+</div>","null","html-keyboard-response","82","188576","0.0-6.0-0.38","MASC","4","f","rechts","23","","fixation","","","",""
"854","img/L30_180.png","74","image-keyboard-response","83","189431","0.0-6.0-1.38","MASC","4","f","rechts","23","","","object","j","30","true"
"null","<div style=""font-size:60px;"">+</div>","null","html-keyboard-response","84","189783","0.0-6.0-0.39","MASC","4","f","rechts","23","","fixation","","","",""
"1136","img/30_270.png","70","image-keyboard-response","85","190920","0.0-6.0-1.39","MASC","4","f","rechts","23","","","object","f","30","true"
"null","<div style=""font-size:60px;"">+</div>","null","html-keyboard-response","86","191372","0.0-6.0-0.40","MASC","4","f","rechts","23","","fixation","","","",""
"1325","img/30_180.png","74","image-keyboard-response","87","192697","0.0-6.0-1.40","MASC","4","f","rechts","23","","","object","f","30","false"
"null","<div style=""font-size:60px;"">+</div>","null","html-keyboard-response","88","193099","0.0-6.0-0.41","MASC","4","f","rechts","23","","fixation","","","",""
"904","img/60_90.png","70","image-keyboard-response","89","194004","0.0-6.0-1.41","MASC","4","f","rechts","23","","","object","j","60","false"
"null","<div style=""font-size:60px;"">+</div>","null","html-keyboard-response","90","194406","0.0-6.0-0.42","MASC","4","f","rechts","23","","fixation","","","",""
"779","img/0_240.png","70","image-keyboard-response","91","195186","0.0-6.0-1.42","MASC","4","f","rechts","23","","","object","f","0","true"
"null","<div style=""font-size:60px;"">+</div>","null","html-keyboard-response","92","195588","0.0-6.0-0.43","MASC","4","f","rechts","23","","fixation","","","",""
"1356","img/L120_180.png","74","image-keyboard-response","93","196944","0.0-6.0-1.43","MASC","4","f","rechts","23","","","object","j","120","true"
"null","<div style=""font-size:60px;"">+</div>","null","html-keyboard-response","94","197245","0.0-6.0-0.44","MASC","4","f","rechts","23","","fixation","","","",""
"806","img/0_330.png","70","image-keyboard-response","95","198052","0.0-6.0-1.44","MASC","4","f","rechts","23","","","object","f","0","true"
"null","<div style=""font-size:60px;"">+</div>","null","html-keyboard-response","96","198404","0.0-6.0-0.45","MASC","4","f","rechts","23","","fixation","","","",""
"941","img/150_180.png","70","image-keyboard-response","97","199345","0.0-6.0-1.45","MASC","4","f","rechts","23","","","object","f","150","true"
"null","<div style=""font-size:60px;"">+</div>","null","html-keyboard-response","98","199747","0.0-6.0-0.46","MASC","4","f","rechts","23","","fixation","","","",""
"982","img/90_150.png","74","image-keyboard-response","99","200730","0.0-6.0-1.46","MASC","4","f","rechts","23","","","object","j","90","true"
"null","<div style=""font-size:60px;"">+</div>","null","html-keyboard-response","100","201231","0.0-6.0-0.47","MASC","4","f","rechts","23","","fixation","","","",""
"853","img/L90_180.png","74","image-keyboard-response","101","202085","0.0-6.0-1.47","MASC","4","f","rechts","23","","","object","j","90","true"
"null","<div style=""font-size:60px;"">+</div>","null","html-keyboard-response","102","202437","0.0-6.0-0.48","MASC","4","f","rechts","23","","fixation","","","",""
"784","img/90_30.png","70","image-keyboard-response","103","203221","0.0-6.0-1.48","MASC","4","f","rechts","23","","","object","f","90","true"
"null","<div style=""font-size:60px;"">+</div>","null","html-keyboard-response","104","203722","0.0-6.0-0.49","MASC","4","f","rechts","23","","fixation","","","",""
"1146","img/30_300.png","70","image-keyboard-response","105","204869","0.0-6.0-1.49","MASC","4","f","rechts","23","","","object","f","30","true"
"null","<div style=""font-size:60px;"">+</div>","null","html-keyboard-response","106","205171","0.0-6.0-0.50","MASC","4","f","rechts","23","","fixation","","","",""
"765","img/90_60.png","70","image-keyboard-response","107","205936","0.0-6.0-1.50","MASC","4","f","rechts","23","","","object","f","90","true"
"null","<div style=""font-size:60px;"">+</div>","null","html-keyboard-response","108","206438","0.0-6.0-0.51","MASC","4","f","rechts","23","","fixation","","","",""
"961","img/90_210.png","70","image-keyboard-response","109","207400","0.0-6.0-1.51","MASC","4","f","rechts","23","","","object","f","90","true"
"null","<div style=""font-size:60px;"">+</div>","null","html-keyboard-response","110","207752","0.0-6.0-0.52","MASC","4","f","rechts","23","","fixation","","","",""
"914","img/0_120.png","74","image-keyboard-response","111","208666","0.0-6.0-1.52","MASC","4","f","rechts","23","","","object","j","0","true"
"null","<div style=""font-size:60px;"">+</div>","null","html-keyboard-response","112","209167","0.0-6.0-0.53","MASC","4","f","rechts","23","","fixation","","","",""
"959","img/150_270.png","74","image-keyboard-response","113","210127","0.0-6.0-1.53","MASC","4","f","rechts","23","","","object","j","150","true"
"null","<div style=""font-size:60px;"">+</div>","null","html-keyboard-response","114","210579","0.0-6.0-0.54","MASC","4","f","rechts","23","","fixation","","","",""
"963","img/30_60.png","74","image-keyboard-response","115","211542","0.0-6.0-1.54","MASC","4","f","rechts","23","","","object","j","30","true"
"null","<div style=""font-size:60px;"">+</div>","null","html-keyboard-response","116","211844","0.0-6.0-0.55","MASC","4","f","rechts","23","","fixation","","","",""
"749","img/120_330.png","74","image-keyboard-response","117","212593","0.0-6.0-1.55","MASC","4","f","rechts","23","","","object","j","120","true"
"null","<div style=""font-size:60px;"">+</div>","null","html-keyboard-response","118","212945","0.0-6.0-0.56","MASC","4","f","rechts","23","","fixation","","","",""
"609","img/120_30.png","70","image-keyboard-response","119","213554","0.0-6.0-1.56","MASC","4","f","rechts","23","","","object","f","120","true"
"null","<div style=""font-size:60px;"">+</div>","null","html-keyboard-response","120","213856","0.0-6.0-0.57","MASC","4","f","rechts","23","","fixation","","","",""
"800","img/60_150.png","74","image-keyboard-response","121","214658","0.0-6.0-1.57","MASC","4","f","rechts","23","","","object","j","60","true"
"null","<div style=""font-size:60px;"">+</div>","null","html-keyboard-response","122","215059","0.0-6.0-0.58","MASC","4","f","rechts","23","","fixation","","","",""
"741","img/0_210.png","70","image-keyboard-response","123","215802","0.0-6.0-1.58","MASC","4","f","rechts","23","","","object","f","0","true"
"null","<div style=""font-size:60px;"">+</div>","null","html-keyboard-response","124","216253","0.0-6.0-0.59","MASC","4","f","rechts","23","","fixation","","","",""
"820","img/0_330.png","70","image-keyboard-response","125","217074","0.0-6.0-1.59","MASC","4","f","rechts","23","","","object","f","0","true"
"null","<div style=""font-size:60px;"">+</div>","null","html-keyboard-response","126","217476","0.0-6.0-0.60","MASC","4","f","rechts","23","","fixation","","","",""
"842","img/120_180.png","70","image-keyboard-response","127","218319","0.0-6.0-1.60","MASC","4","f","rechts","23","","","object","f","120","true"
"null","<div style=""font-size:60px;"">+</div>","null","html-keyboard-response","128","218670","0.0-6.0-0.61","MASC","4","f","rechts","23","","fixation","","","",""
"899","img/90_180.png","70","image-keyboard-response","129","219571","0.0-6.0-1.61","MASC","4","f","rechts","23","","","object","f","90","true"
"null","<div style=""font-size:60px;"">+</div>","null","html-keyboard-response","130","219972","0.0-6.0-0.62","MASC","4","f","rechts","23","","fixation","","","",""
"1068","img/60_270.png","70","image-keyboard-response","131","221041","0.0-6.0-1.62","MASC","4","f","rechts","23","","","object","f","60","true"
"null","<div style=""font-size:60px;"">+</div>","null","html-keyboard-response","132","221393","0.0-6.0-0.63","MASC","4","f","rechts","23","","fixation","","","",""
"695","img/0_240.png","70","image-keyboard-response","133","222089","0.0-6.0-1.63","MASC","4","f","rechts","23","","","object","f","0","true"
"null","<div style=""font-size:60px;"">+</div>","null","html-keyboard-response","134","222440","0.0-6.0-0.64","MASC","4","f","rechts","23","","fixation","","","",""
"927","img/30_90.png","74","image-keyboard-response","135","223368","0.0-6.0-1.64","MASC","4","f","rechts","23","","","object","j","30","true"
"null","<div style=""font-size:60px;"">+</div>","null","html-keyboard-response","136","223870","0.0-6.0-0.65","MASC","4","f","rechts","23","","fixation","","","",""
"760","img/150_90.png","70","image-keyboard-response","137","224631","0.0-6.0-1.65","MASC","4","f","rechts","23","","","object","f","150","true"
"null","<div style=""font-size:60px;"">+</div>","null","html-keyboard-response","138","224982","0.0-6.0-0.66","MASC","4","f","rechts","23","","fixation","","","",""
"1063","img/60_180.png","70","image-keyboard-response","139","226046","0.0-6.0-1.66","MASC","4","f","rechts","23","","","object","f","60","true"
"null","<div style=""font-size:60px;"">+</div>","null","html-keyboard-response","140","226348","0.0-6.0-0.67","MASC","4","f","rechts","23","","fixation","","","",""
"952","img/150_240.png","74","image-keyboard-response","141","227301","0.0-6.0-1.67","MASC","4","f","rechts","23","","","object","j","150","true"
"null","<div style=""font-size:60px;"">+</div>","null","html-keyboard-response","142","227753","0.0-6.0-0.68","MASC","4","f","rechts","23","","fixation","","","",""
"912","img/90_240.png","70","image-keyboard-response","143","228666","0.0-6.0-1.68","MASC","4","f","rechts","23","","","object","f","90","true"
"null","<div style=""font-size:60px;"">+</div>","null","html-keyboard-response","144","229118","0.0-6.0-0.69","MASC","4","f","rechts","23","","fixation","","","",""
"705","img/90_330.png","74","image-keyboard-response","145","229824","0.0-6.0-1.69","MASC","4","f","rechts","23","","","object","j","90","true"
"null","<div style=""font-size:60px;"">+</div>","null","html-keyboard-response","146","230175","0.0-6.0-0.70","MASC","4","f","rechts","23","","fixation","","","",""
"696","img/0_90.png","74","image-keyboard-response","147","230872","0.0-6.0-1.70","MASC","4","f","rechts","23","","","object","j","0","true"
"null","<div style=""font-size:60px;"">+</div>","null","html-keyboard-response","148","231174","0.0-6.0-0.71","MASC","4","f","rechts","23","","fixation","","","",""
"735","img/0_60.png","74","image-keyboard-response","149","231910","0.0-6.0-1.71","MASC","4","f","rechts","23","","","object","j","0","true"
"null","<div style=""font-size:60px;"">+</div>","null","html-keyboard-response","150","232262","0.0-6.0-0.72","MASC","4","f","rechts","23","","fixation","","","",""
"850","img/150_180.png","70","image-keyboard-response","151","233113","0.0-6.0-1.72","MASC","4","f","rechts","23","","","object","f","150","true"
"null","<div style=""font-size:60px;"">+</div>","null","html-keyboard-response","152","233565","0.0-6.0-0.73","MASC","4","f","rechts","23","","fixation","","","",""
"929","img/30_270.png","70","image-keyboard-response","153","234495","0.0-6.0-1.73","MASC","4","f","rechts","23","","","object","f","30","true"
"null","<div style=""font-size:60px;"">+</div>","null","html-keyboard-response","154","234947","0.0-6.0-0.74","MASC","4","f","rechts","23","","fixation","","","",""
"1218","img/L120_180.png","74","image-keyboard-response","155","236165","0.0-6.0-1.74","MASC","4","f","rechts","23","","","object","j","120","true"
"null","<div style=""font-size:60px;"">+</div>","null","html-keyboard-response","156","236617","0.0-6.0-0.75","MASC","4","f","rechts","23","","fixation","","","",""
"636","img/60_30.png","70","image-keyboard-response","157","237253","0.0-6.0-1.75","MASC","4","f","rechts","23","","","object","f","60","true"
"null","<div style=""font-size:60px;"">+</div>","null","html-keyboard-response","158","237705","0.0-6.0-0.76","MASC","4","f","rechts","23","","fixation","","","",""
"1111","img/L60_180.png","74","image-keyboard-response","159","238816","0.0-6.0-1.76","MASC","4","f","rechts","23","","","object","j","60","true"
"null","<div style=""font-size:60px;"">+</div>","null","html-keyboard-response","160","239218","0.0-6.0-0.77","MASC","4","f","rechts","23","","fixation","","","",""
"687","img/90_30.png","70","image-keyboard-response","161","239905","0.0-6.0-1.77","MASC","4","f","rechts","23","","","object","f","90","true"
"null","<div style=""font-size:60px;"">+</div>","null","html-keyboard-response","162","240257","0.0-6.0-0.78","MASC","4","f","rechts","23","","fixation","","","",""
"878","img/150_300.png","74","image-keyboard-response","163","241135","0.0-6.0-1.78","MASC","4","f","rechts","23","","","object","j","150","true"
"null","<div style=""font-size:60px;"">+</div>","null","html-keyboard-response","164","241537","0.0-6.0-0.79","MASC","4","f","rechts","23","","fixation","","","",""
"936","img/60_210.png","70","image-keyboard-response","165","242473","0.0-6.0-1.79","MASC","4","f","rechts","23","","","object","f","60","true"
"null","<div style=""font-size:60px;"">+</div>","null","html-keyboard-response","166","242975","0.0-6.0-0.80","MASC","4","f","rechts","23","","fixation","","","",""
"893","img/90_210.png","70","image-keyboard-response","167","243868","0.0-6.0-1.80","MASC","4","f","rechts","23","","","object","f","90","true"
"null","<div style=""font-size:60px;"">+</div>","null","html-keyboard-response","168","244319","0.0-6.0-0.81","MASC","4","f","rechts","23","","fixation","","","",""
"747","img/0_300.png","70","image-keyboard-response","169","245067","0.0-6.0-1.81","MASC","4","f","rechts","23","","","object","f","0","true"
"null","<div style=""font-size:60px;"">+</div>","null","html-keyboard-response","170","245419","0.0-6.0-0.82","MASC","4","f","rechts","23","","fixation","","","",""
"1257","img/120_150.png","70","image-keyboard-response","171","246676","0.0-6.0-1.82","MASC","4","f","rechts","23","","","object","j","120","false"
"null","<div style=""font-size:60px;"">+</div>","null","html-keyboard-response","172","246978","0.0-6.0-0.83","MASC","4","f","rechts","23","","fixation","","","",""
"829","img/0_30.png","74","image-keyboard-response","173","247807","0.0-6.0-1.83","MASC","4","f","rechts","23","","","object","j","0","true"
"null","<div style=""font-size:60px;"">+</div>","null","html-keyboard-response","174","248109","0.0-6.0-0.84","MASC","4","f","rechts","23","","fixation","","","",""
"783","img/150_120.png","70","image-keyboard-response","175","248893","0.0-6.0-1.84","MASC","4","f","rechts","23","","","object","f","150","true"
"null","<div style=""font-size:60px;"">+</div>","null","html-keyboard-response","176","249245","0.0-6.0-0.85","MASC","4","f","rechts","23","","fixation","","","",""
"852","img/60_90.png","70","image-keyboard-response","177","250098","0.0-6.0-1.85","MASC","4","f","rechts","23","","","object","j","60","false"
"null","<div style=""font-size:60px;"">+</div>","null","html-keyboard-response","178","250400","0.0-6.0-0.86","MASC","4","f","rechts","23","","fixation","","","",""
"1055","img/90_120.png","70","image-keyboard-response","179","251455","0.0-6.0-1.86","MASC","4","f","rechts","23","","","object","j","90","false"
"null","<div style=""font-size:60px;"">+</div>","null","html-keyboard-response","180","251957","0.0-6.0-0.87","MASC","4","f","rechts","23","","fixation","","","",""
"1065","img/150_60.png","70","image-keyboard-response","181","253022","0.0-6.0-1.87","MASC","4","f","rechts","23","","","object","f","150","true"
"null","<div style=""font-size:60px;"">+</div>","null","html-keyboard-response","182","253523","0.0-6.0-0.88","MASC","4","f","rechts","23","","fixation","","","",""
"817","img/90_300.png","74","image-keyboard-response","183","254341","0.0-6.0-1.88","MASC","4","f","rechts","23","","","object","j","90","true"
"null","<div style=""font-size:60px;"">+</div>","null","html-keyboard-response","184","254693","0.0-6.0-0.89","MASC","4","f","rechts","23","","fixation","","","",""
"710","img/0_150.png","74","image-keyboard-response","185","255403","0.0-6.0-1.89","MASC","4","f","rechts","23","","","object","j","0","true"
"null","<div style=""font-size:60px;"">+</div>","null","html-keyboard-response","186","255755","0.0-6.0-0.90","MASC","4","f","rechts","23","","fixation","","","",""
"661","img/30_240.png","70","image-keyboard-response","187","256416","0.0-6.0-1.90","MASC","4","f","rechts","23","","","object","f","30","true"
"null","<div style=""font-size:60px;"">+</div>","null","html-keyboard-response","188","256817","0.0-6.0-0.91","MASC","4","f","rechts","23","","fixation","","","",""
"688","img/0_270.png","70","image-keyboard-response","189","257506","0.0-6.0-1.91","MASC","4","f","rechts","23","","","object","f","0","true"
"null","<div style=""font-size:60px;"">+</div>","null","html-keyboard-response","190","257857","0.0-6.0-0.92","MASC","4","f","rechts","23","","fixation","","","",""
"796","img/90_60.png","70","image-keyboard-response","191","258654","0.0-6.0-1.92","MASC","4","f","rechts","23","","","object","f","90","true"
"null","<div style=""font-size:60px;"">+</div>","null","html-keyboard-response","192","259106","0.0-6.0-0.93","MASC","4","f","rechts","23","","fixation","","","",""
"717","img/120_270.png","74","image-keyboard-response","193","259823","0.0-6.0-1.93","MASC","4","f","rechts","23","","","object","j","120","true"
"null","<div style=""font-size:60px;"">+</div>","null","html-keyboard-response","194","260225","0.0-6.0-0.94","MASC","4","f","rechts","23","","fixation","","","",""
"1112","img/90_150.png","74","image-keyboard-response","195","261338","0.0-6.0-1.94","MASC","4","f","rechts","23","","","object","j","90","true"
"null","<div style=""font-size:60px;"">+</div>","null","html-keyboard-response","196","261689","0.0-6.0-0.95","MASC","4","f","rechts","23","","fixation","","","",""
"982","img/L90_180.png","74","image-keyboard-response","197","262672","0.0-6.0-1.95","MASC","4","f","rechts","23","","","object","j","90","true"
"null","<div style=""font-size:60px;"">+</div>","null","html-keyboard-response","198","262973","0.0-6.0-0.96","MASC","4","f","rechts","23","","fixation","","","",""
"1352","img/120_210.png","70","image-keyboard-response","199","264326","0.0-6.0-1.96","MASC","4","f","rechts","23","","","object","f","120","true"
"null","<div style=""font-size:60px;"">+</div>","null","html-keyboard-response","200","264828","0.0-6.0-0.97","MASC","4","f","rechts","23","","fixation","","","",""
"1293","img/30_180.png","70","image-keyboard-response","201","266122","0.0-6.0-1.97","MASC","4","f","rechts","23","","","object","f","30","true"
"null","<div style=""font-size:60px;"">+</div>","null","html-keyboard-response","202","266473","0.0-6.0-0.98","MASC","4","f","rechts","23","","fixation","","","",""
"1063","img/30_300.png","70","image-keyboard-response","203","267537","0.0-6.0-1.98","MASC","4","f","rechts","23","","","object","f","30","true"
"null","<div style=""font-size:60px;"">+</div>","null","html-keyboard-response","204","267988","0.0-6.0-0.99","MASC","4","f","rechts","23","","fixation","","","",""
"903","img/120_90.png","70","image-keyboard-response","205","268893","0.0-6.0-1.99","MASC","4","f","rechts","23","","","object","f","120","true"
"null","<div style=""font-size:60px;"">+</div>","null","html-keyboard-response","206","269294","0.0-6.0-0.100","MASC","4","f","rechts","23","","fixation","","","",""
"944","img/30_120.png","70","image-keyboard-response","207","270239","0.0-6.0-1.100","MASC","4","f","rechts","23","","","object","j","30","false"
"null","<div style=""font-size:60px;"">+</div>","null","html-keyboard-response","208","270690","0.0-6.0-0.101","MASC","4","f","rechts","23","","fixation","","","",""
"898","img/L30_180.png","74","image-keyboard-response","209","271590","0.0-6.0-1.101","MASC","4","f","rechts","23","","","object","j","30","true"
"null","<div style=""font-size:60px;"">+</div>","null","html-keyboard-response","210","271991","0.0-6.0-0.102","MASC","4","f","rechts","23","","fixation","","","",""
"924","img/L150_180.png","74","image-keyboard-response","211","272916","0.0-6.0-1.102","MASC","4","f","rechts","23","","","object","j","150","true"
"null","<div style=""font-size:60px;"">+</div>","null","html-keyboard-response","212","273418","0.0-6.0-0.103","MASC","4","f","rechts","23","","fixation","","","",""
"782","img/60_330.png","74","image-keyboard-response","213","274202","0.0-6.0-1.103","MASC","4","f","rechts","23","","","object","j","60","true"
"null","<div style=""font-size:60px;"">+</div>","null","html-keyboard-response","214","274503","0.0-6.0-0.104","MASC","4","f","rechts","23","","fixation","","","",""
"987","img/150_240.png","74","image-keyboard-response","215","275491","0.0-6.0-1.104","MASC","4","f","rechts","23","","","object","j","150","true"
"null","<div style=""font-size:60px;"">+</div>","null","html-keyboard-response","216","275943","0.0-6.0-0.105","MASC","4","f","rechts","23","","fixation","","","",""
"1275","img/L150_180.png","74","image-keyboard-response","217","277219","0.0-6.0-1.105","MASC","4","f","rechts","23","","","object","j","150","true"
"null","<div style=""font-size:60px;"">+</div>","null","html-keyboard-response","218","277671","0.0-6.0-0.106","MASC","4","f","rechts","23","","fixation","","","",""
"839","img/0_300.png","70","image-keyboard-response","219","278511","0.0-6.0-1.106","MASC","4","f","rechts","23","","","object","f","0","true"
"null","<div style=""font-size:60px;"">+</div>","null","html-keyboard-response","220","278963","0.0-6.0-0.107","MASC","4","f","rechts","23","","fixation","","","",""
"1349","img/90_180.png","70","image-keyboard-response","221","280313","0.0-6.0-1.107","MASC","4","f","rechts","23","","","object","f","90","true"
"null","<div style=""font-size:60px;"">+</div>","null","html-keyboard-response","222","280665","0.0-6.0-0.108","MASC","4","f","rechts","23","","fixation","","","",""
"978","img/L60_180.png","74","image-keyboard-response","223","281644","0.0-6.0-1.108","MASC","4","f","rechts","23","","","object","j","60","true"
"null","<div style=""font-size:60px;"">+</div>","null","html-keyboard-response","224","282146","0.0-6.0-0.109","MASC","4","f","rechts","23","","fixation","","","",""
"786","img/150_90.png","70","image-keyboard-response","225","282933","0.0-6.0-1.109","MASC","4","f","rechts","23","","","object","f","150","true"
"null","<div style=""font-size:60px;"">+</div>","null","html-keyboard-response","226","283234","0.0-6.0-0.110","MASC","4","f","rechts","23","","fixation","","","",""
"703","img/150_300.png","74","image-keyboard-response","227","283938","0.0-6.0-1.110","MASC","4","f","rechts","23","","","object","j","150","true"
"null","<div style=""font-size:60px;"">+</div>","null","html-keyboard-response","228","284440","0.0-6.0-0.111","MASC","4","f","rechts","23","","fixation","","","",""
"636","img/60_330.png","74","image-keyboard-response","229","285076","0.0-6.0-1.111","MASC","4","f","rechts","23","","","object","j","60","true"
"null","<div style=""font-size:60px;"">+</div>","null","html-keyboard-response","230","285378","0.0-6.0-0.112","MASC","4","f","rechts","23","","fixation","","","",""
"779","img/90_150.png","70","image-keyboard-response","231","286157","0.0-6.0-1.112","MASC","4","f","rechts","23","","","object","j","90","false"
"null","<div style=""font-size:60px;"">+</div>","null","html-keyboard-response","232","286659","0.0-6.0-0.113","MASC","4","f","rechts","23","","fixation","","","",""
"758","img/0_30.png","74","image-keyboard-response","233","287418","0.0-6.0-1.113","MASC","4","f","rechts","23","","","object","j","0","true"
"null","<div style=""font-size:60px;"">+</div>","null","html-keyboard-response","234","287870","0.0-6.0-0.114","MASC","4","f","rechts","23","","fixation","","","",""
"568","img/90_60.png","70","image-keyboard-response","235","288438","0.0-6.0-1.114","MASC","4","f","rechts","23","","","object","f","90","true"
"null","<div style=""font-size:60px;"">+</div>","null","html-keyboard-response","236","288940","0.0-6.0-0.115","MASC","4","f","rechts","23","","fixation","","","",""
"896","img/30_300.png","70","image-keyboard-response","237","289837","0.0-6.0-1.115","MASC","4","f","rechts","23","","","object","f","30","true"
"null","<div style=""font-size:60px;"">+</div>","null","html-keyboard-response","238","290239","0.0-6.0-0.116","MASC","4","f","rechts","23","","fixation","","","",""
"713","img/0_150.png","74","image-keyboard-response","239","290953","0.0-6.0-1.116","MASC","4","f","rechts","23","","","object","j","0","true"
"null","<div style=""font-size:60px;"">+</div>","null","html-keyboard-response","240","291305","0.0-6.0-0.117","MASC","4","f","rechts","23","","fixation","","","",""
"689","img/0_90.png","74","image-keyboard-response","241","291995","0.0-6.0-1.117","MASC","4","f","rechts","23","","","object","j","0","true"
"null","<div style=""font-size:60px;"">+</div>","null","html-keyboard-response","242","292297","0.0-6.0-0.118","MASC","4","f","rechts","23","","fixation","","","",""
"1166","img/120_180.png","70","image-keyboard-response","243","293463","0.0-6.0-1.118","MASC","4","f","rechts","23","","","object","f","120","true"
"null","<div style=""font-size:60px;"">+</div>","null","html-keyboard-response","244","293815","0.0-6.0-0.119","MASC","4","f","rechts","23","","fixation","","","",""
"875","img/150_180.png","70","image-keyboard-response","245","294690","0.0-6.0-1.119","MASC","4","f","rechts","23","","","object","f","150","true"
"null","<div style=""font-size:60px;"">+</div>","null","html-keyboard-response","246","295042","0.0-6.0-0.120","MASC","4","f","rechts","23","","fixation","","","",""
"867","img/60_210.png","70","image-keyboard-response","247","295910","0.0-6.0-1.120","MASC","4","f","rechts","23","","","object","f","60","true"
"null","<div style=""font-size:60px;"">+</div>","null","html-keyboard-response","248","296362","0.0-6.0-0.121","MASC","4","f","rechts","23","","fixation","","","",""
"628","img/120_330.png","74","image-keyboard-response","249","296990","0.0-6.0-1.121","MASC","4","f","rechts","23","","","object","j","120","true"
"null","<div style=""font-size:60px;"">+</div>","null","html-keyboard-response","250","297392","0.0-6.0-0.122","MASC","4","f","rechts","23","","fixation","","","",""
"1074","img/30_90.png","74","image-keyboard-response","251","298466","0.0-6.0-1.122","MASC","4","f","rechts","23","","","object","j","30","true"
"null","<div style=""font-size:60px;"">+</div>","null","html-keyboard-response","252","298918","0.0-6.0-0.123","MASC","4","f","rechts","23","","fixation","","","",""
"646","img/0_330.png","70","image-keyboard-response","253","299564","0.0-6.0-1.123","MASC","4","f","rechts","23","","","object","f","0","true"
"null","<div style=""font-size:60px;"">+</div>","null","html-keyboard-response","254","300066","0.0-6.0-0.124","MASC","4","f","rechts","23","","fixation","","","",""
"1164","img/L90_180.png","74","image-keyboard-response","255","301230","0.0-6.0-1.124","MASC","4","f","rechts","23","","","object","j","90","true"
"null","<div style=""font-size:60px;"">+</div>","null","html-keyboard-response","256","301682","0.0-6.0-0.125","MASC","4","f","rechts","23","","fixation","","","",""
"945","img/90_210.png","70","image-keyboard-response","257","302627","0.0-6.0-1.125","MASC","4","f","rechts","23","","","object","f","90","true"
"null","<div style=""font-size:60px;"">+</div>","null","html-keyboard-response","258","303129","0.0-6.0-0.126","MASC","4","f","rechts","23","","fixation","","","",""
"788","img/30_240.png","70","image-keyboard-response","259","303918","0.0-6.0-1.126","MASC","4","f","rechts","23","","","object","f","30","true"
"null","<div style=""font-size:60px;"">+</div>","null","html-keyboard-response","260","304420","0.0-6.0-0.127","MASC","4","f","rechts","23","","fixation","","","",""
"651","img/120_270.png","74","image-keyboard-response","261","305071","0.0-6.0-1.127","MASC","4","f","rechts","23","","","object","j","120","true"
"null","<div style=""font-size:60px;"">+</div>","null","html-keyboard-response","262","305373","0.0-6.0-0.128","MASC","4","f","rechts","23","","fixation","","","",""
"931","img/30_120.png","74","image-keyboard-response","263","306304","0.0-6.0-1.128","MASC","4","f","rechts","23","","","object","j","30","true"
"null","<div style=""font-size:60px;"">+</div>","null","html-keyboard-response","264","306606","0.0-6.0-0.129","MASC","4","f","rechts","23","","fixation","","","",""
"678","img/90_30.png","70","image-keyboard-response","265","307285","0.0-6.0-1.129","MASC","4","f","rechts","23","","","object","f","90","true"
"null","<div style=""font-size:60px;"">+</div>","null","html-keyboard-response","266","307736","0.0-6.0-0.130","MASC","4","f","rechts","23","","fixation","","","",""
"933","img/150_60.png","70","image-keyboard-response","267","308670","0.0-6.0-1.130","MASC","4","f","rechts","23","","","object","f","150","true"
"null","<div style=""font-size:60px;"">+</div>","null","html-keyboard-response","268","309022","0.0-6.0-0.131","MASC","4","f","rechts","23","","fixation","","","",""
"1076","img/150_120.png","70","image-keyboard-response","269","310098","0.0-6.0-1.131","MASC","4","f","rechts","23","","","object","f","150","true"
"null","<div style=""font-size:60px;"">+</div>","null","html-keyboard-response","270","310600","0.0-6.0-0.132","MASC","4","f","rechts","23","","fixation","","","",""
"744","img/60_150.png","74","image-keyboard-response","271","311344","0.0-6.0-1.132","MASC","4","f","rechts","23","","","object","j","60","true"
"null","<div style=""font-size:60px;"">+</div>","null","html-keyboard-response","272","311746","0.0-6.0-0.133","MASC","4","f","rechts","23","","fixation","","","",""
"805","img/150_270.png","74","image-keyboard-response","273","312551","0.0-6.0-1.133","MASC","4","f","rechts","23","","","object","j","150","true"
"null","<div style=""font-size:60px;"">+</div>","null","html-keyboard-response","274","313002","0.0-6.0-0.134","MASC","4","f","rechts","23","","fixation","","","",""
"786","img/120_30.png","70","image-keyboard-response","275","313788","0.0-6.0-1.134","MASC","4","f","rechts","23","","","object","f","120","true"
"null","<div style=""font-size:60px;"">+</div>","null","html-keyboard-response","276","314289","0.0-6.0-0.135","MASC","4","f","rechts","23","","fixation","","","",""
"852","img/120_210.png","74","image-keyboard-response","277","315142","0.0-6.0-1.135","MASC","4","f","rechts","23","","","object","f","120","false"
"null","<div style=""font-size:60px;"">+</div>","null","html-keyboard-response","278","315443","0.0-6.0-0.136","MASC","4","f","rechts","23","","fixation","","","",""
"841","img/30_180.png","70","image-keyboard-response","279","316286","0.0-6.0-1.136","MASC","4","f","rechts","23","","","object","f","30","true"
"null","<div style=""font-size:60px;"">+</div>","null","html-keyboard-response","280","316687","0.0-6.0-0.137","MASC","4","f","rechts","23","","fixation","","","",""
"718","img/0_270.png","70","image-keyboard-response","281","317407","0.0-6.0-1.137","MASC","4","f","rechts","23","","","object","f","0","true"
"null","<div style=""font-size:60px;"">+</div>","null","html-keyboard-response","282","317708","0.0-6.0-0.138","MASC","4","f","rechts","23","","fixation","","","",""
"842","img/120_90.png","70","image-keyboard-response","283","318551","0.0-6.0-1.138","MASC","4","f","rechts","23","","","object","f","120","true"
"null","<div style=""font-size:60px;"">+</div>","null","html-keyboard-response","284","318853","0.0-6.0-0.139","MASC","4","f","rechts","23","","fixation","","","",""
"829","img/0_60.png","74","image-keyboard-response","285","319682","0.0-6.0-1.139","MASC","4","f","rechts","23","","","object","j","0","true"
"null","<div style=""font-size:60px;"">+</div>","null","html-keyboard-response","286","320184","0.0-6.0-0.140","MASC","4","f","rechts","23","","fixation","","","",""
"930","img/L120_180.png","74","image-keyboard-response","287","321116","0.0-6.0-1.140","MASC","4","f","rechts","23","","","object","j","120","true"
"null","<div style=""font-size:60px;"">+</div>","null","html-keyboard-response","288","321567","0.0-6.0-0.141","MASC","4","f","rechts","23","","fixation","","","",""
"874","img/30_60.png","70","image-keyboard-response","289","322443","0.0-6.0-1.141","MASC","4","f","rechts","23","","","object","j","30","false"
"null","<div style=""font-size:60px;"">+</div>","null","html-keyboard-response","290","322844","0.0-6.0-0.142","MASC","4","f","rechts","23","","fixation","","","",""
"1091","img/90_240.png","70","image-keyboard-response","291","323936","0.0-6.0-1.142","MASC","4","f","rechts","23","","","object","f","90","true"
"null","<div style=""font-size:60px;"">+</div>","null","html-keyboard-response","292","324338","0.0-6.0-0.143","MASC","4","f","rechts","23","","fixation","","","",""
"639","img/90_300.png","74","image-keyboard-response","293","324978","0.0-6.0-1.143","MASC","4","f","rechts","23","","","object","j","90","true"
"null","<div style=""font-size:60px;"">+</div>","null","html-keyboard-response","294","325479","0.0-6.0-0.144","MASC","4","f","rechts","23","","fixation","","","",""
"649","img/90_330.png","74","image-keyboard-response","295","326129","0.0-6.0-1.144","MASC","4","f","rechts","23","","","object","j","90","true"
"null","<div style=""font-size:60px;"">+</div>","null","html-keyboard-response","296","326431","0.0-6.0-0.145","MASC","4","f","rechts","23","","fixation","","","",""
"609","img/60_30.png","70","image-keyboard-response","297","327041","0.0-6.0-1.145","MASC","4","f","rechts","23","","","object","f","60","true"
"null","<div style=""font-size:60px;"">+</div>","null","html-keyboard-response","298","327343","0.0-6.0-0.146","MASC","4","f","rechts","23","","fixation","","","",""
"1069","img/60_90.png","70","image-keyboard-response","299","328413","0.0-6.0-1.146","MASC","4","f","rechts","23","","","object","j","60","false"
"null","<div style=""font-size:60px;"">+</div>","null","html-keyboard-response","300","328764","0.0-6.0-0.147","MASC","4","f","rechts","23","","fixation","","","",""
"770","img/L30_180.png","74","image-keyboard-response","301","329535","0.0-6.0-1.147","MASC","4","f","rechts","23","","","object","j","30","true"
"null","<div style=""font-size:60px;"">+</div>","null","html-keyboard-response","302","330037","0.0-6.0-0.148","MASC","4","f","rechts","23","","fixation","","","",""
"686","img/0_240.png","70","image-keyboard-response","303","330724","0.0-6.0-1.148","MASC","4","f","rechts","23","","","object","f","0","true"
"null","<div style=""font-size:60px;"">+</div>","null","html-keyboard-response","304","331226","0.0-6.0-0.149","MASC","4","f","rechts","23","","fixation","","","",""
"936","img/60_270.png","70","image-keyboard-response","305","332162","0.0-6.0-1.149","MASC","4","f","rechts","23","","","object","f","60","true"
"null","<div style=""font-size:60px;"">+</div>","null","html-keyboard-response","306","332564","0.0-6.0-0.150","MASC","4","f","rechts","23","","fixation","","","",""
"688","img/30_270.png","70","image-keyboard-response","307","333254","0.0-6.0-1.150","MASC","4","f","rechts","23","","","object","f","30","true"
"null","<div style=""font-size:60px;"">+</div>","null","html-keyboard-response","308","333655","0.0-6.0-0.151","MASC","4","f","rechts","23","","fixation","","","",""
"1279","img/120_150.png","74","image-keyboard-response","309","334935","0.0-6.0-1.151","MASC","4","f","rechts","23","","","object","j","120","true"
"null","<div style=""font-size:60px;"">+</div>","null","html-keyboard-response","310","335287","0.0-6.0-0.152","MASC","4","f","rechts","23","","fixation","","","",""
"682","img/0_120.png","74","image-keyboard-response","311","335969","0.0-6.0-1.152","MASC","4","f","rechts","23","","","object","j","0","true"
"null","<div style=""font-size:60px;"">+</div>","null","html-keyboard-response","312","336370","0.0-6.0-0.153","MASC","4","f","rechts","23","","fixation","","","",""
"1518","img/60_180.png","70","image-keyboard-response","313","337888","0.0-6.0-1.153","MASC","4","f","rechts","23","","","object","f","60","true"
"null","<div style=""font-size:60px;"">+</div>","null","html-keyboard-response","314","338390","0.0-6.0-0.154","MASC","4","f","rechts","23","","fixation","","","",""
"949","img/90_120.png","70","image-keyboard-response","315","339340","0.0-6.0-1.154","MASC","4","f","rechts","23","","","object","j","90","false"
"null","<div style=""font-size:60px;"">+</div>","null","html-keyboard-response","316","339792","0.0-6.0-0.155","MASC","4","f","rechts","23","","fixation","","","",""
"680","img/0_210.png","70","image-keyboard-response","317","340472","0.0-6.0-1.155","MASC","4","f","rechts","23","","","object","f","0","true"
"null","<div style=""font-size:60px;"">+</div>","null","html-keyboard-response","318","340824","0.0-6.0-0.156","MASC","4","f","rechts","23","","fixation","","","",""
"664","img/0_30.png","74","image-keyboard-response","319","341488","0.0-6.0-1.156","MASC","4","f","rechts","23","","","object","j","0","true"
"null","<div style=""font-size:60px;"">+</div>","null","html-keyboard-response","320","341940","0.0-6.0-0.157","MASC","4","f","rechts","23","","fixation","","","",""
"737","img/30_300.png","70","image-keyboard-response","321","342677","0.0-6.0-1.157","MASC","4","f","rechts","23","","","object","f","30","true"
"null","<div style=""font-size:60px;"">+</div>","null","html-keyboard-response","322","343179","0.0-6.0-0.158","MASC","4","f","rechts","23","","fixation","","","",""
"635","img/90_30.png","70","image-keyboard-response","323","343815","0.0-6.0-1.158","MASC","4","f","rechts","23","","","object","f","90","true"
"null","<div style=""font-size:60px;"">+</div>","null","html-keyboard-response","324","344316","0.0-6.0-0.159","MASC","4","f","rechts","23","","fixation","","","",""
"930","img/150_120.png","70","image-keyboard-response","325","345247","0.0-6.0-1.159","MASC","4","f","rechts","23","","","object","f","150","true"
"null","<div style=""font-size:60px;"">+</div>","null","html-keyboard-response","326","345749","0.0-6.0-0.160","MASC","4","f","rechts","23","","fixation","","","",""
"713","img/150_300.png","74","image-keyboard-response","327","346462","0.0-6.0-1.160","MASC","4","f","rechts","23","","","object","j","150","true"
"null","<div style=""font-size:60px;"">+</div>","null","html-keyboard-response","328","346914","0.0-6.0-0.161","MASC","4","f","rechts","23","","fixation","","","",""
"959","img/120_150.png","70","image-keyboard-response","329","347873","0.0-6.0-1.161","MASC","4","f","rechts","23","","","object","j","120","false"
"null","<div style=""font-size:60px;"">+</div>","null","html-keyboard-response","330","348175","0.0-6.0-0.162","MASC","4","f","rechts","23","","fixation","","","",""
"780","img/90_60.png","70","image-keyboard-response","331","348955","0.0-6.0-1.162","MASC","4","f","rechts","23","","","object","f","90","true"
"null","<div style=""font-size:60px;"">+</div>","null","html-keyboard-response","332","349457","0.0-6.0-0.163","MASC","4","f","rechts","23","","fixation","","","",""
"960","img/60_270.png","70","image-keyboard-response","333","350417","0.0-6.0-1.163","MASC","4","f","rechts","23","","","object","f","60","true"
"null","<div style=""font-size:60px;"">+</div>","null","html-keyboard-response","334","350919","0.0-6.0-0.164","MASC","4","f","rechts","23","","fixation","","","",""
"1063","img/150_180.png","70","image-keyboard-response","335","351982","0.0-6.0-1.164","MASC","4","f","rechts","23","","","object","f","150","true"
"null","<div style=""font-size:60px;"">+</div>","null","html-keyboard-response","336","352384","0.0-6.0-0.165","MASC","4","f","rechts","23","","fixation","","","",""
"935","img/90_150.png","74","image-keyboard-response","337","353319","0.0-6.0-1.165","MASC","4","f","rechts","23","","","object","j","90","true"
"null","<div style=""font-size:60px;"">+</div>","null","html-keyboard-response","338","353671","0.0-6.0-0.166","MASC","4","f","rechts","23","","fixation","","","",""
"1079","img/30_90.png","74","image-keyboard-response","339","354750","0.0-6.0-1.166","MASC","4","f","rechts","23","","","object","j","30","true"
"null","<div style=""font-size:60px;"">+</div>","null","html-keyboard-response","340","355252","0.0-6.0-0.167","MASC","4","f","rechts","23","","fixation","","","",""
"958","img/L90_180.png","74","image-keyboard-response","341","356211","0.0-6.0-1.167","MASC","4","f","rechts","23","","","object","j","90","true"
"null","<div style=""font-size:60px;"">+</div>","null","html-keyboard-response","342","356663","0.0-6.0-0.168","MASC","4","f","rechts","23","","fixation","","","",""
"939","img/30_240.png","70","image-keyboard-response","343","357603","0.0-6.0-1.168","MASC","4","f","rechts","23","","","object","f","30","true"
"null","<div style=""font-size:60px;"">+</div>","null","html-keyboard-response","344","357904","0.0-6.0-0.169","MASC","4","f","rechts","23","","fixation","","","",""
"921","img/150_90.png","70","image-keyboard-response","345","358826","0.0-6.0-1.169","MASC","4","f","rechts","23","","","object","f","150","true"
"null","<div style=""font-size:60px;"">+</div>","null","html-keyboard-response","346","359228","0.0-6.0-0.170","MASC","4","f","rechts","23","","fixation","","","",""
"997","img/L120_180.png","74","image-keyboard-response","347","360226","0.0-6.0-1.170","MASC","4","f","rechts","23","","","object","j","120","true"
"null","<div style=""font-size:60px;"">+</div>","null","html-keyboard-response","348","360677","0.0-6.0-0.171","MASC","4","f","rechts","23","","fixation","","","",""
"721","img/0_120.png","74","image-keyboard-response","349","361399","0.0-6.0-1.171","MASC","4","f","rechts","23","","","object","j","0","true"
"null","<div style=""font-size:60px;"">+</div>","null","html-keyboard-response","350","361900","0.0-6.0-0.172","MASC","4","f","rechts","23","","fixation","","","",""
"666","img/60_150.png","74","image-keyboard-response","351","362567","0.0-6.0-1.172","MASC","4","f","rechts","23","","","object","j","60","true"
"null","<div style=""font-size:60px;"">+</div>","null","html-keyboard-response","352","363069","0.0-6.0-0.173","MASC","4","f","rechts","23","","fixation","","","",""
"857","img/120_270.png","74","image-keyboard-response","353","363927","0.0-6.0-1.173","MASC","4","f","rechts","23","","","object","j","120","true"
"null","<div style=""font-size:60px;"">+</div>","null","html-keyboard-response","354","364428","0.0-6.0-0.174","MASC","4","f","rechts","23","","fixation","","","",""
"903","img/90_240.png","74","image-keyboard-response","355","365333","0.0-6.0-1.174","MASC","4","f","rechts","23","","","object","f","90","false"
"null","<div style=""font-size:60px;"">+</div>","null","html-keyboard-response","356","365734","0.0-6.0-0.175","MASC","4","f","rechts","23","","fixation","","","",""
"1150","img/60_180.png","70","image-keyboard-response","357","366886","0.0-6.0-1.175","MASC","4","f","rechts","23","","","object","f","60","true"
"null","<div style=""font-size:60px;"">+</div>","null","html-keyboard-response","358","367337","0.0-6.0-0.176","MASC","4","f","rechts","23","","fixation","","","",""
"857","img/150_240.png","74","image-keyboard-response","359","368195","0.0-6.0-1.176","MASC","4","f","rechts","23","","","object","j","150","true"
"null","<div style=""font-size:60px;"">+</div>","null","html-keyboard-response","360","368647","0.0-6.0-0.177","MASC","4","f","rechts","23","","fixation","","","",""
"1091","img/60_90.png","70","image-keyboard-response","361","369739","0.0-6.0-1.177","MASC","4","f","rechts","23","","","object","j","60","false"
"null","<div style=""font-size:60px;"">+</div>","null","html-keyboard-response","362","370040","0.0-6.0-0.178","MASC","4","f","rechts","23","","fixation","","","",""
"708","img/60_30.png","70","image-keyboard-response","363","370750","0.0-6.0-1.178","MASC","4","f","rechts","23","","","object","f","60","true"
"null","<div style=""font-size:60px;"">+</div>","null","html-keyboard-response","364","371151","0.0-6.0-0.179","MASC","4","f","rechts","23","","fixation","","","",""
"614","img/90_330.png","74","image-keyboard-response","365","371766","0.0-6.0-1.179","MASC","4","f","rechts","23","","","object","j","90","true"
"null","<div style=""font-size:60px;"">+</div>","null","html-keyboard-response","366","372117","0.0-6.0-0.180","MASC","4","f","rechts","23","","fixation","","","",""
"687","img/0_60.png","74","image-keyboard-response","367","372806","0.0-6.0-1.180","MASC","4","f","rechts","23","","","object","j","0","true"
"null","<div style=""font-size:60px;"">+</div>","null","html-keyboard-response","368","373207","0.0-6.0-0.181","MASC","4","f","rechts","23","","fixation","","","",""
"655","img/90_300.png","74","image-keyboard-response","369","373864","0.0-6.0-1.181","MASC","4","f","rechts","23","","","object","j","90","true"
"null","<div style=""font-size:60px;"">+</div>","null","html-keyboard-response","370","374365","0.0-6.0-0.182","MASC","4","f","rechts","23","","fixation","","","",""
"962","img/120_180.png","70","image-keyboard-response","371","375328","0.0-6.0-1.182","MASC","4","f","rechts","23","","","object","f","120","true"
"null","<div style=""font-size:60px;"">+</div>","null","html-keyboard-response","372","375730","0.0-6.0-0.183","MASC","4","f","rechts","23","","fixation","","","",""
"1193","img/150_270.png","70","image-keyboard-response","373","376924","0.0-6.0-1.183","MASC","4","f","rechts","23","","","object","j","150","false"
"null","<div style=""font-size:60px;"">+</div>","null","html-keyboard-response","374","377226","0.0-6.0-0.184","MASC","4","f","rechts","23","","fixation","","","",""
"817","img/30_270.png","70","image-keyboard-response","375","378044","0.0-6.0-1.184","MASC","4","f","rechts","23","","","object","f","30","true"
"null","<div style=""font-size:60px;"">+</div>","null","html-keyboard-response","376","378346","0.0-6.0-0.185","MASC","4","f","rechts","23","","fixation","","","",""
"637","img/0_270.png","70","image-keyboard-response","377","378983","0.0-6.0-1.185","MASC","4","f","rechts","23","","","object","f","0","true"
"null","<div style=""font-size:60px;"">+</div>","null","html-keyboard-response","378","379335","0.0-6.0-0.186","MASC","4","f","rechts","23","","fixation","","","",""
"1123","img/L60_180.png","74","image-keyboard-response","379","380459","0.0-6.0-1.186","MASC","4","f","rechts","23","","","object","j","60","true"
"null","<div style=""font-size:60px;"">+</div>","null","html-keyboard-response","380","380910","0.0-6.0-0.187","MASC","4","f","rechts","23","","fixation","","","",""
"728","img/0_210.png","70","image-keyboard-response","381","381639","0.0-6.0-1.187","MASC","4","f","rechts","23","","","object","f","0","true"
"null","<div style=""font-size:60px;"">+</div>","null","html-keyboard-response","382","382041","0.0-6.0-0.188","MASC","4","f","rechts","23","","fixation","","","",""
"653","img/120_330.png","74","image-keyboard-response","383","382695","0.0-6.0-1.188","MASC","4","f","rechts","23","","","object","j","120","true"
"null","<div style=""font-size:60px;"">+</div>","null","html-keyboard-response","384","383097","0.0-6.0-0.189","MASC","4","f","rechts","23","","fixation","","","",""
"720","img/30_180.png","70","image-keyboard-response","385","383818","0.0-6.0-1.189","MASC","4","f","rechts","23","","","object","f","30","true"
"null","<div style=""font-size:60px;"">+</div>","null","html-keyboard-response","386","384220","0.0-6.0-0.190","MASC","4","f","rechts","23","","fixation","","","",""
"709","img/60_330.png","74","image-keyboard-response","387","384930","0.0-6.0-1.190","MASC","4","f","rechts","23","","","object","j","60","true"
"null","<div style=""font-size:60px;"">+</div>","null","html-keyboard-response","388","385232","0.0-6.0-0.191","MASC","4","f","rechts","23","","fixation","","","",""
"713","img/120_90.png","70","image-keyboard-response","389","385946","0.0-6.0-1.191","MASC","4","f","rechts","23","","","object","f","120","true"
"null","<div style=""font-size:60px;"">+</div>","null","html-keyboard-response","390","386247","0.0-6.0-0.192","MASC","4","f","rechts","23","","fixation","","","",""
"1546","img/90_180.png","74","image-keyboard-response","391","387794","0.0-6.0-1.192","MASC","4","f","rechts","23","","","object","f","90","false"
"null","<div style=""font-size:60px;"">+</div>","null","html-keyboard-response","392","388246","0.0-6.0-0.193","MASC","4","f","rechts","23","","fixation","","","",""
"1387","img/L30_180.png","74","image-keyboard-response","393","389633","0.0-6.0-1.193","MASC","4","f","rechts","23","","","object","j","30","true"
"null","<div style=""font-size:60px;"">+</div>","null","html-keyboard-response","394","389934","0.0-6.0-0.194","MASC","4","f","rechts","23","","fixation","","","",""
"2100","img/120_210.png","70","image-keyboard-response","395","392034","0.0-6.0-1.194","MASC","4","f","rechts","23","","","object","f","120","true"
"null","<div style=""font-size:60px;"">+</div>","null","html-keyboard-response","396","392485","0.0-6.0-0.195","MASC","4","f","rechts","23","","fixation","","","",""
"723","img/120_30.png","70","image-keyboard-response","397","393209","0.0-6.0-1.195","MASC","4","f","rechts","23","","","object","f","120","true"
"null","<div style=""font-size:60px;"">+</div>","null","html-keyboard-response","398","393660","0.0-6.0-0.196","MASC","4","f","rechts","23","","fixation","","","",""
"707","img/0_90.png","74","image-keyboard-response","399","394368","0.0-6.0-1.196","MASC","4","f","rechts","23","","","object","j","0","true"
"null","<div style=""font-size:60px;"">+</div>","null","html-keyboard-response","400","394820","0.0-6.0-0.197","MASC","4","f","rechts","23","","fixation","","","",""
"638","img/0_300.png","70","image-keyboard-response","401","395459","0.0-6.0-1.197","MASC","4","f","rechts","23","","","object","f","0","true"
"null","<div style=""font-size:60px;"">+</div>","null","html-keyboard-response","402","395911","0.0-6.0-0.198","MASC","4","f","rechts","23","","fixation","","","",""
"656","img/0_150.png","74","image-keyboard-response","403","396567","0.0-6.0-1.198","MASC","4","f","rechts","23","","","object","j","0","true"
"null","<div style=""font-size:60px;"">+</div>","null","html-keyboard-response","404","397069","0.0-6.0-0.199","MASC","4","f","rechts","23","","fixation","","","",""
"723","img/30_120.png","74","image-keyboard-response","405","397792","0.0-6.0-1.199","MASC","4","f","rechts","23","","","object","j","30","true"
"null","<div style=""font-size:60px;"">+</div>","null","html-keyboard-response","406","398144","0.0-6.0-0.200","MASC","4","f","rechts","23","","fixation","","","",""
"629","img/150_60.png","70","image-keyboard-response","407","398774","0.0-6.0-1.200","MASC","4","f","rechts","23","","","object","f","150","true"
"null","<div style=""font-size:60px;"">+</div>","null","html-keyboard-response","408","399275","0.0-6.0-0.201","MASC","4","f","rechts","23","","fixation","","","",""
"869","img/L150_180.png","74","image-keyboard-response","409","400144","0.0-6.0-1.201","MASC","4","f","rechts","23","","","object","j","150","true"
"null","<div style=""font-size:60px;"">+</div>","null","html-keyboard-response","410","400446","0.0-6.0-0.202","MASC","4","f","rechts","23","","fixation","","","",""
"931","img/90_120.png","74","image-keyboard-response","411","401377","0.0-6.0-1.202","MASC","4","f","rechts","23","","","object","j","90","true"
"null","<div style=""font-size:60px;"">+</div>","null","html-keyboard-response","412","401879","0.0-6.0-0.203","MASC","4","f","rechts","23","","fixation","","","",""
"687","img/30_60.png","70","image-keyboard-response","413","402566","0.0-6.0-1.203","MASC","4","f","rechts","23","","","object","j","30","false"
"null","<div style=""font-size:60px;"">+</div>","null","html-keyboard-response","414","402917","0.0-6.0-0.204","MASC","4","f","rechts","23","","fixation","","","",""
"1749","img/90_210.png","70","image-keyboard-response","415","404667","0.0-6.0-1.204","MASC","4","f","rechts","23","","","object","f","90","true"
"null","<div style=""font-size:60px;"">+</div>","null","html-keyboard-response","416","405169","0.0-6.0-0.205","MASC","4","f","rechts","23","","fixation","","","",""
"611","img/60_210.png","70","image-keyboard-response","417","405780","0.0-6.0-1.205","MASC","4","f","rechts","23","","","object","f","60","true"
"null","<div style=""font-size:60px;"">+</div>","null","html-keyboard-response","418","406081","0.0-6.0-0.206","MASC","4","f","rechts","23","","fixation","","","",""
"678","img/0_240.png","70","image-keyboard-response","419","406760","0.0-6.0-1.206","MASC","4","f","rechts","23","","","object","f","0","true"
"null","<div style=""font-size:60px;"">+</div>","null","html-keyboard-response","420","407211","0.0-6.0-0.207","MASC","4","f","rechts","23","","fixation","","","",""
"498","img/0_330.png","70","image-keyboard-response","421","407709","0.0-6.0-1.207","MASC","4","f","rechts","23","","","object","f","0","true"
"4778","<p>Du hast in 88% der Versuche korrekt entschieden.</p><p>Deine durchschnittliche Reaktionszeit war  850ms.</p><p>Dr&uuml;cke eine beliebige Taste, um die Session zu beenden. Vielen Dank!</p>","74","html-keyboard-response","422","412488","0.0-7.0","MASC","4","f","rechts","23","","","","","",""
