"rt","stimulus","key_press","trial_type","trial_index","time_elapsed","internal_node_id","subject","session","sex","handedness","age","responses","test_part","condition","correct_response","angle","correct"
"1423","<p>Mental Rotation Experiment.</p> <p>Dr&uuml;cke eine beliebige Taste, um anzufangen.</p>","72","html-keyboard-response","0","1426","0.0-0.0","MASC","3","f","rechts","23","","","","","",""
"3165","","","survey-text","1","4593","0.0-1.0","MASC","3","f","rechts","23","{""Q0"":""MASC""}","","","","",""
"1777","","","survey-text","2","6370","0.0-2.0","MASC","3","f","rechts","23","{""Q0"":""3""}","","","","",""
"3297","","","survey-multi-choice","3","9669","0.0-3.0","MASC","3","f","rechts","23","{""Q0"":""f"",""Q1"":""rechts""}","","","","",""
"28020","","","survey-text","4","37690","0.0-4.0","MASC","3","f","rechts","23","{""Q0"":""23""}","","","","",""
"70400","<p>Stell dir vor, dass du vor einem runden Tisch stehst, auf dem sich ein blauer Ball am Tischrand befindet. Entlang des Tischrands ist jeweils ein verschieden langer Pfeil. Nun bleibst du an deinem Platz vor dem Tisch und rotierst den Tisch entlang des Pfeils (gleiche Richtung und Länge). </p> <img src='img/30_180.png'></img> <br><p> Nachdem du diese (vorgestellte) Rotation durchgef&uuml;hrt hast, schau in Richtung der Tischmitte, und entscheide dann, ob der Ball links oder rechts von dir liegt.</p> <p>Dr&uuml;cke die <strong>'f'</strong>-Taste f&uuml;r links, die <strong>'j'</strong>-Taste f&uuml;r rechts.</p><br><p> Das Bild wird jeweils 1 Sekunde lang pr&auml;sentiert. Du hast 3 Sekunden Zeit eine Entscheidung zu treffen.</p>","74","html-keyboard-response","5","108093","0.0-5.0","MASC","3","f","rechts","23","","","","","",""
"null","<div style=""font-size:60px;"">+</div>","null","html-keyboard-response","6","109397","0.0-6.0-0.0","MASC","3","f","rechts","23","","fixation","","","",""
"904","img/0_150.png","74","image-keyboard-response","7","110302","0.0-6.0-1.0","MASC","3","f","rechts","23","","","object","j","0","true"
"null","<div style=""font-size:60px;"">+</div>","null","html-keyboard-response","8","110754","0.0-6.0-0.1","MASC","3","f","rechts","23","","fixation","","","",""
"935","img/30_60.png","70","image-keyboard-response","9","111691","0.0-6.0-1.1","MASC","3","f","rechts","23","","","object","j","30","false"
"null","<div style=""font-size:60px;"">+</div>","null","html-keyboard-response","10","112193","0.0-6.0-0.2","MASC","3","f","rechts","23","","fixation","","","",""
"1069","img/120_210.png","70","image-keyboard-response","11","113263","0.0-6.0-1.2","MASC","3","f","rechts","23","","","object","f","120","true"
"null","<div style=""font-size:60px;"">+</div>","null","html-keyboard-response","12","113715","0.0-6.0-0.3","MASC","3","f","rechts","23","","fixation","","","",""
"1099","img/90_180.png","70","image-keyboard-response","13","114815","0.0-6.0-1.3","MASC","3","f","rechts","23","","","object","f","90","true"
"null","<div style=""font-size:60px;"">+</div>","null","html-keyboard-response","14","115167","0.0-6.0-0.4","MASC","3","f","rechts","23","","fixation","","","",""
"881","img/150_180.png","70","image-keyboard-response","15","116050","0.0-6.0-1.4","MASC","3","f","rechts","23","","","object","f","150","true"
"null","<div style=""font-size:60px;"">+</div>","null","html-keyboard-response","16","116501","0.0-6.0-0.5","MASC","3","f","rechts","23","","fixation","","","",""
"861","img/60_270.png","70","image-keyboard-response","17","117364","0.0-6.0-1.5","MASC","3","f","rechts","23","","","object","f","60","true"
"null","<div style=""font-size:60px;"">+</div>","null","html-keyboard-response","18","117665","0.0-6.0-0.6","MASC","3","f","rechts","23","","fixation","","","",""
"831","img/30_300.png","70","image-keyboard-response","19","118498","0.0-6.0-1.6","MASC","3","f","rechts","23","","","object","f","30","true"
"null","<div style=""font-size:60px;"">+</div>","null","html-keyboard-response","20","118899","0.0-6.0-0.7","MASC","3","f","rechts","23","","fixation","","","",""
"1207","img/90_150.png","74","image-keyboard-response","21","120107","0.0-6.0-1.7","MASC","3","f","rechts","23","","","object","j","90","true"
"null","<div style=""font-size:60px;"">+</div>","null","html-keyboard-response","22","120609","0.0-6.0-0.8","MASC","3","f","rechts","23","","fixation","","","",""
"743","img/60_330.png","74","image-keyboard-response","23","121353","0.0-6.0-1.8","MASC","3","f","rechts","23","","","object","j","60","true"
"null","<div style=""font-size:60px;"">+</div>","null","html-keyboard-response","24","121755","0.0-6.0-0.9","MASC","3","f","rechts","23","","fixation","","","",""
"687","img/60_30.png","70","image-keyboard-response","25","122443","0.0-6.0-1.9","MASC","3","f","rechts","23","","","object","f","60","true"
"null","<div style=""font-size:60px;"">+</div>","null","html-keyboard-response","26","122945","0.0-6.0-0.10","MASC","3","f","rechts","23","","fixation","","","",""
"670","img/90_60.png","70","image-keyboard-response","27","123616","0.0-6.0-1.10","MASC","3","f","rechts","23","","","object","f","90","true"
"null","<div style=""font-size:60px;"">+</div>","null","html-keyboard-response","28","123917","0.0-6.0-0.11","MASC","3","f","rechts","23","","fixation","","","",""
"770","img/0_210.png","70","image-keyboard-response","29","124688","0.0-6.0-1.11","MASC","3","f","rechts","23","","","object","f","0","true"
"null","<div style=""font-size:60px;"">+</div>","null","html-keyboard-response","30","125040","0.0-6.0-0.12","MASC","3","f","rechts","23","","fixation","","","",""
"932","img/90_240.png","70","image-keyboard-response","31","125972","0.0-6.0-1.12","MASC","3","f","rechts","23","","","object","f","90","true"
"null","<div style=""font-size:60px;"">+</div>","null","html-keyboard-response","32","126274","0.0-6.0-0.13","MASC","3","f","rechts","23","","fixation","","","",""
"839","img/150_90.png","70","image-keyboard-response","33","127114","0.0-6.0-1.13","MASC","3","f","rechts","23","","","object","f","150","true"
"null","<div style=""font-size:60px;"">+</div>","null","html-keyboard-response","34","127466","0.0-6.0-0.14","MASC","3","f","rechts","23","","fixation","","","",""
"1165","img/L150_180.png","70","image-keyboard-response","35","128632","0.0-6.0-1.14","MASC","3","f","rechts","23","","","object","j","150","false"
"null","<div style=""font-size:60px;"">+</div>","null","html-keyboard-response","36","129134","0.0-6.0-0.15","MASC","3","f","rechts","23","","fixation","","","",""
"696","img/90_30.png","70","image-keyboard-response","37","129831","0.0-6.0-1.15","MASC","3","f","rechts","23","","","object","f","90","true"
"null","<div style=""font-size:60px;"">+</div>","null","html-keyboard-response","38","130133","0.0-6.0-0.16","MASC","3","f","rechts","23","","fixation","","","",""
"694","img/90_300.png","74","image-keyboard-response","39","130828","0.0-6.0-1.16","MASC","3","f","rechts","23","","","object","j","90","true"
"null","<div style=""font-size:60px;"">+</div>","null","html-keyboard-response","40","131130","0.0-6.0-0.17","MASC","3","f","rechts","23","","fixation","","","",""
"758","img/0_60.png","74","image-keyboard-response","41","131889","0.0-6.0-1.17","MASC","3","f","rechts","23","","","object","j","0","true"
"null","<div style=""font-size:60px;"">+</div>","null","html-keyboard-response","42","132391","0.0-6.0-0.18","MASC","3","f","rechts","23","","fixation","","","",""
"905","img/120_270.png","74","image-keyboard-response","43","133297","0.0-6.0-1.18","MASC","3","f","rechts","23","","","object","j","120","true"
"null","<div style=""font-size:60px;"">+</div>","null","html-keyboard-response","44","133699","0.0-6.0-0.19","MASC","3","f","rechts","23","","fixation","","","",""
"1065","img/L90_180.png","74","image-keyboard-response","45","134765","0.0-6.0-1.19","MASC","3","f","rechts","23","","","object","j","90","true"
"null","<div style=""font-size:60px;"">+</div>","null","html-keyboard-response","46","135167","0.0-6.0-0.20","MASC","3","f","rechts","23","","fixation","","","",""
"1048","img/90_120.png","70","image-keyboard-response","47","136216","0.0-6.0-1.20","MASC","3","f","rechts","23","","","object","j","90","false"
"null","<div style=""font-size:60px;"">+</div>","null","html-keyboard-response","48","136568","0.0-6.0-0.21","MASC","3","f","rechts","23","","fixation","","","",""
"977","img/30_240.png","70","image-keyboard-response","49","137546","0.0-6.0-1.21","MASC","3","f","rechts","23","","","object","f","30","true"
"null","<div style=""font-size:60px;"">+</div>","null","html-keyboard-response","50","137898","0.0-6.0-0.22","MASC","3","f","rechts","23","","fixation","","","",""
"739","img/0_270.png","70","image-keyboard-response","51","138638","0.0-6.0-1.22","MASC","3","f","rechts","23","","","object","f","0","true"
"null","<div style=""font-size:60px;"">+</div>","null","html-keyboard-response","52","139090","0.0-6.0-0.23","MASC","3","f","rechts","23","","fixation","","","",""
"968","img/120_180.png","70","image-keyboard-response","53","140059","0.0-6.0-1.23","MASC","3","f","rechts","23","","","object","f","120","true"
"null","<div style=""font-size:60px;"">+</div>","null","html-keyboard-response","54","140461","0.0-6.0-0.24","MASC","3","f","rechts","23","","fixation","","","",""
"812","img/60_180.png","70","image-keyboard-response","55","141274","0.0-6.0-1.24","MASC","3","f","rechts","23","","","object","f","60","true"
"null","<div style=""font-size:60px;"">+</div>","null","html-keyboard-response","56","141725","0.0-6.0-0.25","MASC","3","f","rechts","23","","fixation","","","",""
"940","img/150_300.png","74","image-keyboard-response","57","142666","0.0-6.0-1.25","MASC","3","f","rechts","23","","","object","j","150","true"
"null","<div style=""font-size:60px;"">+</div>","null","html-keyboard-response","58","143118","0.0-6.0-0.26","MASC","3","f","rechts","23","","fixation","","","",""
"954","img/150_120.png","70","image-keyboard-response","59","144073","0.0-6.0-1.26","MASC","3","f","rechts","23","","","object","f","150","true"
"null","<div style=""font-size:60px;"">+</div>","null","html-keyboard-response","60","144474","0.0-6.0-0.27","MASC","3","f","rechts","23","","fixation","","","",""
"983","img/0_120.png","74","image-keyboard-response","61","145458","0.0-6.0-1.27","MASC","3","f","rechts","23","","","object","j","0","true"
"null","<div style=""font-size:60px;"">+</div>","null","html-keyboard-response","62","145760","0.0-6.0-0.28","MASC","3","f","rechts","23","","fixation","","","",""
"772","img/0_30.png","74","image-keyboard-response","63","146532","0.0-6.0-1.28","MASC","3","f","rechts","23","","","object","j","0","true"
"null","<div style=""font-size:60px;"">+</div>","null","html-keyboard-response","64","146934","0.0-6.0-0.29","MASC","3","f","rechts","23","","fixation","","","",""
"689","img/120_90.png","70","image-keyboard-response","65","147623","0.0-6.0-1.29","MASC","3","f","rechts","23","","","object","f","120","true"
"null","<div style=""font-size:60px;"">+</div>","null","html-keyboard-response","66","148075","0.0-6.0-0.30","MASC","3","f","rechts","23","","fixation","","","",""
"651","img/120_330.png","74","image-keyboard-response","67","148727","0.0-6.0-1.30","MASC","3","f","rechts","23","","","object","j","120","true"
"null","<div style=""font-size:60px;"">+</div>","null","html-keyboard-response","68","149129","0.0-6.0-0.31","MASC","3","f","rechts","23","","fixation","","","",""
"896","img/90_210.png","70","image-keyboard-response","69","150026","0.0-6.0-1.31","MASC","3","f","rechts","23","","","object","f","90","true"
"null","<div style=""font-size:60px;"">+</div>","null","html-keyboard-response","70","150377","0.0-6.0-0.32","MASC","3","f","rechts","23","","fixation","","","",""
"962","img/60_90.png","70","image-keyboard-response","71","151340","0.0-6.0-1.32","MASC","3","f","rechts","23","","","object","j","60","false"
"null","<div style=""font-size:60px;"">+</div>","null","html-keyboard-response","72","151692","0.0-6.0-0.33","MASC","3","f","rechts","23","","fixation","","","",""
"794","img/0_300.png","70","image-keyboard-response","73","152487","0.0-6.0-1.33","MASC","3","f","rechts","23","","","object","f","0","true"
"null","<div style=""font-size:60px;"">+</div>","null","html-keyboard-response","74","152938","0.0-6.0-0.34","MASC","3","f","rechts","23","","fixation","","","",""
"693","img/150_270.png","74","image-keyboard-response","75","153632","0.0-6.0-1.34","MASC","3","f","rechts","23","","","object","j","150","true"
"null","<div style=""font-size:60px;"">+</div>","null","html-keyboard-response","76","154033","0.0-6.0-0.35","MASC","3","f","rechts","23","","fixation","","","",""
"995","img/60_150.png","74","image-keyboard-response","77","155030","0.0-6.0-1.35","MASC","3","f","rechts","23","","","object","j","60","true"
"null","<div style=""font-size:60px;"">+</div>","null","html-keyboard-response","78","155331","0.0-6.0-0.36","MASC","3","f","rechts","23","","fixation","","","",""
"691","img/120_30.png","70","image-keyboard-response","79","156024","0.0-6.0-1.36","MASC","3","f","rechts","23","","","object","f","120","true"
"null","<div style=""font-size:60px;"">+</div>","null","html-keyboard-response","80","156375","0.0-6.0-0.37","MASC","3","f","rechts","23","","fixation","","","",""
"800","img/150_60.png","70","image-keyboard-response","81","157177","0.0-6.0-1.37","MASC","3","f","rechts","23","","","object","f","150","true"
"null","<div style=""font-size:60px;"">+</div>","null","html-keyboard-response","82","157478","0.0-6.0-0.38","MASC","3","f","rechts","23","","fixation","","","",""
"940","img/150_240.png","74","image-keyboard-response","83","158419","0.0-6.0-1.38","MASC","3","f","rechts","23","","","object","j","150","true"
"null","<div style=""font-size:60px;"">+</div>","null","html-keyboard-response","84","158820","0.0-6.0-0.39","MASC","3","f","rechts","23","","fixation","","","",""
"1208","img/L60_180.png","74","image-keyboard-response","85","160030","0.0-6.0-1.39","MASC","3","f","rechts","23","","","object","j","60","true"
"null","<div style=""font-size:60px;"">+</div>","null","html-keyboard-response","86","160431","0.0-6.0-0.40","MASC","3","f","rechts","23","","fixation","","","",""
"724","img/0_90.png","74","image-keyboard-response","87","161157","0.0-6.0-1.40","MASC","3","f","rechts","23","","","object","j","0","true"
"null","<div style=""font-size:60px;"">+</div>","null","html-keyboard-response","88","161658","0.0-6.0-0.41","MASC","3","f","rechts","23","","fixation","","","",""
"1005","img/L120_180.png","74","image-keyboard-response","89","162664","0.0-6.0-1.41","MASC","3","f","rechts","23","","","object","j","120","true"
"null","<div style=""font-size:60px;"">+</div>","null","html-keyboard-response","90","162966","0.0-6.0-0.42","MASC","3","f","rechts","23","","fixation","","","",""
"1891","img/30_180.png","70","image-keyboard-response","91","164859","0.0-6.0-1.42","MASC","3","f","rechts","23","","","object","f","30","true"
"null","<div style=""font-size:60px;"">+</div>","null","html-keyboard-response","92","165310","0.0-6.0-0.43","MASC","3","f","rechts","23","","fixation","","","",""
"953","img/30_90.png","74","image-keyboard-response","93","166265","0.0-6.0-1.43","MASC","3","f","rechts","23","","","object","j","30","true"
"null","<div style=""font-size:60px;"">+</div>","null","html-keyboard-response","94","166716","0.0-6.0-0.44","MASC","3","f","rechts","23","","fixation","","","",""
"844","img/30_120.png","74","image-keyboard-response","95","167561","0.0-6.0-1.44","MASC","3","f","rechts","23","","","object","j","30","true"
"null","<div style=""font-size:60px;"">+</div>","null","html-keyboard-response","96","167963","0.0-6.0-0.45","MASC","3","f","rechts","23","","fixation","","","",""
"828","img/0_240.png","70","image-keyboard-response","97","168793","0.0-6.0-1.45","MASC","3","f","rechts","23","","","object","f","0","true"
"null","<div style=""font-size:60px;"">+</div>","null","html-keyboard-response","98","169144","0.0-6.0-0.46","MASC","3","f","rechts","23","","fixation","","","",""
"1000","img/60_210.png","70","image-keyboard-response","99","170146","0.0-6.0-1.46","MASC","3","f","rechts","23","","","object","f","60","true"
"null","<div style=""font-size:60px;"">+</div>","null","html-keyboard-response","100","170647","0.0-6.0-0.47","MASC","3","f","rechts","23","","fixation","","","",""
"1125","img/L30_180.png","74","image-keyboard-response","101","171773","0.0-6.0-1.47","MASC","3","f","rechts","23","","","object","j","30","true"
"null","<div style=""font-size:60px;"">+</div>","null","html-keyboard-response","102","172125","0.0-6.0-0.48","MASC","3","f","rechts","23","","fixation","","","",""
"761","img/90_330.png","74","image-keyboard-response","103","172887","0.0-6.0-1.48","MASC","3","f","rechts","23","","","object","j","90","true"
"null","<div style=""font-size:60px;"">+</div>","null","html-keyboard-response","104","173239","0.0-6.0-0.49","MASC","3","f","rechts","23","","fixation","","","",""
"808","img/0_330.png","70","image-keyboard-response","105","174048","0.0-6.0-1.49","MASC","3","f","rechts","23","","","object","f","0","true"
"null","<div style=""font-size:60px;"">+</div>","null","html-keyboard-response","106","174400","0.0-6.0-0.50","MASC","3","f","rechts","23","","fixation","","","",""
"938","img/120_150.png","70","image-keyboard-response","107","175340","0.0-6.0-1.50","MASC","3","f","rechts","23","","","object","j","120","false"
"null","<div style=""font-size:60px;"">+</div>","null","html-keyboard-response","108","175741","0.0-6.0-0.51","MASC","3","f","rechts","23","","fixation","","","",""
"894","img/30_270.png","70","image-keyboard-response","109","176635","0.0-6.0-1.51","MASC","3","f","rechts","23","","","object","f","30","true"
"null","<div style=""font-size:60px;"">+</div>","null","html-keyboard-response","110","177137","0.0-6.0-0.52","MASC","3","f","rechts","23","","fixation","","","",""
"1068","img/150_120.png","70","image-keyboard-response","111","178206","0.0-6.0-1.52","MASC","3","f","rechts","23","","","object","f","150","true"
"null","<div style=""font-size:60px;"">+</div>","null","html-keyboard-response","112","178607","0.0-6.0-0.53","MASC","3","f","rechts","23","","fixation","","","",""
"1167","img/L150_180.png","74","image-keyboard-response","113","179775","0.0-6.0-1.53","MASC","3","f","rechts","23","","","object","j","150","true"
"null","<div style=""font-size:60px;"">+</div>","null","html-keyboard-response","114","180127","0.0-6.0-0.54","MASC","3","f","rechts","23","","fixation","","","",""
"900","img/150_300.png","74","image-keyboard-response","115","181027","0.0-6.0-1.54","MASC","3","f","rechts","23","","","object","j","150","true"
"null","<div style=""font-size:60px;"">+</div>","null","html-keyboard-response","116","181379","0.0-6.0-0.55","MASC","3","f","rechts","23","","fixation","","","",""
"1066","img/60_270.png","70","image-keyboard-response","117","182446","0.0-6.0-1.55","MASC","3","f","rechts","23","","","object","f","60","true"
"null","<div style=""font-size:60px;"">+</div>","null","html-keyboard-response","118","182898","0.0-6.0-0.56","MASC","3","f","rechts","23","","fixation","","","",""
"1064","img/30_60.png","70","image-keyboard-response","119","183963","0.0-6.0-1.56","MASC","3","f","rechts","23","","","object","j","30","false"
"null","<div style=""font-size:60px;"">+</div>","null","html-keyboard-response","120","184414","0.0-6.0-0.57","MASC","3","f","rechts","23","","fixation","","","",""
"651","img/120_330.png","74","image-keyboard-response","121","185066","0.0-6.0-1.57","MASC","3","f","rechts","23","","","object","j","120","true"
"null","<div style=""font-size:60px;"">+</div>","null","html-keyboard-response","122","185417","0.0-6.0-0.58","MASC","3","f","rechts","23","","fixation","","","",""
"994","img/90_210.png","70","image-keyboard-response","123","186412","0.0-6.0-1.58","MASC","3","f","rechts","23","","","object","f","90","true"
"null","<div style=""font-size:60px;"">+</div>","null","html-keyboard-response","124","186714","0.0-6.0-0.59","MASC","3","f","rechts","23","","fixation","","","",""
"747","img/0_270.png","70","image-keyboard-response","125","187461","0.0-6.0-1.59","MASC","3","f","rechts","23","","","object","f","0","true"
"null","<div style=""font-size:60px;"">+</div>","null","html-keyboard-response","126","187813","0.0-6.0-0.60","MASC","3","f","rechts","23","","fixation","","","",""
"1077","img/L60_180.png","74","image-keyboard-response","127","188890","0.0-6.0-1.60","MASC","3","f","rechts","23","","","object","j","60","true"
"null","<div style=""font-size:60px;"">+</div>","null","html-keyboard-response","128","189191","0.0-6.0-0.61","MASC","3","f","rechts","23","","fixation","","","",""
"775","img/60_330.png","74","image-keyboard-response","129","189967","0.0-6.0-1.61","MASC","3","f","rechts","23","","","object","j","60","true"
"null","<div style=""font-size:60px;"">+</div>","null","html-keyboard-response","130","190419","0.0-6.0-0.62","MASC","3","f","rechts","23","","fixation","","","",""
"777","img/0_120.png","74","image-keyboard-response","131","191196","0.0-6.0-1.62","MASC","3","f","rechts","23","","","object","j","0","true"
"null","<div style=""font-size:60px;"">+</div>","null","html-keyboard-response","132","191548","0.0-6.0-0.63","MASC","3","f","rechts","23","","fixation","","","",""
"859","img/60_90.png","70","image-keyboard-response","133","192407","0.0-6.0-1.63","MASC","3","f","rechts","23","","","object","j","60","false"
"null","<div style=""font-size:60px;"">+</div>","null","html-keyboard-response","134","192859","0.0-6.0-0.64","MASC","3","f","rechts","23","","fixation","","","",""
"895","img/150_240.png","74","image-keyboard-response","135","193755","0.0-6.0-1.64","MASC","3","f","rechts","23","","","object","j","150","true"
"null","<div style=""font-size:60px;"">+</div>","null","html-keyboard-response","136","194257","0.0-6.0-0.65","MASC","3","f","rechts","23","","fixation","","","",""
"891","img/90_180.png","70","image-keyboard-response","137","195151","0.0-6.0-1.65","MASC","3","f","rechts","23","","","object","f","90","true"
"null","<div style=""font-size:60px;"">+</div>","null","html-keyboard-response","138","195552","0.0-6.0-0.66","MASC","3","f","rechts","23","","fixation","","","",""
"917","img/30_270.png","70","image-keyboard-response","139","196470","0.0-6.0-1.66","MASC","3","f","rechts","23","","","object","f","30","true"
"null","<div style=""font-size:60px;"">+</div>","null","html-keyboard-response","140","196772","0.0-6.0-0.67","MASC","3","f","rechts","23","","fixation","","","",""
"808","img/0_60.png","74","image-keyboard-response","141","197580","0.0-6.0-1.67","MASC","3","f","rechts","23","","","object","j","0","true"
"null","<div style=""font-size:60px;"">+</div>","null","html-keyboard-response","142","198081","0.0-6.0-0.68","MASC","3","f","rechts","23","","fixation","","","",""
"752","img/90_300.png","74","image-keyboard-response","143","198834","0.0-6.0-1.68","MASC","3","f","rechts","23","","","object","j","90","true"
"null","<div style=""font-size:60px;"">+</div>","null","html-keyboard-response","144","199135","0.0-6.0-0.69","MASC","3","f","rechts","23","","fixation","","","",""
"809","img/90_330.png","74","image-keyboard-response","145","199945","0.0-6.0-1.69","MASC","3","f","rechts","23","","","object","j","90","true"
"null","<div style=""font-size:60px;"">+</div>","null","html-keyboard-response","146","200296","0.0-6.0-0.70","MASC","3","f","rechts","23","","fixation","","","",""
"891","img/30_120.png","74","image-keyboard-response","147","201188","0.0-6.0-1.70","MASC","3","f","rechts","23","","","object","j","30","true"
"null","<div style=""font-size:60px;"">+</div>","null","html-keyboard-response","148","201540","0.0-6.0-0.71","MASC","3","f","rechts","23","","fixation","","","",""
"737","img/0_90.png","74","image-keyboard-response","149","202278","0.0-6.0-1.71","MASC","3","f","rechts","23","","","object","j","0","true"
"null","<div style=""font-size:60px;"">+</div>","null","html-keyboard-response","150","202680","0.0-6.0-0.72","MASC","3","f","rechts","23","","fixation","","","",""
"708","img/0_30.png","74","image-keyboard-response","151","203389","0.0-6.0-1.72","MASC","3","f","rechts","23","","","object","j","0","true"
"null","<div style=""font-size:60px;"">+</div>","null","html-keyboard-response","152","203790","0.0-6.0-0.73","MASC","3","f","rechts","23","","fixation","","","",""
"607","img/90_30.png","70","image-keyboard-response","153","204399","0.0-6.0-1.73","MASC","3","f","rechts","23","","","object","f","90","true"
"null","<div style=""font-size:60px;"">+</div>","null","html-keyboard-response","154","204900","0.0-6.0-0.74","MASC","3","f","rechts","23","","fixation","","","",""
"926","img/120_150.png","70","image-keyboard-response","155","205828","0.0-6.0-1.74","MASC","3","f","rechts","23","","","object","j","120","false"
"null","<div style=""font-size:60px;"">+</div>","null","html-keyboard-response","156","206229","0.0-6.0-0.75","MASC","3","f","rechts","23","","fixation","","","",""
"785","img/60_30.png","70","image-keyboard-response","157","207015","0.0-6.0-1.75","MASC","3","f","rechts","23","","","object","f","60","true"
"null","<div style=""font-size:60px;"">+</div>","null","html-keyboard-response","158","207366","0.0-6.0-0.76","MASC","3","f","rechts","23","","fixation","","","",""
"943","img/30_300.png","70","image-keyboard-response","159","208311","0.0-6.0-1.76","MASC","3","f","rechts","23","","","object","f","30","true"
"null","<div style=""font-size:60px;"">+</div>","null","html-keyboard-response","160","208662","0.0-6.0-0.77","MASC","3","f","rechts","23","","fixation","","","",""
"801","img/0_210.png","70","image-keyboard-response","161","209465","0.0-6.0-1.77","MASC","3","f","rechts","23","","","object","f","0","true"
"null","<div style=""font-size:60px;"">+</div>","null","html-keyboard-response","162","209766","0.0-6.0-0.78","MASC","3","f","rechts","23","","fixation","","","",""
"698","img/150_270.png","74","image-keyboard-response","163","210465","0.0-6.0-1.78","MASC","3","f","rechts","23","","","object","j","150","true"
"null","<div style=""font-size:60px;"">+</div>","null","html-keyboard-response","164","210867","0.0-6.0-0.79","MASC","3","f","rechts","23","","fixation","","","",""
"668","img/30_240.png","70","image-keyboard-response","165","211537","0.0-6.0-1.79","MASC","3","f","rechts","23","","","object","f","30","true"
"null","<div style=""font-size:60px;"">+</div>","null","html-keyboard-response","166","211938","0.0-6.0-0.80","MASC","3","f","rechts","23","","fixation","","","",""
"1734","img/60_150.png","74","image-keyboard-response","167","213673","0.0-6.0-1.80","MASC","3","f","rechts","23","","","object","j","60","true"
"null","<div style=""font-size:60px;"">+</div>","null","html-keyboard-response","168","214025","0.0-6.0-0.81","MASC","3","f","rechts","23","","fixation","","","",""
"668","img/90_60.png","70","image-keyboard-response","169","214695","0.0-6.0-1.81","MASC","3","f","rechts","23","","","object","f","90","true"
"null","<div style=""font-size:60px;"">+</div>","null","html-keyboard-response","170","215096","0.0-6.0-0.82","MASC","3","f","rechts","23","","fixation","","","",""
"812","img/150_90.png","70","image-keyboard-response","171","215909","0.0-6.0-1.82","MASC","3","f","rechts","23","","","object","f","150","true"
"null","<div style=""font-size:60px;"">+</div>","null","html-keyboard-response","172","216361","0.0-6.0-0.83","MASC","3","f","rechts","23","","fixation","","","",""
"1464","img/30_180.png","70","image-keyboard-response","173","217826","0.0-6.0-1.83","MASC","3","f","rechts","23","","","object","f","30","true"
"null","<div style=""font-size:60px;"">+</div>","null","html-keyboard-response","174","218228","0.0-6.0-0.84","MASC","3","f","rechts","23","","fixation","","","",""
"785","img/0_300.png","70","image-keyboard-response","175","219015","0.0-6.0-1.84","MASC","3","f","rechts","23","","","object","f","0","true"
"null","<div style=""font-size:60px;"">+</div>","null","html-keyboard-response","176","219516","0.0-6.0-0.85","MASC","3","f","rechts","23","","fixation","","","",""
"1246","img/L120_180.png","74","image-keyboard-response","177","220763","0.0-6.0-1.85","MASC","3","f","rechts","23","","","object","j","120","true"
"null","<div style=""font-size:60px;"">+</div>","null","html-keyboard-response","178","221265","0.0-6.0-0.86","MASC","3","f","rechts","23","","fixation","","","",""
"933","img/90_150.png","74","image-keyboard-response","179","222198","0.0-6.0-1.86","MASC","3","f","rechts","23","","","object","j","90","true"
"null","<div style=""font-size:60px;"">+</div>","null","html-keyboard-response","180","222500","0.0-6.0-0.87","MASC","3","f","rechts","23","","fixation","","","",""
"936","img/120_270.png","74","image-keyboard-response","181","223436","0.0-6.0-1.87","MASC","3","f","rechts","23","","","object","j","120","true"
"null","<div style=""font-size:60px;"">+</div>","null","html-keyboard-response","182","223888","0.0-6.0-0.88","MASC","3","f","rechts","23","","fixation","","","",""
"1048","img/120_210.png","74","image-keyboard-response","183","224937","0.0-6.0-1.88","MASC","3","f","rechts","23","","","object","f","120","false"
"null","<div style=""font-size:60px;"">+</div>","null","html-keyboard-response","184","225389","0.0-6.0-0.89","MASC","3","f","rechts","23","","fixation","","","",""
"683","img/0_150.png","74","image-keyboard-response","185","226072","0.0-6.0-1.89","MASC","3","f","rechts","23","","","object","j","0","true"
"null","<div style=""font-size:60px;"">+</div>","null","html-keyboard-response","186","226574","0.0-6.0-0.90","MASC","3","f","rechts","23","","fixation","","","",""
"924","img/30_90.png","74","image-keyboard-response","187","227498","0.0-6.0-1.90","MASC","3","f","rechts","23","","","object","j","30","true"
"null","<div style=""font-size:60px;"">+</div>","null","html-keyboard-response","188","228000","0.0-6.0-0.91","MASC","3","f","rechts","23","","fixation","","","",""
"692","img/150_60.png","70","image-keyboard-response","189","228693","0.0-6.0-1.91","MASC","3","f","rechts","23","","","object","f","150","true"
"null","<div style=""font-size:60px;"">+</div>","null","html-keyboard-response","190","229195","0.0-6.0-0.92","MASC","3","f","rechts","23","","fixation","","","",""
"933","img/120_90.png","70","image-keyboard-response","191","230128","0.0-6.0-1.92","MASC","3","f","rechts","23","","","object","f","120","true"
"null","<div style=""font-size:60px;"">+</div>","null","html-keyboard-response","192","230580","0.0-6.0-0.93","MASC","3","f","rechts","23","","fixation","","","",""
"714","img/120_30.png","70","image-keyboard-response","193","231294","0.0-6.0-1.93","MASC","3","f","rechts","23","","","object","f","120","true"
"null","<div style=""font-size:60px;"">+</div>","null","html-keyboard-response","194","231646","0.0-6.0-0.94","MASC","3","f","rechts","23","","fixation","","","",""
"1269","img/150_180.png","70","image-keyboard-response","195","232915","0.0-6.0-1.94","MASC","3","f","rechts","23","","","object","f","150","true"
"null","<div style=""font-size:60px;"">+</div>","null","html-keyboard-response","196","233417","0.0-6.0-0.95","MASC","3","f","rechts","23","","fixation","","","",""
"757","img/0_330.png","70","image-keyboard-response","197","234174","0.0-6.0-1.95","MASC","3","f","rechts","23","","","object","f","0","true"
"null","<div style=""font-size:60px;"">+</div>","null","html-keyboard-response","198","234675","0.0-6.0-0.96","MASC","3","f","rechts","23","","fixation","","","",""
"742","img/0_240.png","70","image-keyboard-response","199","235418","0.0-6.0-1.96","MASC","3","f","rechts","23","","","object","f","0","true"
"null","<div style=""font-size:60px;"">+</div>","null","html-keyboard-response","200","235769","0.0-6.0-0.97","MASC","3","f","rechts","23","","fixation","","","",""
"1123","img/L90_180.png","74","image-keyboard-response","201","236893","0.0-6.0-1.97","MASC","3","f","rechts","23","","","object","j","90","true"
"null","<div style=""font-size:60px;"">+</div>","null","html-keyboard-response","202","237395","0.0-6.0-0.98","MASC","3","f","rechts","23","","fixation","","","",""
"817","img/90_120.png","74","image-keyboard-response","203","238212","0.0-6.0-1.98","MASC","3","f","rechts","23","","","object","j","90","true"
"null","<div style=""font-size:60px;"">+</div>","null","html-keyboard-response","204","238714","0.0-6.0-0.99","MASC","3","f","rechts","23","","fixation","","","",""
"1109","img/L30_180.png","74","image-keyboard-response","205","239823","0.0-6.0-1.99","MASC","3","f","rechts","23","","","object","j","30","true"
"null","<div style=""font-size:60px;"">+</div>","null","html-keyboard-response","206","240325","0.0-6.0-0.100","MASC","3","f","rechts","23","","fixation","","","",""
"1522","img/120_180.png","70","image-keyboard-response","207","241847","0.0-6.0-1.100","MASC","3","f","rechts","23","","","object","f","120","true"
"null","<div style=""font-size:60px;"">+</div>","null","html-keyboard-response","208","242349","0.0-6.0-0.101","MASC","3","f","rechts","23","","fixation","","","",""
"752","img/60_180.png","70","image-keyboard-response","209","243101","0.0-6.0-1.101","MASC","3","f","rechts","23","","","object","f","60","true"
"null","<div style=""font-size:60px;"">+</div>","null","html-keyboard-response","210","243453","0.0-6.0-0.102","MASC","3","f","rechts","23","","fixation","","","",""
"1126","img/90_240.png","70","image-keyboard-response","211","244579","0.0-6.0-1.102","MASC","3","f","rechts","23","","","object","f","90","true"
"null","<div style=""font-size:60px;"">+</div>","null","html-keyboard-response","212","244930","0.0-6.0-0.103","MASC","3","f","rechts","23","","fixation","","","",""
"821","img/60_210.png","70","image-keyboard-response","213","245752","0.0-6.0-1.103","MASC","3","f","rechts","23","","","object","f","60","true"
"null","<div style=""font-size:60px;"">+</div>","null","html-keyboard-response","214","246154","0.0-6.0-0.104","MASC","3","f","rechts","23","","fixation","","","",""
"904","img/30_240.png","70","image-keyboard-response","215","247058","0.0-6.0-1.104","MASC","3","f","rechts","23","","","object","f","30","true"
"null","<div style=""font-size:60px;"">+</div>","null","html-keyboard-response","216","247360","0.0-6.0-0.105","MASC","3","f","rechts","23","","fixation","","","",""
"1077","img/L90_180.png","74","image-keyboard-response","217","248437","0.0-6.0-1.105","MASC","3","f","rechts","23","","","object","j","90","true"
"null","<div style=""font-size:60px;"">+</div>","null","html-keyboard-response","218","248938","0.0-6.0-0.106","MASC","3","f","rechts","23","","fixation","","","",""
"746","img/0_60.png","74","image-keyboard-response","219","249685","0.0-6.0-1.106","MASC","3","f","rechts","23","","","object","j","0","true"
"null","<div style=""font-size:60px;"">+</div>","null","html-keyboard-response","220","250086","0.0-6.0-0.107","MASC","3","f","rechts","23","","fixation","","","",""
"933","img/120_180.png","70","image-keyboard-response","221","251020","0.0-6.0-1.107","MASC","3","f","rechts","23","","","object","f","120","true"
"null","<div style=""font-size:60px;"">+</div>","null","html-keyboard-response","222","251421","0.0-6.0-0.108","MASC","3","f","rechts","23","","fixation","","","",""
"723","img/0_30.png","74","image-keyboard-response","223","252146","0.0-6.0-1.108","MASC","3","f","rechts","23","","","object","j","0","true"
"null","<div style=""font-size:60px;"">+</div>","null","html-keyboard-response","224","252496","0.0-6.0-0.109","MASC","3","f","rechts","23","","fixation","","","",""
"969","img/L30_180.png","74","image-keyboard-response","225","253465","0.0-6.0-1.109","MASC","3","f","rechts","23","","","object","j","30","true"
"null","<div style=""font-size:60px;"">+</div>","null","html-keyboard-response","226","253766","0.0-6.0-0.110","MASC","3","f","rechts","23","","fixation","","","",""
"1005","img/30_270.png","74","image-keyboard-response","227","254773","0.0-6.0-1.110","MASC","3","f","rechts","23","","","object","f","30","false"
"null","<div style=""font-size:60px;"">+</div>","null","html-keyboard-response","228","255224","0.0-6.0-0.111","MASC","3","f","rechts","23","","fixation","","","",""
"1076","img/150_120.png","70","image-keyboard-response","229","256301","0.0-6.0-1.111","MASC","3","f","rechts","23","","","object","f","150","true"
"null","<div style=""font-size:60px;"">+</div>","null","html-keyboard-response","230","256653","0.0-6.0-0.112","MASC","3","f","rechts","23","","fixation","","","",""
"1367","img/120_210.png","74","image-keyboard-response","231","258022","0.0-6.0-1.112","MASC","3","f","rechts","23","","","object","f","120","false"
"null","<div style=""font-size:60px;"">+</div>","null","html-keyboard-response","232","258473","0.0-6.0-0.113","MASC","3","f","rechts","23","","fixation","","","",""
"810","img/120_30.png","70","image-keyboard-response","233","259284","0.0-6.0-1.113","MASC","3","f","rechts","23","","","object","f","120","true"
"null","<div style=""font-size:60px;"">+</div>","null","html-keyboard-response","234","259636","0.0-6.0-0.114","MASC","3","f","rechts","23","","fixation","","","",""
"805","img/150_270.png","74","image-keyboard-response","235","260441","0.0-6.0-1.114","MASC","3","f","rechts","23","","","object","j","150","true"
"null","<div style=""font-size:60px;"">+</div>","null","html-keyboard-response","236","260942","0.0-6.0-0.115","MASC","3","f","rechts","23","","fixation","","","",""
"1064","img/90_210.png","70","image-keyboard-response","237","262007","0.0-6.0-1.115","MASC","3","f","rechts","23","","","object","f","90","true"
"null","<div style=""font-size:60px;"">+</div>","null","html-keyboard-response","238","262409","0.0-6.0-0.116","MASC","3","f","rechts","23","","fixation","","","",""
"920","img/30_300.png","70","image-keyboard-response","239","263330","0.0-6.0-1.116","MASC","3","f","rechts","23","","","object","f","30","true"
"null","<div style=""font-size:60px;"">+</div>","null","html-keyboard-response","240","263632","0.0-6.0-0.117","MASC","3","f","rechts","23","","fixation","","","",""
"716","img/90_330.png","74","image-keyboard-response","241","264349","0.0-6.0-1.117","MASC","3","f","rechts","23","","","object","j","90","true"
"null","<div style=""font-size:60px;"">+</div>","null","html-keyboard-response","242","264801","0.0-6.0-0.118","MASC","3","f","rechts","23","","fixation","","","",""
"731","img/150_300.png","74","image-keyboard-response","243","265533","0.0-6.0-1.118","MASC","3","f","rechts","23","","","object","j","150","true"
"null","<div style=""font-size:60px;"">+</div>","null","html-keyboard-response","244","266035","0.0-6.0-0.119","MASC","3","f","rechts","23","","fixation","","","",""
"686","img/150_240.png","74","image-keyboard-response","245","266722","0.0-6.0-1.119","MASC","3","f","rechts","23","","","object","j","150","true"
"null","<div style=""font-size:60px;"">+</div>","null","html-keyboard-response","246","267074","0.0-6.0-0.120","MASC","3","f","rechts","23","","fixation","","","",""
"1000","img/30_90.png","74","image-keyboard-response","247","268074","0.0-6.0-1.120","MASC","3","f","rechts","23","","","object","j","30","true"
"null","<div style=""font-size:60px;"">+</div>","null","html-keyboard-response","248","268426","0.0-6.0-0.121","MASC","3","f","rechts","23","","fixation","","","",""
"692","img/0_90.png","74","image-keyboard-response","249","269119","0.0-6.0-1.121","MASC","3","f","rechts","23","","","object","j","0","true"
"null","<div style=""font-size:60px;"">+</div>","null","html-keyboard-response","250","269621","0.0-6.0-0.122","MASC","3","f","rechts","23","","fixation","","","",""
"769","img/120_330.png","74","image-keyboard-response","251","270391","0.0-6.0-1.122","MASC","3","f","rechts","23","","","object","j","120","true"
"null","<div style=""font-size:60px;"">+</div>","null","html-keyboard-response","252","270743","0.0-6.0-0.123","MASC","3","f","rechts","23","","fixation","","","",""
"935","img/60_210.png","70","image-keyboard-response","253","271679","0.0-6.0-1.123","MASC","3","f","rechts","23","","","object","f","60","true"
"null","<div style=""font-size:60px;"">+</div>","null","html-keyboard-response","254","271981","0.0-6.0-0.124","MASC","3","f","rechts","23","","fixation","","","",""
"735","img/0_270.png","70","image-keyboard-response","255","272717","0.0-6.0-1.124","MASC","3","f","rechts","23","","","object","f","0","true"
"null","<div style=""font-size:60px;"">+</div>","null","html-keyboard-response","256","273019","0.0-6.0-0.125","MASC","3","f","rechts","23","","fixation","","","",""
"882","img/90_240.png","74","image-keyboard-response","257","273902","0.0-6.0-1.125","MASC","3","f","rechts","23","","","object","f","90","false"
"null","<div style=""font-size:60px;"">+</div>","null","html-keyboard-response","258","274354","0.0-6.0-0.126","MASC","3","f","rechts","23","","fixation","","","",""
"719","img/0_300.png","70","image-keyboard-response","259","275074","0.0-6.0-1.126","MASC","3","f","rechts","23","","","object","f","0","true"
"null","<div style=""font-size:60px;"">+</div>","null","html-keyboard-response","260","275576","0.0-6.0-0.127","MASC","3","f","rechts","23","","fixation","","","",""
"840","img/150_60.png","70","image-keyboard-response","261","276416","0.0-6.0-1.127","MASC","3","f","rechts","23","","","object","f","150","true"
"null","<div style=""font-size:60px;"">+</div>","null","html-keyboard-response","262","276768","0.0-6.0-0.128","MASC","3","f","rechts","23","","fixation","","","",""
"967","img/60_270.png","74","image-keyboard-response","263","277736","0.0-6.0-1.128","MASC","3","f","rechts","23","","","object","f","60","false"
"null","<div style=""font-size:60px;"">+</div>","null","html-keyboard-response","264","278038","0.0-6.0-0.129","MASC","3","f","rechts","23","","fixation","","","",""
"910","img/60_90.png","70","image-keyboard-response","265","278949","0.0-6.0-1.129","MASC","3","f","rechts","23","","","object","j","60","false"
"null","<div style=""font-size:60px;"">+</div>","null","html-keyboard-response","266","279401","0.0-6.0-0.130","MASC","3","f","rechts","23","","fixation","","","",""
"797","img/0_120.png","74","image-keyboard-response","267","280199","0.0-6.0-1.130","MASC","3","f","rechts","23","","","object","j","0","true"
"null","<div style=""font-size:60px;"">+</div>","null","html-keyboard-response","268","280651","0.0-6.0-0.131","MASC","3","f","rechts","23","","fixation","","","",""
"1195","img/L150_180.png","70","image-keyboard-response","269","281846","0.0-6.0-1.131","MASC","3","f","rechts","23","","","object","j","150","false"
"null","<div style=""font-size:60px;"">+</div>","null","html-keyboard-response","270","282148","0.0-6.0-0.132","MASC","3","f","rechts","23","","fixation","","","",""
"973","img/60_150.png","74","image-keyboard-response","271","283121","0.0-6.0-1.132","MASC","3","f","rechts","23","","","object","j","60","true"
"null","<div style=""font-size:60px;"">+</div>","null","html-keyboard-response","272","283573","0.0-6.0-0.133","MASC","3","f","rechts","23","","fixation","","","",""
"652","img/0_150.png","74","image-keyboard-response","273","284226","0.0-6.0-1.133","MASC","3","f","rechts","23","","","object","j","0","true"
"null","<div style=""font-size:60px;"">+</div>","null","html-keyboard-response","274","284678","0.0-6.0-0.134","MASC","3","f","rechts","23","","fixation","","","",""
"722","img/150_90.png","70","image-keyboard-response","275","285401","0.0-6.0-1.134","MASC","3","f","rechts","23","","","object","f","150","true"
"null","<div style=""font-size:60px;"">+</div>","null","html-keyboard-response","276","285803","0.0-6.0-0.135","MASC","3","f","rechts","23","","fixation","","","",""
"932","img/L120_180.png","74","image-keyboard-response","277","286735","0.0-6.0-1.135","MASC","3","f","rechts","23","","","object","j","120","true"
"null","<div style=""font-size:60px;"">+</div>","null","html-keyboard-response","278","287087","0.0-6.0-0.136","MASC","3","f","rechts","23","","fixation","","","",""
"780","img/90_30.png","70","image-keyboard-response","279","287867","0.0-6.0-1.136","MASC","3","f","rechts","23","","","object","f","90","true"
"null","<div style=""font-size:60px;"">+</div>","null","html-keyboard-response","280","288368","0.0-6.0-0.137","MASC","3","f","rechts","23","","fixation","","","",""
"847","img/90_60.png","70","image-keyboard-response","281","289216","0.0-6.0-1.137","MASC","3","f","rechts","23","","","object","f","90","true"
"null","<div style=""font-size:60px;"">+</div>","null","html-keyboard-response","282","289618","0.0-6.0-0.138","MASC","3","f","rechts","23","","fixation","","","",""
"894","img/30_120.png","74","image-keyboard-response","283","290512","0.0-6.0-1.138","MASC","3","f","rechts","23","","","object","j","30","true"
"null","<div style=""font-size:60px;"">+</div>","null","html-keyboard-response","284","290864","0.0-6.0-0.139","MASC","3","f","rechts","23","","fixation","","","",""
"1119","img/120_150.png","74","image-keyboard-response","285","291984","0.0-6.0-1.139","MASC","3","f","rechts","23","","","object","j","120","true"
"null","<div style=""font-size:60px;"">+</div>","null","html-keyboard-response","286","292435","0.0-6.0-0.140","MASC","3","f","rechts","23","","fixation","","","",""
"1087","img/L60_180.png","74","image-keyboard-response","287","293523","0.0-6.0-1.140","MASC","3","f","rechts","23","","","object","j","60","true"
"null","<div style=""font-size:60px;"">+</div>","null","html-keyboard-response","288","293874","0.0-6.0-0.141","MASC","3","f","rechts","23","","fixation","","","",""
"883","img/60_330.png","74","image-keyboard-response","289","294758","0.0-6.0-1.141","MASC","3","f","rechts","23","","","object","j","60","true"
"null","<div style=""font-size:60px;"">+</div>","null","html-keyboard-response","290","295260","0.0-6.0-0.142","MASC","3","f","rechts","23","","fixation","","","",""
"734","img/0_210.png","70","image-keyboard-response","291","295994","0.0-6.0-1.142","MASC","3","f","rechts","23","","","object","f","0","true"
"null","<div style=""font-size:60px;"">+</div>","null","html-keyboard-response","292","296446","0.0-6.0-0.143","MASC","3","f","rechts","23","","fixation","","","",""
"711","img/0_240.png","70","image-keyboard-response","293","297157","0.0-6.0-1.143","MASC","3","f","rechts","23","","","object","f","0","true"
"null","<div style=""font-size:60px;"">+</div>","null","html-keyboard-response","294","297459","0.0-6.0-0.144","MASC","3","f","rechts","23","","fixation","","","",""
"1144","img/150_180.png","70","image-keyboard-response","295","298604","0.0-6.0-1.144","MASC","3","f","rechts","23","","","object","f","150","true"
"null","<div style=""font-size:60px;"">+</div>","null","html-keyboard-response","296","298955","0.0-6.0-0.145","MASC","3","f","rechts","23","","fixation","","","",""
"1480","img/30_180.png","70","image-keyboard-response","297","300436","0.0-6.0-1.145","MASC","3","f","rechts","23","","","object","f","30","true"
"null","<div style=""font-size:60px;"">+</div>","null","html-keyboard-response","298","300937","0.0-6.0-0.146","MASC","3","f","rechts","23","","fixation","","","",""
"857","img/60_30.png","70","image-keyboard-response","299","301795","0.0-6.0-1.146","MASC","3","f","rechts","23","","","object","f","60","true"
"null","<div style=""font-size:60px;"">+</div>","null","html-keyboard-response","300","302146","0.0-6.0-0.147","MASC","3","f","rechts","23","","fixation","","","",""
"1638","img/90_180.png","70","image-keyboard-response","301","303785","0.0-6.0-1.147","MASC","3","f","rechts","23","","","object","f","90","true"
"null","<div style=""font-size:60px;"">+</div>","null","html-keyboard-response","302","304086","0.0-6.0-0.148","MASC","3","f","rechts","23","","fixation","","","",""
"2101","img/90_150.png","74","image-keyboard-response","303","306188","0.0-6.0-1.148","MASC","3","f","rechts","23","","","object","j","90","true"
"null","<div style=""font-size:60px;"">+</div>","null","html-keyboard-response","304","306490","0.0-6.0-0.149","MASC","3","f","rechts","23","","fixation","","","",""
"1078","img/30_60.png","70","image-keyboard-response","305","307568","0.0-6.0-1.149","MASC","3","f","rechts","23","","","object","j","30","false"
"null","<div style=""font-size:60px;"">+</div>","null","html-keyboard-response","306","307970","0.0-6.0-0.150","MASC","3","f","rechts","23","","fixation","","","",""
"1150","img/90_120.png","70","image-keyboard-response","307","309121","0.0-6.0-1.150","MASC","3","f","rechts","23","","","object","j","90","false"
"null","<div style=""font-size:60px;"">+</div>","null","html-keyboard-response","308","309473","0.0-6.0-0.151","MASC","3","f","rechts","23","","fixation","","","",""
"716","img/90_300.png","74","image-keyboard-response","309","310189","0.0-6.0-1.151","MASC","3","f","rechts","23","","","object","j","90","true"
"null","<div style=""font-size:60px;"">+</div>","null","html-keyboard-response","310","310541","0.0-6.0-0.152","MASC","3","f","rechts","23","","fixation","","","",""
"808","img/120_90.png","70","image-keyboard-response","311","311350","0.0-6.0-1.152","MASC","3","f","rechts","23","","","object","f","120","true"
"null","<div style=""font-size:60px;"">+</div>","null","html-keyboard-response","312","311802","0.0-6.0-0.153","MASC","3","f","rechts","23","","fixation","","","",""
"717","img/0_330.png","70","image-keyboard-response","313","312520","0.0-6.0-1.153","MASC","3","f","rechts","23","","","object","f","0","true"
"null","<div style=""font-size:60px;"">+</div>","null","html-keyboard-response","314","312972","0.0-6.0-0.154","MASC","3","f","rechts","23","","fixation","","","",""
"705","img/120_270.png","74","image-keyboard-response","315","313679","0.0-6.0-1.154","MASC","3","f","rechts","23","","","object","j","120","true"
"null","<div style=""font-size:60px;"">+</div>","null","html-keyboard-response","316","313980","0.0-6.0-0.155","MASC","3","f","rechts","23","","fixation","","","",""
"900","img/60_180.png","70","image-keyboard-response","317","314881","0.0-6.0-1.155","MASC","3","f","rechts","23","","","object","f","60","true"
"null","<div style=""font-size:60px;"">+</div>","null","html-keyboard-response","318","315233","0.0-6.0-0.156","MASC","3","f","rechts","23","","fixation","","","",""
"817","img/0_150.png","74","image-keyboard-response","319","316051","0.0-6.0-1.156","MASC","3","f","rechts","23","","","object","j","0","true"
"null","<div style=""font-size:60px;"">+</div>","null","html-keyboard-response","320","316503","0.0-6.0-0.157","MASC","3","f","rechts","23","","fixation","","","",""
"847","img/0_120.png","74","image-keyboard-response","321","317351","0.0-6.0-1.157","MASC","3","f","rechts","23","","","object","j","0","true"
"null","<div style=""font-size:60px;"">+</div>","null","html-keyboard-response","322","317653","0.0-6.0-0.158","MASC","3","f","rechts","23","","fixation","","","",""
"935","img/90_150.png","70","image-keyboard-response","323","318589","0.0-6.0-1.158","MASC","3","f","rechts","23","","","object","j","90","false"
"null","<div style=""font-size:60px;"">+</div>","null","html-keyboard-response","324","318891","0.0-6.0-0.159","MASC","3","f","rechts","23","","fixation","","","",""
"1524","img/30_180.png","70","image-keyboard-response","325","320415","0.0-6.0-1.159","MASC","3","f","rechts","23","","","object","f","30","true"
"null","<div style=""font-size:60px;"">+</div>","null","html-keyboard-response","326","320717","0.0-6.0-0.160","MASC","3","f","rechts","23","","fixation","","","",""
"1017","img/0_90.png","74","image-keyboard-response","327","321735","0.0-6.0-1.160","MASC","3","f","rechts","23","","","object","j","0","true"
"null","<div style=""font-size:60px;"">+</div>","null","html-keyboard-response","328","322087","0.0-6.0-0.161","MASC","3","f","rechts","23","","fixation","","","",""
"825","img/90_240.png","74","image-keyboard-response","329","322912","0.0-6.0-1.161","MASC","3","f","rechts","23","","","object","f","90","false"
"null","<div style=""font-size:60px;"">+</div>","null","html-keyboard-response","330","323364","0.0-6.0-0.162","MASC","3","f","rechts","23","","fixation","","","",""
"805","img/150_180.png","74","image-keyboard-response","331","324170","0.0-6.0-1.162","MASC","3","f","rechts","23","","","object","f","150","false"
"null","<div style=""font-size:60px;"">+</div>","null","html-keyboard-response","332","324572","0.0-6.0-0.163","MASC","3","f","rechts","23","","fixation","","","",""
"834","img/30_270.png","70","image-keyboard-response","333","325407","0.0-6.0-1.163","MASC","3","f","rechts","23","","","object","f","30","true"
"null","<div style=""font-size:60px;"">+</div>","null","html-keyboard-response","334","325709","0.0-6.0-0.164","MASC","3","f","rechts","23","","fixation","","","",""
"995","img/60_180.png","70","image-keyboard-response","335","326704","0.0-6.0-1.164","MASC","3","f","rechts","23","","","object","f","60","true"
"null","<div style=""font-size:60px;"">+</div>","null","html-keyboard-response","336","327056","0.0-6.0-0.165","MASC","3","f","rechts","23","","fixation","","","",""
"1099","img/60_270.png","70","image-keyboard-response","337","328155","0.0-6.0-1.165","MASC","3","f","rechts","23","","","object","f","60","true"
"null","<div style=""font-size:60px;"">+</div>","null","html-keyboard-response","338","328657","0.0-6.0-0.166","MASC","3","f","rechts","23","","fixation","","","",""
"780","img/90_30.png","70","image-keyboard-response","339","329437","0.0-6.0-1.166","MASC","3","f","rechts","23","","","object","f","90","true"
"null","<div style=""font-size:60px;"">+</div>","null","html-keyboard-response","340","329839","0.0-6.0-0.167","MASC","3","f","rechts","23","","fixation","","","",""
"1064","img/120_180.png","70","image-keyboard-response","341","330904","0.0-6.0-1.167","MASC","3","f","rechts","23","","","object","f","120","true"
"null","<div style=""font-size:60px;"">+</div>","null","html-keyboard-response","342","331256","0.0-6.0-0.168","MASC","3","f","rechts","23","","fixation","","","",""
"940","img/120_330.png","74","image-keyboard-response","343","332197","0.0-6.0-1.168","MASC","3","f","rechts","23","","","object","j","120","true"
"null","<div style=""font-size:60px;"">+</div>","null","html-keyboard-response","344","332548","0.0-6.0-0.169","MASC","3","f","rechts","23","","fixation","","","",""
"693","img/60_330.png","74","image-keyboard-response","345","333242","0.0-6.0-1.169","MASC","3","f","rechts","23","","","object","j","60","true"
"null","<div style=""font-size:60px;"">+</div>","null","html-keyboard-response","346","333694","0.0-6.0-0.170","MASC","3","f","rechts","23","","fixation","","","",""
"891","img/30_60.png","70","image-keyboard-response","347","334586","0.0-6.0-1.170","MASC","3","f","rechts","23","","","object","j","30","false"
"null","<div style=""font-size:60px;"">+</div>","null","html-keyboard-response","348","334887","0.0-6.0-0.171","MASC","3","f","rechts","23","","fixation","","","",""
"1332","img/120_150.png","74","image-keyboard-response","349","336220","0.0-6.0-1.171","MASC","3","f","rechts","23","","","object","j","120","true"
"null","<div style=""font-size:60px;"">+</div>","null","html-keyboard-response","350","336571","0.0-6.0-0.172","MASC","3","f","rechts","23","","fixation","","","",""
"1311","img/L120_180.png","70","image-keyboard-response","351","337883","0.0-6.0-1.172","MASC","3","f","rechts","23","","","object","j","120","false"
"null","<div style=""font-size:60px;"">+</div>","null","html-keyboard-response","352","338335","0.0-6.0-0.173","MASC","3","f","rechts","23","","fixation","","","",""
"714","img/0_60.png","74","image-keyboard-response","353","339049","0.0-6.0-1.173","MASC","3","f","rechts","23","","","object","j","0","true"
"null","<div style=""font-size:60px;"">+</div>","null","html-keyboard-response","354","339401","0.0-6.0-0.174","MASC","3","f","rechts","23","","fixation","","","",""
"823","img/L30_180.png","74","image-keyboard-response","355","340224","0.0-6.0-1.174","MASC","3","f","rechts","23","","","object","j","30","true"
"null","<div style=""font-size:60px;"">+</div>","null","html-keyboard-response","356","340526","0.0-6.0-0.175","MASC","3","f","rechts","23","","fixation","","","",""
"954","img/120_90.png","70","image-keyboard-response","357","341480","0.0-6.0-1.175","MASC","3","f","rechts","23","","","object","f","120","true"
"null","<div style=""font-size:60px;"">+</div>","null","html-keyboard-response","358","341982","0.0-6.0-0.176","MASC","3","f","rechts","23","","fixation","","","",""
"761","img/0_30.png","74","image-keyboard-response","359","342743","0.0-6.0-1.176","MASC","3","f","rechts","23","","","object","j","0","true"
"null","<div style=""font-size:60px;"">+</div>","null","html-keyboard-response","360","343145","0.0-6.0-0.177","MASC","3","f","rechts","23","","fixation","","","",""
"761","img/90_330.png","74","image-keyboard-response","361","343906","0.0-6.0-1.177","MASC","3","f","rechts","23","","","object","j","90","true"
"null","<div style=""font-size:60px;"">+</div>","null","html-keyboard-response","362","344408","0.0-6.0-0.178","MASC","3","f","rechts","23","","fixation","","","",""
"805","img/0_210.png","70","image-keyboard-response","363","345213","0.0-6.0-1.178","MASC","3","f","rechts","23","","","object","f","0","true"
"null","<div style=""font-size:60px;"">+</div>","null","html-keyboard-response","364","345565","0.0-6.0-0.179","MASC","3","f","rechts","23","","fixation","","","",""
"1695","img/60_150.png","74","image-keyboard-response","365","347261","0.0-6.0-1.179","MASC","3","f","rechts","23","","","object","j","60","true"
"null","<div style=""font-size:60px;"">+</div>","null","html-keyboard-response","366","347562","0.0-6.0-0.180","MASC","3","f","rechts","23","","fixation","","","",""
"874","img/150_270.png","74","image-keyboard-response","367","348437","0.0-6.0-1.180","MASC","3","f","rechts","23","","","object","j","150","true"
"null","<div style=""font-size:60px;"">+</div>","null","html-keyboard-response","368","348839","0.0-6.0-0.181","MASC","3","f","rechts","23","","fixation","","","",""
"668","img/90_300.png","74","image-keyboard-response","369","349508","0.0-6.0-1.181","MASC","3","f","rechts","23","","","object","j","90","true"
"null","<div style=""font-size:60px;"">+</div>","null","html-keyboard-response","370","349859","0.0-6.0-0.182","MASC","3","f","rechts","23","","fixation","","","",""
"1073","img/120_210.png","74","image-keyboard-response","371","350933","0.0-6.0-1.182","MASC","3","f","rechts","23","","","object","f","120","false"
"null","<div style=""font-size:60px;"">+</div>","null","html-keyboard-response","372","351234","0.0-6.0-0.183","MASC","3","f","rechts","23","","fixation","","","",""
"742","img/120_30.png","70","image-keyboard-response","373","351978","0.0-6.0-1.183","MASC","3","f","rechts","23","","","object","f","120","true"
"null","<div style=""font-size:60px;"">+</div>","null","html-keyboard-response","374","352429","0.0-6.0-0.184","MASC","3","f","rechts","23","","fixation","","","",""
"940","img/L90_180.png","74","image-keyboard-response","375","353370","0.0-6.0-1.184","MASC","3","f","rechts","23","","","object","j","90","true"
"null","<div style=""font-size:60px;"">+</div>","null","html-keyboard-response","376","353722","0.0-6.0-0.185","MASC","3","f","rechts","23","","fixation","","","",""
"924","img/150_120.png","70","image-keyboard-response","377","354646","0.0-6.0-1.185","MASC","3","f","rechts","23","","","object","f","150","true"
"null","<div style=""font-size:60px;"">+</div>","null","html-keyboard-response","378","355098","0.0-6.0-0.186","MASC","3","f","rechts","23","","fixation","","","",""
"1078","img/90_120.png","74","image-keyboard-response","379","356177","0.0-6.0-1.186","MASC","3","f","rechts","23","","","object","j","90","true"
"null","<div style=""font-size:60px;"">+</div>","null","html-keyboard-response","380","356479","0.0-6.0-0.187","MASC","3","f","rechts","23","","fixation","","","",""
"1192","img/L60_180.png","74","image-keyboard-response","381","357672","0.0-6.0-1.187","MASC","3","f","rechts","23","","","object","j","60","true"
"null","<div style=""font-size:60px;"">+</div>","null","html-keyboard-response","382","358173","0.0-6.0-0.188","MASC","3","f","rechts","23","","fixation","","","",""
"846","img/150_90.png","70","image-keyboard-response","383","359021","0.0-6.0-1.188","MASC","3","f","rechts","23","","","object","f","150","true"
"null","<div style=""font-size:60px;"">+</div>","null","html-keyboard-response","384","359372","0.0-6.0-0.189","MASC","3","f","rechts","23","","fixation","","","",""
"864","img/60_30.png","70","image-keyboard-response","385","360238","0.0-6.0-1.189","MASC","3","f","rechts","23","","","object","f","60","true"
"null","<div style=""font-size:60px;"">+</div>","null","html-keyboard-response","386","360738","0.0-6.0-0.190","MASC","3","f","rechts","23","","fixation","","","",""
"735","img/0_270.png","70","image-keyboard-response","387","361474","0.0-6.0-1.190","MASC","3","f","rechts","23","","","object","f","0","true"
"null","<div style=""font-size:60px;"">+</div>","null","html-keyboard-response","388","361876","0.0-6.0-0.191","MASC","3","f","rechts","23","","fixation","","","",""
"1291","img/L150_180.png","74","image-keyboard-response","389","363168","0.0-6.0-1.191","MASC","3","f","rechts","23","","","object","j","150","true"
"null","<div style=""font-size:60px;"">+</div>","null","html-keyboard-response","390","363570","0.0-6.0-0.192","MASC","3","f","rechts","23","","fixation","","","",""
"1181","img/30_240.png","70","image-keyboard-response","391","364752","0.0-6.0-1.192","MASC","3","f","rechts","23","","","object","f","30","true"
"null","<div style=""font-size:60px;"">+</div>","null","html-keyboard-response","392","365154","0.0-6.0-0.193","MASC","3","f","rechts","23","","fixation","","","",""
"829","img/30_300.png","70","image-keyboard-response","393","365985","0.0-6.0-1.193","MASC","3","f","rechts","23","","","object","f","30","true"
"null","<div style=""font-size:60px;"">+</div>","null","html-keyboard-response","394","366486","0.0-6.0-0.194","MASC","3","f","rechts","23","","fixation","","","",""
"851","img/0_330.png","70","image-keyboard-response","395","367338","0.0-6.0-1.194","MASC","3","f","rechts","23","","","object","f","0","true"
"null","<div style=""font-size:60px;"">+</div>","null","html-keyboard-response","396","367640","0.0-6.0-0.195","MASC","3","f","rechts","23","","fixation","","","",""
"898","img/30_120.png","74","image-keyboard-response","397","368539","0.0-6.0-1.195","MASC","3","f","rechts","23","","","object","j","30","true"
"null","<div style=""font-size:60px;"">+</div>","null","html-keyboard-response","398","368840","0.0-6.0-0.196","MASC","3","f","rechts","23","","fixation","","","",""
"1283","img/90_180.png","70","image-keyboard-response","399","370124","0.0-6.0-1.196","MASC","3","f","rechts","23","","","object","f","90","true"
"null","<div style=""font-size:60px;"">+</div>","null","html-keyboard-response","400","370426","0.0-6.0-0.197","MASC","3","f","rechts","23","","fixation","","","",""
"1000","img/30_90.png","70","image-keyboard-response","401","371427","0.0-6.0-1.197","MASC","3","f","rechts","23","","","object","j","30","false"
"null","<div style=""font-size:60px;"">+</div>","null","html-keyboard-response","402","371729","0.0-6.0-0.198","MASC","3","f","rechts","23","","fixation","","","",""
"956","img/90_60.png","70","image-keyboard-response","403","372686","0.0-6.0-1.198","MASC","3","f","rechts","23","","","object","f","90","true"
"null","<div style=""font-size:60px;"">+</div>","null","html-keyboard-response","404","373188","0.0-6.0-0.199","MASC","3","f","rechts","23","","fixation","","","",""
"732","img/0_300.png","70","image-keyboard-response","405","373921","0.0-6.0-1.199","MASC","3","f","rechts","23","","","object","f","0","true"
"null","<div style=""font-size:60px;"">+</div>","null","html-keyboard-response","406","374373","0.0-6.0-0.200","MASC","3","f","rechts","23","","fixation","","","",""
"868","img/0_240.png","70","image-keyboard-response","407","375241","0.0-6.0-1.200","MASC","3","f","rechts","23","","","object","f","0","true"
"null","<div style=""font-size:60px;"">+</div>","null","html-keyboard-response","408","375693","0.0-6.0-0.201","MASC","3","f","rechts","23","","fixation","","","",""
"871","img/60_90.png","74","image-keyboard-response","409","376565","0.0-6.0-1.201","MASC","3","f","rechts","23","","","object","j","60","true"
"null","<div style=""font-size:60px;"">+</div>","null","html-keyboard-response","410","376967","0.0-6.0-0.202","MASC","3","f","rechts","23","","fixation","","","",""
"906","img/60_210.png","70","image-keyboard-response","411","377874","0.0-6.0-1.202","MASC","3","f","rechts","23","","","object","f","60","true"
"null","<div style=""font-size:60px;"">+</div>","null","html-keyboard-response","412","378226","0.0-6.0-0.203","MASC","3","f","rechts","23","","fixation","","","",""
"882","img/150_60.png","70","image-keyboard-response","413","379109","0.0-6.0-1.203","MASC","3","f","rechts","23","","","object","f","150","true"
"null","<div style=""font-size:60px;"">+</div>","null","html-keyboard-response","414","379511","0.0-6.0-0.204","MASC","3","f","rechts","23","","fixation","","","",""
"763","img/120_270.png","74","image-keyboard-response","415","380274","0.0-6.0-1.204","MASC","3","f","rechts","23","","","object","j","120","true"
"null","<div style=""font-size:60px;"">+</div>","null","html-keyboard-response","416","380625","0.0-6.0-0.205","MASC","3","f","rechts","23","","fixation","","","",""
"984","img/150_240.png","74","image-keyboard-response","417","381610","0.0-6.0-1.205","MASC","3","f","rechts","23","","","object","j","150","true"
"null","<div style=""font-size:60px;"">+</div>","null","html-keyboard-response","418","382012","0.0-6.0-0.206","MASC","3","f","rechts","23","","fixation","","","",""
"1131","img/90_210.png","74","image-keyboard-response","419","383143","0.0-6.0-1.206","MASC","3","f","rechts","23","","","object","f","90","false"
"null","<div style=""font-size:60px;"">+</div>","null","html-keyboard-response","420","383644","0.0-6.0-0.207","MASC","3","f","rechts","23","","fixation","","","",""
"860","img/150_300.png","74","image-keyboard-response","421","384505","0.0-6.0-1.207","MASC","3","f","rechts","23","","","object","j","150","true"
"3111","<p>Du hast in 86% der Versuche korrekt entschieden.</p><p>Deine durchschnittliche Reaktionszeit war  913ms.</p><p>Dr&uuml;cke eine beliebige Taste, um die Session zu beenden. Vielen Dank!</p>","74","html-keyboard-response","422","387617","0.0-7.0","MASC","3","f","rechts","23","","","","","",""
