"rt","stimulus","key_press","trial_type","trial_index","time_elapsed","internal_node_id","subject","session","sex","handedness","age","responses","test_part","condition","correct_response","angle","correct"
"9864","<p>Mental Rotation Experiment.</p> <p>Dr&uuml;cke eine beliebige Taste, um anzufangen.</p>","71","html-keyboard-response","0","9867","0.0-0.0","MASC","1","f","rechts","23","","","","","",""
"2764","","","survey-text","1","12633","0.0-1.0","MASC","1","f","rechts","23","{""Q0"":""MASC""}","","","","",""
"1979","","","survey-text","2","14612","0.0-2.0","MASC","1","f","rechts","23","{""Q0"":""1""}","","","","",""
"3214","","","survey-multi-choice","3","17829","0.0-3.0","MASC","1","f","rechts","23","{""Q0"":""f"",""Q1"":""rechts""}","","","","",""
"4145","","","survey-text","4","21976","0.0-4.0","MASC","1","f","rechts","23","{""Q0"":""23""}","","","","",""
"27858","<p>Stell dir vor, dass du vor einem runden Tisch stehst, auf dem sich ein blauer Ball am Tischrand befindet. Entlang des Tischrands ist jeweils ein verschieden langer Pfeil. Nun bleibst du an deinem Platz vor dem Tisch und rotierst den Tisch entlang des Pfeils (gleiche Richtung und Länge). </p> <img src='img/30_180.png'></img> <br><p> Nachdem du diese (vorgestellte) Rotation durchgef&uuml;hrt hast, schau in Richtung der Tischmitte, und entscheide dann, ob der Ball links oder rechts von dir liegt.</p> <p>Dr&uuml;cke die <strong>'f'</strong>-Taste f&uuml;r links, die <strong>'j'</strong>-Taste f&uuml;r rechts.</p><br><p> Das Bild wird jeweils 1 Sekunde lang pr&auml;sentiert. Du hast 3 Sekunden Zeit eine Entscheidung zu treffen.</p>","70","html-keyboard-response","5","49835","0.0-5.0","MASC","1","f","rechts","23","","","","","",""
"null","<div style=""font-size:60px;"">+</div>","null","html-keyboard-response","6","51239","0.0-6.0-0.0","MASC","1","f","rechts","23","","fixation","","","",""
"760","img/90_150.png","70","image-keyboard-response","7","52002","0.0-6.0-1.0","MASC","1","f","rechts","23","","","object","j","90","false"
"null","<div style=""font-size:60px;"">+</div>","null","html-keyboard-response","8","52404","0.0-6.0-0.1","MASC","1","f","rechts","23","","fixation","","","",""
"800","img/120_30.png","70","image-keyboard-response","9","53205","0.0-6.0-1.1","MASC","1","f","rechts","23","","","object","f","120","true"
"null","<div style=""font-size:60px;"">+</div>","null","html-keyboard-response","10","53707","0.0-6.0-0.2","MASC","1","f","rechts","23","","fixation","","","",""
"942","img/120_90.png","70","image-keyboard-response","11","54650","0.0-6.0-1.2","MASC","1","f","rechts","23","","","object","f","120","true"
"null","<div style=""font-size:60px;"">+</div>","null","html-keyboard-response","12","55102","0.0-6.0-0.3","MASC","1","f","rechts","23","","fixation","","","",""
"850","img/30_90.png","74","image-keyboard-response","13","55953","0.0-6.0-1.3","MASC","1","f","rechts","23","","","object","j","30","true"
"null","<div style=""font-size:60px;"">+</div>","null","html-keyboard-response","14","56355","0.0-6.0-0.4","MASC","1","f","rechts","23","","fixation","","","",""
"821","img/60_330.png","74","image-keyboard-response","15","57177","0.0-6.0-1.4","MASC","1","f","rechts","23","","","object","j","60","true"
"null","<div style=""font-size:60px;"">+</div>","null","html-keyboard-response","16","57579","0.0-6.0-0.5","MASC","1","f","rechts","23","","fixation","","","",""
"805","img/90_330.png","74","image-keyboard-response","17","58385","0.0-6.0-1.5","MASC","1","f","rechts","23","","","object","j","90","true"
"null","<div style=""font-size:60px;"">+</div>","null","html-keyboard-response","18","58686","0.0-6.0-0.6","MASC","1","f","rechts","23","","fixation","","","",""
"883","img/150_270.png","70","image-keyboard-response","19","59570","0.0-6.0-1.6","MASC","1","f","rechts","23","","","object","j","150","false"
"null","<div style=""font-size:60px;"">+</div>","null","html-keyboard-response","20","60022","0.0-6.0-0.7","MASC","1","f","rechts","23","","fixation","","","",""
"1077","img/150_240.png","74","image-keyboard-response","21","61100","0.0-6.0-1.7","MASC","1","f","rechts","23","","","object","j","150","true"
"null","<div style=""font-size:60px;"">+</div>","null","html-keyboard-response","22","61501","0.0-6.0-0.8","MASC","1","f","rechts","23","","fixation","","","",""
"845","img/150_120.png","70","image-keyboard-response","23","62348","0.0-6.0-1.8","MASC","1","f","rechts","23","","","object","f","150","true"
"null","<div style=""font-size:60px;"">+</div>","null","html-keyboard-response","24","62800","0.0-6.0-0.9","MASC","1","f","rechts","23","","fixation","","","",""
"792","img/60_30.png","70","image-keyboard-response","25","63594","0.0-6.0-1.9","MASC","1","f","rechts","23","","","object","f","60","true"
"null","<div style=""font-size:60px;"">+</div>","null","html-keyboard-response","26","63945","0.0-6.0-0.10","MASC","1","f","rechts","23","","fixation","","","",""
"974","img/30_240.png","70","image-keyboard-response","27","64921","0.0-6.0-1.10","MASC","1","f","rechts","23","","","object","f","30","true"
"null","<div style=""font-size:60px;"">+</div>","null","html-keyboard-response","28","65323","0.0-6.0-0.11","MASC","1","f","rechts","23","","fixation","","","",""
"993","img/120_180.png","74","image-keyboard-response","29","66317","0.0-6.0-1.11","MASC","1","f","rechts","23","","","object","f","120","false"
"null","<div style=""font-size:60px;"">+</div>","null","html-keyboard-response","30","66769","0.0-6.0-0.12","MASC","1","f","rechts","23","","fixation","","","",""
"1204","img/0_330.png","70","image-keyboard-response","31","67975","0.0-6.0-1.12","MASC","1","f","rechts","23","","","object","f","0","true"
"null","<div style=""font-size:60px;"">+</div>","null","html-keyboard-response","32","68426","0.0-6.0-0.13","MASC","1","f","rechts","23","","fixation","","","",""
"813","img/90_300.png","74","image-keyboard-response","33","69240","0.0-6.0-1.13","MASC","1","f","rechts","23","","","object","j","90","true"
"null","<div style=""font-size:60px;"">+</div>","null","html-keyboard-response","34","69742","0.0-6.0-0.14","MASC","1","f","rechts","23","","fixation","","","",""
"1006","img/0_270.png","70","image-keyboard-response","35","70749","0.0-6.0-1.14","MASC","1","f","rechts","23","","","object","f","0","true"
"null","<div style=""font-size:60px;"">+</div>","null","html-keyboard-response","36","71151","0.0-6.0-0.15","MASC","1","f","rechts","23","","fixation","","","",""
"1559","img/L30_180.png","74","image-keyboard-response","37","72712","0.0-6.0-1.15","MASC","1","f","rechts","23","","","object","j","30","true"
"null","<div style=""font-size:60px;"">+</div>","null","html-keyboard-response","38","73013","0.0-6.0-0.16","MASC","1","f","rechts","23","","fixation","","","",""
"813","img/90_30.png","70","image-keyboard-response","39","73829","0.0-6.0-1.16","MASC","1","f","rechts","23","","","object","f","90","true"
"null","<div style=""font-size:60px;"">+</div>","null","html-keyboard-response","40","74330","0.0-6.0-0.17","MASC","1","f","rechts","23","","fixation","","","",""
"954","img/L120_180.png","74","image-keyboard-response","41","75286","0.0-6.0-1.17","MASC","1","f","rechts","23","","","object","j","120","true"
"null","<div style=""font-size:60px;"">+</div>","null","html-keyboard-response","42","75588","0.0-6.0-0.18","MASC","1","f","rechts","23","","fixation","","","",""
"1020","img/L60_180.png","74","image-keyboard-response","43","76609","0.0-6.0-1.18","MASC","1","f","rechts","23","","","object","j","60","true"
"null","<div style=""font-size:60px;"">+</div>","null","html-keyboard-response","44","76961","0.0-6.0-0.19","MASC","1","f","rechts","23","","fixation","","","",""
"1073","img/120_330.png","74","image-keyboard-response","45","78036","0.0-6.0-1.19","MASC","1","f","rechts","23","","","object","j","120","true"
"null","<div style=""font-size:60px;"">+</div>","null","html-keyboard-response","46","78487","0.0-6.0-0.20","MASC","1","f","rechts","23","","fixation","","","",""
"1064","img/90_240.png","74","image-keyboard-response","47","79553","0.0-6.0-1.20","MASC","1","f","rechts","23","","","object","f","90","false"
"null","<div style=""font-size:60px;"">+</div>","null","html-keyboard-response","48","79904","0.0-6.0-0.21","MASC","1","f","rechts","23","","fixation","","","",""
"1059","img/120_210.png","74","image-keyboard-response","49","80965","0.0-6.0-1.21","MASC","1","f","rechts","23","","","object","f","120","false"
"null","<div style=""font-size:60px;"">+</div>","null","html-keyboard-response","50","81367","0.0-6.0-0.22","MASC","1","f","rechts","23","","fixation","","","",""
"1014","img/0_30.png","74","image-keyboard-response","51","82382","0.0-6.0-1.22","MASC","1","f","rechts","23","","","object","j","0","true"
"null","<div style=""font-size:60px;"">+</div>","null","html-keyboard-response","52","82834","0.0-6.0-0.23","MASC","1","f","rechts","23","","fixation","","","",""
"762","img/0_90.png","74","image-keyboard-response","53","83597","0.0-6.0-1.23","MASC","1","f","rechts","23","","","object","j","0","true"
"null","<div style=""font-size:60px;"">+</div>","null","html-keyboard-response","54","84049","0.0-6.0-0.24","MASC","1","f","rechts","23","","fixation","","","",""
"940","img/90_210.png","74","image-keyboard-response","55","84990","0.0-6.0-1.24","MASC","1","f","rechts","23","","","object","f","90","false"
"null","<div style=""font-size:60px;"">+</div>","null","html-keyboard-response","56","85342","0.0-6.0-0.25","MASC","1","f","rechts","23","","fixation","","","",""
"890","img/60_270.png","74","image-keyboard-response","57","86233","0.0-6.0-1.25","MASC","1","f","rechts","23","","","object","f","60","false"
"null","<div style=""font-size:60px;"">+</div>","null","html-keyboard-response","58","86635","0.0-6.0-0.26","MASC","1","f","rechts","23","","fixation","","","",""
"841","img/0_300.png","70","image-keyboard-response","59","87477","0.0-6.0-1.26","MASC","1","f","rechts","23","","","object","f","0","true"
"null","<div style=""font-size:60px;"">+</div>","null","html-keyboard-response","60","87829","0.0-6.0-0.27","MASC","1","f","rechts","23","","fixation","","","",""
"912","img/0_60.png","74","image-keyboard-response","61","88742","0.0-6.0-1.27","MASC","1","f","rechts","23","","","object","j","0","true"
"null","<div style=""font-size:60px;"">+</div>","null","html-keyboard-response","62","89194","0.0-6.0-0.28","MASC","1","f","rechts","23","","fixation","","","",""
"894","img/30_270.png","70","image-keyboard-response","63","90089","0.0-6.0-1.28","MASC","1","f","rechts","23","","","object","f","30","true"
"null","<div style=""font-size:60px;"">+</div>","null","html-keyboard-response","64","90391","0.0-6.0-0.29","MASC","1","f","rechts","23","","fixation","","","",""
"860","img/90_60.png","70","image-keyboard-response","65","91252","0.0-6.0-1.29","MASC","1","f","rechts","23","","","object","f","90","true"
"null","<div style=""font-size:60px;"">+</div>","null","html-keyboard-response","66","91604","0.0-6.0-0.30","MASC","1","f","rechts","23","","fixation","","","",""
"928","img/30_120.png","74","image-keyboard-response","67","92533","0.0-6.0-1.30","MASC","1","f","rechts","23","","","object","j","30","true"
"null","<div style=""font-size:60px;"">+</div>","null","html-keyboard-response","68","92885","0.0-6.0-0.31","MASC","1","f","rechts","23","","fixation","","","",""
"1004","img/60_90.png","70","image-keyboard-response","69","93890","0.0-6.0-1.31","MASC","1","f","rechts","23","","","object","j","60","false"
"null","<div style=""font-size:60px;"">+</div>","null","html-keyboard-response","70","94292","0.0-6.0-0.32","MASC","1","f","rechts","23","","fixation","","","",""
"1019","img/60_210.png","74","image-keyboard-response","71","95312","0.0-6.0-1.32","MASC","1","f","rechts","23","","","object","f","60","false"
"null","<div style=""font-size:60px;"">+</div>","null","html-keyboard-response","72","95764","0.0-6.0-0.33","MASC","1","f","rechts","23","","fixation","","","",""
"843","img/0_210.png","70","image-keyboard-response","73","96608","0.0-6.0-1.33","MASC","1","f","rechts","23","","","object","f","0","true"
"null","<div style=""font-size:60px;"">+</div>","null","html-keyboard-response","74","96960","0.0-6.0-0.34","MASC","1","f","rechts","23","","fixation","","","",""
"741","img/150_300.png","74","image-keyboard-response","75","97705","0.0-6.0-1.34","MASC","1","f","rechts","23","","","object","j","150","true"
"null","<div style=""font-size:60px;"">+</div>","null","html-keyboard-response","76","98056","0.0-6.0-0.35","MASC","1","f","rechts","23","","fixation","","","",""
"909","img/90_180.png","70","image-keyboard-response","77","98967","0.0-6.0-1.35","MASC","1","f","rechts","23","","","object","f","90","true"
"null","<div style=""font-size:60px;"">+</div>","null","html-keyboard-response","78","99369","0.0-6.0-0.36","MASC","1","f","rechts","23","","fixation","","","",""
"1131","img/L150_180.png","74","image-keyboard-response","79","100501","0.0-6.0-1.36","MASC","1","f","rechts","23","","","object","j","150","true"
"null","<div style=""font-size:60px;"">+</div>","null","html-keyboard-response","80","100803","0.0-6.0-0.37","MASC","1","f","rechts","23","","fixation","","","",""
"1369","img/60_180.png","70","image-keyboard-response","81","102173","0.0-6.0-1.37","MASC","1","f","rechts","23","","","object","f","60","true"
"null","<div style=""font-size:60px;"">+</div>","null","html-keyboard-response","82","102525","0.0-6.0-0.38","MASC","1","f","rechts","23","","fixation","","","",""
"1046","img/30_60.png","70","image-keyboard-response","83","103573","0.0-6.0-1.38","MASC","1","f","rechts","23","","","object","j","30","false"
"null","<div style=""font-size:60px;"">+</div>","null","html-keyboard-response","84","103974","0.0-6.0-0.39","MASC","1","f","rechts","23","","fixation","","","",""
"864","img/0_240.png","70","image-keyboard-response","85","104840","0.0-6.0-1.39","MASC","1","f","rechts","23","","","object","f","0","true"
"null","<div style=""font-size:60px;"">+</div>","null","html-keyboard-response","86","105290","0.0-6.0-0.40","MASC","1","f","rechts","23","","fixation","","","",""
"999","img/150_60.png","70","image-keyboard-response","87","106292","0.0-6.0-1.40","MASC","1","f","rechts","23","","","object","f","150","true"
"null","<div style=""font-size:60px;"">+</div>","null","html-keyboard-response","88","106693","0.0-6.0-0.41","MASC","1","f","rechts","23","","fixation","","","",""
"1466","img/30_180.png","70","image-keyboard-response","89","108161","0.0-6.0-1.41","MASC","1","f","rechts","23","","","object","f","30","true"
"null","<div style=""font-size:60px;"">+</div>","null","html-keyboard-response","90","108663","0.0-6.0-0.42","MASC","1","f","rechts","23","","fixation","","","",""
"1154","img/0_120.png","74","image-keyboard-response","91","109819","0.0-6.0-1.42","MASC","1","f","rechts","23","","","object","j","0","true"
"null","<div style=""font-size:60px;"">+</div>","null","html-keyboard-response","92","110220","0.0-6.0-0.43","MASC","1","f","rechts","23","","fixation","","","",""
"836","img/0_150.png","74","image-keyboard-response","93","111057","0.0-6.0-1.43","MASC","1","f","rechts","23","","","object","j","0","true"
"null","<div style=""font-size:60px;"">+</div>","null","html-keyboard-response","94","111359","0.0-6.0-0.44","MASC","1","f","rechts","23","","fixation","","","",""
"951","img/90_120.png","70","image-keyboard-response","95","112312","0.0-6.0-1.44","MASC","1","f","rechts","23","","","object","j","90","false"
"null","<div style=""font-size:60px;"">+</div>","null","html-keyboard-response","96","112813","0.0-6.0-0.45","MASC","1","f","rechts","23","","fixation","","","",""
"1055","img/60_150.png","74","image-keyboard-response","97","113870","0.0-6.0-1.45","MASC","1","f","rechts","23","","","object","j","60","true"
"null","<div style=""font-size:60px;"">+</div>","null","html-keyboard-response","98","114371","0.0-6.0-0.46","MASC","1","f","rechts","23","","fixation","","","",""
"1102","img/L90_180.png","74","image-keyboard-response","99","115474","0.0-6.0-1.46","MASC","1","f","rechts","23","","","object","j","90","true"
"null","<div style=""font-size:60px;"">+</div>","null","html-keyboard-response","100","115826","0.0-6.0-0.47","MASC","1","f","rechts","23","","fixation","","","",""
"1059","img/120_150.png","74","image-keyboard-response","101","116887","0.0-6.0-1.47","MASC","1","f","rechts","23","","","object","j","120","true"
"null","<div style=""font-size:60px;"">+</div>","null","html-keyboard-response","102","117388","0.0-6.0-0.48","MASC","1","f","rechts","23","","fixation","","","",""
"1169","img/150_180.png","70","image-keyboard-response","103","118558","0.0-6.0-1.48","MASC","1","f","rechts","23","","","object","f","150","true"
"null","<div style=""font-size:60px;"">+</div>","null","html-keyboard-response","104","119010","0.0-6.0-0.49","MASC","1","f","rechts","23","","fixation","","","",""
"1077","img/30_300.png","70","image-keyboard-response","105","120089","0.0-6.0-1.49","MASC","1","f","rechts","23","","","object","f","30","true"
"null","<div style=""font-size:60px;"">+</div>","null","html-keyboard-response","106","120390","0.0-6.0-0.50","MASC","1","f","rechts","23","","fixation","","","",""
"1088","img/120_270.png","70","image-keyboard-response","107","121479","0.0-6.0-1.50","MASC","1","f","rechts","23","","","object","j","120","false"
"null","<div style=""font-size:60px;"">+</div>","null","html-keyboard-response","108","121780","0.0-6.0-0.51","MASC","1","f","rechts","23","","fixation","","","",""
"1074","img/150_90.png","70","image-keyboard-response","109","122855","0.0-6.0-1.51","MASC","1","f","rechts","23","","","object","f","150","true"
"null","<div style=""font-size:60px;"">+</div>","null","html-keyboard-response","110","123207","0.0-6.0-0.52","MASC","1","f","rechts","23","","fixation","","","",""
"1009","img/150_90.png","70","image-keyboard-response","111","124217","0.0-6.0-1.52","MASC","1","f","rechts","23","","","object","f","150","true"
"null","<div style=""font-size:60px;"">+</div>","null","html-keyboard-response","112","124569","0.0-6.0-0.53","MASC","1","f","rechts","23","","fixation","","","",""
"1284","img/0_30.png","74","image-keyboard-response","113","125854","0.0-6.0-1.53","MASC","1","f","rechts","23","","","object","j","0","true"
"null","<div style=""font-size:60px;"">+</div>","null","html-keyboard-response","114","126206","0.0-6.0-0.54","MASC","1","f","rechts","23","","fixation","","","",""
"966","img/60_90.png","70","image-keyboard-response","115","127173","0.0-6.0-1.54","MASC","1","f","rechts","23","","","object","j","60","false"
"null","<div style=""font-size:60px;"">+</div>","null","html-keyboard-response","116","127525","0.0-6.0-0.55","MASC","1","f","rechts","23","","fixation","","","",""
"928","img/90_300.png","74","image-keyboard-response","117","128453","0.0-6.0-1.55","MASC","1","f","rechts","23","","","object","j","90","true"
"null","<div style=""font-size:60px;"">+</div>","null","html-keyboard-response","118","128855","0.0-6.0-0.56","MASC","1","f","rechts","23","","fixation","","","",""
"1016","img/0_330.png","70","image-keyboard-response","119","129872","0.0-6.0-1.56","MASC","1","f","rechts","23","","","object","f","0","true"
"null","<div style=""font-size:60px;"">+</div>","null","html-keyboard-response","120","130274","0.0-6.0-0.57","MASC","1","f","rechts","23","","fixation","","","",""
"832","img/120_90.png","70","image-keyboard-response","121","131107","0.0-6.0-1.57","MASC","1","f","rechts","23","","","object","f","120","true"
"null","<div style=""font-size:60px;"">+</div>","null","html-keyboard-response","122","131509","0.0-6.0-0.58","MASC","1","f","rechts","23","","fixation","","","",""
"912","img/150_60.png","70","image-keyboard-response","123","132421","0.0-6.0-1.58","MASC","1","f","rechts","23","","","object","f","150","true"
"null","<div style=""font-size:60px;"">+</div>","null","html-keyboard-response","124","132873","0.0-6.0-0.59","MASC","1","f","rechts","23","","fixation","","","",""
"1067","img/90_210.png","70","image-keyboard-response","125","133940","0.0-6.0-1.59","MASC","1","f","rechts","23","","","object","f","90","true"
"null","<div style=""font-size:60px;"">+</div>","null","html-keyboard-response","126","134392","0.0-6.0-0.60","MASC","1","f","rechts","23","","fixation","","","",""
"1367","img/120_180.png","70","image-keyboard-response","127","135759","0.0-6.0-1.60","MASC","1","f","rechts","23","","","object","f","120","true"
"null","<div style=""font-size:60px;"">+</div>","null","html-keyboard-response","128","136211","0.0-6.0-0.61","MASC","1","f","rechts","23","","fixation","","","",""
"1067","img/L150_180.png","74","image-keyboard-response","129","137280","0.0-6.0-1.61","MASC","1","f","rechts","23","","","object","j","150","true"
"null","<div style=""font-size:60px;"">+</div>","null","html-keyboard-response","130","137681","0.0-6.0-0.62","MASC","1","f","rechts","23","","fixation","","","",""
"1114","img/120_210.png","70","image-keyboard-response","131","138796","0.0-6.0-1.62","MASC","1","f","rechts","23","","","object","f","120","true"
"null","<div style=""font-size:60px;"">+</div>","null","html-keyboard-response","132","139197","0.0-6.0-0.63","MASC","1","f","rechts","23","","fixation","","","",""
"774","img/60_330.png","74","image-keyboard-response","133","139972","0.0-6.0-1.63","MASC","1","f","rechts","23","","","object","j","60","true"
"null","<div style=""font-size:60px;"">+</div>","null","html-keyboard-response","134","140374","0.0-6.0-0.64","MASC","1","f","rechts","23","","fixation","","","",""
"807","img/120_30.png","70","image-keyboard-response","135","141181","0.0-6.0-1.64","MASC","1","f","rechts","23","","","object","f","120","true"
"null","<div style=""font-size:60px;"">+</div>","null","html-keyboard-response","136","141533","0.0-6.0-0.65","MASC","1","f","rechts","23","","fixation","","","",""
"832","img/0_270.png","70","image-keyboard-response","137","142366","0.0-6.0-1.65","MASC","1","f","rechts","23","","","object","f","0","true"
"null","<div style=""font-size:60px;"">+</div>","null","html-keyboard-response","138","142867","0.0-6.0-0.66","MASC","1","f","rechts","23","","fixation","","","",""
"689","img/0_240.png","70","image-keyboard-response","139","143557","0.0-6.0-1.66","MASC","1","f","rechts","23","","","object","f","0","true"
"null","<div style=""font-size:60px;"">+</div>","null","html-keyboard-response","140","143858","0.0-6.0-0.67","MASC","1","f","rechts","23","","fixation","","","",""
"1118","img/30_240.png","70","image-keyboard-response","141","144976","0.0-6.0-1.67","MASC","1","f","rechts","23","","","object","f","30","true"
"null","<div style=""font-size:60px;"">+</div>","null","html-keyboard-response","142","145277","0.0-6.0-0.68","MASC","1","f","rechts","23","","fixation","","","",""
"2189","img/L30_180.png","70","image-keyboard-response","143","147467","0.0-6.0-1.68","MASC","1","f","rechts","23","","","object","j","30","false"
"null","<div style=""font-size:60px;"">+</div>","null","html-keyboard-response","144","147869","0.0-6.0-0.69","MASC","1","f","rechts","23","","fixation","","","",""
"1122","img/60_150.png","74","image-keyboard-response","145","148993","0.0-6.0-1.69","MASC","1","f","rechts","23","","","object","j","60","true"
"null","<div style=""font-size:60px;"">+</div>","null","html-keyboard-response","146","149444","0.0-6.0-0.70","MASC","1","f","rechts","23","","fixation","","","",""
"1141","img/90_180.png","70","image-keyboard-response","147","150587","0.0-6.0-1.70","MASC","1","f","rechts","23","","","object","f","90","true"
"null","<div style=""font-size:60px;"">+</div>","null","html-keyboard-response","148","151089","0.0-6.0-0.71","MASC","1","f","rechts","23","","fixation","","","",""
"884","img/150_270.png","74","image-keyboard-response","149","151974","0.0-6.0-1.71","MASC","1","f","rechts","23","","","object","j","150","true"
"null","<div style=""font-size:60px;"">+</div>","null","html-keyboard-response","150","152475","0.0-6.0-0.72","MASC","1","f","rechts","23","","fixation","","","",""
"828","img/90_330.png","74","image-keyboard-response","151","153304","0.0-6.0-1.72","MASC","1","f","rechts","23","","","object","j","90","true"
"null","<div style=""font-size:60px;"">+</div>","null","html-keyboard-response","152","153606","0.0-6.0-0.73","MASC","1","f","rechts","23","","fixation","","","",""
"811","img/30_120.png","70","image-keyboard-response","153","154419","0.0-6.0-1.73","MASC","1","f","rechts","23","","","object","j","30","false"
"null","<div style=""font-size:60px;"">+</div>","null","html-keyboard-response","154","154820","0.0-6.0-0.74","MASC","1","f","rechts","23","","fixation","","","",""
"844","img/0_60.png","74","image-keyboard-response","155","155666","0.0-6.0-1.74","MASC","1","f","rechts","23","","","object","j","0","true"
"null","<div style=""font-size:60px;"">+</div>","null","html-keyboard-response","156","156067","0.0-6.0-0.75","MASC","1","f","rechts","23","","fixation","","","",""
"1146","img/120_270.png","74","image-keyboard-response","157","157214","0.0-6.0-1.75","MASC","1","f","rechts","23","","","object","j","120","true"
"null","<div style=""font-size:60px;"">+</div>","null","html-keyboard-response","158","157616","0.0-6.0-0.76","MASC","1","f","rechts","23","","fixation","","","",""
"790","img/90_60.png","70","image-keyboard-response","159","158406","0.0-6.0-1.76","MASC","1","f","rechts","23","","","object","f","90","true"
"null","<div style=""font-size:60px;"">+</div>","null","html-keyboard-response","160","158908","0.0-6.0-0.77","MASC","1","f","rechts","23","","fixation","","","",""
"834","img/0_210.png","70","image-keyboard-response","161","159743","0.0-6.0-1.77","MASC","1","f","rechts","23","","","object","f","0","true"
"null","<div style=""font-size:60px;"">+</div>","null","html-keyboard-response","162","160195","0.0-6.0-0.78","MASC","1","f","rechts","23","","fixation","","","",""
"877","img/0_150.png","74","image-keyboard-response","163","161072","0.0-6.0-1.78","MASC","1","f","rechts","23","","","object","j","0","true"
"null","<div style=""font-size:60px;"">+</div>","null","html-keyboard-response","164","161374","0.0-6.0-0.79","MASC","1","f","rechts","23","","fixation","","","",""
"1073","img/0_90.png","74","image-keyboard-response","165","162448","0.0-6.0-1.79","MASC","1","f","rechts","23","","","object","j","0","true"
"null","<div style=""font-size:60px;"">+</div>","null","html-keyboard-response","166","162950","0.0-6.0-0.80","MASC","1","f","rechts","23","","fixation","","","",""
"1232","img/90_240.png","70","image-keyboard-response","167","164182","0.0-6.0-1.80","MASC","1","f","rechts","23","","","object","f","90","true"
"null","<div style=""font-size:60px;"">+</div>","null","html-keyboard-response","168","164584","0.0-6.0-0.81","MASC","1","f","rechts","23","","fixation","","","",""
"1682","img/L60_180.png","74","image-keyboard-response","169","166267","0.0-6.0-1.81","MASC","1","f","rechts","23","","","object","j","60","true"
"null","<div style=""font-size:60px;"">+</div>","null","html-keyboard-response","170","166619","0.0-6.0-0.82","MASC","1","f","rechts","23","","fixation","","","",""
"1289","img/150_120.png","70","image-keyboard-response","171","167909","0.0-6.0-1.82","MASC","1","f","rechts","23","","","object","f","150","true"
"null","<div style=""font-size:60px;"">+</div>","null","html-keyboard-response","172","168411","0.0-6.0-0.83","MASC","1","f","rechts","23","","fixation","","","",""
"910","img/90_30.png","70","image-keyboard-response","173","169322","0.0-6.0-1.83","MASC","1","f","rechts","23","","","object","f","90","true"
"null","<div style=""font-size:60px;"">+</div>","null","html-keyboard-response","174","169824","0.0-6.0-0.84","MASC","1","f","rechts","23","","fixation","","","",""
"1776","img/30_90.png","70","image-keyboard-response","175","171601","0.0-6.0-1.84","MASC","1","f","rechts","23","","","object","j","30","false"
"null","<div style=""font-size:60px;"">+</div>","null","html-keyboard-response","176","171953","0.0-6.0-0.85","MASC","1","f","rechts","23","","fixation","","","",""
"734","img/30_270.png","74","image-keyboard-response","177","172687","0.0-6.0-1.85","MASC","1","f","rechts","23","","","object","f","30","false"
"null","<div style=""font-size:60px;"">+</div>","null","html-keyboard-response","178","173089","0.0-6.0-0.86","MASC","1","f","rechts","23","","fixation","","","",""
"1543","img/120_150.png","74","image-keyboard-response","179","174633","0.0-6.0-1.86","MASC","1","f","rechts","23","","","object","j","120","true"
"null","<div style=""font-size:60px;"">+</div>","null","html-keyboard-response","180","175085","0.0-6.0-0.87","MASC","1","f","rechts","23","","fixation","","","",""
"824","img/0_300.png","70","image-keyboard-response","181","175909","0.0-6.0-1.87","MASC","1","f","rechts","23","","","object","f","0","true"
"null","<div style=""font-size:60px;"">+</div>","null","html-keyboard-response","182","176311","0.0-6.0-0.88","MASC","1","f","rechts","23","","fixation","","","",""
"1217","img/90_120.png","70","image-keyboard-response","183","177529","0.0-6.0-1.88","MASC","1","f","rechts","23","","","object","j","90","false"
"null","<div style=""font-size:60px;"">+</div>","null","html-keyboard-response","184","177931","0.0-6.0-0.89","MASC","1","f","rechts","23","","fixation","","","",""
"1078","img/0_120.png","74","image-keyboard-response","185","179010","0.0-6.0-1.89","MASC","1","f","rechts","23","","","object","j","0","true"
"null","<div style=""font-size:60px;"">+</div>","null","html-keyboard-response","186","179512","0.0-6.0-0.90","MASC","1","f","rechts","23","","fixation","","","",""
"1047","img/60_210.png","70","image-keyboard-response","187","180561","0.0-6.0-1.90","MASC","1","f","rechts","23","","","object","f","60","true"
"null","<div style=""font-size:60px;"">+</div>","null","html-keyboard-response","188","181012","0.0-6.0-0.91","MASC","1","f","rechts","23","","fixation","","","",""
"1148","img/120_330.png","74","image-keyboard-response","189","182161","0.0-6.0-1.91","MASC","1","f","rechts","23","","","object","j","120","true"
"null","<div style=""font-size:60px;"">+</div>","null","html-keyboard-response","190","182663","0.0-6.0-0.92","MASC","1","f","rechts","23","","fixation","","","",""
"1401","img/L90_180.png","74","image-keyboard-response","191","184064","0.0-6.0-1.92","MASC","1","f","rechts","23","","","object","j","90","true"
"null","<div style=""font-size:60px;"">+</div>","null","html-keyboard-response","192","184516","0.0-6.0-0.93","MASC","1","f","rechts","23","","fixation","","","",""
"1205","img/60_270.png","74","image-keyboard-response","193","185721","0.0-6.0-1.93","MASC","1","f","rechts","23","","","object","f","60","false"
"null","<div style=""font-size:60px;"">+</div>","null","html-keyboard-response","194","186072","0.0-6.0-0.94","MASC","1","f","rechts","23","","fixation","","","",""
"1226","img/150_180.png","70","image-keyboard-response","195","187299","0.0-6.0-1.94","MASC","1","f","rechts","23","","","object","f","150","true"
"null","<div style=""font-size:60px;"">+</div>","null","html-keyboard-response","196","187750","0.0-6.0-0.95","MASC","1","f","rechts","23","","fixation","","","",""
"1166","img/90_150.png","74","image-keyboard-response","197","188917","0.0-6.0-1.95","MASC","1","f","rechts","23","","","object","j","90","true"
"null","<div style=""font-size:60px;"">+</div>","null","html-keyboard-response","198","189419","0.0-6.0-0.96","MASC","1","f","rechts","23","","fixation","","","",""
"805","img/60_30.png","70","image-keyboard-response","199","190224","0.0-6.0-1.96","MASC","1","f","rechts","23","","","object","f","60","true"
"null","<div style=""font-size:60px;"">+</div>","null","html-keyboard-response","200","190626","0.0-6.0-0.97","MASC","1","f","rechts","23","","fixation","","","",""
"1227","img/30_180.png","70","image-keyboard-response","201","191854","0.0-6.0-1.97","MASC","1","f","rechts","23","","","object","f","30","true"
"null","<div style=""font-size:60px;"">+</div>","null","html-keyboard-response","202","192305","0.0-6.0-0.98","MASC","1","f","rechts","23","","fixation","","","",""
"1317","img/60_180.png","74","image-keyboard-response","203","193624","0.0-6.0-1.98","MASC","1","f","rechts","23","","","object","f","60","false"
"null","<div style=""font-size:60px;"">+</div>","null","html-keyboard-response","204","193975","0.0-6.0-0.99","MASC","1","f","rechts","23","","fixation","","","",""
"1292","img/30_60.png","70","image-keyboard-response","205","195268","0.0-6.0-1.99","MASC","1","f","rechts","23","","","object","j","30","false"
"null","<div style=""font-size:60px;"">+</div>","null","html-keyboard-response","206","195671","0.0-6.0-0.100","MASC","1","f","rechts","23","","fixation","","","",""
"882","img/150_300.png","74","image-keyboard-response","207","196553","0.0-6.0-1.100","MASC","1","f","rechts","23","","","object","j","150","true"
"null","<div style=""font-size:60px;"">+</div>","null","html-keyboard-response","208","196955","0.0-6.0-0.101","MASC","1","f","rechts","23","","fixation","","","",""
"1932","img/L120_180.png","74","image-keyboard-response","209","198888","0.0-6.0-1.101","MASC","1","f","rechts","23","","","object","j","120","true"
"null","<div style=""font-size:60px;"">+</div>","null","html-keyboard-response","210","199340","0.0-6.0-0.102","MASC","1","f","rechts","23","","fixation","","","",""
"947","img/30_300.png","70","image-keyboard-response","211","200288","0.0-6.0-1.102","MASC","1","f","rechts","23","","","object","f","30","true"
"null","<div style=""font-size:60px;"">+</div>","null","html-keyboard-response","212","200790","0.0-6.0-0.103","MASC","1","f","rechts","23","","fixation","","","",""
"1118","img/150_240.png","74","image-keyboard-response","213","201909","0.0-6.0-1.103","MASC","1","f","rechts","23","","","object","j","150","true"
"null","<div style=""font-size:60px;"">+</div>","null","html-keyboard-response","214","202411","0.0-6.0-0.104","MASC","1","f","rechts","23","","fixation","","","",""
"1054","img/120_30.png","70","image-keyboard-response","215","203466","0.0-6.0-1.104","MASC","1","f","rechts","23","","","object","f","120","true"
"null","<div style=""font-size:60px;"">+</div>","null","html-keyboard-response","216","203917","0.0-6.0-0.105","MASC","1","f","rechts","23","","fixation","","","",""
"1012","img/60_30.png","70","image-keyboard-response","217","204930","0.0-6.0-1.105","MASC","1","f","rechts","23","","","object","f","60","true"
"null","<div style=""font-size:60px;"">+</div>","null","html-keyboard-response","218","205282","0.0-6.0-0.106","MASC","1","f","rechts","23","","fixation","","","",""
"1743","img/90_120.png","70","image-keyboard-response","219","207025","0.0-6.0-1.106","MASC","1","f","rechts","23","","","object","j","90","false"
"null","<div style=""font-size:60px;"">+</div>","null","html-keyboard-response","220","207477","0.0-6.0-0.107","MASC","1","f","rechts","23","","fixation","","","",""
"930","img/30_90.png","74","image-keyboard-response","221","208407","0.0-6.0-1.107","MASC","1","f","rechts","23","","","object","j","30","true"
"null","<div style=""font-size:60px;"">+</div>","null","html-keyboard-response","222","208909","0.0-6.0-0.108","MASC","1","f","rechts","23","","fixation","","","",""
"825","img/30_270.png","70","image-keyboard-response","223","209735","0.0-6.0-1.108","MASC","1","f","rechts","23","","","object","f","30","true"
"null","<div style=""font-size:60px;"">+</div>","null","html-keyboard-response","224","210137","0.0-6.0-0.109","MASC","1","f","rechts","23","","fixation","","","",""
"1610","img/L120_180.png","74","image-keyboard-response","225","211748","0.0-6.0-1.109","MASC","1","f","rechts","23","","","object","j","120","true"
"null","<div style=""font-size:60px;"">+</div>","null","html-keyboard-response","226","212149","0.0-6.0-0.110","MASC","1","f","rechts","23","","fixation","","","",""
"1075","img/L150_180.png","74","image-keyboard-response","227","213225","0.0-6.0-1.110","MASC","1","f","rechts","23","","","object","j","150","true"
"null","<div style=""font-size:60px;"">+</div>","null","html-keyboard-response","228","213576","0.0-6.0-0.111","MASC","1","f","rechts","23","","fixation","","","",""
"856","img/0_270.png","70","image-keyboard-response","229","214433","0.0-6.0-1.111","MASC","1","f","rechts","23","","","object","f","0","true"
"null","<div style=""font-size:60px;"">+</div>","null","html-keyboard-response","230","214785","0.0-6.0-0.112","MASC","1","f","rechts","23","","fixation","","","",""
"917","img/60_270.png","74","image-keyboard-response","231","215702","0.0-6.0-1.112","MASC","1","f","rechts","23","","","object","f","60","false"
"null","<div style=""font-size:60px;"">+</div>","null","html-keyboard-response","232","216003","0.0-6.0-0.113","MASC","1","f","rechts","23","","fixation","","","",""
"1383","img/150_120.png","70","image-keyboard-response","233","217387","0.0-6.0-1.113","MASC","1","f","rechts","23","","","object","f","150","true"
"null","<div style=""font-size:60px;"">+</div>","null","html-keyboard-response","234","217689","0.0-6.0-0.114","MASC","1","f","rechts","23","","fixation","","","",""
"1076","img/30_60.png","74","image-keyboard-response","235","218765","0.0-6.0-1.114","MASC","1","f","rechts","23","","","object","j","30","true"
"null","<div style=""font-size:60px;"">+</div>","null","html-keyboard-response","236","219266","0.0-6.0-0.115","MASC","1","f","rechts","23","","fixation","","","",""
"970","img/90_210.png","70","image-keyboard-response","237","220237","0.0-6.0-1.115","MASC","1","f","rechts","23","","","object","f","90","true"
"null","<div style=""font-size:60px;"">+</div>","null","html-keyboard-response","238","220589","0.0-6.0-0.116","MASC","1","f","rechts","23","","fixation","","","",""
"1734","img/L30_180.png","74","image-keyboard-response","239","222323","0.0-6.0-1.116","MASC","1","f","rechts","23","","","object","j","30","true"
"null","<div style=""font-size:60px;"">+</div>","null","html-keyboard-response","240","222725","0.0-6.0-0.117","MASC","1","f","rechts","23","","fixation","","","",""
"1437","img/90_330.png","74","image-keyboard-response","241","224162","0.0-6.0-1.117","MASC","1","f","rechts","23","","","object","j","90","true"
"null","<div style=""font-size:60px;"">+</div>","null","html-keyboard-response","242","224613","0.0-6.0-0.118","MASC","1","f","rechts","23","","fixation","","","",""
"863","img/0_60.png","74","image-keyboard-response","243","225477","0.0-6.0-1.118","MASC","1","f","rechts","23","","","object","j","0","true"
"null","<div style=""font-size:60px;"">+</div>","null","html-keyboard-response","244","225978","0.0-6.0-0.119","MASC","1","f","rechts","23","","fixation","","","",""
"1086","img/90_240.png","70","image-keyboard-response","245","227066","0.0-6.0-1.119","MASC","1","f","rechts","23","","","object","f","90","true"
"null","<div style=""font-size:60px;"">+</div>","null","html-keyboard-response","246","227467","0.0-6.0-0.120","MASC","1","f","rechts","23","","fixation","","","",""
"1500","img/120_180.png","70","image-keyboard-response","247","228968","0.0-6.0-1.120","MASC","1","f","rechts","23","","","object","f","120","true"
"null","<div style=""font-size:60px;"">+</div>","null","html-keyboard-response","248","229269","0.0-6.0-0.121","MASC","1","f","rechts","23","","fixation","","","",""
"1644","img/150_180.png","70","image-keyboard-response","249","230913","0.0-6.0-1.121","MASC","1","f","rechts","23","","","object","f","150","true"
"null","<div style=""font-size:60px;"">+</div>","null","html-keyboard-response","250","231215","0.0-6.0-0.122","MASC","1","f","rechts","23","","fixation","","","",""
"853","img/0_90.png","74","image-keyboard-response","251","232069","0.0-6.0-1.122","MASC","1","f","rechts","23","","","object","j","0","true"
"null","<div style=""font-size:60px;"">+</div>","null","html-keyboard-response","252","232571","0.0-6.0-0.123","MASC","1","f","rechts","23","","fixation","","","",""
"1318","img/150_240.png","74","image-keyboard-response","253","233889","0.0-6.0-1.123","MASC","1","f","rechts","23","","","object","j","150","true"
"null","<div style=""font-size:60px;"">+</div>","null","html-keyboard-response","254","234241","0.0-6.0-0.124","MASC","1","f","rechts","23","","fixation","","","",""
"950","img/0_30.png","74","image-keyboard-response","255","235193","0.0-6.0-1.124","MASC","1","f","rechts","23","","","object","j","0","true"
"null","<div style=""font-size:60px;"">+</div>","null","html-keyboard-response","256","235544","0.0-6.0-0.125","MASC","1","f","rechts","23","","fixation","","","",""
"850","img/90_60.png","70","image-keyboard-response","257","236395","0.0-6.0-1.125","MASC","1","f","rechts","23","","","object","f","90","true"
"null","<div style=""font-size:60px;"">+</div>","null","html-keyboard-response","258","236696","0.0-6.0-0.126","MASC","1","f","rechts","23","","fixation","","","",""
"1276","img/90_150.png","74","image-keyboard-response","259","237973","0.0-6.0-1.126","MASC","1","f","rechts","23","","","object","j","90","true"
"null","<div style=""font-size:60px;"">+</div>","null","html-keyboard-response","260","238425","0.0-6.0-0.127","MASC","1","f","rechts","23","","fixation","","","",""
"818","img/0_120.png","74","image-keyboard-response","261","239244","0.0-6.0-1.127","MASC","1","f","rechts","23","","","object","j","0","true"
"null","<div style=""font-size:60px;"">+</div>","null","html-keyboard-response","262","239746","0.0-6.0-0.128","MASC","1","f","rechts","23","","fixation","","","",""
"836","img/0_300.png","70","image-keyboard-response","263","240584","0.0-6.0-1.128","MASC","1","f","rechts","23","","","object","f","0","true"
"null","<div style=""font-size:60px;"">+</div>","null","html-keyboard-response","264","240935","0.0-6.0-0.129","MASC","1","f","rechts","23","","fixation","","","",""
"804","img/90_300.png","74","image-keyboard-response","265","241740","0.0-6.0-1.129","MASC","1","f","rechts","23","","","object","j","90","true"
"null","<div style=""font-size:60px;"">+</div>","null","html-keyboard-response","266","242142","0.0-6.0-0.130","MASC","1","f","rechts","23","","fixation","","","",""
"1078","img/L60_180.png","74","image-keyboard-response","267","243221","0.0-6.0-1.130","MASC","1","f","rechts","23","","","object","j","60","true"
"null","<div style=""font-size:60px;"">+</div>","null","html-keyboard-response","268","243523","0.0-6.0-0.131","MASC","1","f","rechts","23","","fixation","","","",""
"1165","img/150_90.png","70","image-keyboard-response","269","244688","0.0-6.0-1.131","MASC","1","f","rechts","23","","","object","f","150","true"
"null","<div style=""font-size:60px;"">+</div>","null","html-keyboard-response","270","245190","0.0-6.0-0.132","MASC","1","f","rechts","23","","fixation","","","",""
"791","img/0_150.png","74","image-keyboard-response","271","245982","0.0-6.0-1.132","MASC","1","f","rechts","23","","","object","j","0","true"
"null","<div style=""font-size:60px;"">+</div>","null","html-keyboard-response","272","246384","0.0-6.0-0.133","MASC","1","f","rechts","23","","fixation","","","",""
"1301","img/150_60.png","70","image-keyboard-response","273","247686","0.0-6.0-1.133","MASC","1","f","rechts","23","","","object","f","150","true"
"null","<div style=""font-size:60px;"">+</div>","null","html-keyboard-response","274","248088","0.0-6.0-0.134","MASC","1","f","rechts","23","","fixation","","","",""
"986","img/0_240.png","70","image-keyboard-response","275","249075","0.0-6.0-1.134","MASC","1","f","rechts","23","","","object","f","0","true"
"null","<div style=""font-size:60px;"">+</div>","null","html-keyboard-response","276","249377","0.0-6.0-0.135","MASC","1","f","rechts","23","","fixation","","","",""
"1461","img/120_210.png","70","image-keyboard-response","277","250838","0.0-6.0-1.135","MASC","1","f","rechts","23","","","object","f","120","true"
"null","<div style=""font-size:60px;"">+</div>","null","html-keyboard-response","278","251190","0.0-6.0-0.136","MASC","1","f","rechts","23","","fixation","","","",""
"1285","img/60_90.png","70","image-keyboard-response","279","252476","0.0-6.0-1.136","MASC","1","f","rechts","23","","","object","j","60","false"
"null","<div style=""font-size:60px;"">+</div>","null","html-keyboard-response","280","252778","0.0-6.0-0.137","MASC","1","f","rechts","23","","fixation","","","",""
"1603","img/30_180.png","74","image-keyboard-response","281","254382","0.0-6.0-1.137","MASC","1","f","rechts","23","","","object","f","30","false"
"null","<div style=""font-size:60px;"">+</div>","null","html-keyboard-response","282","254884","0.0-6.0-0.138","MASC","1","f","rechts","23","","fixation","","","",""
"771","img/0_210.png","70","image-keyboard-response","283","255656","0.0-6.0-1.138","MASC","1","f","rechts","23","","","object","f","0","true"
"null","<div style=""font-size:60px;"">+</div>","null","html-keyboard-response","284","256058","0.0-6.0-0.139","MASC","1","f","rechts","23","","fixation","","","",""
"1256","img/150_270.png","74","image-keyboard-response","285","257315","0.0-6.0-1.139","MASC","1","f","rechts","23","","","object","j","150","true"
"null","<div style=""font-size:60px;"">+</div>","null","html-keyboard-response","286","257717","0.0-6.0-0.140","MASC","1","f","rechts","23","","fixation","","","",""
"1405","img/60_210.png","70","image-keyboard-response","287","259122","0.0-6.0-1.140","MASC","1","f","rechts","23","","","object","f","60","true"
"null","<div style=""font-size:60px;"">+</div>","null","html-keyboard-response","288","259424","0.0-6.0-0.141","MASC","1","f","rechts","23","","fixation","","","",""
"861","img/30_240.png","70","image-keyboard-response","289","260285","0.0-6.0-1.141","MASC","1","f","rechts","23","","","object","f","30","true"
"null","<div style=""font-size:60px;"">+</div>","null","html-keyboard-response","290","260787","0.0-6.0-0.142","MASC","1","f","rechts","23","","fixation","","","",""
"812","img/120_330.png","74","image-keyboard-response","291","261600","0.0-6.0-1.142","MASC","1","f","rechts","23","","","object","j","120","true"
"null","<div style=""font-size:60px;"">+</div>","null","html-keyboard-response","292","262052","0.0-6.0-0.143","MASC","1","f","rechts","23","","fixation","","","",""
"873","img/90_30.png","70","image-keyboard-response","293","262925","0.0-6.0-1.143","MASC","1","f","rechts","23","","","object","f","90","true"
"null","<div style=""font-size:60px;"">+</div>","null","html-keyboard-response","294","263377","0.0-6.0-0.144","MASC","1","f","rechts","23","","fixation","","","",""
"837","img/60_330.png","74","image-keyboard-response","295","264214","0.0-6.0-1.144","MASC","1","f","rechts","23","","","object","j","60","true"
"null","<div style=""font-size:60px;"">+</div>","null","html-keyboard-response","296","264666","0.0-6.0-0.145","MASC","1","f","rechts","23","","fixation","","","",""
"1324","img/120_150.png","74","image-keyboard-response","297","265990","0.0-6.0-1.145","MASC","1","f","rechts","23","","","object","j","120","true"
"null","<div style=""font-size:60px;"">+</div>","null","html-keyboard-response","298","266441","0.0-6.0-0.146","MASC","1","f","rechts","23","","fixation","","","",""
"1060","img/30_300.png","70","image-keyboard-response","299","267502","0.0-6.0-1.146","MASC","1","f","rechts","23","","","object","f","30","true"
"null","<div style=""font-size:60px;"">+</div>","null","html-keyboard-response","300","267803","0.0-6.0-0.147","MASC","1","f","rechts","23","","fixation","","","",""
"1603","img/L90_180.png","74","image-keyboard-response","301","269407","0.0-6.0-1.147","MASC","1","f","rechts","23","","","object","j","90","true"
"null","<div style=""font-size:60px;"">+</div>","null","html-keyboard-response","302","269909","0.0-6.0-0.148","MASC","1","f","rechts","23","","fixation","","","",""
"1299","img/120_270.png","74","image-keyboard-response","303","271209","0.0-6.0-1.148","MASC","1","f","rechts","23","","","object","j","120","true"
"null","<div style=""font-size:60px;"">+</div>","null","html-keyboard-response","304","271510","0.0-6.0-0.149","MASC","1","f","rechts","23","","fixation","","","",""
"913","img/30_120.png","70","image-keyboard-response","305","272424","0.0-6.0-1.149","MASC","1","f","rechts","23","","","object","j","30","false"
"null","<div style=""font-size:60px;"">+</div>","null","html-keyboard-response","306","272726","0.0-6.0-0.150","MASC","1","f","rechts","23","","fixation","","","",""
"1178","img/60_150.png","74","image-keyboard-response","307","273906","0.0-6.0-1.150","MASC","1","f","rechts","23","","","object","j","60","true"
"null","<div style=""font-size:60px;"">+</div>","null","html-keyboard-response","308","274357","0.0-6.0-0.151","MASC","1","f","rechts","23","","fixation","","","",""
"887","img/120_90.png","70","image-keyboard-response","309","275246","0.0-6.0-1.151","MASC","1","f","rechts","23","","","object","f","120","true"
"null","<div style=""font-size:60px;"">+</div>","null","html-keyboard-response","310","275747","0.0-6.0-0.152","MASC","1","f","rechts","23","","fixation","","","",""
"925","img/0_330.png","70","image-keyboard-response","311","276674","0.0-6.0-1.152","MASC","1","f","rechts","23","","","object","f","0","true"
"null","<div style=""font-size:60px;"">+</div>","null","html-keyboard-response","312","277125","0.0-6.0-0.153","MASC","1","f","rechts","23","","fixation","","","",""
"1066","img/60_180.png","70","image-keyboard-response","313","278192","0.0-6.0-1.153","MASC","1","f","rechts","23","","","object","f","60","true"
"null","<div style=""font-size:60px;"">+</div>","null","html-keyboard-response","314","278644","0.0-6.0-0.154","MASC","1","f","rechts","23","","fixation","","","",""
"1064","img/150_300.png","74","image-keyboard-response","315","279710","0.0-6.0-1.154","MASC","1","f","rechts","23","","","object","j","150","true"
"null","<div style=""font-size:60px;"">+</div>","null","html-keyboard-response","316","280111","0.0-6.0-0.155","MASC","1","f","rechts","23","","fixation","","","",""
"1266","img/90_180.png","74","image-keyboard-response","317","281378","0.0-6.0-1.155","MASC","1","f","rechts","23","","","object","f","90","false"
"null","<div style=""font-size:60px;"">+</div>","null","html-keyboard-response","318","281730","0.0-6.0-0.156","MASC","1","f","rechts","23","","fixation","","","",""
"1659","img/L90_180.png","74","image-keyboard-response","319","283390","0.0-6.0-1.156","MASC","1","f","rechts","23","","","object","j","90","true"
"null","<div style=""font-size:60px;"">+</div>","null","html-keyboard-response","320","283892","0.0-6.0-0.157","MASC","1","f","rechts","23","","fixation","","","",""
"1759","img/150_60.png","70","image-keyboard-response","321","285652","0.0-6.0-1.157","MASC","1","f","rechts","23","","","object","f","150","true"
"null","<div style=""font-size:60px;"">+</div>","null","html-keyboard-response","322","286104","0.0-6.0-0.158","MASC","1","f","rechts","23","","fixation","","","",""
"914","img/90_300.png","74","image-keyboard-response","323","287019","0.0-6.0-1.158","MASC","1","f","rechts","23","","","object","j","90","true"
"null","<div style=""font-size:60px;"">+</div>","null","html-keyboard-response","324","287321","0.0-6.0-0.159","MASC","1","f","rechts","23","","fixation","","","",""
"998","img/60_180.png","70","image-keyboard-response","325","288320","0.0-6.0-1.159","MASC","1","f","rechts","23","","","object","f","60","true"
"null","<div style=""font-size:60px;"">+</div>","null","html-keyboard-response","326","288672","0.0-6.0-0.160","MASC","1","f","rechts","23","","fixation","","","",""
"1095","img/90_30.png","70","image-keyboard-response","327","289768","0.0-6.0-1.160","MASC","1","f","rechts","23","","","object","f","90","true"
"null","<div style=""font-size:60px;"">+</div>","null","html-keyboard-response","328","290270","0.0-6.0-0.161","MASC","1","f","rechts","23","","fixation","","","",""
"1069","img/30_300.png","74","image-keyboard-response","329","291340","0.0-6.0-1.161","MASC","1","f","rechts","23","","","object","f","30","false"
"null","<div style=""font-size:60px;"">+</div>","null","html-keyboard-response","330","291792","0.0-6.0-0.162","MASC","1","f","rechts","23","","fixation","","","",""
"1016","img/150_120.png","70","image-keyboard-response","331","292809","0.0-6.0-1.162","MASC","1","f","rechts","23","","","object","f","150","true"
"null","<div style=""font-size:60px;"">+</div>","null","html-keyboard-response","332","293211","0.0-6.0-0.163","MASC","1","f","rechts","23","","fixation","","","",""
"1252","img/90_180.png","70","image-keyboard-response","333","294464","0.0-6.0-1.163","MASC","1","f","rechts","23","","","object","f","90","true"
"null","<div style=""font-size:60px;"">+</div>","null","html-keyboard-response","334","294966","0.0-6.0-0.164","MASC","1","f","rechts","23","","fixation","","","",""
"1081","img/60_210.png","70","image-keyboard-response","335","296048","0.0-6.0-1.164","MASC","1","f","rechts","23","","","object","f","60","true"
"null","<div style=""font-size:60px;"">+</div>","null","html-keyboard-response","336","296500","0.0-6.0-0.165","MASC","1","f","rechts","23","","fixation","","","",""
"926","img/30_240.png","70","image-keyboard-response","337","297426","0.0-6.0-1.165","MASC","1","f","rechts","23","","","object","f","30","true"
"null","<div style=""font-size:60px;"">+</div>","null","html-keyboard-response","338","297877","0.0-6.0-0.166","MASC","1","f","rechts","23","","fixation","","","",""
"871","img/60_30.png","70","image-keyboard-response","339","298749","0.0-6.0-1.166","MASC","1","f","rechts","23","","","object","f","60","true"
"null","<div style=""font-size:60px;"">+</div>","null","html-keyboard-response","340","299101","0.0-6.0-0.167","MASC","1","f","rechts","23","","fixation","","","",""
"861","img/0_60.png","74","image-keyboard-response","341","299963","0.0-6.0-1.167","MASC","1","f","rechts","23","","","object","j","0","true"
"null","<div style=""font-size:60px;"">+</div>","null","html-keyboard-response","342","300465","0.0-6.0-0.168","MASC","1","f","rechts","23","","fixation","","","",""
"1072","img/60_150.png","74","image-keyboard-response","343","301538","0.0-6.0-1.168","MASC","1","f","rechts","23","","","object","j","60","true"
"null","<div style=""font-size:60px;"">+</div>","null","html-keyboard-response","344","301890","0.0-6.0-0.169","MASC","1","f","rechts","23","","fixation","","","",""
"891","img/120_30.png","70","image-keyboard-response","345","302782","0.0-6.0-1.169","MASC","1","f","rechts","23","","","object","f","120","true"
"null","<div style=""font-size:60px;"">+</div>","null","html-keyboard-response","346","303183","0.0-6.0-0.170","MASC","1","f","rechts","23","","fixation","","","",""
"781","img/0_150.png","74","image-keyboard-response","347","303965","0.0-6.0-1.170","MASC","1","f","rechts","23","","","object","j","0","true"
"null","<div style=""font-size:60px;"">+</div>","null","html-keyboard-response","348","304417","0.0-6.0-0.171","MASC","1","f","rechts","23","","fixation","","","",""
"1200","img/90_120.png","74","image-keyboard-response","349","305617","0.0-6.0-1.171","MASC","1","f","rechts","23","","","object","j","90","true"
"null","<div style=""font-size:60px;"">+</div>","null","html-keyboard-response","350","305969","0.0-6.0-0.172","MASC","1","f","rechts","23","","fixation","","","",""
"967","img/0_270.png","70","image-keyboard-response","351","306937","0.0-6.0-1.172","MASC","1","f","rechts","23","","","object","f","0","true"
"null","<div style=""font-size:60px;"">+</div>","null","html-keyboard-response","352","307238","0.0-6.0-0.173","MASC","1","f","rechts","23","","fixation","","","",""
"964","img/120_180.png","70","image-keyboard-response","353","308203","0.0-6.0-1.173","MASC","1","f","rechts","23","","","object","f","120","true"
"null","<div style=""font-size:60px;"">+</div>","null","html-keyboard-response","354","308555","0.0-6.0-0.174","MASC","1","f","rechts","23","","fixation","","","",""
"1812","img/L120_180.png","74","image-keyboard-response","355","310367","0.0-6.0-1.174","MASC","1","f","rechts","23","","","object","j","120","true"
"null","<div style=""font-size:60px;"">+</div>","null","html-keyboard-response","356","310868","0.0-6.0-0.175","MASC","1","f","rechts","23","","fixation","","","",""
"844","img/60_330.png","74","image-keyboard-response","357","311714","0.0-6.0-1.175","MASC","1","f","rechts","23","","","object","j","60","true"
"null","<div style=""font-size:60px;"">+</div>","null","html-keyboard-response","358","312165","0.0-6.0-0.176","MASC","1","f","rechts","23","","fixation","","","",""
"980","img/90_210.png","70","image-keyboard-response","359","313147","0.0-6.0-1.176","MASC","1","f","rechts","23","","","object","f","90","true"
"null","<div style=""font-size:60px;"">+</div>","null","html-keyboard-response","360","313647","0.0-6.0-0.177","MASC","1","f","rechts","23","","fixation","","","",""
"830","img/0_120.png","74","image-keyboard-response","361","314478","0.0-6.0-1.177","MASC","1","f","rechts","23","","","object","j","0","true"
"null","<div style=""font-size:60px;"">+</div>","null","html-keyboard-response","362","314980","0.0-6.0-0.178","MASC","1","f","rechts","23","","fixation","","","",""
"1063","img/150_180.png","70","image-keyboard-response","363","316044","0.0-6.0-1.178","MASC","1","f","rechts","23","","","object","f","150","true"
"null","<div style=""font-size:60px;"">+</div>","null","html-keyboard-response","364","316446","0.0-6.0-0.179","MASC","1","f","rechts","23","","fixation","","","",""
"934","img/120_330.png","74","image-keyboard-response","365","317381","0.0-6.0-1.179","MASC","1","f","rechts","23","","","object","j","120","true"
"null","<div style=""font-size:60px;"">+</div>","null","html-keyboard-response","366","317883","0.0-6.0-0.180","MASC","1","f","rechts","23","","fixation","","","",""
"1067","img/120_150.png","70","image-keyboard-response","367","318951","0.0-6.0-1.180","MASC","1","f","rechts","23","","","object","j","120","false"
"null","<div style=""font-size:60px;"">+</div>","null","html-keyboard-response","368","319253","0.0-6.0-0.181","MASC","1","f","rechts","23","","fixation","","","",""
"1065","img/L60_180.png","74","image-keyboard-response","369","320319","0.0-6.0-1.181","MASC","1","f","rechts","23","","","object","j","60","true"
"null","<div style=""font-size:60px;"">+</div>","null","html-keyboard-response","370","320821","0.0-6.0-0.182","MASC","1","f","rechts","23","","fixation","","","",""
"1255","img/90_240.png","74","image-keyboard-response","371","322076","0.0-6.0-1.182","MASC","1","f","rechts","23","","","object","f","90","false"
"null","<div style=""font-size:60px;"">+</div>","null","html-keyboard-response","372","322528","0.0-6.0-0.183","MASC","1","f","rechts","23","","fixation","","","",""
"852","img/60_90.png","70","image-keyboard-response","373","323382","0.0-6.0-1.183","MASC","1","f","rechts","23","","","object","j","60","false"
"null","<div style=""font-size:60px;"">+</div>","null","html-keyboard-response","374","323833","0.0-6.0-0.184","MASC","1","f","rechts","23","","fixation","","","",""
"1253","img/120_210.png","70","image-keyboard-response","375","325087","0.0-6.0-1.184","MASC","1","f","rechts","23","","","object","f","120","true"
"null","<div style=""font-size:60px;"">+</div>","null","html-keyboard-response","376","325389","0.0-6.0-0.185","MASC","1","f","rechts","23","","fixation","","","",""
"1071","img/150_270.png","74","image-keyboard-response","377","326461","0.0-6.0-1.185","MASC","1","f","rechts","23","","","object","j","150","true"
"null","<div style=""font-size:60px;"">+</div>","null","html-keyboard-response","378","326863","0.0-6.0-0.186","MASC","1","f","rechts","23","","fixation","","","",""
"1066","img/60_270.png","70","image-keyboard-response","379","327929","0.0-6.0-1.186","MASC","1","f","rechts","23","","","object","f","60","true"
"null","<div style=""font-size:60px;"">+</div>","null","html-keyboard-response","380","328380","0.0-6.0-0.187","MASC","1","f","rechts","23","","fixation","","","",""
"1286","img/30_120.png","74","image-keyboard-response","381","329667","0.0-6.0-1.187","MASC","1","f","rechts","23","","","object","j","30","true"
"null","<div style=""font-size:60px;"">+</div>","null","html-keyboard-response","382","329969","0.0-6.0-0.188","MASC","1","f","rechts","23","","fixation","","","",""
"854","img/0_30.png","74","image-keyboard-response","383","330824","0.0-6.0-1.188","MASC","1","f","rechts","23","","","object","j","0","true"
"null","<div style=""font-size:60px;"">+</div>","null","html-keyboard-response","384","331276","0.0-6.0-0.189","MASC","1","f","rechts","23","","fixation","","","",""
"738","img/0_90.png","74","image-keyboard-response","385","332015","0.0-6.0-1.189","MASC","1","f","rechts","23","","","object","j","0","true"
"null","<div style=""font-size:60px;"">+</div>","null","html-keyboard-response","386","332316","0.0-6.0-0.190","MASC","1","f","rechts","23","","fixation","","","",""
"1150","img/30_180.png","70","image-keyboard-response","387","333467","0.0-6.0-1.190","MASC","1","f","rechts","23","","","object","f","30","true"
"null","<div style=""font-size:60px;"">+</div>","null","html-keyboard-response","388","333769","0.0-6.0-0.191","MASC","1","f","rechts","23","","fixation","","","",""
"1476","img/120_270.png","74","image-keyboard-response","389","335246","0.0-6.0-1.191","MASC","1","f","rechts","23","","","object","j","120","true"
"null","<div style=""font-size:60px;"">+</div>","null","html-keyboard-response","390","335748","0.0-6.0-0.192","MASC","1","f","rechts","23","","fixation","","","",""
"854","img/150_90.png","70","image-keyboard-response","391","336603","0.0-6.0-1.192","MASC","1","f","rechts","23","","","object","f","150","true"
"null","<div style=""font-size:60px;"">+</div>","null","html-keyboard-response","392","336905","0.0-6.0-0.193","MASC","1","f","rechts","23","","fixation","","","",""
"1207","img/30_90.png","74","image-keyboard-response","393","338113","0.0-6.0-1.193","MASC","1","f","rechts","23","","","object","j","30","true"
"null","<div style=""font-size:60px;"">+</div>","null","html-keyboard-response","394","338514","0.0-6.0-0.194","MASC","1","f","rechts","23","","fixation","","","",""
"1756","img/150_240.png","74","image-keyboard-response","395","340271","0.0-6.0-1.194","MASC","1","f","rechts","23","","","object","j","150","true"
"null","<div style=""font-size:60px;"">+</div>","null","html-keyboard-response","396","340573","0.0-6.0-0.195","MASC","1","f","rechts","23","","fixation","","","",""
"849","img/150_300.png","74","image-keyboard-response","397","341422","0.0-6.0-1.195","MASC","1","f","rechts","23","","","object","j","150","true"
"null","<div style=""font-size:60px;"">+</div>","null","html-keyboard-response","398","341873","0.0-6.0-0.196","MASC","1","f","rechts","23","","fixation","","","",""
"840","img/30_270.png","70","image-keyboard-response","399","342714","0.0-6.0-1.196","MASC","1","f","rechts","23","","","object","f","30","true"
"null","<div style=""font-size:60px;"">+</div>","null","html-keyboard-response","400","343115","0.0-6.0-0.197","MASC","1","f","rechts","23","","fixation","","","",""
"887","img/0_330.png","70","image-keyboard-response","401","344003","0.0-6.0-1.197","MASC","1","f","rechts","23","","","object","f","0","true"
"null","<div style=""font-size:60px;"">+</div>","null","html-keyboard-response","402","344455","0.0-6.0-0.198","MASC","1","f","rechts","23","","fixation","","","",""
"925","img/90_60.png","70","image-keyboard-response","403","345380","0.0-6.0-1.198","MASC","1","f","rechts","23","","","object","f","90","true"
"null","<div style=""font-size:60px;"">+</div>","null","html-keyboard-response","404","345782","0.0-6.0-0.199","MASC","1","f","rechts","23","","fixation","","","",""
"1070","img/0_300.png","70","image-keyboard-response","405","346852","0.0-6.0-1.199","MASC","1","f","rechts","23","","","object","f","0","true"
"null","<div style=""font-size:60px;"">+</div>","null","html-keyboard-response","406","347354","0.0-6.0-0.200","MASC","1","f","rechts","23","","fixation","","","",""
"1363","img/120_90.png","70","image-keyboard-response","407","348718","0.0-6.0-1.200","MASC","1","f","rechts","23","","","object","f","120","true"
"null","<div style=""font-size:60px;"">+</div>","null","html-keyboard-response","408","349070","0.0-6.0-0.201","MASC","1","f","rechts","23","","fixation","","","",""
"1008","img/30_60.png","74","image-keyboard-response","409","350079","0.0-6.0-1.201","MASC","1","f","rechts","23","","","object","j","30","true"
"null","<div style=""font-size:60px;"">+</div>","null","html-keyboard-response","410","350380","0.0-6.0-0.202","MASC","1","f","rechts","23","","fixation","","","",""
"816","img/0_240.png","70","image-keyboard-response","411","351197","0.0-6.0-1.202","MASC","1","f","rechts","23","","","object","f","0","true"
"null","<div style=""font-size:60px;"">+</div>","null","html-keyboard-response","412","351548","0.0-6.0-0.203","MASC","1","f","rechts","23","","fixation","","","",""
"1087","img/90_150.png","74","image-keyboard-response","413","352637","0.0-6.0-1.203","MASC","1","f","rechts","23","","","object","j","90","true"
"null","<div style=""font-size:60px;"">+</div>","null","html-keyboard-response","414","353138","0.0-6.0-0.204","MASC","1","f","rechts","23","","fixation","","","",""
"1100","img/90_330.png","74","image-keyboard-response","415","354240","0.0-6.0-1.204","MASC","1","f","rechts","23","","","object","j","90","true"
"null","<div style=""font-size:60px;"">+</div>","null","html-keyboard-response","416","354591","0.0-6.0-0.205","MASC","1","f","rechts","23","","fixation","","","",""
"2011","img/L30_180.png","74","image-keyboard-response","417","356604","0.0-6.0-1.205","MASC","1","f","rechts","23","","","object","j","30","true"
"null","<div style=""font-size:60px;"">+</div>","null","html-keyboard-response","418","356956","0.0-6.0-0.206","MASC","1","f","rechts","23","","fixation","","","",""
"1261","img/L150_180.png","74","image-keyboard-response","419","358219","0.0-6.0-1.206","MASC","1","f","rechts","23","","","object","j","150","true"
"null","<div style=""font-size:60px;"">+</div>","null","html-keyboard-response","420","358520","0.0-6.0-0.207","MASC","1","f","rechts","23","","fixation","","","",""
"870","img/0_210.png","70","image-keyboard-response","421","359392","0.0-6.0-1.207","MASC","1","f","rechts","23","","","object","f","0","true"
"6381","<p>Du hast in 83% der Versuche korrekt entschieden.</p><p>Deine durchschnittliche Reaktionszeit war  1066ms.</p><p>Dr&uuml;cke eine beliebige Taste, um die Session zu beenden. Vielen Dank!</p>","74","html-keyboard-response","422","365776","0.0-7.0","MASC","1","f","rechts","23","","","","","",""
