"rt","stimulus","key_press","trial_type","trial_index","time_elapsed","internal_node_id","subject","session","sex","handedness","age","responses","test_part","condition","correct_response","angle","correct"
"7330","<p>Mental Rotation Experiment.</p> <p>Dr&uuml;cke eine beliebige Taste, um anzufangen.</p>","72","html-keyboard-response","0","7333","0.0-0.0","MASC","2","f","rechts","23","","","","","",""
"17317","","","survey-text","1","24653","0.0-1.0","MASC","2","f","rechts","23","{""Q0"":""MASC""}","","","","",""
"2346","","","survey-text","2","26999","0.0-2.0","MASC","2","f","rechts","23","{""Q0"":""2""}","","","","",""
"3088","","","survey-multi-choice","3","30089","0.0-3.0","MASC","2","f","rechts","23","{""Q0"":""f"",""Q1"":""rechts""}","","","","",""
"1382","","","survey-text","4","31471","0.0-4.0","MASC","2","f","rechts","23","{""Q0"":""23""}","","","","",""
"60615","<p>Stell dir vor, dass du vor einem runden Tisch stehst, auf dem sich ein blauer Ball am Tischrand befindet. Entlang des Tischrands ist jeweils ein verschieden langer Pfeil. Nun bleibst du an deinem Platz vor dem Tisch und rotierst den Tisch entlang des Pfeils (gleiche Richtung und Länge). </p> <img src='img/30_180.png'></img> <br><p> Nachdem du diese (vorgestellte) Rotation durchgef&uuml;hrt hast, schau in Richtung der Tischmitte, und entscheide dann, ob der Ball links oder rechts von dir liegt.</p> <p>Dr&uuml;cke die <strong>'f'</strong>-Taste f&uuml;r links, die <strong>'j'</strong>-Taste f&uuml;r rechts.</p><br><p> Das Bild wird jeweils 1 Sekunde lang pr&auml;sentiert. Du hast 3 Sekunden Zeit eine Entscheidung zu treffen.</p>","74","html-keyboard-response","5","92088","0.0-5.0","MASC","2","f","rechts","23","","","","","",""
"null","<div style=""font-size:60px;"">+</div>","null","html-keyboard-response","6","93541","0.0-6.0-0.0","MASC","2","f","rechts","23","","fixation","","","",""
"725","img/90_30.png","70","image-keyboard-response","7","94267","0.0-6.0-1.0","MASC","2","f","rechts","23","","","object","f","90","true"
"null","<div style=""font-size:60px;"">+</div>","null","html-keyboard-response","8","94619","0.0-6.0-0.1","MASC","2","f","rechts","23","","fixation","","","",""
"1068","img/150_90.png","70","image-keyboard-response","9","95688","0.0-6.0-1.1","MASC","2","f","rechts","23","","","object","f","150","true"
"null","<div style=""font-size:60px;"">+</div>","null","html-keyboard-response","10","96090","0.0-6.0-0.2","MASC","2","f","rechts","23","","fixation","","","",""
"924","img/0_300.png","70","image-keyboard-response","11","97015","0.0-6.0-1.2","MASC","2","f","rechts","23","","","object","f","0","true"
"null","<div style=""font-size:60px;"">+</div>","null","html-keyboard-response","12","97317","0.0-6.0-0.3","MASC","2","f","rechts","23","","fixation","","","",""
"1071","img/L30_180.png","74","image-keyboard-response","13","98389","0.0-6.0-1.3","MASC","2","f","rechts","23","","","object","j","30","true"
"null","<div style=""font-size:60px;"">+</div>","null","html-keyboard-response","14","98841","0.0-6.0-0.4","MASC","2","f","rechts","23","","fixation","","","",""
"1069","img/L150_180.png","74","image-keyboard-response","15","99911","0.0-6.0-1.4","MASC","2","f","rechts","23","","","object","j","150","true"
"null","<div style=""font-size:60px;"">+</div>","null","html-keyboard-response","16","100313","0.0-6.0-0.5","MASC","2","f","rechts","23","","fixation","","","",""
"831","img/0_90.png","74","image-keyboard-response","17","101145","0.0-6.0-1.5","MASC","2","f","rechts","23","","","object","j","0","true"
"null","<div style=""font-size:60px;"">+</div>","null","html-keyboard-response","18","101597","0.0-6.0-0.6","MASC","2","f","rechts","23","","fixation","","","",""
"748","img/0_60.png","74","image-keyboard-response","19","102347","0.0-6.0-1.6","MASC","2","f","rechts","23","","","object","j","0","true"
"null","<div style=""font-size:60px;"">+</div>","null","html-keyboard-response","20","102698","0.0-6.0-0.7","MASC","2","f","rechts","23","","fixation","","","",""
"908","img/30_120.png","74","image-keyboard-response","21","103607","0.0-6.0-1.7","MASC","2","f","rechts","23","","","object","j","30","true"
"null","<div style=""font-size:60px;"">+</div>","null","html-keyboard-response","22","103957","0.0-6.0-0.8","MASC","2","f","rechts","23","","fixation","","","",""
"810","img/60_330.png","74","image-keyboard-response","23","104768","0.0-6.0-1.8","MASC","2","f","rechts","23","","","object","j","60","true"
"null","<div style=""font-size:60px;"">+</div>","null","html-keyboard-response","24","105169","0.0-6.0-0.9","MASC","2","f","rechts","23","","fixation","","","",""
"905","img/90_330.png","74","image-keyboard-response","25","106076","0.0-6.0-1.9","MASC","2","f","rechts","23","","","object","j","90","true"
"null","<div style=""font-size:60px;"">+</div>","null","html-keyboard-response","26","106428","0.0-6.0-0.10","MASC","2","f","rechts","23","","fixation","","","",""
"786","img/0_30.png","74","image-keyboard-response","27","107215","0.0-6.0-1.10","MASC","2","f","rechts","23","","","object","j","0","true"
"null","<div style=""font-size:60px;"">+</div>","null","html-keyboard-response","28","107517","0.0-6.0-0.11","MASC","2","f","rechts","23","","fixation","","","",""
"928","img/30_300.png","70","image-keyboard-response","29","108447","0.0-6.0-1.11","MASC","2","f","rechts","23","","","object","f","30","true"
"null","<div style=""font-size:60px;"">+</div>","null","html-keyboard-response","30","108749","0.0-6.0-0.12","MASC","2","f","rechts","23","","fixation","","","",""
"813","img/0_120.png","74","image-keyboard-response","31","109563","0.0-6.0-1.12","MASC","2","f","rechts","23","","","object","j","0","true"
"null","<div style=""font-size:60px;"">+</div>","null","html-keyboard-response","32","109915","0.0-6.0-0.13","MASC","2","f","rechts","23","","fixation","","","",""
"814","img/90_120.png","70","image-keyboard-response","33","110731","0.0-6.0-1.13","MASC","2","f","rechts","23","","","object","j","90","false"
"null","<div style=""font-size:60px;"">+</div>","null","html-keyboard-response","34","111082","0.0-6.0-0.14","MASC","2","f","rechts","23","","fixation","","","",""
"777","img/0_330.png","70","image-keyboard-response","35","111861","0.0-6.0-1.14","MASC","2","f","rechts","23","","","object","f","0","true"
"null","<div style=""font-size:60px;"">+</div>","null","html-keyboard-response","36","112162","0.0-6.0-0.15","MASC","2","f","rechts","23","","fixation","","","",""
"976","img/90_180.png","70","image-keyboard-response","37","113140","0.0-6.0-1.15","MASC","2","f","rechts","23","","","object","f","90","true"
"null","<div style=""font-size:60px;"">+</div>","null","html-keyboard-response","38","113541","0.0-6.0-0.16","MASC","2","f","rechts","23","","fixation","","","",""
"1098","img/120_210.png","70","image-keyboard-response","39","114640","0.0-6.0-1.16","MASC","2","f","rechts","23","","","object","f","120","true"
"null","<div style=""font-size:60px;"">+</div>","null","html-keyboard-response","40","114992","0.0-6.0-0.17","MASC","2","f","rechts","23","","fixation","","","",""
"1089","img/60_150.png","74","image-keyboard-response","41","116083","0.0-6.0-1.17","MASC","2","f","rechts","23","","","object","j","60","true"
"null","<div style=""font-size:60px;"">+</div>","null","html-keyboard-response","42","116384","0.0-6.0-0.18","MASC","2","f","rechts","23","","fixation","","","",""
"1074","img/30_60.png","74","image-keyboard-response","43","117460","0.0-6.0-1.18","MASC","2","f","rechts","23","","","object","j","30","true"
"null","<div style=""font-size:60px;"">+</div>","null","html-keyboard-response","44","117862","0.0-6.0-0.19","MASC","2","f","rechts","23","","fixation","","","",""
"937","img/120_90.png","70","image-keyboard-response","45","118800","0.0-6.0-1.19","MASC","2","f","rechts","23","","","object","f","120","true"
"null","<div style=""font-size:60px;"">+</div>","null","html-keyboard-response","46","119252","0.0-6.0-0.20","MASC","2","f","rechts","23","","fixation","","","",""
"719","img/0_210.png","70","image-keyboard-response","47","119972","0.0-6.0-1.20","MASC","2","f","rechts","23","","","object","f","0","true"
"null","<div style=""font-size:60px;"">+</div>","null","html-keyboard-response","48","120424","0.0-6.0-0.21","MASC","2","f","rechts","23","","fixation","","","",""
"835","img/30_270.png","70","image-keyboard-response","49","121260","0.0-6.0-1.21","MASC","2","f","rechts","23","","","object","f","30","true"
"null","<div style=""font-size:60px;"">+</div>","null","html-keyboard-response","50","121712","0.0-6.0-0.22","MASC","2","f","rechts","23","","fixation","","","",""
"878","img/150_60.png","70","image-keyboard-response","51","122591","0.0-6.0-1.22","MASC","2","f","rechts","23","","","object","f","150","true"
"null","<div style=""font-size:60px;"">+</div>","null","html-keyboard-response","52","122943","0.0-6.0-0.23","MASC","2","f","rechts","23","","fixation","","","",""
"1132","img/90_150.png","74","image-keyboard-response","53","124076","0.0-6.0-1.23","MASC","2","f","rechts","23","","","object","j","90","true"
"null","<div style=""font-size:60px;"">+</div>","null","html-keyboard-response","54","124578","0.0-6.0-0.24","MASC","2","f","rechts","23","","fixation","","","",""
"1165","img/60_210.png","70","image-keyboard-response","55","125744","0.0-6.0-1.24","MASC","2","f","rechts","23","","","object","f","60","true"
"null","<div style=""font-size:60px;"">+</div>","null","html-keyboard-response","56","126146","0.0-6.0-0.25","MASC","2","f","rechts","23","","fixation","","","",""
"937","img/60_90.png","70","image-keyboard-response","57","127084","0.0-6.0-1.25","MASC","2","f","rechts","23","","","object","j","60","false"
"null","<div style=""font-size:60px;"">+</div>","null","html-keyboard-response","58","127386","0.0-6.0-0.26","MASC","2","f","rechts","23","","fixation","","","",""
"793","img/0_240.png","70","image-keyboard-response","59","128180","0.0-6.0-1.26","MASC","2","f","rechts","23","","","object","f","0","true"
"null","<div style=""font-size:60px;"">+</div>","null","html-keyboard-response","60","128682","0.0-6.0-0.27","MASC","2","f","rechts","23","","fixation","","","",""
"742","img/0_150.png","74","image-keyboard-response","61","129425","0.0-6.0-1.27","MASC","2","f","rechts","23","","","object","j","0","true"
"null","<div style=""font-size:60px;"">+</div>","null","html-keyboard-response","62","129827","0.0-6.0-0.28","MASC","2","f","rechts","23","","fixation","","","",""
"927","img/150_300.png","74","image-keyboard-response","63","130755","0.0-6.0-1.28","MASC","2","f","rechts","23","","","object","j","150","true"
"null","<div style=""font-size:60px;"">+</div>","null","html-keyboard-response","64","131057","0.0-6.0-0.29","MASC","2","f","rechts","23","","fixation","","","",""
"1131","img/120_270.png","74","image-keyboard-response","65","132189","0.0-6.0-1.29","MASC","2","f","rechts","23","","","object","j","120","true"
"null","<div style=""font-size:60px;"">+</div>","null","html-keyboard-response","66","132590","0.0-6.0-0.30","MASC","2","f","rechts","23","","fixation","","","",""
"826","img/120_30.png","70","image-keyboard-response","67","133418","0.0-6.0-1.30","MASC","2","f","rechts","23","","","object","f","120","true"
"null","<div style=""font-size:60px;"">+</div>","null","html-keyboard-response","68","133870","0.0-6.0-0.31","MASC","2","f","rechts","23","","fixation","","","",""
"790","img/0_270.png","70","image-keyboard-response","69","134661","0.0-6.0-1.31","MASC","2","f","rechts","23","","","object","f","0","true"
"null","<div style=""font-size:60px;"">+</div>","null","html-keyboard-response","70","134963","0.0-6.0-0.32","MASC","2","f","rechts","23","","fixation","","","",""
"993","img/150_120.png","70","image-keyboard-response","71","135957","0.0-6.0-1.32","MASC","2","f","rechts","23","","","object","f","150","true"
"null","<div style=""font-size:60px;"">+</div>","null","html-keyboard-response","72","136259","0.0-6.0-0.33","MASC","2","f","rechts","23","","fixation","","","",""
"1142","img/90_240.png","70","image-keyboard-response","73","137402","0.0-6.0-1.33","MASC","2","f","rechts","23","","","object","f","90","true"
"null","<div style=""font-size:60px;"">+</div>","null","html-keyboard-response","74","137804","0.0-6.0-0.34","MASC","2","f","rechts","23","","fixation","","","",""
"919","img/60_270.png","70","image-keyboard-response","75","138724","0.0-6.0-1.34","MASC","2","f","rechts","23","","","object","f","60","true"
"null","<div style=""font-size:60px;"">+</div>","null","html-keyboard-response","76","139226","0.0-6.0-0.35","MASC","2","f","rechts","23","","fixation","","","",""
"1537","img/150_180.png","70","image-keyboard-response","77","140765","0.0-6.0-1.35","MASC","2","f","rechts","23","","","object","f","150","true"
"null","<div style=""font-size:60px;"">+</div>","null","html-keyboard-response","78","141167","0.0-6.0-0.36","MASC","2","f","rechts","23","","fixation","","","",""
"937","img/150_270.png","74","image-keyboard-response","79","142106","0.0-6.0-1.36","MASC","2","f","rechts","23","","","object","j","150","true"
"null","<div style=""font-size:60px;"">+</div>","null","html-keyboard-response","80","142407","0.0-6.0-0.37","MASC","2","f","rechts","23","","fixation","","","",""
"961","img/120_330.png","74","image-keyboard-response","81","143369","0.0-6.0-1.37","MASC","2","f","rechts","23","","","object","j","120","true"
"null","<div style=""font-size:60px;"">+</div>","null","html-keyboard-response","82","143770","0.0-6.0-0.38","MASC","2","f","rechts","23","","fixation","","","",""
"1077","img/L90_180.png","70","image-keyboard-response","83","144849","0.0-6.0-1.38","MASC","2","f","rechts","23","","","object","j","90","false"
"null","<div style=""font-size:60px;"">+</div>","null","html-keyboard-response","84","145351","0.0-6.0-0.39","MASC","2","f","rechts","23","","fixation","","","",""
"1392","img/90_210.png","74","image-keyboard-response","85","146744","0.0-6.0-1.39","MASC","2","f","rechts","23","","","object","f","90","false"
"null","<div style=""font-size:60px;"">+</div>","null","html-keyboard-response","86","147096","0.0-6.0-0.40","MASC","2","f","rechts","23","","fixation","","","",""
"1014","img/60_180.png","70","image-keyboard-response","87","148112","0.0-6.0-1.40","MASC","2","f","rechts","23","","","object","f","60","true"
"null","<div style=""font-size:60px;"">+</div>","null","html-keyboard-response","88","148414","0.0-6.0-0.41","MASC","2","f","rechts","23","","fixation","","","",""
"1141","img/120_150.png","70","image-keyboard-response","89","149557","0.0-6.0-1.41","MASC","2","f","rechts","23","","","object","j","120","false"
"null","<div style=""font-size:60px;"">+</div>","null","html-keyboard-response","90","150058","0.0-6.0-0.42","MASC","2","f","rechts","23","","fixation","","","",""
"1228","img/L60_180.png","74","image-keyboard-response","91","151287","0.0-6.0-1.42","MASC","2","f","rechts","23","","","object","j","60","true"
"null","<div style=""font-size:60px;"">+</div>","null","html-keyboard-response","92","151789","0.0-6.0-0.43","MASC","2","f","rechts","23","","fixation","","","",""
"1458","img/150_240.png","74","image-keyboard-response","93","153249","0.0-6.0-1.43","MASC","2","f","rechts","23","","","object","j","150","true"
"null","<div style=""font-size:60px;"">+</div>","null","html-keyboard-response","94","153600","0.0-6.0-0.44","MASC","2","f","rechts","23","","fixation","","","",""
"1320","img/120_180.png","70","image-keyboard-response","95","154922","0.0-6.0-1.44","MASC","2","f","rechts","23","","","object","f","120","true"
"null","<div style=""font-size:60px;"">+</div>","null","html-keyboard-response","96","155424","0.0-6.0-0.45","MASC","2","f","rechts","23","","fixation","","","",""
"795","img/90_300.png","74","image-keyboard-response","97","156220","0.0-6.0-1.45","MASC","2","f","rechts","23","","","object","j","90","true"
"null","<div style=""font-size:60px;"">+</div>","null","html-keyboard-response","98","156522","0.0-6.0-0.46","MASC","2","f","rechts","23","","fixation","","","",""
"716","img/60_30.png","70","image-keyboard-response","99","157239","0.0-6.0-1.46","MASC","2","f","rechts","23","","","object","f","60","true"
"null","<div style=""font-size:60px;"">+</div>","null","html-keyboard-response","100","157641","0.0-6.0-0.47","MASC","2","f","rechts","23","","fixation","","","",""
"1270","img/L120_180.png","74","image-keyboard-response","101","158912","0.0-6.0-1.47","MASC","2","f","rechts","23","","","object","j","120","true"
"null","<div style=""font-size:60px;"">+</div>","null","html-keyboard-response","102","159264","0.0-6.0-0.48","MASC","2","f","rechts","23","","fixation","","","",""
"784","img/90_60.png","70","image-keyboard-response","103","160049","0.0-6.0-1.48","MASC","2","f","rechts","23","","","object","f","90","true"
"null","<div style=""font-size:60px;"">+</div>","null","html-keyboard-response","104","160451","0.0-6.0-0.49","MASC","2","f","rechts","23","","fixation","","","",""
"799","img/30_90.png","74","image-keyboard-response","105","161251","0.0-6.0-1.49","MASC","2","f","rechts","23","","","object","j","30","true"
"null","<div style=""font-size:60px;"">+</div>","null","html-keyboard-response","106","161653","0.0-6.0-0.50","MASC","2","f","rechts","23","","fixation","","","",""
"948","img/30_240.png","70","image-keyboard-response","107","162602","0.0-6.0-1.50","MASC","2","f","rechts","23","","","object","f","30","true"
"null","<div style=""font-size:60px;"">+</div>","null","html-keyboard-response","108","163054","0.0-6.0-0.51","MASC","2","f","rechts","23","","fixation","","","",""
"954","img/30_180.png","70","image-keyboard-response","109","164009","0.0-6.0-1.51","MASC","2","f","rechts","23","","","object","f","30","true"
"null","<div style=""font-size:60px;"">+</div>","null","html-keyboard-response","110","164511","0.0-6.0-0.52","MASC","2","f","rechts","23","","fixation","","","",""
"1150","img/60_210.png","70","image-keyboard-response","111","165662","0.0-6.0-1.52","MASC","2","f","rechts","23","","","object","f","60","true"
"null","<div style=""font-size:60px;"">+</div>","null","html-keyboard-response","112","166064","0.0-6.0-0.53","MASC","2","f","rechts","23","","fixation","","","",""
"1078","img/90_150.png","70","image-keyboard-response","113","167143","0.0-6.0-1.53","MASC","2","f","rechts","23","","","object","j","90","false"
"null","<div style=""font-size:60px;"">+</div>","null","html-keyboard-response","114","167594","0.0-6.0-0.54","MASC","2","f","rechts","23","","fixation","","","",""
"789","img/90_30.png","70","image-keyboard-response","115","168384","0.0-6.0-1.54","MASC","2","f","rechts","23","","","object","f","90","true"
"null","<div style=""font-size:60px;"">+</div>","null","html-keyboard-response","116","168786","0.0-6.0-0.55","MASC","2","f","rechts","23","","fixation","","","",""
"701","img/120_330.png","74","image-keyboard-response","117","169487","0.0-6.0-1.55","MASC","2","f","rechts","23","","","object","j","120","true"
"null","<div style=""font-size:60px;"">+</div>","null","html-keyboard-response","118","169839","0.0-6.0-0.56","MASC","2","f","rechts","23","","fixation","","","",""
"698","img/90_300.png","74","image-keyboard-response","119","170537","0.0-6.0-1.56","MASC","2","f","rechts","23","","","object","j","90","true"
"null","<div style=""font-size:60px;"">+</div>","null","html-keyboard-response","120","170889","0.0-6.0-0.57","MASC","2","f","rechts","23","","fixation","","","",""
"696","img/30_120.png","70","image-keyboard-response","121","171585","0.0-6.0-1.57","MASC","2","f","rechts","23","","","object","j","30","false"
"null","<div style=""font-size:60px;"">+</div>","null","html-keyboard-response","122","171987","0.0-6.0-0.58","MASC","2","f","rechts","23","","fixation","","","",""
"809","img/0_210.png","70","image-keyboard-response","123","172796","0.0-6.0-1.58","MASC","2","f","rechts","23","","","object","f","0","true"
"null","<div style=""font-size:60px;"">+</div>","null","html-keyboard-response","124","173197","0.0-6.0-0.59","MASC","2","f","rechts","23","","fixation","","","",""
"748","img/30_90.png","74","image-keyboard-response","125","173945","0.0-6.0-1.59","MASC","2","f","rechts","23","","","object","j","30","true"
"null","<div style=""font-size:60px;"">+</div>","null","html-keyboard-response","126","174347","0.0-6.0-0.60","MASC","2","f","rechts","23","","fixation","","","",""
"927","img/0_60.png","74","image-keyboard-response","127","175274","0.0-6.0-1.60","MASC","2","f","rechts","23","","","object","j","0","true"
"null","<div style=""font-size:60px;"">+</div>","null","html-keyboard-response","128","175676","0.0-6.0-0.61","MASC","2","f","rechts","23","","fixation","","","",""
"822","img/150_120.png","70","image-keyboard-response","129","176498","0.0-6.0-1.61","MASC","2","f","rechts","23","","","object","f","150","true"
"null","<div style=""font-size:60px;"">+</div>","null","html-keyboard-response","130","176800","0.0-6.0-0.62","MASC","2","f","rechts","23","","fixation","","","",""
"776","img/150_270.png","74","image-keyboard-response","131","177576","0.0-6.0-1.62","MASC","2","f","rechts","23","","","object","j","150","true"
"null","<div style=""font-size:60px;"">+</div>","null","html-keyboard-response","132","178078","0.0-6.0-0.63","MASC","2","f","rechts","23","","fixation","","","",""
"797","img/150_60.png","70","image-keyboard-response","133","178875","0.0-6.0-1.63","MASC","2","f","rechts","23","","","object","f","150","true"
"null","<div style=""font-size:60px;"">+</div>","null","html-keyboard-response","134","179227","0.0-6.0-0.64","MASC","2","f","rechts","23","","fixation","","","",""
"786","img/30_180.png","70","image-keyboard-response","135","180014","0.0-6.0-1.64","MASC","2","f","rechts","23","","","object","f","30","true"
"null","<div style=""font-size:60px;"">+</div>","null","html-keyboard-response","136","180516","0.0-6.0-0.65","MASC","2","f","rechts","23","","fixation","","","",""
"833","img/0_300.png","70","image-keyboard-response","137","181350","0.0-6.0-1.65","MASC","2","f","rechts","23","","","object","f","0","true"
"null","<div style=""font-size:60px;"">+</div>","null","html-keyboard-response","138","181802","0.0-6.0-0.66","MASC","2","f","rechts","23","","fixation","","","",""
"882","img/90_210.png","70","image-keyboard-response","139","182684","0.0-6.0-1.66","MASC","2","f","rechts","23","","","object","f","90","true"
"null","<div style=""font-size:60px;"">+</div>","null","html-keyboard-response","140","183186","0.0-6.0-0.67","MASC","2","f","rechts","23","","fixation","","","",""
"836","img/60_30.png","70","image-keyboard-response","141","184022","0.0-6.0-1.67","MASC","2","f","rechts","23","","","object","f","60","true"
"null","<div style=""font-size:60px;"">+</div>","null","html-keyboard-response","142","184474","0.0-6.0-0.68","MASC","2","f","rechts","23","","fixation","","","",""
"1120","img/150_180.png","74","image-keyboard-response","143","185595","0.0-6.0-1.68","MASC","2","f","rechts","23","","","object","f","150","false"
"null","<div style=""font-size:60px;"">+</div>","null","html-keyboard-response","144","186097","0.0-6.0-0.69","MASC","2","f","rechts","23","","fixation","","","",""
"799","img/0_270.png","70","image-keyboard-response","145","186897","0.0-6.0-1.69","MASC","2","f","rechts","23","","","object","f","0","true"
"null","<div style=""font-size:60px;"">+</div>","null","html-keyboard-response","146","187198","0.0-6.0-0.70","MASC","2","f","rechts","23","","fixation","","","",""
"1388","img/L30_180.png","74","image-keyboard-response","147","188588","0.0-6.0-1.70","MASC","2","f","rechts","23","","","object","j","30","true"
"null","<div style=""font-size:60px;"">+</div>","null","html-keyboard-response","148","189039","0.0-6.0-0.71","MASC","2","f","rechts","23","","fixation","","","",""
"711","img/120_90.png","70","image-keyboard-response","149","189752","0.0-6.0-1.71","MASC","2","f","rechts","23","","","object","f","120","true"
"null","<div style=""font-size:60px;"">+</div>","null","html-keyboard-response","150","190102","0.0-6.0-0.72","MASC","2","f","rechts","23","","fixation","","","",""
"906","img/30_270.png","70","image-keyboard-response","151","191010","0.0-6.0-1.72","MASC","2","f","rechts","23","","","object","f","30","true"
"null","<div style=""font-size:60px;"">+</div>","null","html-keyboard-response","152","191511","0.0-6.0-0.73","MASC","2","f","rechts","23","","fixation","","","",""
"1331","img/L150_180.png","74","image-keyboard-response","153","192844","0.0-6.0-1.73","MASC","2","f","rechts","23","","","object","j","150","true"
"null","<div style=""font-size:60px;"">+</div>","null","html-keyboard-response","154","193195","0.0-6.0-0.74","MASC","2","f","rechts","23","","fixation","","","",""
"801","img/0_150.png","74","image-keyboard-response","155","193998","0.0-6.0-1.74","MASC","2","f","rechts","23","","","object","j","0","true"
"null","<div style=""font-size:60px;"">+</div>","null","html-keyboard-response","156","194299","0.0-6.0-0.75","MASC","2","f","rechts","23","","fixation","","","",""
"817","img/60_330.png","74","image-keyboard-response","157","195117","0.0-6.0-1.75","MASC","2","f","rechts","23","","","object","j","60","true"
"null","<div style=""font-size:60px;"">+</div>","null","html-keyboard-response","158","195569","0.0-6.0-0.76","MASC","2","f","rechts","23","","fixation","","","",""
"920","img/30_300.png","70","image-keyboard-response","159","196490","0.0-6.0-1.76","MASC","2","f","rechts","23","","","object","f","30","true"
"null","<div style=""font-size:60px;"">+</div>","null","html-keyboard-response","160","196992","0.0-6.0-0.77","MASC","2","f","rechts","23","","fixation","","","",""
"1003","img/90_120.png","70","image-keyboard-response","161","197997","0.0-6.0-1.77","MASC","2","f","rechts","23","","","object","j","90","false"
"null","<div style=""font-size:60px;"">+</div>","null","html-keyboard-response","162","198349","0.0-6.0-0.78","MASC","2","f","rechts","23","","fixation","","","",""
"1206","img/30_60.png","70","image-keyboard-response","163","199556","0.0-6.0-1.78","MASC","2","f","rechts","23","","","object","j","30","false"
"null","<div style=""font-size:60px;"">+</div>","null","html-keyboard-response","164","199958","0.0-6.0-0.79","MASC","2","f","rechts","23","","fixation","","","",""
"1077","img/L90_180.png","74","image-keyboard-response","165","201036","0.0-6.0-1.79","MASC","2","f","rechts","23","","","object","j","90","true"
"null","<div style=""font-size:60px;"">+</div>","null","html-keyboard-response","166","201388","0.0-6.0-0.80","MASC","2","f","rechts","23","","fixation","","","",""
"1065","img/60_90.png","74","image-keyboard-response","167","202453","0.0-6.0-1.80","MASC","2","f","rechts","23","","","object","j","60","true"
"null","<div style=""font-size:60px;"">+</div>","null","html-keyboard-response","168","202955","0.0-6.0-0.81","MASC","2","f","rechts","23","","fixation","","","",""
"993","img/L120_180.png","74","image-keyboard-response","169","203949","0.0-6.0-1.81","MASC","2","f","rechts","23","","","object","j","120","true"
"null","<div style=""font-size:60px;"">+</div>","null","html-keyboard-response","170","204251","0.0-6.0-0.82","MASC","2","f","rechts","23","","fixation","","","",""
"1078","img/90_60.png","70","image-keyboard-response","171","205330","0.0-6.0-1.82","MASC","2","f","rechts","23","","","object","f","90","true"
"null","<div style=""font-size:60px;"">+</div>","null","html-keyboard-response","172","205682","0.0-6.0-0.83","MASC","2","f","rechts","23","","fixation","","","",""
"965","img/150_300.png","74","image-keyboard-response","173","206648","0.0-6.0-1.83","MASC","2","f","rechts","23","","","object","j","150","true"
"null","<div style=""font-size:60px;"">+</div>","null","html-keyboard-response","174","206951","0.0-6.0-0.84","MASC","2","f","rechts","23","","fixation","","","",""
"819","img/30_240.png","70","image-keyboard-response","175","207771","0.0-6.0-1.84","MASC","2","f","rechts","23","","","object","f","30","true"
"null","<div style=""font-size:60px;"">+</div>","null","html-keyboard-response","176","208172","0.0-6.0-0.85","MASC","2","f","rechts","23","","fixation","","","",""
"884","img/90_240.png","70","image-keyboard-response","177","209057","0.0-6.0-1.85","MASC","2","f","rechts","23","","","object","f","90","true"
"null","<div style=""font-size:60px;"">+</div>","null","html-keyboard-response","178","209459","0.0-6.0-0.86","MASC","2","f","rechts","23","","fixation","","","",""
"1080","img/120_210.png","70","image-keyboard-response","179","210540","0.0-6.0-1.86","MASC","2","f","rechts","23","","","object","f","120","true"
"null","<div style=""font-size:60px;"">+</div>","null","html-keyboard-response","180","210991","0.0-6.0-0.87","MASC","2","f","rechts","23","","fixation","","","",""
"952","img/60_270.png","70","image-keyboard-response","181","211944","0.0-6.0-1.87","MASC","2","f","rechts","23","","","object","f","60","true"
"null","<div style=""font-size:60px;"">+</div>","null","html-keyboard-response","182","212346","0.0-6.0-0.88","MASC","2","f","rechts","23","","fixation","","","",""
"1072","img/150_240.png","70","image-keyboard-response","183","213420","0.0-6.0-1.88","MASC","2","f","rechts","23","","","object","j","150","false"
"null","<div style=""font-size:60px;"">+</div>","null","html-keyboard-response","184","213721","0.0-6.0-0.89","MASC","2","f","rechts","23","","fixation","","","",""
"1101","img/120_150.png","74","image-keyboard-response","185","214823","0.0-6.0-1.89","MASC","2","f","rechts","23","","","object","j","120","true"
"null","<div style=""font-size:60px;"">+</div>","null","html-keyboard-response","186","215173","0.0-6.0-0.90","MASC","2","f","rechts","23","","fixation","","","",""
"824","img/0_120.png","74","image-keyboard-response","187","215998","0.0-6.0-1.90","MASC","2","f","rechts","23","","","object","j","0","true"
"null","<div style=""font-size:60px;"">+</div>","null","html-keyboard-response","188","216300","0.0-6.0-0.91","MASC","2","f","rechts","23","","fixation","","","",""
"818","img/90_330.png","74","image-keyboard-response","189","217119","0.0-6.0-1.91","MASC","2","f","rechts","23","","","object","j","90","true"
"null","<div style=""font-size:60px;"">+</div>","null","html-keyboard-response","190","217571","0.0-6.0-0.92","MASC","2","f","rechts","23","","fixation","","","",""
"872","img/0_30.png","74","image-keyboard-response","191","218443","0.0-6.0-1.92","MASC","2","f","rechts","23","","","object","j","0","true"
"null","<div style=""font-size:60px;"">+</div>","null","html-keyboard-response","192","218895","0.0-6.0-0.93","MASC","2","f","rechts","23","","fixation","","","",""
"866","img/90_180.png","70","image-keyboard-response","193","219761","0.0-6.0-1.93","MASC","2","f","rechts","23","","","object","f","90","true"
"null","<div style=""font-size:60px;"">+</div>","null","html-keyboard-response","194","220262","0.0-6.0-0.94","MASC","2","f","rechts","23","","fixation","","","",""
"854","img/0_90.png","74","image-keyboard-response","195","221117","0.0-6.0-1.94","MASC","2","f","rechts","23","","","object","j","0","true"
"null","<div style=""font-size:60px;"">+</div>","null","html-keyboard-response","196","221569","0.0-6.0-0.95","MASC","2","f","rechts","23","","fixation","","","",""
"703","img/120_30.png","70","image-keyboard-response","197","222273","0.0-6.0-1.95","MASC","2","f","rechts","23","","","object","f","120","true"
"null","<div style=""font-size:60px;"">+</div>","null","html-keyboard-response","198","222675","0.0-6.0-0.96","MASC","2","f","rechts","23","","fixation","","","",""
"1007","img/L60_180.png","74","image-keyboard-response","199","223684","0.0-6.0-1.96","MASC","2","f","rechts","23","","","object","j","60","true"
"null","<div style=""font-size:60px;"">+</div>","null","html-keyboard-response","200","224035","0.0-6.0-0.97","MASC","2","f","rechts","23","","fixation","","","",""
"1096","img/150_90.png","70","image-keyboard-response","201","225133","0.0-6.0-1.97","MASC","2","f","rechts","23","","","object","f","150","true"
"null","<div style=""font-size:60px;"">+</div>","null","html-keyboard-response","202","225534","0.0-6.0-0.98","MASC","2","f","rechts","23","","fixation","","","",""
"1540","img/60_180.png","70","image-keyboard-response","203","227075","0.0-6.0-1.98","MASC","2","f","rechts","23","","","object","f","60","true"
"null","<div style=""font-size:60px;"">+</div>","null","html-keyboard-response","204","227377","0.0-6.0-0.99","MASC","2","f","rechts","23","","fixation","","","",""
"1174","img/120_270.png","70","image-keyboard-response","205","228552","0.0-6.0-1.99","MASC","2","f","rechts","23","","","object","j","120","false"
"null","<div style=""font-size:60px;"">+</div>","null","html-keyboard-response","206","229053","0.0-6.0-0.100","MASC","2","f","rechts","23","","fixation","","","",""
"1577","img/60_150.png","74","image-keyboard-response","207","230631","0.0-6.0-1.100","MASC","2","f","rechts","23","","","object","j","60","true"
"null","<div style=""font-size:60px;"">+</div>","null","html-keyboard-response","208","231132","0.0-6.0-0.101","MASC","2","f","rechts","23","","fixation","","","",""
"738","img/0_330.png","70","image-keyboard-response","209","231871","0.0-6.0-1.101","MASC","2","f","rechts","23","","","object","f","0","true"
"null","<div style=""font-size:60px;"">+</div>","null","html-keyboard-response","210","232172","0.0-6.0-0.102","MASC","2","f","rechts","23","","fixation","","","",""
"1282","img/120_180.png","70","image-keyboard-response","211","233455","0.0-6.0-1.102","MASC","2","f","rechts","23","","","object","f","120","true"
"null","<div style=""font-size:60px;"">+</div>","null","html-keyboard-response","212","233857","0.0-6.0-0.103","MASC","2","f","rechts","23","","fixation","","","",""
"762","img/0_240.png","70","image-keyboard-response","213","234620","0.0-6.0-1.103","MASC","2","f","rechts","23","","","object","f","0","true"
"null","<div style=""font-size:60px;"">+</div>","null","html-keyboard-response","214","234971","0.0-6.0-0.104","MASC","2","f","rechts","23","","fixation","","","",""
"814","img/60_30.png","70","image-keyboard-response","215","235786","0.0-6.0-1.104","MASC","2","f","rechts","23","","","object","f","60","true"
"null","<div style=""font-size:60px;"">+</div>","null","html-keyboard-response","216","236288","0.0-6.0-0.105","MASC","2","f","rechts","23","","fixation","","","",""
"1097","img/60_150.png","74","image-keyboard-response","217","237385","0.0-6.0-1.105","MASC","2","f","rechts","23","","","object","j","60","true"
"null","<div style=""font-size:60px;"">+</div>","null","html-keyboard-response","218","237887","0.0-6.0-0.106","MASC","2","f","rechts","23","","fixation","","","",""
"1074","img/30_270.png","70","image-keyboard-response","219","238961","0.0-6.0-1.106","MASC","2","f","rechts","23","","","object","f","30","true"
"null","<div style=""font-size:60px;"">+</div>","null","html-keyboard-response","220","239413","0.0-6.0-0.107","MASC","2","f","rechts","23","","fixation","","","",""
"917","img/60_90.png","70","image-keyboard-response","221","240330","0.0-6.0-1.107","MASC","2","f","rechts","23","","","object","j","60","false"
"null","<div style=""font-size:60px;"">+</div>","null","html-keyboard-response","222","240782","0.0-6.0-0.108","MASC","2","f","rechts","23","","fixation","","","",""
"1169","img/150_120.png","70","image-keyboard-response","223","241951","0.0-6.0-1.108","MASC","2","f","rechts","23","","","object","f","150","true"
"null","<div style=""font-size:60px;"">+</div>","null","html-keyboard-response","224","242453","0.0-6.0-0.109","MASC","2","f","rechts","23","","fixation","","","",""
"871","img/0_30.png","74","image-keyboard-response","225","243324","0.0-6.0-1.109","MASC","2","f","rechts","23","","","object","j","0","true"
"null","<div style=""font-size:60px;"">+</div>","null","html-keyboard-response","226","243776","0.0-6.0-0.110","MASC","2","f","rechts","23","","fixation","","","",""
"706","img/90_60.png","70","image-keyboard-response","227","244483","0.0-6.0-1.110","MASC","2","f","rechts","23","","","object","f","90","true"
"null","<div style=""font-size:60px;"">+</div>","null","html-keyboard-response","228","244984","0.0-6.0-0.111","MASC","2","f","rechts","23","","fixation","","","",""
"793","img/150_300.png","74","image-keyboard-response","229","245777","0.0-6.0-1.111","MASC","2","f","rechts","23","","","object","j","150","true"
"null","<div style=""font-size:60px;"">+</div>","null","html-keyboard-response","230","246229","0.0-6.0-0.112","MASC","2","f","rechts","23","","fixation","","","",""
"725","img/60_330.png","74","image-keyboard-response","231","246954","0.0-6.0-1.112","MASC","2","f","rechts","23","","","object","j","60","true"
"null","<div style=""font-size:60px;"">+</div>","null","html-keyboard-response","232","247456","0.0-6.0-0.113","MASC","2","f","rechts","23","","fixation","","","",""
"923","img/150_240.png","70","image-keyboard-response","233","248379","0.0-6.0-1.113","MASC","2","f","rechts","23","","","object","j","150","false"
"null","<div style=""font-size:60px;"">+</div>","null","html-keyboard-response","234","248831","0.0-6.0-0.114","MASC","2","f","rechts","23","","fixation","","","",""
"1212","img/120_150.png","70","image-keyboard-response","235","250044","0.0-6.0-1.114","MASC","2","f","rechts","23","","","object","j","120","false"
"null","<div style=""font-size:60px;"">+</div>","null","html-keyboard-response","236","250496","0.0-6.0-0.115","MASC","2","f","rechts","23","","fixation","","","",""
"935","img/30_300.png","74","image-keyboard-response","237","251432","0.0-6.0-1.115","MASC","2","f","rechts","23","","","object","f","30","false"
"null","<div style=""font-size:60px;"">+</div>","null","html-keyboard-response","238","251884","0.0-6.0-0.116","MASC","2","f","rechts","23","","fixation","","","",""
"1066","img/30_120.png","74","image-keyboard-response","239","252950","0.0-6.0-1.116","MASC","2","f","rechts","23","","","object","j","30","true"
"null","<div style=""font-size:60px;"">+</div>","null","html-keyboard-response","240","253252","0.0-6.0-0.117","MASC","2","f","rechts","23","","fixation","","","",""
"1004","img/30_60.png","74","image-keyboard-response","241","254258","0.0-6.0-1.117","MASC","2","f","rechts","23","","","object","j","30","true"
"null","<div style=""font-size:60px;"">+</div>","null","html-keyboard-response","242","254759","0.0-6.0-0.118","MASC","2","f","rechts","23","","fixation","","","",""
"1690","img/60_270.png","70","image-keyboard-response","243","256450","0.0-6.0-1.118","MASC","2","f","rechts","23","","","object","f","60","true"
"null","<div style=""font-size:60px;"">+</div>","null","html-keyboard-response","244","256802","0.0-6.0-0.119","MASC","2","f","rechts","23","","fixation","","","",""
"916","img/30_90.png","74","image-keyboard-response","245","257718","0.0-6.0-1.119","MASC","2","f","rechts","23","","","object","j","30","true"
"null","<div style=""font-size:60px;"">+</div>","null","html-keyboard-response","246","258170","0.0-6.0-0.120","MASC","2","f","rechts","23","","fixation","","","",""
"722","img/90_30.png","70","image-keyboard-response","247","258892","0.0-6.0-1.120","MASC","2","f","rechts","23","","","object","f","90","true"
"null","<div style=""font-size:60px;"">+</div>","null","html-keyboard-response","248","259244","0.0-6.0-0.121","MASC","2","f","rechts","23","","fixation","","","",""
"815","img/0_270.png","70","image-keyboard-response","249","260059","0.0-6.0-1.121","MASC","2","f","rechts","23","","","object","f","0","true"
"null","<div style=""font-size:60px;"">+</div>","null","html-keyboard-response","250","260560","0.0-6.0-0.122","MASC","2","f","rechts","23","","fixation","","","",""
"937","img/30_180.png","70","image-keyboard-response","251","261498","0.0-6.0-1.122","MASC","2","f","rechts","23","","","object","f","30","true"
"null","<div style=""font-size:60px;"">+</div>","null","html-keyboard-response","252","261949","0.0-6.0-0.123","MASC","2","f","rechts","23","","fixation","","","",""
"1763","img/L60_180.png","74","image-keyboard-response","253","263713","0.0-6.0-1.123","MASC","2","f","rechts","23","","","object","j","60","true"
"null","<div style=""font-size:60px;"">+</div>","null","html-keyboard-response","254","264215","0.0-6.0-0.124","MASC","2","f","rechts","23","","fixation","","","",""
"964","img/120_90.png","74","image-keyboard-response","255","265179","0.0-6.0-1.124","MASC","2","f","rechts","23","","","object","f","120","false"
"null","<div style=""font-size:60px;"">+</div>","null","html-keyboard-response","256","265580","0.0-6.0-0.125","MASC","2","f","rechts","23","","fixation","","","",""
"1515","img/150_180.png","70","image-keyboard-response","257","267095","0.0-6.0-1.125","MASC","2","f","rechts","23","","","object","f","150","true"
"null","<div style=""font-size:60px;"">+</div>","null","html-keyboard-response","258","267397","0.0-6.0-0.126","MASC","2","f","rechts","23","","fixation","","","",""
"1066","img/120_210.png","70","image-keyboard-response","259","268464","0.0-6.0-1.126","MASC","2","f","rechts","23","","","object","f","120","true"
"null","<div style=""font-size:60px;"">+</div>","null","html-keyboard-response","260","268916","0.0-6.0-0.127","MASC","2","f","rechts","23","","fixation","","","",""
"1286","img/L30_180.png","74","image-keyboard-response","261","270203","0.0-6.0-1.127","MASC","2","f","rechts","23","","","object","j","30","true"
"null","<div style=""font-size:60px;"">+</div>","null","html-keyboard-response","262","270554","0.0-6.0-0.128","MASC","2","f","rechts","23","","fixation","","","",""
"1842","img/120_180.png","70","image-keyboard-response","263","272397","0.0-6.0-1.128","MASC","2","f","rechts","23","","","object","f","120","true"
"null","<div style=""font-size:60px;"">+</div>","null","html-keyboard-response","264","272699","0.0-6.0-0.129","MASC","2","f","rechts","23","","fixation","","","",""
"977","img/L150_180.png","74","image-keyboard-response","265","273676","0.0-6.0-1.129","MASC","2","f","rechts","23","","","object","j","150","true"
"null","<div style=""font-size:60px;"">+</div>","null","html-keyboard-response","266","274078","0.0-6.0-0.130","MASC","2","f","rechts","23","","fixation","","","",""
"801","img/0_300.png","70","image-keyboard-response","267","274879","0.0-6.0-1.130","MASC","2","f","rechts","23","","","object","f","0","true"
"null","<div style=""font-size:60px;"">+</div>","null","html-keyboard-response","268","275330","0.0-6.0-0.131","MASC","2","f","rechts","23","","fixation","","","",""
"699","img/0_330.png","70","image-keyboard-response","269","276031","0.0-6.0-1.131","MASC","2","f","rechts","23","","","object","f","0","true"
"null","<div style=""font-size:60px;"">+</div>","null","html-keyboard-response","270","276381","0.0-6.0-0.132","MASC","2","f","rechts","23","","fixation","","","",""
"824","img/120_30.png","70","image-keyboard-response","271","277206","0.0-6.0-1.132","MASC","2","f","rechts","23","","","object","f","120","true"
"null","<div style=""font-size:60px;"">+</div>","null","html-keyboard-response","272","277558","0.0-6.0-0.133","MASC","2","f","rechts","23","","fixation","","","",""
"750","img/150_60.png","70","image-keyboard-response","273","278310","0.0-6.0-1.133","MASC","2","f","rechts","23","","","object","f","150","true"
"null","<div style=""font-size:60px;"">+</div>","null","html-keyboard-response","274","278812","0.0-6.0-0.134","MASC","2","f","rechts","23","","fixation","","","",""
"1810","img/150_270.png","74","image-keyboard-response","275","280623","0.0-6.0-1.134","MASC","2","f","rechts","23","","","object","j","150","true"
"null","<div style=""font-size:60px;"">+</div>","null","html-keyboard-response","276","281125","0.0-6.0-0.135","MASC","2","f","rechts","23","","fixation","","","",""
"1321","img/0_240.png","70","image-keyboard-response","277","282447","0.0-6.0-1.135","MASC","2","f","rechts","23","","","object","f","0","true"
"null","<div style=""font-size:60px;"">+</div>","null","html-keyboard-response","278","282848","0.0-6.0-0.136","MASC","2","f","rechts","23","","fixation","","","",""
"940","img/90_120.png","70","image-keyboard-response","279","283790","0.0-6.0-1.136","MASC","2","f","rechts","23","","","object","j","90","false"
"null","<div style=""font-size:60px;"">+</div>","null","html-keyboard-response","280","284141","0.0-6.0-0.137","MASC","2","f","rechts","23","","fixation","","","",""
"1079","img/0_210.png","70","image-keyboard-response","281","285221","0.0-6.0-1.137","MASC","2","f","rechts","23","","","object","f","0","true"
"null","<div style=""font-size:60px;"">+</div>","null","html-keyboard-response","282","285673","0.0-6.0-0.138","MASC","2","f","rechts","23","","fixation","","","",""
"819","img/120_270.png","74","image-keyboard-response","283","286493","0.0-6.0-1.138","MASC","2","f","rechts","23","","","object","j","120","true"
"null","<div style=""font-size:60px;"">+</div>","null","html-keyboard-response","284","286895","0.0-6.0-0.139","MASC","2","f","rechts","23","","fixation","","","",""
"1288","img/90_240.png","70","image-keyboard-response","285","288184","0.0-6.0-1.139","MASC","2","f","rechts","23","","","object","f","90","true"
"null","<div style=""font-size:60px;"">+</div>","null","html-keyboard-response","286","288486","0.0-6.0-0.140","MASC","2","f","rechts","23","","fixation","","","",""
"967","img/90_210.png","70","image-keyboard-response","287","289454","0.0-6.0-1.140","MASC","2","f","rechts","23","","","object","f","90","true"
"null","<div style=""font-size:60px;"">+</div>","null","html-keyboard-response","288","289856","0.0-6.0-0.141","MASC","2","f","rechts","23","","fixation","","","",""
"852","img/60_210.png","70","image-keyboard-response","289","290710","0.0-6.0-1.141","MASC","2","f","rechts","23","","","object","f","60","true"
"null","<div style=""font-size:60px;"">+</div>","null","html-keyboard-response","290","291011","0.0-6.0-0.142","MASC","2","f","rechts","23","","fixation","","","",""
"840","img/30_240.png","70","image-keyboard-response","291","291852","0.0-6.0-1.142","MASC","2","f","rechts","23","","","object","f","30","true"
"null","<div style=""font-size:60px;"">+</div>","null","html-keyboard-response","292","292204","0.0-6.0-0.143","MASC","2","f","rechts","23","","fixation","","","",""
"1068","img/60_180.png","70","image-keyboard-response","293","293273","0.0-6.0-1.143","MASC","2","f","rechts","23","","","object","f","60","true"
"null","<div style=""font-size:60px;"">+</div>","null","html-keyboard-response","294","293574","0.0-6.0-0.144","MASC","2","f","rechts","23","","fixation","","","",""
"822","img/0_60.png","74","image-keyboard-response","295","294397","0.0-6.0-1.144","MASC","2","f","rechts","23","","","object","j","0","true"
"null","<div style=""font-size:60px;"">+</div>","null","html-keyboard-response","296","294799","0.0-6.0-0.145","MASC","2","f","rechts","23","","fixation","","","",""
"1077","img/L90_180.png","74","image-keyboard-response","297","295877","0.0-6.0-1.145","MASC","2","f","rechts","23","","","object","j","90","true"
"null","<div style=""font-size:60px;"">+</div>","null","html-keyboard-response","298","296379","0.0-6.0-0.146","MASC","2","f","rechts","23","","fixation","","","",""
"791","img/0_120.png","74","image-keyboard-response","299","297170","0.0-6.0-1.146","MASC","2","f","rechts","23","","","object","j","0","true"
"null","<div style=""font-size:60px;"">+</div>","null","html-keyboard-response","300","297622","0.0-6.0-0.147","MASC","2","f","rechts","23","","fixation","","","",""
"1010","img/90_150.png","70","image-keyboard-response","301","298633","0.0-6.0-1.147","MASC","2","f","rechts","23","","","object","j","90","false"
"null","<div style=""font-size:60px;"">+</div>","null","html-keyboard-response","302","298935","0.0-6.0-0.148","MASC","2","f","rechts","23","","fixation","","","",""
"1343","img/90_180.png","70","image-keyboard-response","303","300279","0.0-6.0-1.148","MASC","2","f","rechts","23","","","object","f","90","true"
"null","<div style=""font-size:60px;"">+</div>","null","html-keyboard-response","304","300631","0.0-6.0-0.149","MASC","2","f","rechts","23","","fixation","","","",""
"1617","img/150_90.png","70","image-keyboard-response","305","302249","0.0-6.0-1.149","MASC","2","f","rechts","23","","","object","f","150","true"
"null","<div style=""font-size:60px;"">+</div>","null","html-keyboard-response","306","302701","0.0-6.0-0.150","MASC","2","f","rechts","23","","fixation","","","",""
"797","img/0_90.png","74","image-keyboard-response","307","303498","0.0-6.0-1.150","MASC","2","f","rechts","23","","","object","j","0","true"
"null","<div style=""font-size:60px;"">+</div>","null","html-keyboard-response","308","303900","0.0-6.0-0.151","MASC","2","f","rechts","23","","fixation","","","",""
"709","img/90_330.png","74","image-keyboard-response","309","304610","0.0-6.0-1.151","MASC","2","f","rechts","23","","","object","j","90","true"
"null","<div style=""font-size:60px;"">+</div>","null","html-keyboard-response","310","304962","0.0-6.0-0.152","MASC","2","f","rechts","23","","fixation","","","",""
"610","img/120_330.png","74","image-keyboard-response","311","305573","0.0-6.0-1.152","MASC","2","f","rechts","23","","","object","j","120","true"
"null","<div style=""font-size:60px;"">+</div>","null","html-keyboard-response","312","305925","0.0-6.0-0.153","MASC","2","f","rechts","23","","fixation","","","",""
"768","img/0_150.png","74","image-keyboard-response","313","306693","0.0-6.0-1.153","MASC","2","f","rechts","23","","","object","j","0","true"
"null","<div style=""font-size:60px;"">+</div>","null","html-keyboard-response","314","307145","0.0-6.0-0.154","MASC","2","f","rechts","23","","fixation","","","",""
"1452","img/L120_180.png","74","image-keyboard-response","315","308598","0.0-6.0-1.154","MASC","2","f","rechts","23","","","object","j","120","true"
"null","<div style=""font-size:60px;"">+</div>","null","html-keyboard-response","316","309000","0.0-6.0-0.155","MASC","2","f","rechts","23","","fixation","","","",""
"1003","img/90_300.png","74","image-keyboard-response","317","310003","0.0-6.0-1.155","MASC","2","f","rechts","23","","","object","j","90","true"
"null","<div style=""font-size:60px;"">+</div>","null","html-keyboard-response","318","310355","0.0-6.0-0.156","MASC","2","f","rechts","23","","fixation","","","",""
"1070","img/120_90.png","70","image-keyboard-response","319","311426","0.0-6.0-1.156","MASC","2","f","rechts","23","","","object","f","120","true"
"null","<div style=""font-size:60px;"">+</div>","null","html-keyboard-response","320","311778","0.0-6.0-0.157","MASC","2","f","rechts","23","","fixation","","","",""
"1066","img/L30_180.png","74","image-keyboard-response","321","312844","0.0-6.0-1.157","MASC","2","f","rechts","23","","","object","j","30","true"
"null","<div style=""font-size:60px;"">+</div>","null","html-keyboard-response","322","313346","0.0-6.0-0.158","MASC","2","f","rechts","23","","fixation","","","",""
"935","img/150_60.png","70","image-keyboard-response","323","314281","0.0-6.0-1.158","MASC","2","f","rechts","23","","","object","f","150","true"
"null","<div style=""font-size:60px;"">+</div>","null","html-keyboard-response","324","314683","0.0-6.0-0.159","MASC","2","f","rechts","23","","fixation","","","",""
"1401","img/90_120.png","74","image-keyboard-response","325","316084","0.0-6.0-1.159","MASC","2","f","rechts","23","","","object","j","90","true"
"null","<div style=""font-size:60px;"">+</div>","null","html-keyboard-response","326","316486","0.0-6.0-0.160","MASC","2","f","rechts","23","","fixation","","","",""
"1084","img/120_180.png","70","image-keyboard-response","327","317570","0.0-6.0-1.160","MASC","2","f","rechts","23","","","object","f","120","true"
"null","<div style=""font-size:60px;"">+</div>","null","html-keyboard-response","328","317972","0.0-6.0-0.161","MASC","2","f","rechts","23","","fixation","","","",""
"830","img/0_60.png","74","image-keyboard-response","329","318803","0.0-6.0-1.161","MASC","2","f","rechts","23","","","object","j","0","true"
"null","<div style=""font-size:60px;"">+</div>","null","html-keyboard-response","330","319104","0.0-6.0-0.162","MASC","2","f","rechts","23","","fixation","","","",""
"744","img/120_30.png","70","image-keyboard-response","331","319849","0.0-6.0-1.162","MASC","2","f","rechts","23","","","object","f","120","true"
"null","<div style=""font-size:60px;"">+</div>","null","html-keyboard-response","332","320201","0.0-6.0-0.163","MASC","2","f","rechts","23","","fixation","","","",""
"860","img/30_240.png","70","image-keyboard-response","333","321061","0.0-6.0-1.163","MASC","2","f","rechts","23","","","object","f","30","true"
"null","<div style=""font-size:60px;"">+</div>","null","html-keyboard-response","334","321512","0.0-6.0-0.164","MASC","2","f","rechts","23","","fixation","","","",""
"1064","img/30_60.png","74","image-keyboard-response","335","322578","0.0-6.0-1.164","MASC","2","f","rechts","23","","","object","j","30","true"
"null","<div style=""font-size:60px;"">+</div>","null","html-keyboard-response","336","323029","0.0-6.0-0.165","MASC","2","f","rechts","23","","fixation","","","",""
"656","img/90_30.png","70","image-keyboard-response","337","323687","0.0-6.0-1.165","MASC","2","f","rechts","23","","","object","f","90","true"
"null","<div style=""font-size:60px;"">+</div>","null","html-keyboard-response","338","324088","0.0-6.0-0.166","MASC","2","f","rechts","23","","fixation","","","",""
"682","img/0_120.png","74","image-keyboard-response","339","324771","0.0-6.0-1.166","MASC","2","f","rechts","23","","","object","j","0","true"
"null","<div style=""font-size:60px;"">+</div>","null","html-keyboard-response","340","325123","0.0-6.0-0.167","MASC","2","f","rechts","23","","fixation","","","",""
"1302","img/150_180.png","70","image-keyboard-response","341","326427","0.0-6.0-1.167","MASC","2","f","rechts","23","","","object","f","150","true"
"null","<div style=""font-size:60px;"">+</div>","null","html-keyboard-response","342","326878","0.0-6.0-0.168","MASC","2","f","rechts","23","","fixation","","","",""
"1076","img/L150_180.png","74","image-keyboard-response","343","327955","0.0-6.0-1.168","MASC","2","f","rechts","23","","","object","j","150","true"
"null","<div style=""font-size:60px;"">+</div>","null","html-keyboard-response","344","328357","0.0-6.0-0.169","MASC","2","f","rechts","23","","fixation","","","",""
"1153","img/150_90.png","70","image-keyboard-response","345","329512","0.0-6.0-1.169","MASC","2","f","rechts","23","","","object","f","150","true"
"null","<div style=""font-size:60px;"">+</div>","null","html-keyboard-response","346","330013","0.0-6.0-0.170","MASC","2","f","rechts","23","","fixation","","","",""
"742","img/0_270.png","70","image-keyboard-response","347","330756","0.0-6.0-1.170","MASC","2","f","rechts","23","","","object","f","0","true"
"null","<div style=""font-size:60px;"">+</div>","null","html-keyboard-response","348","331108","0.0-6.0-0.171","MASC","2","f","rechts","23","","fixation","","","",""
"928","img/60_180.png","70","image-keyboard-response","349","332038","0.0-6.0-1.171","MASC","2","f","rechts","23","","","object","f","60","true"
"null","<div style=""font-size:60px;"">+</div>","null","html-keyboard-response","350","332339","0.0-6.0-0.172","MASC","2","f","rechts","23","","fixation","","","",""
"1291","img/90_210.png","70","image-keyboard-response","351","333631","0.0-6.0-1.172","MASC","2","f","rechts","23","","","object","f","90","true"
"null","<div style=""font-size:60px;"">+</div>","null","html-keyboard-response","352","334033","0.0-6.0-0.173","MASC","2","f","rechts","23","","fixation","","","",""
"923","img/120_210.png","74","image-keyboard-response","353","334957","0.0-6.0-1.173","MASC","2","f","rechts","23","","","object","f","120","false"
"null","<div style=""font-size:60px;"">+</div>","null","html-keyboard-response","354","335309","0.0-6.0-0.174","MASC","2","f","rechts","23","","fixation","","","",""
"730","img/0_30.png","74","image-keyboard-response","355","336041","0.0-6.0-1.174","MASC","2","f","rechts","23","","","object","j","0","true"
"null","<div style=""font-size:60px;"">+</div>","null","html-keyboard-response","356","336342","0.0-6.0-0.175","MASC","2","f","rechts","23","","fixation","","","",""
"1146","img/L120_180.png","74","image-keyboard-response","357","337489","0.0-6.0-1.175","MASC","2","f","rechts","23","","","object","j","120","true"
"null","<div style=""font-size:60px;"">+</div>","null","html-keyboard-response","358","337891","0.0-6.0-0.176","MASC","2","f","rechts","23","","fixation","","","",""
"854","img/60_30.png","70","image-keyboard-response","359","338747","0.0-6.0-1.176","MASC","2","f","rechts","23","","","object","f","60","true"
"null","<div style=""font-size:60px;"">+</div>","null","html-keyboard-response","360","339248","0.0-6.0-0.177","MASC","2","f","rechts","23","","fixation","","","",""
"859","img/30_90.png","74","image-keyboard-response","361","340108","0.0-6.0-1.177","MASC","2","f","rechts","23","","","object","j","30","true"
"null","<div style=""font-size:60px;"">+</div>","null","html-keyboard-response","362","340460","0.0-6.0-0.178","MASC","2","f","rechts","23","","fixation","","","",""
"1084","img/60_270.png","70","image-keyboard-response","363","341545","0.0-6.0-1.178","MASC","2","f","rechts","23","","","object","f","60","true"
"null","<div style=""font-size:60px;"">+</div>","null","html-keyboard-response","364","341947","0.0-6.0-0.179","MASC","2","f","rechts","23","","fixation","","","",""
"914","img/150_270.png","74","image-keyboard-response","365","342862","0.0-6.0-1.179","MASC","2","f","rechts","23","","","object","j","150","true"
"null","<div style=""font-size:60px;"">+</div>","null","html-keyboard-response","366","343364","0.0-6.0-0.180","MASC","2","f","rechts","23","","fixation","","","",""
"703","img/150_300.png","74","image-keyboard-response","367","344068","0.0-6.0-1.180","MASC","2","f","rechts","23","","","object","j","150","true"
"null","<div style=""font-size:60px;"">+</div>","null","html-keyboard-response","368","344520","0.0-6.0-0.181","MASC","2","f","rechts","23","","fixation","","","",""
"797","img/0_300.png","70","image-keyboard-response","369","345318","0.0-6.0-1.181","MASC","2","f","rechts","23","","","object","f","0","true"
"null","<div style=""font-size:60px;"">+</div>","null","html-keyboard-response","370","345620","0.0-6.0-0.182","MASC","2","f","rechts","23","","fixation","","","",""
"971","img/90_240.png","70","image-keyboard-response","371","346592","0.0-6.0-1.182","MASC","2","f","rechts","23","","","object","f","90","true"
"null","<div style=""font-size:60px;"">+</div>","null","html-keyboard-response","372","346894","0.0-6.0-0.183","MASC","2","f","rechts","23","","fixation","","","",""
"776","img/30_270.png","70","image-keyboard-response","373","347671","0.0-6.0-1.183","MASC","2","f","rechts","23","","","object","f","30","true"
"null","<div style=""font-size:60px;"">+</div>","null","html-keyboard-response","374","348173","0.0-6.0-0.184","MASC","2","f","rechts","23","","fixation","","","",""
"915","img/30_120.png","74","image-keyboard-response","375","349089","0.0-6.0-1.184","MASC","2","f","rechts","23","","","object","j","30","true"
"null","<div style=""font-size:60px;"">+</div>","null","html-keyboard-response","376","349441","0.0-6.0-0.185","MASC","2","f","rechts","23","","fixation","","","",""
"1182","img/L90_180.png","74","image-keyboard-response","377","350624","0.0-6.0-1.185","MASC","2","f","rechts","23","","","object","j","90","true"
"null","<div style=""font-size:60px;"">+</div>","null","html-keyboard-response","378","351076","0.0-6.0-0.186","MASC","2","f","rechts","23","","fixation","","","",""
"862","img/120_330.png","74","image-keyboard-response","379","351939","0.0-6.0-1.186","MASC","2","f","rechts","23","","","object","j","120","true"
"null","<div style=""font-size:60px;"">+</div>","null","html-keyboard-response","380","352441","0.0-6.0-0.187","MASC","2","f","rechts","23","","fixation","","","",""
"936","img/150_240.png","74","image-keyboard-response","381","353378","0.0-6.0-1.187","MASC","2","f","rechts","23","","","object","j","150","true"
"null","<div style=""font-size:60px;"">+</div>","null","html-keyboard-response","382","353780","0.0-6.0-0.188","MASC","2","f","rechts","23","","fixation","","","",""
"1149","img/L60_180.png","74","image-keyboard-response","383","354931","0.0-6.0-1.188","MASC","2","f","rechts","23","","","object","j","60","true"
"null","<div style=""font-size:60px;"">+</div>","null","html-keyboard-response","384","355282","0.0-6.0-0.189","MASC","2","f","rechts","23","","fixation","","","",""
"784","img/60_330.png","70","image-keyboard-response","385","356067","0.0-6.0-1.189","MASC","2","f","rechts","23","","","object","j","60","false"
"null","<div style=""font-size:60px;"">+</div>","null","html-keyboard-response","386","356569","0.0-6.0-0.190","MASC","2","f","rechts","23","","fixation","","","",""
"956","img/90_150.png","70","image-keyboard-response","387","357526","0.0-6.0-1.190","MASC","2","f","rechts","23","","","object","j","90","false"
"null","<div style=""font-size:60px;"">+</div>","null","html-keyboard-response","388","357828","0.0-6.0-0.191","MASC","2","f","rechts","23","","fixation","","","",""
"1280","img/90_180.png","70","image-keyboard-response","389","359109","0.0-6.0-1.191","MASC","2","f","rechts","23","","","object","f","90","true"
"null","<div style=""font-size:60px;"">+</div>","null","html-keyboard-response","390","359561","0.0-6.0-0.192","MASC","2","f","rechts","23","","fixation","","","",""
"787","img/0_240.png","70","image-keyboard-response","391","360349","0.0-6.0-1.192","MASC","2","f","rechts","23","","","object","f","0","true"
"null","<div style=""font-size:60px;"">+</div>","null","html-keyboard-response","392","360701","0.0-6.0-0.193","MASC","2","f","rechts","23","","fixation","","","",""
"970","img/120_270.png","74","image-keyboard-response","393","361671","0.0-6.0-1.193","MASC","2","f","rechts","23","","","object","j","120","true"
"null","<div style=""font-size:60px;"">+</div>","null","html-keyboard-response","394","362173","0.0-6.0-0.194","MASC","2","f","rechts","23","","fixation","","","",""
"1074","img/150_120.png","74","image-keyboard-response","395","363247","0.0-6.0-1.194","MASC","2","f","rechts","23","","","object","f","150","false"
"null","<div style=""font-size:60px;"">+</div>","null","html-keyboard-response","396","363649","0.0-6.0-0.195","MASC","2","f","rechts","23","","fixation","","","",""
"809","img/0_150.png","74","image-keyboard-response","397","364459","0.0-6.0-1.195","MASC","2","f","rechts","23","","","object","j","0","true"
"null","<div style=""font-size:60px;"">+</div>","null","html-keyboard-response","398","364810","0.0-6.0-0.196","MASC","2","f","rechts","23","","fixation","","","",""
"773","img/90_60.png","70","image-keyboard-response","399","365584","0.0-6.0-1.196","MASC","2","f","rechts","23","","","object","f","90","true"
"null","<div style=""font-size:60px;"">+</div>","null","html-keyboard-response","400","365985","0.0-6.0-0.197","MASC","2","f","rechts","23","","fixation","","","",""
"694","img/90_330.png","74","image-keyboard-response","401","366680","0.0-6.0-1.197","MASC","2","f","rechts","23","","","object","j","90","true"
"null","<div style=""font-size:60px;"">+</div>","null","html-keyboard-response","402","367082","0.0-6.0-0.198","MASC","2","f","rechts","23","","fixation","","","",""
"929","img/120_150.png","70","image-keyboard-response","403","368012","0.0-6.0-1.198","MASC","2","f","rechts","23","","","object","j","120","false"
"null","<div style=""font-size:60px;"">+</div>","null","html-keyboard-response","404","368364","0.0-6.0-0.199","MASC","2","f","rechts","23","","fixation","","","",""
"918","img/60_90.png","70","image-keyboard-response","405","369283","0.0-6.0-1.199","MASC","2","f","rechts","23","","","object","j","60","false"
"null","<div style=""font-size:60px;"">+</div>","null","html-keyboard-response","406","369635","0.0-6.0-0.200","MASC","2","f","rechts","23","","fixation","","","",""
"791","img/0_330.png","70","image-keyboard-response","407","370426","0.0-6.0-1.200","MASC","2","f","rechts","23","","","object","f","0","true"
"null","<div style=""font-size:60px;"">+</div>","null","html-keyboard-response","408","370728","0.0-6.0-0.201","MASC","2","f","rechts","23","","fixation","","","",""
"874","img/60_150.png","74","image-keyboard-response","409","371603","0.0-6.0-1.201","MASC","2","f","rechts","23","","","object","j","60","true"
"null","<div style=""font-size:60px;"">+</div>","null","html-keyboard-response","410","372105","0.0-6.0-0.202","MASC","2","f","rechts","23","","fixation","","","",""
"1075","img/60_210.png","70","image-keyboard-response","411","373180","0.0-6.0-1.202","MASC","2","f","rechts","23","","","object","f","60","true"
"null","<div style=""font-size:60px;"">+</div>","null","html-keyboard-response","412","373581","0.0-6.0-0.203","MASC","2","f","rechts","23","","fixation","","","",""
"798","img/0_210.png","70","image-keyboard-response","413","374380","0.0-6.0-1.203","MASC","2","f","rechts","23","","","object","f","0","true"
"null","<div style=""font-size:60px;"">+</div>","null","html-keyboard-response","414","374782","0.0-6.0-0.204","MASC","2","f","rechts","23","","fixation","","","",""
"723","img/0_90.png","74","image-keyboard-response","415","375505","0.0-6.0-1.204","MASC","2","f","rechts","23","","","object","j","0","true"
"null","<div style=""font-size:60px;"">+</div>","null","html-keyboard-response","416","375957","0.0-6.0-0.205","MASC","2","f","rechts","23","","fixation","","","",""
"776","img/30_180.png","70","image-keyboard-response","417","376734","0.0-6.0-1.205","MASC","2","f","rechts","23","","","object","f","30","true"
"null","<div style=""font-size:60px;"">+</div>","null","html-keyboard-response","418","377235","0.0-6.0-0.206","MASC","2","f","rechts","23","","fixation","","","",""
"995","img/30_300.png","70","image-keyboard-response","419","378232","0.0-6.0-1.206","MASC","2","f","rechts","23","","","object","f","30","true"
"null","<div style=""font-size:60px;"">+</div>","null","html-keyboard-response","420","378683","0.0-6.0-0.207","MASC","2","f","rechts","23","","fixation","","","",""
"699","img/90_300.png","74","image-keyboard-response","421","379384","0.0-6.0-1.207","MASC","2","f","rechts","23","","","object","j","90","true"
"5740","<p>Du hast in 86% der Versuche korrekt entschieden.</p><p>Deine durchschnittliche Reaktionszeit war  968ms.</p><p>Dr&uuml;cke eine beliebige Taste, um die Session zu beenden. Vielen Dank!</p>","74","html-keyboard-response","422","385127","0.0-7.0","MASC","2","f","rechts","23","","","","","",""
