"rt","stimulus","key_press","trial_type","trial_index","time_elapsed","internal_node_id","subject","session","sex","handedness","age","responses","test_part","condition","correct_response","angle","correct"
"1046","<p>Mental Rotation Experiment.</p> <p>Dr&uuml;cke eine beliebige Taste, um anzufangen.</p>","72","html-keyboard-response","0","1048","0.0-0.0","MASC","4","f","rechts","23","","","","","",""
"3464","","","survey-text","1","4512","0.0-1.0","MASC","4","f","rechts","23","{""Q0"":""MASC""}","","","","",""
"1920","","","survey-text","2","6434","0.0-2.0","MASC","4","f","rechts","23","{""Q0"":""4""}","","","","",""
"2689","","","survey-multi-choice","3","9125","0.0-3.0","MASC","4","f","rechts","23","{""Q0"":""f"",""Q1"":""rechts""}","","","","",""
"1205","","","survey-text","4","10331","0.0-4.0","MASC","4","f","rechts","23","{""Q0"":""23""}","","","","",""
"11331","<p> Stell dir vor, dass du vor einem runden Tisch stehst, auf dem sich ein blauer Ball am Tischrand befindet. Entlang des Tischrands ist jeweils ein verschieden langer Pfeil. Nun bewegst du dich entlang dieses Pfeils bis an seine Spitze. Wenn du am Ende des Pfeils angekommen bist, schau zur Tischmitte. </p> <img src='img/90_180.png'></img> <br> <p>Entscheide dann, ob der Ball von deiner neuen (vorgestellten) Position links oder rechts von dir liegt.</p> <p>Dr&uuml;cke die <strong>'f'</strong>-Taste f&uuml;r links, die <strong>'j'</strong>-Taste f&uuml;r rechts.</p> <br><p> Das Bild wird jeweils 1 Sekunde lang pr&auml;sentiert. Du hast 3 Sekunden Zeit eine Entscheidung zu treffen.</p>","74","html-keyboard-response","5","21662","0.0-5.0","MASC","4","f","rechts","23","","","","","",""
"null","<div style=""font-size:60px;"">+</div>","null","html-keyboard-response","6","23115","0.0-6.0-0.0","MASC","4","f","rechts","23","","fixation","","","",""
"622","img/0_120.png","74","image-keyboard-response","7","23740","0.0-6.0-1.0","MASC","4","f","rechts","23","","","self","j","0","true"
"null","<div style=""font-size:60px;"">+</div>","null","html-keyboard-response","8","24192","0.0-6.0-0.1","MASC","4","f","rechts","23","","fixation","","","",""
"641","img/0_240.png","70","image-keyboard-response","9","24833","0.0-6.0-1.1","MASC","4","f","rechts","23","","","self","f","0","true"
"null","<div style=""font-size:60px;"">+</div>","null","html-keyboard-response","10","25185","0.0-6.0-0.2","MASC","4","f","rechts","23","","fixation","","","",""
"597","img/0_30.png","74","image-keyboard-response","11","25784","0.0-6.0-1.2","MASC","4","f","rechts","23","","","self","j","0","true"
"null","<div style=""font-size:60px;"">+</div>","null","html-keyboard-response","12","26085","0.0-6.0-0.3","MASC","4","f","rechts","23","","fixation","","","",""
"937","img/90_210.png","74","image-keyboard-response","13","27023","0.0-6.0-1.3","MASC","4","f","rechts","23","","","self","j","90","true"
"null","<div style=""font-size:60px;"">+</div>","null","html-keyboard-response","14","27423","0.0-6.0-0.4","MASC","4","f","rechts","23","","fixation","","","",""
"826","img/30_180.png","74","image-keyboard-response","15","28250","0.0-6.0-1.4","MASC","4","f","rechts","23","","","self","j","30","true"
"null","<div style=""font-size:60px;"">+</div>","null","html-keyboard-response","16","28701","0.0-6.0-0.5","MASC","4","f","rechts","23","","fixation","","","",""
"892","img/60_30.png","74","image-keyboard-response","17","29596","0.0-6.0-1.5","MASC","4","f","rechts","23","","","self","j","60","true"
"null","<div style=""font-size:60px;"">+</div>","null","html-keyboard-response","18","29897","0.0-6.0-0.6","MASC","4","f","rechts","23","","fixation","","","",""
"1063","img/90_30.png","74","image-keyboard-response","19","30961","0.0-6.0-1.6","MASC","4","f","rechts","23","","","self","j","90","true"
"null","<div style=""font-size:60px;"">+</div>","null","html-keyboard-response","20","31313","0.0-6.0-0.7","MASC","4","f","rechts","23","","fixation","","","",""
"834","img/30_60.png","74","image-keyboard-response","21","32148","0.0-6.0-1.7","MASC","4","f","rechts","23","","","self","j","30","true"
"null","<div style=""font-size:60px;"">+</div>","null","html-keyboard-response","22","32499","0.0-6.0-0.8","MASC","4","f","rechts","23","","fixation","","","",""
"894","img/150_300.png","74","image-keyboard-response","23","33394","0.0-6.0-1.8","MASC","4","f","rechts","23","","","self","j","150","true"
"null","<div style=""font-size:60px;"">+</div>","null","html-keyboard-response","24","33745","0.0-6.0-0.9","MASC","4","f","rechts","23","","fixation","","","",""
"982","img/30_240.png","70","image-keyboard-response","25","34728","0.0-6.0-1.9","MASC","4","f","rechts","23","","","self","f","30","true"
"null","<div style=""font-size:60px;"">+</div>","null","html-keyboard-response","26","35230","0.0-6.0-0.10","MASC","4","f","rechts","23","","fixation","","","",""
"1198","img/30_90.png","74","image-keyboard-response","27","36429","0.0-6.0-1.10","MASC","4","f","rechts","23","","","self","j","30","true"
"null","<div style=""font-size:60px;"">+</div>","null","html-keyboard-response","28","36931","0.0-6.0-0.11","MASC","4","f","rechts","23","","fixation","","","",""
"825","img/90_180.png","74","image-keyboard-response","29","37757","0.0-6.0-1.11","MASC","4","f","rechts","23","","","self","j","90","true"
"null","<div style=""font-size:60px;"">+</div>","null","html-keyboard-response","30","38059","0.0-6.0-0.12","MASC","4","f","rechts","23","","fixation","","","",""
"765","img/60_180.png","74","image-keyboard-response","31","38826","0.0-6.0-1.12","MASC","4","f","rechts","23","","","self","j","60","true"
"null","<div style=""font-size:60px;"">+</div>","null","html-keyboard-response","32","39227","0.0-6.0-0.13","MASC","4","f","rechts","23","","fixation","","","",""
"884","img/90_150.png","70","image-keyboard-response","33","40112","0.0-6.0-1.13","MASC","4","f","rechts","23","","","self","f","90","true"
"null","<div style=""font-size:60px;"">+</div>","null","html-keyboard-response","34","40414","0.0-6.0-0.14","MASC","4","f","rechts","23","","fixation","","","",""
"910","img/120_270.png","74","image-keyboard-response","35","41326","0.0-6.0-1.14","MASC","4","f","rechts","23","","","self","j","120","true"
"null","<div style=""font-size:60px;"">+</div>","null","html-keyboard-response","36","41627","0.0-6.0-0.15","MASC","4","f","rechts","23","","fixation","","","",""
"686","img/120_180.png","74","image-keyboard-response","37","42313","0.0-6.0-1.15","MASC","4","f","rechts","23","","","self","j","120","true"
"null","<div style=""font-size:60px;"">+</div>","null","html-keyboard-response","38","42615","0.0-6.0-0.16","MASC","4","f","rechts","23","","fixation","","","",""
"866","img/L60_180.png","70","image-keyboard-response","39","43482","0.0-6.0-1.16","MASC","4","f","rechts","23","","","self","f","60","true"
"null","<div style=""font-size:60px;"">+</div>","null","html-keyboard-response","40","43934","0.0-6.0-0.17","MASC","4","f","rechts","23","","fixation","","","",""
"766","img/150_240.png","74","image-keyboard-response","41","44702","0.0-6.0-1.17","MASC","4","f","rechts","23","","","self","j","150","true"
"null","<div style=""font-size:60px;"">+</div>","null","html-keyboard-response","42","45103","0.0-6.0-0.18","MASC","4","f","rechts","23","","fixation","","","",""
"868","img/30_270.png","70","image-keyboard-response","43","45972","0.0-6.0-1.18","MASC","4","f","rechts","23","","","self","f","30","true"
"null","<div style=""font-size:60px;"">+</div>","null","html-keyboard-response","44","46424","0.0-6.0-0.19","MASC","4","f","rechts","23","","fixation","","","",""
"899","img/120_90.png","70","image-keyboard-response","45","47324","0.0-6.0-1.19","MASC","4","f","rechts","23","","","self","f","120","true"
"null","<div style=""font-size:60px;"">+</div>","null","html-keyboard-response","46","47726","0.0-6.0-0.20","MASC","4","f","rechts","23","","fixation","","","",""
"726","img/150_60.png","70","image-keyboard-response","47","48453","0.0-6.0-1.20","MASC","4","f","rechts","23","","","self","f","150","true"
"null","<div style=""font-size:60px;"">+</div>","null","html-keyboard-response","48","48955","0.0-6.0-0.21","MASC","4","f","rechts","23","","fixation","","","",""
"965","img/60_90.png","74","image-keyboard-response","49","49921","0.0-6.0-1.21","MASC","4","f","rechts","23","","","self","j","60","true"
"null","<div style=""font-size:60px;"">+</div>","null","html-keyboard-response","50","50423","0.0-6.0-0.22","MASC","4","f","rechts","23","","fixation","","","",""
"1073","img/L30_180.png","74","image-keyboard-response","51","51497","0.0-6.0-1.22","MASC","4","f","rechts","23","","","self","f","30","false"
"null","<div style=""font-size:60px;"">+</div>","null","html-keyboard-response","52","51949","0.0-6.0-0.23","MASC","4","f","rechts","23","","fixation","","","",""
"874","img/30_300.png","70","image-keyboard-response","53","52824","0.0-6.0-1.23","MASC","4","f","rechts","23","","","self","f","30","true"
"null","<div style=""font-size:60px;"">+</div>","null","html-keyboard-response","54","53176","0.0-6.0-0.24","MASC","4","f","rechts","23","","fixation","","","",""
"856","img/90_240.png","74","image-keyboard-response","55","54033","0.0-6.0-1.24","MASC","4","f","rechts","23","","","self","j","90","true"
"null","<div style=""font-size:60px;"">+</div>","null","html-keyboard-response","56","54435","0.0-6.0-0.25","MASC","4","f","rechts","23","","fixation","","","",""
"1065","img/30_120.png","74","image-keyboard-response","57","55501","0.0-6.0-1.25","MASC","4","f","rechts","23","","","self","j","30","true"
"null","<div style=""font-size:60px;"">+</div>","null","html-keyboard-response","58","55803","0.0-6.0-0.26","MASC","4","f","rechts","23","","fixation","","","",""
"976","img/120_150.png","70","image-keyboard-response","59","56779","0.0-6.0-1.26","MASC","4","f","rechts","23","","","self","f","120","true"
"null","<div style=""font-size:60px;"">+</div>","null","html-keyboard-response","60","57231","0.0-6.0-0.27","MASC","4","f","rechts","23","","fixation","","","",""
"613","img/L120_180.png","70","image-keyboard-response","61","57844","0.0-6.0-1.27","MASC","4","f","rechts","23","","","self","f","120","true"
"null","<div style=""font-size:60px;"">+</div>","null","html-keyboard-response","62","58346","0.0-6.0-0.28","MASC","4","f","rechts","23","","fixation","","","",""
"747","img/120_210.png","74","image-keyboard-response","63","59094","0.0-6.0-1.28","MASC","4","f","rechts","23","","","self","j","120","true"
"null","<div style=""font-size:60px;"">+</div>","null","html-keyboard-response","64","59496","0.0-6.0-0.29","MASC","4","f","rechts","23","","fixation","","","",""
"1077","img/90_300.png","70","image-keyboard-response","65","60574","0.0-6.0-1.29","MASC","4","f","rechts","23","","","self","f","90","true"
"null","<div style=""font-size:60px;"">+</div>","null","html-keyboard-response","66","61076","0.0-6.0-0.30","MASC","4","f","rechts","23","","fixation","","","",""
"914","img/150_90.png","70","image-keyboard-response","67","61991","0.0-6.0-1.30","MASC","4","f","rechts","23","","","self","f","150","true"
"null","<div style=""font-size:60px;"">+</div>","null","html-keyboard-response","68","62393","0.0-6.0-0.31","MASC","4","f","rechts","23","","fixation","","","",""
"1070","img/120_30.png","74","image-keyboard-response","69","63464","0.0-6.0-1.31","MASC","4","f","rechts","23","","","self","j","120","true"
"null","<div style=""font-size:60px;"">+</div>","null","html-keyboard-response","70","63915","0.0-6.0-0.32","MASC","4","f","rechts","23","","fixation","","","",""
"674","img/0_150.png","74","image-keyboard-response","71","64590","0.0-6.0-1.32","MASC","4","f","rechts","23","","","self","j","0","true"
"null","<div style=""font-size:60px;"">+</div>","null","html-keyboard-response","72","64942","0.0-6.0-0.33","MASC","4","f","rechts","23","","fixation","","","",""
"1185","img/120_330.png","70","image-keyboard-response","73","66128","0.0-6.0-1.33","MASC","4","f","rechts","23","","","self","f","120","true"
"null","<div style=""font-size:60px;"">+</div>","null","html-keyboard-response","74","66479","0.0-6.0-0.34","MASC","4","f","rechts","23","","fixation","","","",""
"695","img/0_270.png","70","image-keyboard-response","75","67175","0.0-6.0-1.34","MASC","4","f","rechts","23","","","self","f","0","true"
"null","<div style=""font-size:60px;"">+</div>","null","html-keyboard-response","76","67577","0.0-6.0-0.35","MASC","4","f","rechts","23","","fixation","","","",""
"822","img/60_330.png","70","image-keyboard-response","77","68399","0.0-6.0-1.35","MASC","4","f","rechts","23","","","self","f","60","true"
"null","<div style=""font-size:60px;"">+</div>","null","html-keyboard-response","78","68700","0.0-6.0-0.36","MASC","4","f","rechts","23","","fixation","","","",""
"1142","img/90_60.png","74","image-keyboard-response","79","69844","0.0-6.0-1.36","MASC","4","f","rechts","23","","","self","j","90","true"
"null","<div style=""font-size:60px;"">+</div>","null","html-keyboard-response","80","70345","0.0-6.0-0.37","MASC","4","f","rechts","23","","fixation","","","",""
"889","img/150_270.png","74","image-keyboard-response","81","71235","0.0-6.0-1.37","MASC","4","f","rechts","23","","","self","j","150","true"
"null","<div style=""font-size:60px;"">+</div>","null","html-keyboard-response","82","71737","0.0-6.0-0.38","MASC","4","f","rechts","23","","fixation","","","",""
"645","img/0_60.png","74","image-keyboard-response","83","72384","0.0-6.0-1.38","MASC","4","f","rechts","23","","","self","j","0","true"
"null","<div style=""font-size:60px;"">+</div>","null","html-keyboard-response","84","72785","0.0-6.0-0.39","MASC","4","f","rechts","23","","fixation","","","",""
"741","img/150_180.png","74","image-keyboard-response","85","73528","0.0-6.0-1.39","MASC","4","f","rechts","23","","","self","j","150","true"
"null","<div style=""font-size:60px;"">+</div>","null","html-keyboard-response","86","73979","0.0-6.0-0.40","MASC","4","f","rechts","23","","fixation","","","",""
"698","img/0_90.png","74","image-keyboard-response","87","74679","0.0-6.0-1.40","MASC","4","f","rechts","23","","","self","j","0","true"
"null","<div style=""font-size:60px;"">+</div>","null","html-keyboard-response","88","74981","0.0-6.0-0.41","MASC","4","f","rechts","23","","fixation","","","",""
"789","img/L150_180.png","70","image-keyboard-response","89","75770","0.0-6.0-1.41","MASC","4","f","rechts","23","","","self","f","150","true"
"null","<div style=""font-size:60px;"">+</div>","null","html-keyboard-response","90","76272","0.0-6.0-0.42","MASC","4","f","rechts","23","","fixation","","","",""
"671","img/0_300.png","70","image-keyboard-response","91","76943","0.0-6.0-1.42","MASC","4","f","rechts","23","","","self","f","0","true"
"null","<div style=""font-size:60px;"">+</div>","null","html-keyboard-response","92","77395","0.0-6.0-0.43","MASC","4","f","rechts","23","","fixation","","","",""
"1007","img/60_270.png","70","image-keyboard-response","93","78403","0.0-6.0-1.43","MASC","4","f","rechts","23","","","self","f","60","true"
"null","<div style=""font-size:60px;"">+</div>","null","html-keyboard-response","94","78855","0.0-6.0-0.44","MASC","4","f","rechts","23","","fixation","","","",""
"658","img/0_210.png","70","image-keyboard-response","95","79515","0.0-6.0-1.44","MASC","4","f","rechts","23","","","self","f","0","true"
"null","<div style=""font-size:60px;"">+</div>","null","html-keyboard-response","96","79916","0.0-6.0-0.45","MASC","4","f","rechts","23","","fixation","","","",""
"552","img/0_330.png","70","image-keyboard-response","97","80469","0.0-6.0-1.45","MASC","4","f","rechts","23","","","self","f","0","true"
"null","<div style=""font-size:60px;"">+</div>","null","html-keyboard-response","98","80771","0.0-6.0-0.46","MASC","4","f","rechts","23","","fixation","","","",""
"910","img/90_330.png","70","image-keyboard-response","99","81683","0.0-6.0-1.46","MASC","4","f","rechts","23","","","self","f","90","true"
"null","<div style=""font-size:60px;"">+</div>","null","html-keyboard-response","100","82084","0.0-6.0-0.47","MASC","4","f","rechts","23","","fixation","","","",""
"802","img/90_120.png","74","image-keyboard-response","101","82888","0.0-6.0-1.47","MASC","4","f","rechts","23","","","self","f","90","false"
"null","<div style=""font-size:60px;"">+</div>","null","html-keyboard-response","102","83389","0.0-6.0-0.48","MASC","4","f","rechts","23","","fixation","","","",""
"836","img/60_210.png","74","image-keyboard-response","103","84226","0.0-6.0-1.48","MASC","4","f","rechts","23","","","self","j","60","true"
"null","<div style=""font-size:60px;"">+</div>","null","html-keyboard-response","104","84578","0.0-6.0-0.49","MASC","4","f","rechts","23","","fixation","","","",""
"818","img/150_120.png","70","image-keyboard-response","105","85398","0.0-6.0-1.49","MASC","4","f","rechts","23","","","self","f","150","true"
"null","<div style=""font-size:60px;"">+</div>","null","html-keyboard-response","106","85849","0.0-6.0-0.50","MASC","4","f","rechts","23","","fixation","","","",""
"816","img/L90_180.png","70","image-keyboard-response","107","86667","0.0-6.0-1.50","MASC","4","f","rechts","23","","","self","f","90","true"
"null","<div style=""font-size:60px;"">+</div>","null","html-keyboard-response","108","87068","0.0-6.0-0.51","MASC","4","f","rechts","23","","fixation","","","",""
"706","img/60_150.png","70","image-keyboard-response","109","87775","0.0-6.0-1.51","MASC","4","f","rechts","23","","","self","f","60","true"
"null","<div style=""font-size:60px;"">+</div>","null","html-keyboard-response","110","88127","0.0-6.0-0.52","MASC","4","f","rechts","23","","fixation","","","",""
"636","img/L120_180.png","70","image-keyboard-response","111","88765","0.0-6.0-1.52","MASC","4","f","rechts","23","","","self","f","120","true"
"null","<div style=""font-size:60px;"">+</div>","null","html-keyboard-response","112","89066","0.0-6.0-0.53","MASC","4","f","rechts","23","","fixation","","","",""
"582","img/L150_180.png","70","image-keyboard-response","113","89649","0.0-6.0-1.53","MASC","4","f","rechts","23","","","self","f","150","true"
"null","<div style=""font-size:60px;"">+</div>","null","html-keyboard-response","114","90101","0.0-6.0-0.54","MASC","4","f","rechts","23","","fixation","","","",""
"760","img/150_300.png","74","image-keyboard-response","115","90862","0.0-6.0-1.54","MASC","4","f","rechts","23","","","self","j","150","true"
"null","<div style=""font-size:60px;"">+</div>","null","html-keyboard-response","116","91164","0.0-6.0-0.55","MASC","4","f","rechts","23","","fixation","","","",""
"814","img/30_180.png","74","image-keyboard-response","117","91979","0.0-6.0-1.55","MASC","4","f","rechts","23","","","self","j","30","true"
"null","<div style=""font-size:60px;"">+</div>","null","html-keyboard-response","118","92381","0.0-6.0-0.56","MASC","4","f","rechts","23","","fixation","","","",""
"1133","img/60_330.png","70","image-keyboard-response","119","93515","0.0-6.0-1.56","MASC","4","f","rechts","23","","","self","f","60","true"
"null","<div style=""font-size:60px;"">+</div>","null","html-keyboard-response","120","93817","0.0-6.0-0.57","MASC","4","f","rechts","23","","fixation","","","",""
"644","img/0_60.png","74","image-keyboard-response","121","94461","0.0-6.0-1.57","MASC","4","f","rechts","23","","","self","j","0","true"
"null","<div style=""font-size:60px;"">+</div>","null","html-keyboard-response","122","94763","0.0-6.0-0.58","MASC","4","f","rechts","23","","fixation","","","",""
"761","img/150_270.png","74","image-keyboard-response","123","95525","0.0-6.0-1.58","MASC","4","f","rechts","23","","","self","j","150","true"
"null","<div style=""font-size:60px;"">+</div>","null","html-keyboard-response","124","95827","0.0-6.0-0.59","MASC","4","f","rechts","23","","fixation","","","",""
"676","img/150_90.png","70","image-keyboard-response","125","96503","0.0-6.0-1.59","MASC","4","f","rechts","23","","","self","f","150","true"
"null","<div style=""font-size:60px;"">+</div>","null","html-keyboard-response","126","96805","0.0-6.0-0.60","MASC","4","f","rechts","23","","fixation","","","",""
"800","img/60_210.png","74","image-keyboard-response","127","97605","0.0-6.0-1.60","MASC","4","f","rechts","23","","","self","j","60","true"
"null","<div style=""font-size:60px;"">+</div>","null","html-keyboard-response","128","98057","0.0-6.0-0.61","MASC","4","f","rechts","23","","fixation","","","",""
"800","img/L30_180.png","70","image-keyboard-response","129","98857","0.0-6.0-1.61","MASC","4","f","rechts","23","","","self","f","30","true"
"null","<div style=""font-size:60px;"">+</div>","null","html-keyboard-response","130","99209","0.0-6.0-0.62","MASC","4","f","rechts","23","","fixation","","","",""
"666","img/150_240.png","74","image-keyboard-response","131","99876","0.0-6.0-1.62","MASC","4","f","rechts","23","","","self","j","150","true"
"null","<div style=""font-size:60px;"">+</div>","null","html-keyboard-response","132","100328","0.0-6.0-0.63","MASC","4","f","rechts","23","","fixation","","","",""
"907","img/30_90.png","74","image-keyboard-response","133","101235","0.0-6.0-1.63","MASC","4","f","rechts","23","","","self","j","30","true"
"null","<div style=""font-size:60px;"">+</div>","null","html-keyboard-response","134","101737","0.0-6.0-0.64","MASC","4","f","rechts","23","","fixation","","","",""
"642","img/0_240.png","70","image-keyboard-response","135","102379","0.0-6.0-1.64","MASC","4","f","rechts","23","","","self","f","0","true"
"null","<div style=""font-size:60px;"">+</div>","null","html-keyboard-response","136","102681","0.0-6.0-0.65","MASC","4","f","rechts","23","","fixation","","","",""
"656","img/0_90.png","74","image-keyboard-response","137","103337","0.0-6.0-1.65","MASC","4","f","rechts","23","","","self","j","0","true"
"null","<div style=""font-size:60px;"">+</div>","null","html-keyboard-response","138","103689","0.0-6.0-0.66","MASC","4","f","rechts","23","","fixation","","","",""
"824","img/150_180.png","74","image-keyboard-response","139","104513","0.0-6.0-1.66","MASC","4","f","rechts","23","","","self","j","150","true"
"null","<div style=""font-size:60px;"">+</div>","null","html-keyboard-response","140","104815","0.0-6.0-0.67","MASC","4","f","rechts","23","","fixation","","","",""
"596","img/120_210.png","74","image-keyboard-response","141","105412","0.0-6.0-1.67","MASC","4","f","rechts","23","","","self","j","120","true"
"null","<div style=""font-size:60px;"">+</div>","null","html-keyboard-response","142","105714","0.0-6.0-0.68","MASC","4","f","rechts","23","","fixation","","","",""
"789","img/60_180.png","74","image-keyboard-response","143","106504","0.0-6.0-1.68","MASC","4","f","rechts","23","","","self","j","60","true"
"null","<div style=""font-size:60px;"">+</div>","null","html-keyboard-response","144","106806","0.0-6.0-0.69","MASC","4","f","rechts","23","","fixation","","","",""
"1366","img/120_30.png","70","image-keyboard-response","145","108172","0.0-6.0-1.69","MASC","4","f","rechts","23","","","self","j","120","false"
"null","<div style=""font-size:60px;"">+</div>","null","html-keyboard-response","146","108524","0.0-6.0-0.70","MASC","4","f","rechts","23","","fixation","","","",""
"1096","img/150_60.png","70","image-keyboard-response","147","109620","0.0-6.0-1.70","MASC","4","f","rechts","23","","","self","f","150","true"
"null","<div style=""font-size:60px;"">+</div>","null","html-keyboard-response","148","110071","0.0-6.0-0.71","MASC","4","f","rechts","23","","fixation","","","",""
"1082","img/90_210.png","74","image-keyboard-response","149","111154","0.0-6.0-1.71","MASC","4","f","rechts","23","","","self","j","90","true"
"null","<div style=""font-size:60px;"">+</div>","null","html-keyboard-response","150","111556","0.0-6.0-0.72","MASC","4","f","rechts","23","","fixation","","","",""
"905","img/30_270.png","70","image-keyboard-response","151","112461","0.0-6.0-1.72","MASC","4","f","rechts","23","","","self","f","30","true"
"null","<div style=""font-size:60px;"">+</div>","null","html-keyboard-response","152","112763","0.0-6.0-0.73","MASC","4","f","rechts","23","","fixation","","","",""
"1093","img/60_90.png","74","image-keyboard-response","153","113856","0.0-6.0-1.73","MASC","4","f","rechts","23","","","self","j","60","true"
"null","<div style=""font-size:60px;"">+</div>","null","html-keyboard-response","154","114158","0.0-6.0-0.74","MASC","4","f","rechts","23","","fixation","","","",""
"943","img/90_30.png","74","image-keyboard-response","155","115101","0.0-6.0-1.74","MASC","4","f","rechts","23","","","self","j","90","true"
"null","<div style=""font-size:60px;"">+</div>","null","html-keyboard-response","156","115603","0.0-6.0-0.75","MASC","4","f","rechts","23","","fixation","","","",""
"1076","img/90_60.png","74","image-keyboard-response","157","116679","0.0-6.0-1.75","MASC","4","f","rechts","23","","","self","j","90","true"
"null","<div style=""font-size:60px;"">+</div>","null","html-keyboard-response","158","117181","0.0-6.0-0.76","MASC","4","f","rechts","23","","fixation","","","",""
"924","img/120_90.png","70","image-keyboard-response","159","118106","0.0-6.0-1.76","MASC","4","f","rechts","23","","","self","f","120","true"
"null","<div style=""font-size:60px;"">+</div>","null","html-keyboard-response","160","118408","0.0-6.0-0.77","MASC","4","f","rechts","23","","fixation","","","",""
"693","img/0_270.png","70","image-keyboard-response","161","119101","0.0-6.0-1.77","MASC","4","f","rechts","23","","","self","f","0","true"
"null","<div style=""font-size:60px;"">+</div>","null","html-keyboard-response","162","119402","0.0-6.0-0.78","MASC","4","f","rechts","23","","fixation","","","",""
"669","img/0_120.png","74","image-keyboard-response","163","120072","0.0-6.0-1.78","MASC","4","f","rechts","23","","","self","j","0","true"
"null","<div style=""font-size:60px;"">+</div>","null","html-keyboard-response","164","120474","0.0-6.0-0.79","MASC","4","f","rechts","23","","fixation","","","",""
"630","img/0_300.png","70","image-keyboard-response","165","121104","0.0-6.0-1.79","MASC","4","f","rechts","23","","","self","f","0","true"
"null","<div style=""font-size:60px;"">+</div>","null","html-keyboard-response","166","121456","0.0-6.0-0.80","MASC","4","f","rechts","23","","fixation","","","",""
"524","img/0_330.png","70","image-keyboard-response","167","121980","0.0-6.0-1.80","MASC","4","f","rechts","23","","","self","f","0","true"
"null","<div style=""font-size:60px;"">+</div>","null","html-keyboard-response","168","122482","0.0-6.0-0.81","MASC","4","f","rechts","23","","fixation","","","",""
"756","img/120_180.png","74","image-keyboard-response","169","123238","0.0-6.0-1.81","MASC","4","f","rechts","23","","","self","j","120","true"
"null","<div style=""font-size:60px;"">+</div>","null","html-keyboard-response","170","123540","0.0-6.0-0.82","MASC","4","f","rechts","23","","fixation","","","",""
"633","img/L90_180.png","70","image-keyboard-response","171","124174","0.0-6.0-1.82","MASC","4","f","rechts","23","","","self","f","90","true"
"null","<div style=""font-size:60px;"">+</div>","null","html-keyboard-response","172","124475","0.0-6.0-0.83","MASC","4","f","rechts","23","","fixation","","","",""
"737","img/L60_180.png","70","image-keyboard-response","173","125213","0.0-6.0-1.83","MASC","4","f","rechts","23","","","self","f","60","true"
"null","<div style=""font-size:60px;"">+</div>","null","html-keyboard-response","174","125665","0.0-6.0-0.84","MASC","4","f","rechts","23","","fixation","","","",""
"722","img/120_150.png","70","image-keyboard-response","175","126388","0.0-6.0-1.84","MASC","4","f","rechts","23","","","self","f","120","true"
"null","<div style=""font-size:60px;"">+</div>","null","html-keyboard-response","176","126689","0.0-6.0-0.85","MASC","4","f","rechts","23","","fixation","","","",""
"663","img/0_30.png","74","image-keyboard-response","177","127353","0.0-6.0-1.85","MASC","4","f","rechts","23","","","self","j","0","true"
"null","<div style=""font-size:60px;"">+</div>","null","html-keyboard-response","178","127655","0.0-6.0-0.86","MASC","4","f","rechts","23","","fixation","","","",""
"780","img/150_120.png","70","image-keyboard-response","179","128436","0.0-6.0-1.86","MASC","4","f","rechts","23","","","self","f","150","true"
"null","<div style=""font-size:60px;"">+</div>","null","html-keyboard-response","180","128788","0.0-6.0-0.87","MASC","4","f","rechts","23","","fixation","","","",""
"860","img/60_150.png","70","image-keyboard-response","181","129649","0.0-6.0-1.87","MASC","4","f","rechts","23","","","self","f","60","true"
"null","<div style=""font-size:60px;"">+</div>","null","html-keyboard-response","182","129950","0.0-6.0-0.88","MASC","4","f","rechts","23","","fixation","","","",""
"689","img/0_210.png","70","image-keyboard-response","183","130641","0.0-6.0-1.88","MASC","4","f","rechts","23","","","self","f","0","true"
"null","<div style=""font-size:60px;"">+</div>","null","html-keyboard-response","184","131142","0.0-6.0-0.89","MASC","4","f","rechts","23","","fixation","","","",""
"820","img/30_300.png","70","image-keyboard-response","185","131964","0.0-6.0-1.89","MASC","4","f","rechts","23","","","self","f","30","true"
"null","<div style=""font-size:60px;"">+</div>","null","html-keyboard-response","186","132265","0.0-6.0-0.90","MASC","4","f","rechts","23","","fixation","","","",""
"809","img/90_120.png","70","image-keyboard-response","187","133075","0.0-6.0-1.90","MASC","4","f","rechts","23","","","self","f","90","true"
"null","<div style=""font-size:60px;"">+</div>","null","html-keyboard-response","188","133526","0.0-6.0-0.91","MASC","4","f","rechts","23","","fixation","","","",""
"839","img/90_240.png","74","image-keyboard-response","189","134367","0.0-6.0-1.91","MASC","4","f","rechts","23","","","self","j","90","true"
"null","<div style=""font-size:60px;"">+</div>","null","html-keyboard-response","190","134668","0.0-6.0-0.92","MASC","4","f","rechts","23","","fixation","","","",""
"1132","img/90_330.png","70","image-keyboard-response","191","135801","0.0-6.0-1.92","MASC","4","f","rechts","23","","","self","f","90","true"
"null","<div style=""font-size:60px;"">+</div>","null","html-keyboard-response","192","136153","0.0-6.0-0.93","MASC","4","f","rechts","23","","fixation","","","",""
"846","img/120_270.png","74","image-keyboard-response","193","137001","0.0-6.0-1.93","MASC","4","f","rechts","23","","","self","j","120","true"
"null","<div style=""font-size:60px;"">+</div>","null","html-keyboard-response","194","137302","0.0-6.0-0.94","MASC","4","f","rechts","23","","fixation","","","",""
"1126","img/60_30.png","74","image-keyboard-response","195","138429","0.0-6.0-1.94","MASC","4","f","rechts","23","","","self","j","60","true"
"null","<div style=""font-size:60px;"">+</div>","null","html-keyboard-response","196","138881","0.0-6.0-0.95","MASC","4","f","rechts","23","","fixation","","","",""
"843","img/90_180.png","74","image-keyboard-response","197","139725","0.0-6.0-1.95","MASC","4","f","rechts","23","","","self","j","90","true"
"null","<div style=""font-size:60px;"">+</div>","null","html-keyboard-response","198","140027","0.0-6.0-0.96","MASC","4","f","rechts","23","","fixation","","","",""
"932","img/30_60.png","70","image-keyboard-response","199","140960","0.0-6.0-1.96","MASC","4","f","rechts","23","","","self","j","30","false"
"null","<div style=""font-size:60px;"">+</div>","null","html-keyboard-response","200","141362","0.0-6.0-0.97","MASC","4","f","rechts","23","","fixation","","","",""
"899","img/30_120.png","74","image-keyboard-response","201","142262","0.0-6.0-1.97","MASC","4","f","rechts","23","","","self","j","30","true"
"null","<div style=""font-size:60px;"">+</div>","null","html-keyboard-response","202","142764","0.0-6.0-0.98","MASC","4","f","rechts","23","","fixation","","","",""
"1213","img/60_270.png","70","image-keyboard-response","203","143978","0.0-6.0-1.98","MASC","4","f","rechts","23","","","self","f","60","true"
"null","<div style=""font-size:60px;"">+</div>","null","html-keyboard-response","204","144380","0.0-6.0-0.99","MASC","4","f","rechts","23","","fixation","","","",""
"1083","img/120_330.png","70","image-keyboard-response","205","145464","0.0-6.0-1.99","MASC","4","f","rechts","23","","","self","f","120","true"
"null","<div style=""font-size:60px;"">+</div>","null","html-keyboard-response","206","145966","0.0-6.0-0.100","MASC","4","f","rechts","23","","fixation","","","",""
"884","img/90_150.png","70","image-keyboard-response","207","146851","0.0-6.0-1.100","MASC","4","f","rechts","23","","","self","f","90","true"
"null","<div style=""font-size:60px;"">+</div>","null","html-keyboard-response","208","147203","0.0-6.0-0.101","MASC","4","f","rechts","23","","fixation","","","",""
"782","img/30_240.png","74","image-keyboard-response","209","147985","0.0-6.0-1.101","MASC","4","f","rechts","23","","","self","f","30","false"
"null","<div style=""font-size:60px;"">+</div>","null","html-keyboard-response","210","148337","0.0-6.0-0.102","MASC","4","f","rechts","23","","fixation","","","",""
"756","img/0_150.png","74","image-keyboard-response","211","149094","0.0-6.0-1.102","MASC","4","f","rechts","23","","","self","j","0","true"
"null","<div style=""font-size:60px;"">+</div>","null","html-keyboard-response","212","149546","0.0-6.0-0.103","MASC","4","f","rechts","23","","fixation","","","",""
"872","img/90_300.png","70","image-keyboard-response","213","150419","0.0-6.0-1.103","MASC","4","f","rechts","23","","","self","f","90","true"
"null","<div style=""font-size:60px;"">+</div>","null","html-keyboard-response","214","150771","0.0-6.0-0.104","MASC","4","f","rechts","23","","fixation","","","",""
"924","img/90_120.png","70","image-keyboard-response","215","151696","0.0-6.0-1.104","MASC","4","f","rechts","23","","","self","f","90","true"
"null","<div style=""font-size:60px;"">+</div>","null","html-keyboard-response","216","152148","0.0-6.0-0.105","MASC","4","f","rechts","23","","fixation","","","",""
"1276","img/30_120.png","74","image-keyboard-response","217","153424","0.0-6.0-1.105","MASC","4","f","rechts","23","","","self","j","30","true"
"null","<div style=""font-size:60px;"">+</div>","null","html-keyboard-response","218","153876","0.0-6.0-0.106","MASC","4","f","rechts","23","","fixation","","","",""
"865","img/90_330.png","70","image-keyboard-response","219","154741","0.0-6.0-1.106","MASC","4","f","rechts","23","","","self","f","90","true"
"null","<div style=""font-size:60px;"">+</div>","null","html-keyboard-response","220","155143","0.0-6.0-0.107","MASC","4","f","rechts","23","","fixation","","","",""
"951","img/120_270.png","74","image-keyboard-response","221","156094","0.0-6.0-1.107","MASC","4","f","rechts","23","","","self","j","120","true"
"null","<div style=""font-size:60px;"">+</div>","null","html-keyboard-response","222","156446","0.0-6.0-0.108","MASC","4","f","rechts","23","","fixation","","","",""
"753","img/L150_180.png","70","image-keyboard-response","223","157199","0.0-6.0-1.108","MASC","4","f","rechts","23","","","self","f","150","true"
"null","<div style=""font-size:60px;"">+</div>","null","html-keyboard-response","224","157500","0.0-6.0-0.109","MASC","4","f","rechts","23","","fixation","","","",""
"682","img/150_240.png","74","image-keyboard-response","225","158183","0.0-6.0-1.109","MASC","4","f","rechts","23","","","self","j","150","true"
"null","<div style=""font-size:60px;"">+</div>","null","html-keyboard-response","226","158535","0.0-6.0-0.110","MASC","4","f","rechts","23","","fixation","","","",""
"631","img/0_60.png","74","image-keyboard-response","227","159166","0.0-6.0-1.110","MASC","4","f","rechts","23","","","self","j","0","true"
"null","<div style=""font-size:60px;"">+</div>","null","html-keyboard-response","228","159618","0.0-6.0-0.111","MASC","4","f","rechts","23","","fixation","","","",""
"718","img/90_150.png","70","image-keyboard-response","229","160336","0.0-6.0-1.111","MASC","4","f","rechts","23","","","self","f","90","true"
"null","<div style=""font-size:60px;"">+</div>","null","html-keyboard-response","230","160838","0.0-6.0-0.112","MASC","4","f","rechts","23","","fixation","","","",""
"900","img/120_90.png","70","image-keyboard-response","231","161738","0.0-6.0-1.112","MASC","4","f","rechts","23","","","self","f","120","true"
"null","<div style=""font-size:60px;"">+</div>","null","html-keyboard-response","232","162140","0.0-6.0-0.113","MASC","4","f","rechts","23","","fixation","","","",""
"823","img/150_90.png","70","image-keyboard-response","233","162963","0.0-6.0-1.113","MASC","4","f","rechts","23","","","self","f","150","true"
"null","<div style=""font-size:60px;"">+</div>","null","html-keyboard-response","234","163465","0.0-6.0-0.114","MASC","4","f","rechts","23","","fixation","","","",""
"632","img/0_150.png","74","image-keyboard-response","235","164097","0.0-6.0-1.114","MASC","4","f","rechts","23","","","self","j","0","true"
"null","<div style=""font-size:60px;"">+</div>","null","html-keyboard-response","236","164549","0.0-6.0-0.115","MASC","4","f","rechts","23","","fixation","","","",""
"803","img/L120_180.png","70","image-keyboard-response","237","165353","0.0-6.0-1.115","MASC","4","f","rechts","23","","","self","f","120","true"
"null","<div style=""font-size:60px;"">+</div>","null","html-keyboard-response","238","165704","0.0-6.0-0.116","MASC","4","f","rechts","23","","fixation","","","",""
"878","img/150_60.png","70","image-keyboard-response","239","166583","0.0-6.0-1.116","MASC","4","f","rechts","23","","","self","f","150","true"
"null","<div style=""font-size:60px;"">+</div>","null","html-keyboard-response","240","166985","0.0-6.0-0.117","MASC","4","f","rechts","23","","fixation","","","",""
"1104","img/120_330.png","70","image-keyboard-response","241","168089","0.0-6.0-1.117","MASC","4","f","rechts","23","","","self","f","120","true"
"null","<div style=""font-size:60px;"">+</div>","null","html-keyboard-response","242","168440","0.0-6.0-0.118","MASC","4","f","rechts","23","","fixation","","","",""
"823","img/150_120.png","70","image-keyboard-response","243","169263","0.0-6.0-1.118","MASC","4","f","rechts","23","","","self","f","150","true"
"null","<div style=""font-size:60px;"">+</div>","null","html-keyboard-response","244","169614","0.0-6.0-0.119","MASC","4","f","rechts","23","","fixation","","","",""
"883","img/120_150.png","70","image-keyboard-response","245","170498","0.0-6.0-1.119","MASC","4","f","rechts","23","","","self","f","120","true"
"null","<div style=""font-size:60px;"">+</div>","null","html-keyboard-response","246","171000","0.0-6.0-0.120","MASC","4","f","rechts","23","","fixation","","","",""
"619","img/0_90.png","74","image-keyboard-response","247","171619","0.0-6.0-1.120","MASC","4","f","rechts","23","","","self","j","0","true"
"null","<div style=""font-size:60px;"">+</div>","null","html-keyboard-response","248","171970","0.0-6.0-0.121","MASC","4","f","rechts","23","","fixation","","","",""
"844","img/30_90.png","74","image-keyboard-response","249","172815","0.0-6.0-1.121","MASC","4","f","rechts","23","","","self","j","30","true"
"null","<div style=""font-size:60px;"">+</div>","null","html-keyboard-response","250","173317","0.0-6.0-0.122","MASC","4","f","rechts","23","","fixation","","","",""
"920","img/90_30.png","74","image-keyboard-response","251","174237","0.0-6.0-1.122","MASC","4","f","rechts","23","","","self","j","90","true"
"null","<div style=""font-size:60px;"">+</div>","null","html-keyboard-response","252","174639","0.0-6.0-0.123","MASC","4","f","rechts","23","","fixation","","","",""
"738","img/90_300.png","70","image-keyboard-response","253","175377","0.0-6.0-1.123","MASC","4","f","rechts","23","","","self","f","90","true"
"null","<div style=""font-size:60px;"">+</div>","null","html-keyboard-response","254","175679","0.0-6.0-0.124","MASC","4","f","rechts","23","","fixation","","","",""
"1242","img/120_30.png","70","image-keyboard-response","255","176922","0.0-6.0-1.124","MASC","4","f","rechts","23","","","self","j","120","false"
"null","<div style=""font-size:60px;"">+</div>","null","html-keyboard-response","256","177373","0.0-6.0-0.125","MASC","4","f","rechts","23","","fixation","","","",""
"887","img/90_210.png","74","image-keyboard-response","257","178261","0.0-6.0-1.125","MASC","4","f","rechts","23","","","self","j","90","true"
"null","<div style=""font-size:60px;"">+</div>","null","html-keyboard-response","258","178662","0.0-6.0-0.126","MASC","4","f","rechts","23","","fixation","","","",""
"887","img/60_90.png","74","image-keyboard-response","259","179551","0.0-6.0-1.126","MASC","4","f","rechts","23","","","self","j","60","true"
"null","<div style=""font-size:60px;"">+</div>","null","html-keyboard-response","260","179952","0.0-6.0-0.127","MASC","4","f","rechts","23","","fixation","","","",""
"607","img/0_30.png","74","image-keyboard-response","261","180561","0.0-6.0-1.127","MASC","4","f","rechts","23","","","self","j","0","true"
"null","<div style=""font-size:60px;"">+</div>","null","html-keyboard-response","262","180962","0.0-6.0-0.128","MASC","4","f","rechts","23","","fixation","","","",""
"759","img/30_300.png","70","image-keyboard-response","263","181722","0.0-6.0-1.128","MASC","4","f","rechts","23","","","self","f","30","true"
"null","<div style=""font-size:60px;"">+</div>","null","html-keyboard-response","264","182124","0.0-6.0-0.129","MASC","4","f","rechts","23","","fixation","","","",""
"940","img/90_180.png","74","image-keyboard-response","265","183066","0.0-6.0-1.129","MASC","4","f","rechts","23","","","self","j","90","true"
"null","<div style=""font-size:60px;"">+</div>","null","html-keyboard-response","266","183367","0.0-6.0-0.130","MASC","4","f","rechts","23","","fixation","","","",""
"656","img/0_270.png","70","image-keyboard-response","267","184024","0.0-6.0-1.130","MASC","4","f","rechts","23","","","self","f","0","true"
"null","<div style=""font-size:60px;"">+</div>","null","html-keyboard-response","268","184476","0.0-6.0-0.131","MASC","4","f","rechts","23","","fixation","","","",""
"824","img/30_60.png","74","image-keyboard-response","269","185302","0.0-6.0-1.131","MASC","4","f","rechts","23","","","self","j","30","true"
"null","<div style=""font-size:60px;"">+</div>","null","html-keyboard-response","270","185653","0.0-6.0-0.132","MASC","4","f","rechts","23","","fixation","","","",""
"1000","img/150_270.png","74","image-keyboard-response","271","186655","0.0-6.0-1.132","MASC","4","f","rechts","23","","","self","j","150","true"
"null","<div style=""font-size:60px;"">+</div>","null","html-keyboard-response","272","187106","0.0-6.0-0.133","MASC","4","f","rechts","23","","fixation","","","",""
"642","img/0_300.png","70","image-keyboard-response","273","187749","0.0-6.0-1.133","MASC","4","f","rechts","23","","","self","f","0","true"
"null","<div style=""font-size:60px;"">+</div>","null","html-keyboard-response","274","188201","0.0-6.0-0.134","MASC","4","f","rechts","23","","fixation","","","",""
"881","img/L90_180.png","70","image-keyboard-response","275","189084","0.0-6.0-1.134","MASC","4","f","rechts","23","","","self","f","90","true"
"null","<div style=""font-size:60px;"">+</div>","null","html-keyboard-response","276","189385","0.0-6.0-0.135","MASC","4","f","rechts","23","","fixation","","","",""
"577","img/0_120.png","74","image-keyboard-response","277","189963","0.0-6.0-1.135","MASC","4","f","rechts","23","","","self","j","0","true"
"null","<div style=""font-size:60px;"">+</div>","null","html-keyboard-response","278","190314","0.0-6.0-0.136","MASC","4","f","rechts","23","","fixation","","","",""
"692","img/0_240.png","70","image-keyboard-response","279","191008","0.0-6.0-1.136","MASC","4","f","rechts","23","","","self","f","0","true"
"null","<div style=""font-size:60px;"">+</div>","null","html-keyboard-response","280","191309","0.0-6.0-0.137","MASC","4","f","rechts","23","","fixation","","","",""
"563","img/0_210.png","70","image-keyboard-response","281","191873","0.0-6.0-1.137","MASC","4","f","rechts","23","","","self","f","0","true"
"null","<div style=""font-size:60px;"">+</div>","null","html-keyboard-response","282","192224","0.0-6.0-0.138","MASC","4","f","rechts","23","","fixation","","","",""
"966","img/30_240.png","70","image-keyboard-response","283","193191","0.0-6.0-1.138","MASC","4","f","rechts","23","","","self","f","30","true"
"null","<div style=""font-size:60px;"">+</div>","null","html-keyboard-response","284","193543","0.0-6.0-0.139","MASC","4","f","rechts","23","","fixation","","","",""
"1078","img/60_150.png","74","image-keyboard-response","285","194622","0.0-6.0-1.139","MASC","4","f","rechts","23","","","self","f","60","false"
"null","<div style=""font-size:60px;"">+</div>","null","html-keyboard-response","286","195023","0.0-6.0-0.140","MASC","4","f","rechts","23","","fixation","","","",""
"1116","img/60_330.png","70","image-keyboard-response","287","196140","0.0-6.0-1.140","MASC","4","f","rechts","23","","","self","f","60","true"
"null","<div style=""font-size:60px;"">+</div>","null","html-keyboard-response","288","196492","0.0-6.0-0.141","MASC","4","f","rechts","23","","fixation","","","",""
"872","img/60_180.png","74","image-keyboard-response","289","197365","0.0-6.0-1.141","MASC","4","f","rechts","23","","","self","j","60","true"
"null","<div style=""font-size:60px;"">+</div>","null","html-keyboard-response","290","197767","0.0-6.0-0.142","MASC","4","f","rechts","23","","fixation","","","",""
"996","img/60_30.png","74","image-keyboard-response","291","198764","0.0-6.0-1.142","MASC","4","f","rechts","23","","","self","j","60","true"
"null","<div style=""font-size:60px;"">+</div>","null","html-keyboard-response","292","199266","0.0-6.0-0.143","MASC","4","f","rechts","23","","fixation","","","",""
"591","img/L30_180.png","74","image-keyboard-response","293","199858","0.0-6.0-1.143","MASC","4","f","rechts","23","","","self","f","30","false"
"null","<div style=""font-size:60px;"">+</div>","null","html-keyboard-response","294","200310","0.0-6.0-0.144","MASC","4","f","rechts","23","","fixation","","","",""
"1066","img/90_60.png","74","image-keyboard-response","295","201376","0.0-6.0-1.144","MASC","4","f","rechts","23","","","self","j","90","true"
"null","<div style=""font-size:60px;"">+</div>","null","html-keyboard-response","296","201677","0.0-6.0-0.145","MASC","4","f","rechts","23","","fixation","","","",""
"1151","img/60_210.png","74","image-keyboard-response","297","202829","0.0-6.0-1.145","MASC","4","f","rechts","23","","","self","j","60","true"
"null","<div style=""font-size:60px;"">+</div>","null","html-keyboard-response","298","203181","0.0-6.0-0.146","MASC","4","f","rechts","23","","fixation","","","",""
"821","img/150_180.png","74","image-keyboard-response","299","204003","0.0-6.0-1.146","MASC","4","f","rechts","23","","","self","j","150","true"
"null","<div style=""font-size:60px;"">+</div>","null","html-keyboard-response","300","204404","0.0-6.0-0.147","MASC","4","f","rechts","23","","fixation","","","",""
"538","img/90_240.png","74","image-keyboard-response","301","204942","0.0-6.0-1.147","MASC","4","f","rechts","23","","","self","j","90","true"
"null","<div style=""font-size:60px;"">+</div>","null","html-keyboard-response","302","205444","0.0-6.0-0.148","MASC","4","f","rechts","23","","fixation","","","",""
"749","img/0_330.png","70","image-keyboard-response","303","206194","0.0-6.0-1.148","MASC","4","f","rechts","23","","","self","f","0","true"
"null","<div style=""font-size:60px;"">+</div>","null","html-keyboard-response","304","206496","0.0-6.0-0.149","MASC","4","f","rechts","23","","fixation","","","",""
"899","img/30_180.png","74","image-keyboard-response","305","207396","0.0-6.0-1.149","MASC","4","f","rechts","23","","","self","j","30","true"
"null","<div style=""font-size:60px;"">+</div>","null","html-keyboard-response","306","207697","0.0-6.0-0.150","MASC","4","f","rechts","23","","fixation","","","",""
"1068","img/30_270.png","70","image-keyboard-response","307","208766","0.0-6.0-1.150","MASC","4","f","rechts","23","","","self","f","30","true"
"null","<div style=""font-size:60px;"">+</div>","null","html-keyboard-response","308","209168","0.0-6.0-0.151","MASC","4","f","rechts","23","","fixation","","","",""
"976","img/60_270.png","70","image-keyboard-response","309","210144","0.0-6.0-1.151","MASC","4","f","rechts","23","","","self","f","60","true"
"null","<div style=""font-size:60px;"">+</div>","null","html-keyboard-response","310","210496","0.0-6.0-0.152","MASC","4","f","rechts","23","","fixation","","","",""
"878","img/120_210.png","74","image-keyboard-response","311","211374","0.0-6.0-1.152","MASC","4","f","rechts","23","","","self","j","120","true"
"null","<div style=""font-size:60px;"">+</div>","null","html-keyboard-response","312","211676","0.0-6.0-0.153","MASC","4","f","rechts","23","","fixation","","","",""
"869","img/L60_180.png","70","image-keyboard-response","313","212545","0.0-6.0-1.153","MASC","4","f","rechts","23","","","self","f","60","true"
"null","<div style=""font-size:60px;"">+</div>","null","html-keyboard-response","314","212996","0.0-6.0-0.154","MASC","4","f","rechts","23","","fixation","","","",""
"873","img/150_300.png","74","image-keyboard-response","315","213870","0.0-6.0-1.154","MASC","4","f","rechts","23","","","self","j","150","true"
"null","<div style=""font-size:60px;"">+</div>","null","html-keyboard-response","316","214172","0.0-6.0-0.155","MASC","4","f","rechts","23","","fixation","","","",""
"957","img/120_180.png","74","image-keyboard-response","317","215129","0.0-6.0-1.155","MASC","4","f","rechts","23","","","self","j","120","true"
"null","<div style=""font-size:60px;"">+</div>","null","html-keyboard-response","318","215431","0.0-6.0-0.156","MASC","4","f","rechts","23","","fixation","","","",""
"1336","img/150_90.png","70","image-keyboard-response","319","216768","0.0-6.0-1.156","MASC","4","f","rechts","23","","","self","f","150","true"
"null","<div style=""font-size:60px;"">+</div>","null","html-keyboard-response","320","217170","0.0-6.0-0.157","MASC","4","f","rechts","23","","fixation","","","",""
"833","img/L60_180.png","70","image-keyboard-response","321","218004","0.0-6.0-1.157","MASC","4","f","rechts","23","","","self","f","60","true"
"null","<div style=""font-size:60px;"">+</div>","null","html-keyboard-response","322","218305","0.0-6.0-0.158","MASC","4","f","rechts","23","","fixation","","","",""
"1078","img/30_90.png","74","image-keyboard-response","323","219384","0.0-6.0-1.158","MASC","4","f","rechts","23","","","self","j","30","true"
"null","<div style=""font-size:60px;"">+</div>","null","html-keyboard-response","324","219786","0.0-6.0-0.159","MASC","4","f","rechts","23","","fixation","","","",""
"1076","img/90_330.png","74","image-keyboard-response","325","220862","0.0-6.0-1.159","MASC","4","f","rechts","23","","","self","f","90","false"
"null","<div style=""font-size:60px;"">+</div>","null","html-keyboard-response","326","221314","0.0-6.0-0.160","MASC","4","f","rechts","23","","fixation","","","",""
"884","img/150_60.png","70","image-keyboard-response","327","222198","0.0-6.0-1.160","MASC","4","f","rechts","23","","","self","f","150","true"
"null","<div style=""font-size:60px;"">+</div>","null","html-keyboard-response","328","222550","0.0-6.0-0.161","MASC","4","f","rechts","23","","fixation","","","",""
"897","img/L30_180.png","70","image-keyboard-response","329","223447","0.0-6.0-1.161","MASC","4","f","rechts","23","","","self","f","30","true"
"null","<div style=""font-size:60px;"">+</div>","null","html-keyboard-response","330","223799","0.0-6.0-0.162","MASC","4","f","rechts","23","","fixation","","","",""
"1092","img/30_60.png","74","image-keyboard-response","331","224893","0.0-6.0-1.162","MASC","4","f","rechts","23","","","self","j","30","true"
"null","<div style=""font-size:60px;"">+</div>","null","html-keyboard-response","332","225194","0.0-6.0-0.163","MASC","4","f","rechts","23","","fixation","","","",""
"1286","img/120_270.png","74","image-keyboard-response","333","226481","0.0-6.0-1.163","MASC","4","f","rechts","23","","","self","j","120","true"
"null","<div style=""font-size:60px;"">+</div>","null","html-keyboard-response","334","226983","0.0-6.0-0.164","MASC","4","f","rechts","23","","fixation","","","",""
"692","img/150_240.png","74","image-keyboard-response","335","227676","0.0-6.0-1.164","MASC","4","f","rechts","23","","","self","j","150","true"
"null","<div style=""font-size:60px;"">+</div>","null","html-keyboard-response","336","227977","0.0-6.0-0.165","MASC","4","f","rechts","23","","fixation","","","",""
"921","img/60_330.png","70","image-keyboard-response","337","228900","0.0-6.0-1.165","MASC","4","f","rechts","23","","","self","f","60","true"
"null","<div style=""font-size:60px;"">+</div>","null","html-keyboard-response","338","229401","0.0-6.0-0.166","MASC","4","f","rechts","23","","fixation","","","",""
"606","img/0_60.png","74","image-keyboard-response","339","230009","0.0-6.0-1.166","MASC","4","f","rechts","23","","","self","j","0","true"
"null","<div style=""font-size:60px;"">+</div>","null","html-keyboard-response","340","230409","0.0-6.0-0.167","MASC","4","f","rechts","23","","fixation","","","",""
"1121","img/30_240.png","70","image-keyboard-response","341","231532","0.0-6.0-1.167","MASC","4","f","rechts","23","","","self","f","30","true"
"null","<div style=""font-size:60px;"">+</div>","null","html-keyboard-response","342","231983","0.0-6.0-0.168","MASC","4","f","rechts","23","","fixation","","","",""
"754","img/120_210.png","74","image-keyboard-response","343","232738","0.0-6.0-1.168","MASC","4","f","rechts","23","","","self","j","120","true"
"null","<div style=""font-size:60px;"">+</div>","null","html-keyboard-response","344","233240","0.0-6.0-0.169","MASC","4","f","rechts","23","","fixation","","","",""
"757","img/0_150.png","74","image-keyboard-response","345","233999","0.0-6.0-1.169","MASC","4","f","rechts","23","","","self","j","0","true"
"null","<div style=""font-size:60px;"">+</div>","null","html-keyboard-response","346","234500","0.0-6.0-0.170","MASC","4","f","rechts","23","","fixation","","","",""
"1078","img/90_150.png","70","image-keyboard-response","347","235580","0.0-6.0-1.170","MASC","4","f","rechts","23","","","self","f","90","true"
"null","<div style=""font-size:60px;"">+</div>","null","html-keyboard-response","348","235981","0.0-6.0-0.171","MASC","4","f","rechts","23","","fixation","","","",""
"621","img/150_180.png","74","image-keyboard-response","349","236604","0.0-6.0-1.171","MASC","4","f","rechts","23","","","self","j","150","true"
"null","<div style=""font-size:60px;"">+</div>","null","html-keyboard-response","350","237005","0.0-6.0-0.172","MASC","4","f","rechts","23","","fixation","","","",""
"713","img/L150_180.png","70","image-keyboard-response","351","237719","0.0-6.0-1.172","MASC","4","f","rechts","23","","","self","f","150","true"
"null","<div style=""font-size:60px;"">+</div>","null","html-keyboard-response","352","238070","0.0-6.0-0.173","MASC","4","f","rechts","23","","fixation","","","",""
"831","img/60_210.png","74","image-keyboard-response","353","238902","0.0-6.0-1.173","MASC","4","f","rechts","23","","","self","j","60","true"
"null","<div style=""font-size:60px;"">+</div>","null","html-keyboard-response","354","239354","0.0-6.0-0.174","MASC","4","f","rechts","23","","fixation","","","",""
"659","img/0_240.png","70","image-keyboard-response","355","240014","0.0-6.0-1.174","MASC","4","f","rechts","23","","","self","f","0","true"
"null","<div style=""font-size:60px;"">+</div>","null","html-keyboard-response","356","240516","0.0-6.0-0.175","MASC","4","f","rechts","23","","fixation","","","",""
"1246","img/120_30.png","70","image-keyboard-response","357","241763","0.0-6.0-1.175","MASC","4","f","rechts","23","","","self","j","120","false"
"null","<div style=""font-size:60px;"">+</div>","null","html-keyboard-response","358","242215","0.0-6.0-0.176","MASC","4","f","rechts","23","","fixation","","","",""
"1072","img/90_60.png","74","image-keyboard-response","359","243289","0.0-6.0-1.176","MASC","4","f","rechts","23","","","self","j","90","true"
"null","<div style=""font-size:60px;"">+</div>","null","html-keyboard-response","360","243740","0.0-6.0-0.177","MASC","4","f","rechts","23","","fixation","","","",""
"1036","img/30_180.png","74","image-keyboard-response","361","244777","0.0-6.0-1.177","MASC","4","f","rechts","23","","","self","j","30","true"
"null","<div style=""font-size:60px;"">+</div>","null","html-keyboard-response","362","245129","0.0-6.0-0.178","MASC","4","f","rechts","23","","fixation","","","",""
"934","img/120_150.png","70","image-keyboard-response","363","246064","0.0-6.0-1.178","MASC","4","f","rechts","23","","","self","f","120","true"
"null","<div style=""font-size:60px;"">+</div>","null","html-keyboard-response","364","246566","0.0-6.0-0.179","MASC","4","f","rechts","23","","fixation","","","",""
"628","img/0_120.png","74","image-keyboard-response","365","247195","0.0-6.0-1.179","MASC","4","f","rechts","23","","","self","j","0","true"
"null","<div style=""font-size:60px;"">+</div>","null","html-keyboard-response","366","247597","0.0-6.0-0.180","MASC","4","f","rechts","23","","fixation","","","",""
"1064","img/0_330.png","70","image-keyboard-response","367","248662","0.0-6.0-1.180","MASC","4","f","rechts","23","","","self","f","0","true"
"null","<div style=""font-size:60px;"">+</div>","null","html-keyboard-response","368","249013","0.0-6.0-0.181","MASC","4","f","rechts","23","","fixation","","","",""
"1318","img/90_240.png","74","image-keyboard-response","369","250332","0.0-6.0-1.181","MASC","4","f","rechts","23","","","self","j","90","true"
"null","<div style=""font-size:60px;"">+</div>","null","html-keyboard-response","370","250834","0.0-6.0-0.182","MASC","4","f","rechts","23","","fixation","","","",""
"595","img/0_30.png","74","image-keyboard-response","371","251430","0.0-6.0-1.182","MASC","4","f","rechts","23","","","self","j","0","true"
"null","<div style=""font-size:60px;"">+</div>","null","html-keyboard-response","372","251782","0.0-6.0-0.183","MASC","4","f","rechts","23","","fixation","","","",""
"817","img/120_90.png","70","image-keyboard-response","373","252599","0.0-6.0-1.183","MASC","4","f","rechts","23","","","self","f","120","true"
"null","<div style=""font-size:60px;"">+</div>","null","html-keyboard-response","374","253101","0.0-6.0-0.184","MASC","4","f","rechts","23","","fixation","","","",""
"999","img/60_90.png","74","image-keyboard-response","375","254100","0.0-6.0-1.184","MASC","4","f","rechts","23","","","self","j","60","true"
"null","<div style=""font-size:60px;"">+</div>","null","html-keyboard-response","376","254502","0.0-6.0-0.185","MASC","4","f","rechts","23","","fixation","","","",""
"962","img/60_180.png","74","image-keyboard-response","377","255465","0.0-6.0-1.185","MASC","4","f","rechts","23","","","self","j","60","true"
"null","<div style=""font-size:60px;"">+</div>","null","html-keyboard-response","378","255867","0.0-6.0-0.186","MASC","4","f","rechts","23","","fixation","","","",""
"943","img/150_270.png","74","image-keyboard-response","379","256810","0.0-6.0-1.186","MASC","4","f","rechts","23","","","self","j","150","true"
"null","<div style=""font-size:60px;"">+</div>","null","html-keyboard-response","380","257162","0.0-6.0-0.187","MASC","4","f","rechts","23","","fixation","","","",""
"960","img/150_120.png","74","image-keyboard-response","381","258122","0.0-6.0-1.187","MASC","4","f","rechts","23","","","self","f","150","false"
"null","<div style=""font-size:60px;"">+</div>","null","html-keyboard-response","382","258524","0.0-6.0-0.188","MASC","4","f","rechts","23","","fixation","","","",""
"963","img/30_300.png","70","image-keyboard-response","383","259487","0.0-6.0-1.188","MASC","4","f","rechts","23","","","self","f","30","true"
"null","<div style=""font-size:60px;"">+</div>","null","html-keyboard-response","384","259989","0.0-6.0-0.189","MASC","4","f","rechts","23","","fixation","","","",""
"829","img/90_180.png","74","image-keyboard-response","385","260818","0.0-6.0-1.189","MASC","4","f","rechts","23","","","self","j","90","true"
"null","<div style=""font-size:60px;"">+</div>","null","html-keyboard-response","386","261270","0.0-6.0-0.190","MASC","4","f","rechts","23","","fixation","","","",""
"926","img/60_150.png","70","image-keyboard-response","387","262196","0.0-6.0-1.190","MASC","4","f","rechts","23","","","self","f","60","true"
"null","<div style=""font-size:60px;"">+</div>","null","html-keyboard-response","388","262698","0.0-6.0-0.191","MASC","4","f","rechts","23","","fixation","","","",""
"1076","img/90_120.png","70","image-keyboard-response","389","263774","0.0-6.0-1.191","MASC","4","f","rechts","23","","","self","f","90","true"
"null","<div style=""font-size:60px;"">+</div>","null","html-keyboard-response","390","264226","0.0-6.0-0.192","MASC","4","f","rechts","23","","fixation","","","",""
"788","img/120_180.png","74","image-keyboard-response","391","265015","0.0-6.0-1.192","MASC","4","f","rechts","23","","","self","j","120","true"
"null","<div style=""font-size:60px;"">+</div>","null","html-keyboard-response","392","265316","0.0-6.0-0.193","MASC","4","f","rechts","23","","fixation","","","",""
"843","img/0_300.png","70","image-keyboard-response","393","266160","0.0-6.0-1.193","MASC","4","f","rechts","23","","","self","f","0","true"
"null","<div style=""font-size:60px;"">+</div>","null","html-keyboard-response","394","266662","0.0-6.0-0.194","MASC","4","f","rechts","23","","fixation","","","",""
"616","img/0_90.png","74","image-keyboard-response","395","267278","0.0-6.0-1.194","MASC","4","f","rechts","23","","","self","j","0","true"
"null","<div style=""font-size:60px;"">+</div>","null","html-keyboard-response","396","267680","0.0-6.0-0.195","MASC","4","f","rechts","23","","fixation","","","",""
"1301","img/120_330.png","70","image-keyboard-response","397","268981","0.0-6.0-1.195","MASC","4","f","rechts","23","","","self","f","120","true"
"null","<div style=""font-size:60px;"">+</div>","null","html-keyboard-response","398","269382","0.0-6.0-0.196","MASC","4","f","rechts","23","","fixation","","","",""
"1077","img/90_30.png","74","image-keyboard-response","399","270460","0.0-6.0-1.196","MASC","4","f","rechts","23","","","self","j","90","true"
"null","<div style=""font-size:60px;"">+</div>","null","html-keyboard-response","400","270862","0.0-6.0-0.197","MASC","4","f","rechts","23","","fixation","","","",""
"1090","img/60_270.png","70","image-keyboard-response","401","271952","0.0-6.0-1.197","MASC","4","f","rechts","23","","","self","f","60","true"
"null","<div style=""font-size:60px;"">+</div>","null","html-keyboard-response","402","272453","0.0-6.0-0.198","MASC","4","f","rechts","23","","fixation","","","",""
"954","img/30_270.png","70","image-keyboard-response","403","273409","0.0-6.0-1.198","MASC","4","f","rechts","23","","","self","f","30","true"
"null","<div style=""font-size:60px;"">+</div>","null","html-keyboard-response","404","273860","0.0-6.0-0.199","MASC","4","f","rechts","23","","fixation","","","",""
"975","img/L90_180.png","70","image-keyboard-response","405","274837","0.0-6.0-1.199","MASC","4","f","rechts","23","","","self","f","90","true"
"null","<div style=""font-size:60px;"">+</div>","null","html-keyboard-response","406","275288","0.0-6.0-0.200","MASC","4","f","rechts","23","","fixation","","","",""
"1075","img/30_120.png","74","image-keyboard-response","407","276364","0.0-6.0-1.200","MASC","4","f","rechts","23","","","self","j","30","true"
"null","<div style=""font-size:60px;"">+</div>","null","html-keyboard-response","408","276816","0.0-6.0-0.201","MASC","4","f","rechts","23","","fixation","","","",""
"1064","img/60_30.png","74","image-keyboard-response","409","277880","0.0-6.0-1.201","MASC","4","f","rechts","23","","","self","j","60","true"
"null","<div style=""font-size:60px;"">+</div>","null","html-keyboard-response","410","278382","0.0-6.0-0.202","MASC","4","f","rechts","23","","fixation","","","",""
"923","img/150_300.png","74","image-keyboard-response","411","279306","0.0-6.0-1.202","MASC","4","f","rechts","23","","","self","j","150","true"
"null","<div style=""font-size:60px;"">+</div>","null","html-keyboard-response","412","279807","0.0-6.0-0.203","MASC","4","f","rechts","23","","fixation","","","",""
"851","img/90_210.png","74","image-keyboard-response","413","280659","0.0-6.0-1.203","MASC","4","f","rechts","23","","","self","j","90","true"
"null","<div style=""font-size:60px;"">+</div>","null","html-keyboard-response","414","280960","0.0-6.0-0.204","MASC","4","f","rechts","23","","fixation","","","",""
"707","img/0_210.png","70","image-keyboard-response","415","281669","0.0-6.0-1.204","MASC","4","f","rechts","23","","","self","f","0","true"
"null","<div style=""font-size:60px;"">+</div>","null","html-keyboard-response","416","282120","0.0-6.0-0.205","MASC","4","f","rechts","23","","fixation","","","",""
"644","img/0_270.png","70","image-keyboard-response","417","282766","0.0-6.0-1.205","MASC","4","f","rechts","23","","","self","f","0","true"
"null","<div style=""font-size:60px;"">+</div>","null","html-keyboard-response","418","283167","0.0-6.0-0.206","MASC","4","f","rechts","23","","fixation","","","",""
"1346","img/90_300.png","70","image-keyboard-response","419","284514","0.0-6.0-1.206","MASC","4","f","rechts","23","","","self","f","90","true"
"null","<div style=""font-size:60px;"">+</div>","null","html-keyboard-response","420","284966","0.0-6.0-0.207","MASC","4","f","rechts","23","","fixation","","","",""
"1015","img/L120_180.png","70","image-keyboard-response","421","285982","0.0-6.0-1.207","MASC","4","f","rechts","23","","","self","f","120","true"
"3730","<p>Du hast in 92% der Versuche korrekt entschieden.</p><p>Deine durchschnittliche Reaktionszeit war  860ms.</p><p>Dr&uuml;cke eine beliebige Taste, um die Session zu beenden. Vielen Dank!</p>","74","html-keyboard-response","422","289714","0.0-7.0","MASC","4","f","rechts","23","","","","","",""
