"rt","stimulus","key_press","trial_type","trial_index","time_elapsed","internal_node_id","subject","session","sex","handedness","age","responses","test_part","condition","correct_response","angle","correct"
"4429","<p>Mental Rotation Experiment.</p> <p>Dr&uuml;cke eine beliebige Taste, um anzufangen.</p>","77","html-keyboard-response","0","4429","0.0-0.0","MASC","3","f","rechts","23","","","","","",""
"3229","","","survey-text","1","7659","0.0-1.0","MASC","3","f","rechts","23","{""Q0"":""MASC""}","","","","",""
"189399","","","survey-text","2","197058","0.0-2.0","MASC","3","f","rechts","23","{""Q0"":""3""}","","","","",""
"2841","","","survey-multi-choice","3","199904","0.0-3.0","MASC","3","f","rechts","23","{""Q0"":""f"",""Q1"":""rechts""}","","","","",""
"27352","","","survey-text","4","227256","0.0-4.0","MASC","3","f","rechts","23","{""Q0"":""23""}","","","","",""
"190502","<p> Stell dir vor, dass du vor einem runden Tisch stehst, auf dem sich ein blauer Ball am Tischrand befindet. Entlang des Tischrands ist jeweils ein verschieden langer Pfeil. Nun bewegst du dich entlang dieses Pfeils bis an seine Spitze. Wenn du am Ende des Pfeils angekommen bist, schau zur Tischmitte. </p> <img src='img/90_180.png'></img> <br> <p>Entscheide dann, ob der Ball von deiner neuen (vorgestellten) Position links oder rechts von dir liegt.</p> <p>Dr&uuml;cke die <strong>'f'</strong>-Taste f&uuml;r links, die <strong>'j'</strong>-Taste f&uuml;r rechts.</p> <br><p> Das Bild wird jeweils 1 Sekunde lang pr&auml;sentiert. Du hast 3 Sekunden Zeit eine Entscheidung zu treffen.</p>","74","html-keyboard-response","5","417759","0.0-5.0","MASC","3","f","rechts","23","","","","","",""
"null","<div style=""font-size:60px;"">+</div>","null","html-keyboard-response","6","419262","0.0-6.0-0.0","MASC","3","f","rechts","23","","fixation","","","",""
"847","img/L150_180.png","70","image-keyboard-response","7","420110","0.0-6.0-1.0","MASC","3","f","rechts","23","","","self","f","150","true"
"null","<div style=""font-size:60px;"">+</div>","null","html-keyboard-response","8","420512","0.0-6.0-0.1","MASC","3","f","rechts","23","","fixation","","","",""
"643","img/0_90.png","74","image-keyboard-response","9","421156","0.0-6.0-1.1","MASC","3","f","rechts","23","","","self","j","0","true"
"null","<div style=""font-size:60px;"">+</div>","null","html-keyboard-response","10","421657","0.0-6.0-0.2","MASC","3","f","rechts","23","","fixation","","","",""
"823","img/30_60.png","70","image-keyboard-response","11","422483","0.0-6.0-1.2","MASC","3","f","rechts","23","","","self","j","30","false"
"null","<div style=""font-size:60px;"">+</div>","null","html-keyboard-response","12","422834","0.0-6.0-0.3","MASC","3","f","rechts","23","","fixation","","","",""
"867","img/120_90.png","70","image-keyboard-response","13","423703","0.0-6.0-1.3","MASC","3","f","rechts","23","","","self","f","120","true"
"null","<div style=""font-size:60px;"">+</div>","null","html-keyboard-response","14","424154","0.0-6.0-0.4","MASC","3","f","rechts","23","","fixation","","","",""
"1101","img/30_240.png","70","image-keyboard-response","15","425256","0.0-6.0-1.4","MASC","3","f","rechts","23","","","self","f","30","true"
"null","<div style=""font-size:60px;"">+</div>","null","html-keyboard-response","16","425757","0.0-6.0-0.5","MASC","3","f","rechts","23","","fixation","","","",""
"645","img/0_210.png","70","image-keyboard-response","17","426403","0.0-6.0-1.5","MASC","3","f","rechts","23","","","self","f","0","true"
"null","<div style=""font-size:60px;"">+</div>","null","html-keyboard-response","18","426804","0.0-6.0-0.6","MASC","3","f","rechts","23","","fixation","","","",""
"586","img/0_240.png","70","image-keyboard-response","19","427391","0.0-6.0-1.6","MASC","3","f","rechts","23","","","self","f","0","true"
"null","<div style=""font-size:60px;"">+</div>","null","html-keyboard-response","20","427692","0.0-6.0-0.7","MASC","3","f","rechts","23","","fixation","","","",""
"930","img/120_270.png","74","image-keyboard-response","21","428624","0.0-6.0-1.7","MASC","3","f","rechts","23","","","self","j","120","true"
"null","<div style=""font-size:60px;"">+</div>","null","html-keyboard-response","22","429025","0.0-6.0-0.8","MASC","3","f","rechts","23","","fixation","","","",""
"931","img/90_60.png","70","image-keyboard-response","23","429957","0.0-6.0-1.8","MASC","3","f","rechts","23","","","self","j","90","false"
"null","<div style=""font-size:60px;"">+</div>","null","html-keyboard-response","24","430408","0.0-6.0-0.9","MASC","3","f","rechts","23","","fixation","","","",""
"925","img/150_300.png","74","image-keyboard-response","25","431335","0.0-6.0-1.9","MASC","3","f","rechts","23","","","self","j","150","true"
"null","<div style=""font-size:60px;"">+</div>","null","html-keyboard-response","26","431686","0.0-6.0-0.10","MASC","3","f","rechts","23","","fixation","","","",""
"891","img/30_270.png","70","image-keyboard-response","27","432578","0.0-6.0-1.10","MASC","3","f","rechts","23","","","self","f","30","true"
"null","<div style=""font-size:60px;"">+</div>","null","html-keyboard-response","28","432880","0.0-6.0-0.11","MASC","3","f","rechts","23","","fixation","","","",""
"1183","img/90_330.png","70","image-keyboard-response","29","434065","0.0-6.0-1.11","MASC","3","f","rechts","23","","","self","f","90","true"
"null","<div style=""font-size:60px;"">+</div>","null","html-keyboard-response","30","434466","0.0-6.0-0.12","MASC","3","f","rechts","23","","fixation","","","",""
"671","img/0_30.png","74","image-keyboard-response","31","435138","0.0-6.0-1.12","MASC","3","f","rechts","23","","","self","j","0","true"
"null","<div style=""font-size:60px;"">+</div>","null","html-keyboard-response","32","435490","0.0-6.0-0.13","MASC","3","f","rechts","23","","fixation","","","",""
"801","img/90_150.png","70","image-keyboard-response","33","436293","0.0-6.0-1.13","MASC","3","f","rechts","23","","","self","f","90","true"
"null","<div style=""font-size:60px;"">+</div>","null","html-keyboard-response","34","436694","0.0-6.0-0.14","MASC","3","f","rechts","23","","fixation","","","",""
"966","img/60_30.png","74","image-keyboard-response","35","437662","0.0-6.0-1.14","MASC","3","f","rechts","23","","","self","j","60","true"
"null","<div style=""font-size:60px;"">+</div>","null","html-keyboard-response","36","438063","0.0-6.0-0.15","MASC","3","f","rechts","23","","fixation","","","",""
"839","img/120_210.png","74","image-keyboard-response","37","438903","0.0-6.0-1.15","MASC","3","f","rechts","23","","","self","j","120","true"
"null","<div style=""font-size:60px;"">+</div>","null","html-keyboard-response","38","439305","0.0-6.0-0.16","MASC","3","f","rechts","23","","fixation","","","",""
"837","img/30_180.png","74","image-keyboard-response","39","440144","0.0-6.0-1.16","MASC","3","f","rechts","23","","","self","j","30","true"
"null","<div style=""font-size:60px;"">+</div>","null","html-keyboard-response","40","440645","0.0-6.0-0.17","MASC","3","f","rechts","23","","fixation","","","",""
"605","img/0_300.png","70","image-keyboard-response","41","441252","0.0-6.0-1.17","MASC","3","f","rechts","23","","","self","f","0","true"
"null","<div style=""font-size:60px;"">+</div>","null","html-keyboard-response","42","441603","0.0-6.0-0.18","MASC","3","f","rechts","23","","fixation","","","",""
"860","img/60_210.png","74","image-keyboard-response","43","442464","0.0-6.0-1.18","MASC","3","f","rechts","23","","","self","j","60","true"
"null","<div style=""font-size:60px;"">+</div>","null","html-keyboard-response","44","442816","0.0-6.0-0.19","MASC","3","f","rechts","23","","fixation","","","",""
"947","img/120_30.png","70","image-keyboard-response","45","443764","0.0-6.0-1.19","MASC","3","f","rechts","23","","","self","j","120","false"
"null","<div style=""font-size:60px;"">+</div>","null","html-keyboard-response","46","444116","0.0-6.0-0.20","MASC","3","f","rechts","23","","fixation","","","",""
"975","img/90_120.png","70","image-keyboard-response","47","445093","0.0-6.0-1.20","MASC","3","f","rechts","23","","","self","f","90","true"
"null","<div style=""font-size:60px;"">+</div>","null","html-keyboard-response","48","445495","0.0-6.0-0.21","MASC","3","f","rechts","23","","fixation","","","",""
"780","img/60_180.png","74","image-keyboard-response","49","446276","0.0-6.0-1.21","MASC","3","f","rechts","23","","","self","j","60","true"
"null","<div style=""font-size:60px;"">+</div>","null","html-keyboard-response","50","446678","0.0-6.0-0.22","MASC","3","f","rechts","23","","fixation","","","",""
"981","img/150_90.png","70","image-keyboard-response","51","447660","0.0-6.0-1.22","MASC","3","f","rechts","23","","","self","f","150","true"
"null","<div style=""font-size:60px;"">+</div>","null","html-keyboard-response","52","448062","0.0-6.0-0.23","MASC","3","f","rechts","23","","fixation","","","",""
"944","img/150_60.png","70","image-keyboard-response","53","449007","0.0-6.0-1.23","MASC","3","f","rechts","23","","","self","f","150","true"
"null","<div style=""font-size:60px;"">+</div>","null","html-keyboard-response","54","449509","0.0-6.0-0.24","MASC","3","f","rechts","23","","fixation","","","",""
"974","img/30_120.png","74","image-keyboard-response","55","450484","0.0-6.0-1.24","MASC","3","f","rechts","23","","","self","j","30","true"
"null","<div style=""font-size:60px;"">+</div>","null","html-keyboard-response","56","450986","0.0-6.0-0.25","MASC","3","f","rechts","23","","fixation","","","",""
"670","img/0_150.png","74","image-keyboard-response","57","451657","0.0-6.0-1.25","MASC","3","f","rechts","23","","","self","j","0","true"
"null","<div style=""font-size:60px;"">+</div>","null","html-keyboard-response","58","452109","0.0-6.0-0.26","MASC","3","f","rechts","23","","fixation","","","",""
"974","img/60_330.png","70","image-keyboard-response","59","453084","0.0-6.0-1.26","MASC","3","f","rechts","23","","","self","f","60","true"
"null","<div style=""font-size:60px;"">+</div>","null","html-keyboard-response","60","453536","0.0-6.0-0.27","MASC","3","f","rechts","23","","fixation","","","",""
"816","img/150_240.png","74","image-keyboard-response","61","454353","0.0-6.0-1.27","MASC","3","f","rechts","23","","","self","j","150","true"
"null","<div style=""font-size:60px;"">+</div>","null","html-keyboard-response","62","454655","0.0-6.0-0.28","MASC","3","f","rechts","23","","fixation","","","",""
"892","img/L90_180.png","70","image-keyboard-response","63","455548","0.0-6.0-1.28","MASC","3","f","rechts","23","","","self","f","90","true"
"null","<div style=""font-size:60px;"">+</div>","null","html-keyboard-response","64","455850","0.0-6.0-0.29","MASC","3","f","rechts","23","","fixation","","","",""
"954","img/120_180.png","74","image-keyboard-response","65","456805","0.0-6.0-1.29","MASC","3","f","rechts","23","","","self","j","120","true"
"null","<div style=""font-size:60px;"">+</div>","null","html-keyboard-response","66","457307","0.0-6.0-0.30","MASC","3","f","rechts","23","","fixation","","","",""
"1162","img/120_330.png","70","image-keyboard-response","67","458470","0.0-6.0-1.30","MASC","3","f","rechts","23","","","self","f","120","true"
"null","<div style=""font-size:60px;"">+</div>","null","html-keyboard-response","68","458821","0.0-6.0-0.31","MASC","3","f","rechts","23","","fixation","","","",""
"872","img/L120_180.png","70","image-keyboard-response","69","459694","0.0-6.0-1.31","MASC","3","f","rechts","23","","","self","f","120","true"
"null","<div style=""font-size:60px;"">+</div>","null","html-keyboard-response","70","460046","0.0-6.0-0.32","MASC","3","f","rechts","23","","fixation","","","",""
"759","img/90_180.png","74","image-keyboard-response","71","460805","0.0-6.0-1.32","MASC","3","f","rechts","23","","","self","j","90","true"
"null","<div style=""font-size:60px;"">+</div>","null","html-keyboard-response","72","461207","0.0-6.0-0.33","MASC","3","f","rechts","23","","fixation","","","",""
"922","img/30_90.png","74","image-keyboard-response","73","462130","0.0-6.0-1.33","MASC","3","f","rechts","23","","","self","j","30","true"
"null","<div style=""font-size:60px;"">+</div>","null","html-keyboard-response","74","462582","0.0-6.0-0.34","MASC","3","f","rechts","23","","fixation","","","",""
"725","img/150_120.png","70","image-keyboard-response","75","463308","0.0-6.0-1.34","MASC","3","f","rechts","23","","","self","f","150","true"
"null","<div style=""font-size:60px;"">+</div>","null","html-keyboard-response","76","463760","0.0-6.0-0.35","MASC","3","f","rechts","23","","fixation","","","",""
"621","img/0_60.png","74","image-keyboard-response","77","464382","0.0-6.0-1.35","MASC","3","f","rechts","23","","","self","j","0","true"
"null","<div style=""font-size:60px;"">+</div>","null","html-keyboard-response","78","464834","0.0-6.0-0.36","MASC","3","f","rechts","23","","fixation","","","",""
"989","img/60_270.png","70","image-keyboard-response","79","465824","0.0-6.0-1.36","MASC","3","f","rechts","23","","","self","f","60","true"
"null","<div style=""font-size:60px;"">+</div>","null","html-keyboard-response","80","466326","0.0-6.0-0.37","MASC","3","f","rechts","23","","fixation","","","",""
"953","img/90_30.png","74","image-keyboard-response","81","467280","0.0-6.0-1.37","MASC","3","f","rechts","23","","","self","j","90","true"
"null","<div style=""font-size:60px;"">+</div>","null","html-keyboard-response","82","467732","0.0-6.0-0.38","MASC","3","f","rechts","23","","fixation","","","",""
"840","img/90_240.png","74","image-keyboard-response","83","468574","0.0-6.0-1.38","MASC","3","f","rechts","23","","","self","j","90","true"
"null","<div style=""font-size:60px;"">+</div>","null","html-keyboard-response","84","468875","0.0-6.0-0.39","MASC","3","f","rechts","23","","fixation","","","",""
"853","img/150_270.png","74","image-keyboard-response","85","469729","0.0-6.0-1.39","MASC","3","f","rechts","23","","","self","j","150","true"
"null","<div style=""font-size:60px;"">+</div>","null","html-keyboard-response","86","470231","0.0-6.0-0.40","MASC","3","f","rechts","23","","fixation","","","",""
"831","img/L60_180.png","70","image-keyboard-response","87","471063","0.0-6.0-1.40","MASC","3","f","rechts","23","","","self","f","60","true"
"null","<div style=""font-size:60px;"">+</div>","null","html-keyboard-response","88","471465","0.0-6.0-0.41","MASC","3","f","rechts","23","","fixation","","","",""
"609","img/0_270.png","70","image-keyboard-response","89","472076","0.0-6.0-1.41","MASC","3","f","rechts","23","","","self","f","0","true"
"null","<div style=""font-size:60px;"">+</div>","null","html-keyboard-response","90","472527","0.0-6.0-0.42","MASC","3","f","rechts","23","","fixation","","","",""
"588","img/0_120.png","74","image-keyboard-response","91","473117","0.0-6.0-1.42","MASC","3","f","rechts","23","","","self","j","0","true"
"null","<div style=""font-size:60px;"">+</div>","null","html-keyboard-response","92","473519","0.0-6.0-0.43","MASC","3","f","rechts","23","","fixation","","","",""
"695","img/120_150.png","70","image-keyboard-response","93","474216","0.0-6.0-1.43","MASC","3","f","rechts","23","","","self","f","120","true"
"null","<div style=""font-size:60px;"">+</div>","null","html-keyboard-response","94","474517","0.0-6.0-0.44","MASC","3","f","rechts","23","","fixation","","","",""
"934","img/60_90.png","74","image-keyboard-response","95","475452","0.0-6.0-1.44","MASC","3","f","rechts","23","","","self","j","60","true"
"null","<div style=""font-size:60px;"">+</div>","null","html-keyboard-response","96","475804","0.0-6.0-0.45","MASC","3","f","rechts","23","","fixation","","","",""
"904","img/30_300.png","70","image-keyboard-response","97","476709","0.0-6.0-1.45","MASC","3","f","rechts","23","","","self","f","30","true"
"null","<div style=""font-size:60px;"">+</div>","null","html-keyboard-response","98","477060","0.0-6.0-0.46","MASC","3","f","rechts","23","","fixation","","","",""
"814","img/90_210.png","74","image-keyboard-response","99","477876","0.0-6.0-1.46","MASC","3","f","rechts","23","","","self","j","90","true"
"null","<div style=""font-size:60px;"">+</div>","null","html-keyboard-response","100","478377","0.0-6.0-0.47","MASC","3","f","rechts","23","","fixation","","","",""
"592","img/0_330.png","70","image-keyboard-response","101","478971","0.0-6.0-1.47","MASC","3","f","rechts","23","","","self","f","0","true"
"null","<div style=""font-size:60px;"">+</div>","null","html-keyboard-response","102","479322","0.0-6.0-0.48","MASC","3","f","rechts","23","","fixation","","","",""
"913","img/L30_180.png","70","image-keyboard-response","103","480237","0.0-6.0-1.48","MASC","3","f","rechts","23","","","self","f","30","true"
"null","<div style=""font-size:60px;"">+</div>","null","html-keyboard-response","104","480738","0.0-6.0-0.49","MASC","3","f","rechts","23","","fixation","","","",""
"870","img/60_150.png","70","image-keyboard-response","105","481609","0.0-6.0-1.49","MASC","3","f","rechts","23","","","self","f","60","true"
"null","<div style=""font-size:60px;"">+</div>","null","html-keyboard-response","106","482060","0.0-6.0-0.50","MASC","3","f","rechts","23","","fixation","","","",""
"928","img/150_180.png","74","image-keyboard-response","107","482990","0.0-6.0-1.50","MASC","3","f","rechts","23","","","self","j","150","true"
"null","<div style=""font-size:60px;"">+</div>","null","html-keyboard-response","108","483341","0.0-6.0-0.51","MASC","3","f","rechts","23","","fixation","","","",""
"943","img/90_300.png","70","image-keyboard-response","109","484286","0.0-6.0-1.51","MASC","3","f","rechts","23","","","self","f","90","true"
"null","<div style=""font-size:60px;"">+</div>","null","html-keyboard-response","110","484687","0.0-6.0-0.52","MASC","3","f","rechts","23","","fixation","","","",""
"942","img/90_150.png","70","image-keyboard-response","111","485631","0.0-6.0-1.52","MASC","3","f","rechts","23","","","self","f","90","true"
"null","<div style=""font-size:60px;"">+</div>","null","html-keyboard-response","112","485982","0.0-6.0-0.53","MASC","3","f","rechts","23","","fixation","","","",""
"829","img/150_300.png","74","image-keyboard-response","113","486813","0.0-6.0-1.53","MASC","3","f","rechts","23","","","self","j","150","true"
"null","<div style=""font-size:60px;"">+</div>","null","html-keyboard-response","114","487314","0.0-6.0-0.54","MASC","3","f","rechts","23","","fixation","","","",""
"820","img/150_90.png","70","image-keyboard-response","115","488135","0.0-6.0-1.54","MASC","3","f","rechts","23","","","self","f","150","true"
"null","<div style=""font-size:60px;"">+</div>","null","html-keyboard-response","116","488437","0.0-6.0-0.55","MASC","3","f","rechts","23","","fixation","","","",""
"960","img/L30_180.png","70","image-keyboard-response","117","489398","0.0-6.0-1.55","MASC","3","f","rechts","23","","","self","f","30","true"
"null","<div style=""font-size:60px;"">+</div>","null","html-keyboard-response","118","489850","0.0-6.0-0.56","MASC","3","f","rechts","23","","fixation","","","",""
"582","img/0_330.png","70","image-keyboard-response","119","490433","0.0-6.0-1.56","MASC","3","f","rechts","23","","","self","f","0","true"
"null","<div style=""font-size:60px;"">+</div>","null","html-keyboard-response","120","490885","0.0-6.0-0.57","MASC","3","f","rechts","23","","fixation","","","",""
"739","img/30_180.png","74","image-keyboard-response","121","491624","0.0-6.0-1.57","MASC","3","f","rechts","23","","","self","j","30","true"
"null","<div style=""font-size:60px;"">+</div>","null","html-keyboard-response","122","491926","0.0-6.0-0.58","MASC","3","f","rechts","23","","fixation","","","",""
"891","img/150_60.png","70","image-keyboard-response","123","492819","0.0-6.0-1.58","MASC","3","f","rechts","23","","","self","f","150","true"
"null","<div style=""font-size:60px;"">+</div>","null","html-keyboard-response","124","493220","0.0-6.0-0.59","MASC","3","f","rechts","23","","fixation","","","",""
"841","img/30_90.png","74","image-keyboard-response","125","494062","0.0-6.0-1.59","MASC","3","f","rechts","23","","","self","j","30","true"
"null","<div style=""font-size:60px;"">+</div>","null","html-keyboard-response","126","494364","0.0-6.0-0.60","MASC","3","f","rechts","23","","fixation","","","",""
"952","img/120_210.png","74","image-keyboard-response","127","495318","0.0-6.0-1.60","MASC","3","f","rechts","23","","","self","j","120","true"
"null","<div style=""font-size:60px;"">+</div>","null","html-keyboard-response","128","495769","0.0-6.0-0.61","MASC","3","f","rechts","23","","fixation","","","",""
"974","img/90_60.png","74","image-keyboard-response","129","496744","0.0-6.0-1.61","MASC","3","f","rechts","23","","","self","j","90","true"
"null","<div style=""font-size:60px;"">+</div>","null","html-keyboard-response","130","497196","0.0-6.0-0.62","MASC","3","f","rechts","23","","fixation","","","",""
"848","img/120_180.png","74","image-keyboard-response","131","498045","0.0-6.0-1.62","MASC","3","f","rechts","23","","","self","j","120","true"
"null","<div style=""font-size:60px;"">+</div>","null","html-keyboard-response","132","498347","0.0-6.0-0.63","MASC","3","f","rechts","23","","fixation","","","",""
"665","img/L150_180.png","70","image-keyboard-response","133","499013","0.0-6.0-1.63","MASC","3","f","rechts","23","","","self","f","150","true"
"null","<div style=""font-size:60px;"">+</div>","null","html-keyboard-response","134","499365","0.0-6.0-0.64","MASC","3","f","rechts","23","","fixation","","","",""
"815","img/60_30.png","74","image-keyboard-response","135","500181","0.0-6.0-1.64","MASC","3","f","rechts","23","","","self","j","60","true"
"null","<div style=""font-size:60px;"">+</div>","null","html-keyboard-response","136","500633","0.0-6.0-0.65","MASC","3","f","rechts","23","","fixation","","","",""
"777","img/30_60.png","74","image-keyboard-response","137","501411","0.0-6.0-1.65","MASC","3","f","rechts","23","","","self","j","30","true"
"null","<div style=""font-size:60px;"">+</div>","null","html-keyboard-response","138","501813","0.0-6.0-0.66","MASC","3","f","rechts","23","","fixation","","","",""
"847","img/30_300.png","70","image-keyboard-response","139","502661","0.0-6.0-1.66","MASC","3","f","rechts","23","","","self","f","30","true"
"null","<div style=""font-size:60px;"">+</div>","null","html-keyboard-response","140","503113","0.0-6.0-0.67","MASC","3","f","rechts","23","","fixation","","","",""
"887","img/150_120.png","70","image-keyboard-response","141","504001","0.0-6.0-1.67","MASC","3","f","rechts","23","","","self","f","150","true"
"null","<div style=""font-size:60px;"">+</div>","null","html-keyboard-response","142","504452","0.0-6.0-0.68","MASC","3","f","rechts","23","","fixation","","","",""
"671","img/150_240.png","74","image-keyboard-response","143","505124","0.0-6.0-1.68","MASC","3","f","rechts","23","","","self","j","150","true"
"null","<div style=""font-size:60px;"">+</div>","null","html-keyboard-response","144","505476","0.0-6.0-0.69","MASC","3","f","rechts","23","","fixation","","","",""
"795","img/90_180.png","74","image-keyboard-response","145","506272","0.0-6.0-1.69","MASC","3","f","rechts","23","","","self","j","90","true"
"null","<div style=""font-size:60px;"">+</div>","null","html-keyboard-response","146","506724","0.0-6.0-0.70","MASC","3","f","rechts","23","","fixation","","","",""
"1157","img/120_30.png","74","image-keyboard-response","147","507882","0.0-6.0-1.70","MASC","3","f","rechts","23","","","self","j","120","true"
"null","<div style=""font-size:60px;"">+</div>","null","html-keyboard-response","148","508233","0.0-6.0-0.71","MASC","3","f","rechts","23","","fixation","","","",""
"845","img/30_120.png","74","image-keyboard-response","149","509079","0.0-6.0-1.71","MASC","3","f","rechts","23","","","self","j","30","true"
"null","<div style=""font-size:60px;"">+</div>","null","html-keyboard-response","150","509431","0.0-6.0-0.72","MASC","3","f","rechts","23","","fixation","","","",""
"843","img/120_90.png","70","image-keyboard-response","151","510274","0.0-6.0-1.72","MASC","3","f","rechts","23","","","self","f","120","true"
"null","<div style=""font-size:60px;"">+</div>","null","html-keyboard-response","152","510575","0.0-6.0-0.73","MASC","3","f","rechts","23","","fixation","","","",""
"662","img/0_300.png","70","image-keyboard-response","153","511238","0.0-6.0-1.73","MASC","3","f","rechts","23","","","self","f","0","true"
"null","<div style=""font-size:60px;"">+</div>","null","html-keyboard-response","154","511590","0.0-6.0-0.74","MASC","3","f","rechts","23","","fixation","","","",""
"527","img/0_240.png","70","image-keyboard-response","155","512117","0.0-6.0-1.74","MASC","3","f","rechts","23","","","self","f","0","true"
"null","<div style=""font-size:60px;"">+</div>","null","html-keyboard-response","156","512619","0.0-6.0-0.75","MASC","3","f","rechts","23","","fixation","","","",""
"603","img/0_30.png","74","image-keyboard-response","157","513223","0.0-6.0-1.75","MASC","3","f","rechts","23","","","self","j","0","true"
"null","<div style=""font-size:60px;"">+</div>","null","html-keyboard-response","158","513525","0.0-6.0-0.76","MASC","3","f","rechts","23","","fixation","","","",""
"1069","img/90_330.png","70","image-keyboard-response","159","514594","0.0-6.0-1.76","MASC","3","f","rechts","23","","","self","f","90","true"
"null","<div style=""font-size:60px;"">+</div>","null","html-keyboard-response","160","514945","0.0-6.0-0.77","MASC","3","f","rechts","23","","fixation","","","",""
"912","img/60_210.png","74","image-keyboard-response","161","515858","0.0-6.0-1.77","MASC","3","f","rechts","23","","","self","j","60","true"
"null","<div style=""font-size:60px;"">+</div>","null","html-keyboard-response","162","516209","0.0-6.0-0.78","MASC","3","f","rechts","23","","fixation","","","",""
"845","img/90_30.png","70","image-keyboard-response","163","517055","0.0-6.0-1.78","MASC","3","f","rechts","23","","","self","j","90","false"
"null","<div style=""font-size:60px;"">+</div>","null","html-keyboard-response","164","517507","0.0-6.0-0.79","MASC","3","f","rechts","23","","fixation","","","",""
"852","img/60_270.png","70","image-keyboard-response","165","518359","0.0-6.0-1.79","MASC","3","f","rechts","23","","","self","f","60","true"
"null","<div style=""font-size:60px;"">+</div>","null","html-keyboard-response","166","518860","0.0-6.0-0.80","MASC","3","f","rechts","23","","fixation","","","",""
"819","img/30_240.png","70","image-keyboard-response","167","519680","0.0-6.0-1.80","MASC","3","f","rechts","23","","","self","f","30","true"
"null","<div style=""font-size:60px;"">+</div>","null","html-keyboard-response","168","520181","0.0-6.0-0.81","MASC","3","f","rechts","23","","fixation","","","",""
"846","img/L90_180.png","70","image-keyboard-response","169","521028","0.0-6.0-1.81","MASC","3","f","rechts","23","","","self","f","90","true"
"null","<div style=""font-size:60px;"">+</div>","null","html-keyboard-response","170","521480","0.0-6.0-0.82","MASC","3","f","rechts","23","","fixation","","","",""
"729","img/150_180.png","74","image-keyboard-response","171","522210","0.0-6.0-1.82","MASC","3","f","rechts","23","","","self","j","150","true"
"null","<div style=""font-size:60px;"">+</div>","null","html-keyboard-response","172","522511","0.0-6.0-0.83","MASC","3","f","rechts","23","","fixation","","","",""
"987","img/120_270.png","74","image-keyboard-response","173","523499","0.0-6.0-1.83","MASC","3","f","rechts","23","","","self","j","120","true"
"null","<div style=""font-size:60px;"">+</div>","null","html-keyboard-response","174","523951","0.0-6.0-0.84","MASC","3","f","rechts","23","","fixation","","","",""
"791","img/90_120.png","70","image-keyboard-response","175","524743","0.0-6.0-1.84","MASC","3","f","rechts","23","","","self","f","90","true"
"null","<div style=""font-size:60px;"">+</div>","null","html-keyboard-response","176","525145","0.0-6.0-0.85","MASC","3","f","rechts","23","","fixation","","","",""
"936","img/150_270.png","74","image-keyboard-response","177","526082","0.0-6.0-1.85","MASC","3","f","rechts","23","","","self","j","150","true"
"null","<div style=""font-size:60px;"">+</div>","null","html-keyboard-response","178","526534","0.0-6.0-0.86","MASC","3","f","rechts","23","","fixation","","","",""
"842","img/60_150.png","70","image-keyboard-response","179","527378","0.0-6.0-1.86","MASC","3","f","rechts","23","","","self","f","60","true"
"null","<div style=""font-size:60px;"">+</div>","null","html-keyboard-response","180","527679","0.0-6.0-0.87","MASC","3","f","rechts","23","","fixation","","","",""
"757","img/0_120.png","74","image-keyboard-response","181","528437","0.0-6.0-1.87","MASC","3","f","rechts","23","","","self","j","0","true"
"null","<div style=""font-size:60px;"">+</div>","null","html-keyboard-response","182","528788","0.0-6.0-0.88","MASC","3","f","rechts","23","","fixation","","","",""
"1224","img/120_330.png","70","image-keyboard-response","183","530014","0.0-6.0-1.88","MASC","3","f","rechts","23","","","self","f","120","true"
"null","<div style=""font-size:60px;"">+</div>","null","html-keyboard-response","184","530415","0.0-6.0-0.89","MASC","3","f","rechts","23","","fixation","","","",""
"913","img/L60_180.png","70","image-keyboard-response","185","531330","0.0-6.0-1.89","MASC","3","f","rechts","23","","","self","f","60","true"
"null","<div style=""font-size:60px;"">+</div>","null","html-keyboard-response","186","531681","0.0-6.0-0.90","MASC","3","f","rechts","23","","fixation","","","",""
"742","img/90_240.png","74","image-keyboard-response","187","532425","0.0-6.0-1.90","MASC","3","f","rechts","23","","","self","j","90","true"
"null","<div style=""font-size:60px;"">+</div>","null","html-keyboard-response","188","532776","0.0-6.0-0.91","MASC","3","f","rechts","23","","fixation","","","",""
"899","img/30_270.png","70","image-keyboard-response","189","533677","0.0-6.0-1.91","MASC","3","f","rechts","23","","","self","f","30","true"
"null","<div style=""font-size:60px;"">+</div>","null","html-keyboard-response","190","534078","0.0-6.0-0.92","MASC","3","f","rechts","23","","fixation","","","",""
"741","img/L120_180.png","70","image-keyboard-response","191","534821","0.0-6.0-1.92","MASC","3","f","rechts","23","","","self","f","120","true"
"null","<div style=""font-size:60px;"">+</div>","null","html-keyboard-response","192","535172","0.0-6.0-0.93","MASC","3","f","rechts","23","","fixation","","","",""
"890","img/60_90.png","74","image-keyboard-response","193","536063","0.0-6.0-1.93","MASC","3","f","rechts","23","","","self","j","60","true"
"null","<div style=""font-size:60px;"">+</div>","null","html-keyboard-response","194","536364","0.0-6.0-0.94","MASC","3","f","rechts","23","","fixation","","","",""
"780","img/120_150.png","70","image-keyboard-response","195","537146","0.0-6.0-1.94","MASC","3","f","rechts","23","","","self","f","120","true"
"null","<div style=""font-size:60px;"">+</div>","null","html-keyboard-response","196","537647","0.0-6.0-0.95","MASC","3","f","rechts","23","","fixation","","","",""
"638","img/0_210.png","70","image-keyboard-response","197","538286","0.0-6.0-1.95","MASC","3","f","rechts","23","","","self","f","0","true"
"null","<div style=""font-size:60px;"">+</div>","null","html-keyboard-response","198","538638","0.0-6.0-0.96","MASC","3","f","rechts","23","","fixation","","","",""
"965","img/60_330.png","70","image-keyboard-response","199","539604","0.0-6.0-1.96","MASC","3","f","rechts","23","","","self","f","60","true"
"null","<div style=""font-size:60px;"">+</div>","null","html-keyboard-response","200","540006","0.0-6.0-0.97","MASC","3","f","rechts","23","","fixation","","","",""
"777","img/90_210.png","74","image-keyboard-response","201","540784","0.0-6.0-1.97","MASC","3","f","rechts","23","","","self","j","90","true"
"null","<div style=""font-size:60px;"">+</div>","null","html-keyboard-response","202","541086","0.0-6.0-0.98","MASC","3","f","rechts","23","","fixation","","","",""
"634","img/0_150.png","74","image-keyboard-response","203","541721","0.0-6.0-1.98","MASC","3","f","rechts","23","","","self","j","0","true"
"null","<div style=""font-size:60px;"">+</div>","null","html-keyboard-response","204","542123","0.0-6.0-0.99","MASC","3","f","rechts","23","","fixation","","","",""
"584","img/0_90.png","74","image-keyboard-response","205","542708","0.0-6.0-1.99","MASC","3","f","rechts","23","","","self","j","0","true"
"null","<div style=""font-size:60px;"">+</div>","null","html-keyboard-response","206","543160","0.0-6.0-0.100","MASC","3","f","rechts","23","","fixation","","","",""
"794","img/60_180.png","74","image-keyboard-response","207","543955","0.0-6.0-1.100","MASC","3","f","rechts","23","","","self","j","60","true"
"null","<div style=""font-size:60px;"">+</div>","null","html-keyboard-response","208","544257","0.0-6.0-0.101","MASC","3","f","rechts","23","","fixation","","","",""
"634","img/0_270.png","70","image-keyboard-response","209","544892","0.0-6.0-1.101","MASC","3","f","rechts","23","","","self","f","0","true"
"null","<div style=""font-size:60px;"">+</div>","null","html-keyboard-response","210","545293","0.0-6.0-0.102","MASC","3","f","rechts","23","","fixation","","","",""
"853","img/90_300.png","70","image-keyboard-response","211","546147","0.0-6.0-1.102","MASC","3","f","rechts","23","","","self","f","90","true"
"null","<div style=""font-size:60px;"">+</div>","null","html-keyboard-response","212","546499","0.0-6.0-0.103","MASC","3","f","rechts","23","","fixation","","","",""
"635","img/0_60.png","74","image-keyboard-response","213","547135","0.0-6.0-1.103","MASC","3","f","rechts","23","","","self","j","0","true"
"null","<div style=""font-size:60px;"">+</div>","null","html-keyboard-response","214","547537","0.0-6.0-0.104","MASC","3","f","rechts","23","","fixation","","","",""
"942","img/150_60.png","70","image-keyboard-response","215","548480","0.0-6.0-1.104","MASC","3","f","rechts","23","","","self","f","150","true"
"null","<div style=""font-size:60px;"">+</div>","null","html-keyboard-response","216","548882","0.0-6.0-0.105","MASC","3","f","rechts","23","","fixation","","","",""
"1079","img/60_30.png","74","image-keyboard-response","217","549961","0.0-6.0-1.105","MASC","3","f","rechts","23","","","self","j","60","true"
"null","<div style=""font-size:60px;"">+</div>","null","html-keyboard-response","218","550412","0.0-6.0-0.106","MASC","3","f","rechts","23","","fixation","","","",""
"764","img/90_180.png","74","image-keyboard-response","219","551177","0.0-6.0-1.106","MASC","3","f","rechts","23","","","self","j","90","true"
"null","<div style=""font-size:60px;"">+</div>","null","html-keyboard-response","220","551629","0.0-6.0-0.107","MASC","3","f","rechts","23","","fixation","","","",""
"841","img/150_300.png","74","image-keyboard-response","221","552470","0.0-6.0-1.107","MASC","3","f","rechts","23","","","self","j","150","true"
"null","<div style=""font-size:60px;"">+</div>","null","html-keyboard-response","222","552872","0.0-6.0-0.108","MASC","3","f","rechts","23","","fixation","","","",""
"690","img/120_150.png","70","image-keyboard-response","223","553562","0.0-6.0-1.108","MASC","3","f","rechts","23","","","self","f","120","true"
"null","<div style=""font-size:60px;"">+</div>","null","html-keyboard-response","224","554064","0.0-6.0-0.109","MASC","3","f","rechts","23","","fixation","","","",""
"685","img/150_180.png","74","image-keyboard-response","225","554749","0.0-6.0-1.109","MASC","3","f","rechts","23","","","self","j","150","true"
"null","<div style=""font-size:60px;"">+</div>","null","html-keyboard-response","226","555201","0.0-6.0-0.110","MASC","3","f","rechts","23","","fixation","","","",""
"845","img/30_120.png","74","image-keyboard-response","227","556047","0.0-6.0-1.110","MASC","3","f","rechts","23","","","self","j","30","true"
"null","<div style=""font-size:60px;"">+</div>","null","html-keyboard-response","228","556399","0.0-6.0-0.111","MASC","3","f","rechts","23","","fixation","","","",""
"824","img/150_90.png","70","image-keyboard-response","229","557224","0.0-6.0-1.111","MASC","3","f","rechts","23","","","self","f","150","true"
"null","<div style=""font-size:60px;"">+</div>","null","html-keyboard-response","230","557576","0.0-6.0-0.112","MASC","3","f","rechts","23","","fixation","","","",""
"909","img/L60_180.png","70","image-keyboard-response","231","558485","0.0-6.0-1.112","MASC","3","f","rechts","23","","","self","f","60","true"
"null","<div style=""font-size:60px;"">+</div>","null","html-keyboard-response","232","558887","0.0-6.0-0.113","MASC","3","f","rechts","23","","fixation","","","",""
"979","img/90_300.png","70","image-keyboard-response","233","559867","0.0-6.0-1.113","MASC","3","f","rechts","23","","","self","f","90","true"
"null","<div style=""font-size:60px;"">+</div>","null","html-keyboard-response","234","560319","0.0-6.0-0.114","MASC","3","f","rechts","23","","fixation","","","",""
"644","img/0_210.png","70","image-keyboard-response","235","560963","0.0-6.0-1.114","MASC","3","f","rechts","23","","","self","f","0","true"
"null","<div style=""font-size:60px;"">+</div>","null","html-keyboard-response","236","561265","0.0-6.0-0.115","MASC","3","f","rechts","23","","fixation","","","",""
"643","img/L30_180.png","74","image-keyboard-response","237","561908","0.0-6.0-1.115","MASC","3","f","rechts","23","","","self","f","30","false"
"null","<div style=""font-size:60px;"">+</div>","null","html-keyboard-response","238","562359","0.0-6.0-0.116","MASC","3","f","rechts","23","","fixation","","","",""
"1464","img/120_330.png","70","image-keyboard-response","239","563824","0.0-6.0-1.116","MASC","3","f","rechts","23","","","self","f","120","true"
"null","<div style=""font-size:60px;"">+</div>","null","html-keyboard-response","240","564226","0.0-6.0-0.117","MASC","3","f","rechts","23","","fixation","","","",""
"603","img/0_60.png","74","image-keyboard-response","241","564829","0.0-6.0-1.117","MASC","3","f","rechts","23","","","self","j","0","true"
"null","<div style=""font-size:60px;"">+</div>","null","html-keyboard-response","242","565181","0.0-6.0-0.118","MASC","3","f","rechts","23","","fixation","","","",""
"699","img/60_330.png","70","image-keyboard-response","243","565880","0.0-6.0-1.118","MASC","3","f","rechts","23","","","self","f","60","true"
"null","<div style=""font-size:60px;"">+</div>","null","html-keyboard-response","244","566231","0.0-6.0-0.119","MASC","3","f","rechts","23","","fixation","","","",""
"585","img/0_120.png","74","image-keyboard-response","245","566817","0.0-6.0-1.119","MASC","3","f","rechts","23","","","self","j","0","true"
"null","<div style=""font-size:60px;"">+</div>","null","html-keyboard-response","246","567268","0.0-6.0-0.120","MASC","3","f","rechts","23","","fixation","","","",""
"577","img/0_270.png","70","image-keyboard-response","247","567846","0.0-6.0-1.120","MASC","3","f","rechts","23","","","self","f","0","true"
"null","<div style=""font-size:60px;"">+</div>","null","html-keyboard-response","248","568147","0.0-6.0-0.121","MASC","3","f","rechts","23","","fixation","","","",""
"615","img/0_240.png","70","image-keyboard-response","249","568763","0.0-6.0-1.121","MASC","3","f","rechts","23","","","self","f","0","true"
"null","<div style=""font-size:60px;"">+</div>","null","html-keyboard-response","250","569214","0.0-6.0-0.122","MASC","3","f","rechts","23","","fixation","","","",""
"836","img/L90_180.png","70","image-keyboard-response","251","570051","0.0-6.0-1.122","MASC","3","f","rechts","23","","","self","f","90","true"
"null","<div style=""font-size:60px;"">+</div>","null","html-keyboard-response","252","570353","0.0-6.0-0.123","MASC","3","f","rechts","23","","fixation","","","",""
"994","img/60_90.png","74","image-keyboard-response","253","571347","0.0-6.0-1.123","MASC","3","f","rechts","23","","","self","j","60","true"
"null","<div style=""font-size:60px;"">+</div>","null","html-keyboard-response","254","571748","0.0-6.0-0.124","MASC","3","f","rechts","23","","fixation","","","",""
"814","img/150_120.png","70","image-keyboard-response","255","572562","0.0-6.0-1.124","MASC","3","f","rechts","23","","","self","f","150","true"
"null","<div style=""font-size:60px;"">+</div>","null","html-keyboard-response","256","572864","0.0-6.0-0.125","MASC","3","f","rechts","23","","fixation","","","",""
"937","img/30_90.png","74","image-keyboard-response","257","573801","0.0-6.0-1.125","MASC","3","f","rechts","23","","","self","j","30","true"
"null","<div style=""font-size:60px;"">+</div>","null","html-keyboard-response","258","574103","0.0-6.0-0.126","MASC","3","f","rechts","23","","fixation","","","",""
"906","img/120_270.png","74","image-keyboard-response","259","575010","0.0-6.0-1.126","MASC","3","f","rechts","23","","","self","j","120","true"
"null","<div style=""font-size:60px;"">+</div>","null","html-keyboard-response","260","575511","0.0-6.0-0.127","MASC","3","f","rechts","23","","fixation","","","",""
"662","img/30_300.png","70","image-keyboard-response","261","576174","0.0-6.0-1.127","MASC","3","f","rechts","23","","","self","f","30","true"
"null","<div style=""font-size:60px;"">+</div>","null","html-keyboard-response","262","576576","0.0-6.0-0.128","MASC","3","f","rechts","23","","fixation","","","",""
"873","img/60_270.png","70","image-keyboard-response","263","577450","0.0-6.0-1.128","MASC","3","f","rechts","23","","","self","f","60","true"
"null","<div style=""font-size:60px;"">+</div>","null","html-keyboard-response","264","577801","0.0-6.0-0.129","MASC","3","f","rechts","23","","fixation","","","",""
"765","img/90_210.png","74","image-keyboard-response","265","578567","0.0-6.0-1.129","MASC","3","f","rechts","23","","","self","j","90","true"
"null","<div style=""font-size:60px;"">+</div>","null","html-keyboard-response","266","579019","0.0-6.0-0.130","MASC","3","f","rechts","23","","fixation","","","",""
"692","img/120_180.png","74","image-keyboard-response","267","579711","0.0-6.0-1.130","MASC","3","f","rechts","23","","","self","j","120","true"
"null","<div style=""font-size:60px;"">+</div>","null","html-keyboard-response","268","580063","0.0-6.0-0.131","MASC","3","f","rechts","23","","fixation","","","",""
"916","img/60_210.png","74","image-keyboard-response","269","580979","0.0-6.0-1.131","MASC","3","f","rechts","23","","","self","j","60","true"
"null","<div style=""font-size:60px;"">+</div>","null","html-keyboard-response","270","581281","0.0-6.0-0.132","MASC","3","f","rechts","23","","fixation","","","",""
"838","img/90_330.png","70","image-keyboard-response","271","582121","0.0-6.0-1.132","MASC","3","f","rechts","23","","","self","f","90","true"
"null","<div style=""font-size:60px;"">+</div>","null","html-keyboard-response","272","582472","0.0-6.0-0.133","MASC","3","f","rechts","23","","fixation","","","",""
"612","img/0_300.png","70","image-keyboard-response","273","583086","0.0-6.0-1.133","MASC","3","f","rechts","23","","","self","f","0","true"
"null","<div style=""font-size:60px;"">+</div>","null","html-keyboard-response","274","583538","0.0-6.0-0.134","MASC","3","f","rechts","23","","fixation","","","",""
"1216","img/90_30.png","74","image-keyboard-response","275","584756","0.0-6.0-1.134","MASC","3","f","rechts","23","","","self","j","90","true"
"null","<div style=""font-size:60px;"">+</div>","null","html-keyboard-response","276","585157","0.0-6.0-0.135","MASC","3","f","rechts","23","","fixation","","","",""
"692","img/90_60.png","74","image-keyboard-response","277","585850","0.0-6.0-1.135","MASC","3","f","rechts","23","","","self","j","90","true"
"null","<div style=""font-size:60px;"">+</div>","null","html-keyboard-response","278","586252","0.0-6.0-0.136","MASC","3","f","rechts","23","","fixation","","","",""
"1077","img/60_150.png","70","image-keyboard-response","279","587330","0.0-6.0-1.136","MASC","3","f","rechts","23","","","self","f","60","true"
"null","<div style=""font-size:60px;"">+</div>","null","html-keyboard-response","280","587682","0.0-6.0-0.137","MASC","3","f","rechts","23","","fixation","","","",""
"614","img/0_30.png","74","image-keyboard-response","281","588297","0.0-6.0-1.137","MASC","3","f","rechts","23","","","self","j","0","true"
"null","<div style=""font-size:60px;"">+</div>","null","html-keyboard-response","282","588649","0.0-6.0-0.138","MASC","3","f","rechts","23","","fixation","","","",""
"773","img/60_180.png","74","image-keyboard-response","283","589423","0.0-6.0-1.138","MASC","3","f","rechts","23","","","self","j","60","true"
"null","<div style=""font-size:60px;"">+</div>","null","html-keyboard-response","284","589775","0.0-6.0-0.139","MASC","3","f","rechts","23","","fixation","","","",""
"864","img/L120_180.png","70","image-keyboard-response","285","590640","0.0-6.0-1.139","MASC","3","f","rechts","23","","","self","f","120","true"
"null","<div style=""font-size:60px;"">+</div>","null","html-keyboard-response","286","590942","0.0-6.0-0.140","MASC","3","f","rechts","23","","fixation","","","",""
"1017","img/120_30.png","74","image-keyboard-response","287","591960","0.0-6.0-1.140","MASC","3","f","rechts","23","","","self","j","120","true"
"null","<div style=""font-size:60px;"">+</div>","null","html-keyboard-response","288","592362","0.0-6.0-0.141","MASC","3","f","rechts","23","","fixation","","","",""
"820","img/L150_180.png","70","image-keyboard-response","289","593183","0.0-6.0-1.141","MASC","3","f","rechts","23","","","self","f","150","true"
"null","<div style=""font-size:60px;"">+</div>","null","html-keyboard-response","290","593485","0.0-6.0-0.142","MASC","3","f","rechts","23","","fixation","","","",""
"1149","img/120_90.png","70","image-keyboard-response","291","594635","0.0-6.0-1.142","MASC","3","f","rechts","23","","","self","f","120","true"
"null","<div style=""font-size:60px;"">+</div>","null","html-keyboard-response","292","594987","0.0-6.0-0.143","MASC","3","f","rechts","23","","fixation","","","",""
"994","img/150_270.png","74","image-keyboard-response","293","595982","0.0-6.0-1.143","MASC","3","f","rechts","23","","","self","j","150","true"
"null","<div style=""font-size:60px;"">+</div>","null","html-keyboard-response","294","596284","0.0-6.0-0.144","MASC","3","f","rechts","23","","fixation","","","",""
"737","img/150_240.png","74","image-keyboard-response","295","597022","0.0-6.0-1.144","MASC","3","f","rechts","23","","","self","j","150","true"
"null","<div style=""font-size:60px;"">+</div>","null","html-keyboard-response","296","597324","0.0-6.0-0.145","MASC","3","f","rechts","23","","fixation","","","",""
"971","img/30_180.png","74","image-keyboard-response","297","598295","0.0-6.0-1.145","MASC","3","f","rechts","23","","","self","j","30","true"
"null","<div style=""font-size:60px;"">+</div>","null","html-keyboard-response","298","598696","0.0-6.0-0.146","MASC","3","f","rechts","23","","fixation","","","",""
"990","img/30_270.png","70","image-keyboard-response","299","599687","0.0-6.0-1.146","MASC","3","f","rechts","23","","","self","f","30","true"
"null","<div style=""font-size:60px;"">+</div>","null","html-keyboard-response","300","600189","0.0-6.0-0.147","MASC","3","f","rechts","23","","fixation","","","",""
"592","img/0_90.png","74","image-keyboard-response","301","600781","0.0-6.0-1.147","MASC","3","f","rechts","23","","","self","j","0","true"
"null","<div style=""font-size:60px;"">+</div>","null","html-keyboard-response","302","601283","0.0-6.0-0.148","MASC","3","f","rechts","23","","fixation","","","",""
"779","img/120_210.png","74","image-keyboard-response","303","602062","0.0-6.0-1.148","MASC","3","f","rechts","23","","","self","j","120","true"
"null","<div style=""font-size:60px;"">+</div>","null","html-keyboard-response","304","602564","0.0-6.0-0.149","MASC","3","f","rechts","23","","fixation","","","",""
"607","img/0_330.png","70","image-keyboard-response","305","603172","0.0-6.0-1.149","MASC","3","f","rechts","23","","","self","f","0","true"
"null","<div style=""font-size:60px;"">+</div>","null","html-keyboard-response","306","603624","0.0-6.0-0.150","MASC","3","f","rechts","23","","fixation","","","",""
"838","img/90_240.png","74","image-keyboard-response","307","604463","0.0-6.0-1.150","MASC","3","f","rechts","23","","","self","j","90","true"
"null","<div style=""font-size:60px;"">+</div>","null","html-keyboard-response","308","604965","0.0-6.0-0.151","MASC","3","f","rechts","23","","fixation","","","",""
"604","img/0_150.png","74","image-keyboard-response","309","605570","0.0-6.0-1.151","MASC","3","f","rechts","23","","","self","j","0","true"
"null","<div style=""font-size:60px;"">+</div>","null","html-keyboard-response","310","605921","0.0-6.0-0.152","MASC","3","f","rechts","23","","fixation","","","",""
"891","img/90_120.png","70","image-keyboard-response","311","606813","0.0-6.0-1.152","MASC","3","f","rechts","23","","","self","f","90","true"
"null","<div style=""font-size:60px;"">+</div>","null","html-keyboard-response","312","607165","0.0-6.0-0.153","MASC","3","f","rechts","23","","fixation","","","",""
"975","img/30_240.png","70","image-keyboard-response","313","608141","0.0-6.0-1.153","MASC","3","f","rechts","23","","","self","f","30","true"
"null","<div style=""font-size:60px;"">+</div>","null","html-keyboard-response","314","608543","0.0-6.0-0.154","MASC","3","f","rechts","23","","fixation","","","",""
"924","img/90_150.png","70","image-keyboard-response","315","609468","0.0-6.0-1.154","MASC","3","f","rechts","23","","","self","f","90","true"
"null","<div style=""font-size:60px;"">+</div>","null","html-keyboard-response","316","609870","0.0-6.0-0.155","MASC","3","f","rechts","23","","fixation","","","",""
"908","img/30_60.png","74","image-keyboard-response","317","610778","0.0-6.0-1.155","MASC","3","f","rechts","23","","","self","j","30","true"
"null","<div style=""font-size:60px;"">+</div>","null","html-keyboard-response","318","611130","0.0-6.0-0.156","MASC","3","f","rechts","23","","fixation","","","",""
"955","img/90_150.png","70","image-keyboard-response","319","612085","0.0-6.0-1.156","MASC","3","f","rechts","23","","","self","f","90","true"
"null","<div style=""font-size:60px;"">+</div>","null","html-keyboard-response","320","612487","0.0-6.0-0.157","MASC","3","f","rechts","23","","fixation","","","",""
"647","img/150_240.png","74","image-keyboard-response","321","613134","0.0-6.0-1.157","MASC","3","f","rechts","23","","","self","j","150","true"
"null","<div style=""font-size:60px;"">+</div>","null","html-keyboard-response","322","613535","0.0-6.0-0.158","MASC","3","f","rechts","23","","fixation","","","",""
"751","img/90_240.png","74","image-keyboard-response","323","614287","0.0-6.0-1.158","MASC","3","f","rechts","23","","","self","j","90","true"
"null","<div style=""font-size:60px;"">+</div>","null","html-keyboard-response","324","614789","0.0-6.0-0.159","MASC","3","f","rechts","23","","fixation","","","",""
"854","img/150_90.png","70","image-keyboard-response","325","615643","0.0-6.0-1.159","MASC","3","f","rechts","23","","","self","f","150","true"
"null","<div style=""font-size:60px;"">+</div>","null","html-keyboard-response","326","615945","0.0-6.0-0.160","MASC","3","f","rechts","23","","fixation","","","",""
"931","img/L30_180.png","70","image-keyboard-response","327","616876","0.0-6.0-1.160","MASC","3","f","rechts","23","","","self","f","30","true"
"null","<div style=""font-size:60px;"">+</div>","null","html-keyboard-response","328","617327","0.0-6.0-0.161","MASC","3","f","rechts","23","","fixation","","","",""
"895","img/120_90.png","70","image-keyboard-response","329","618223","0.0-6.0-1.161","MASC","3","f","rechts","23","","","self","f","120","true"
"null","<div style=""font-size:60px;"">+</div>","null","html-keyboard-response","330","618575","0.0-6.0-0.162","MASC","3","f","rechts","23","","fixation","","","",""
"709","img/30_240.png","74","image-keyboard-response","331","619285","0.0-6.0-1.162","MASC","3","f","rechts","23","","","self","f","30","false"
"null","<div style=""font-size:60px;"">+</div>","null","html-keyboard-response","332","619636","0.0-6.0-0.163","MASC","3","f","rechts","23","","fixation","","","",""
"732","img/0_330.png","70","image-keyboard-response","333","620369","0.0-6.0-1.163","MASC","3","f","rechts","23","","","self","f","0","true"
"null","<div style=""font-size:60px;"">+</div>","null","html-keyboard-response","334","620871","0.0-6.0-0.164","MASC","3","f","rechts","23","","fixation","","","",""
"847","img/60_30.png","74","image-keyboard-response","335","621718","0.0-6.0-1.164","MASC","3","f","rechts","23","","","self","j","60","true"
"null","<div style=""font-size:60px;"">+</div>","null","html-keyboard-response","336","622019","0.0-6.0-0.165","MASC","3","f","rechts","23","","fixation","","","",""
"980","img/30_120.png","74","image-keyboard-response","337","623000","0.0-6.0-1.165","MASC","3","f","rechts","23","","","self","j","30","true"
"null","<div style=""font-size:60px;"">+</div>","null","html-keyboard-response","338","623402","0.0-6.0-0.166","MASC","3","f","rechts","23","","fixation","","","",""
"992","img/60_150.png","70","image-keyboard-response","339","624395","0.0-6.0-1.166","MASC","3","f","rechts","23","","","self","f","60","true"
"null","<div style=""font-size:60px;"">+</div>","null","html-keyboard-response","340","624796","0.0-6.0-0.167","MASC","3","f","rechts","23","","fixation","","","",""
"1086","img/90_30.png","74","image-keyboard-response","341","625884","0.0-6.0-1.167","MASC","3","f","rechts","23","","","self","j","90","true"
"null","<div style=""font-size:60px;"">+</div>","null","html-keyboard-response","342","626335","0.0-6.0-0.168","MASC","3","f","rechts","23","","fixation","","","",""
"1168","img/30_300.png","70","image-keyboard-response","343","627505","0.0-6.0-1.168","MASC","3","f","rechts","23","","","self","f","30","true"
"null","<div style=""font-size:60px;"">+</div>","null","html-keyboard-response","344","628006","0.0-6.0-0.169","MASC","3","f","rechts","23","","fixation","","","",""
"1345","img/90_60.png","74","image-keyboard-response","345","629353","0.0-6.0-1.169","MASC","3","f","rechts","23","","","self","j","90","true"
"null","<div style=""font-size:60px;"">+</div>","null","html-keyboard-response","346","629804","0.0-6.0-0.170","MASC","3","f","rechts","23","","fixation","","","",""
"961","img/150_270.png","74","image-keyboard-response","347","630767","0.0-6.0-1.170","MASC","3","f","rechts","23","","","self","j","150","true"
"null","<div style=""font-size:60px;"">+</div>","null","html-keyboard-response","348","631218","0.0-6.0-0.171","MASC","3","f","rechts","23","","fixation","","","",""
"740","img/L90_180.png","70","image-keyboard-response","349","631959","0.0-6.0-1.171","MASC","3","f","rechts","23","","","self","f","90","true"
"null","<div style=""font-size:60px;"">+</div>","null","html-keyboard-response","350","632361","0.0-6.0-0.172","MASC","3","f","rechts","23","","fixation","","","",""
"968","img/90_300.png","70","image-keyboard-response","351","633331","0.0-6.0-1.172","MASC","3","f","rechts","23","","","self","f","90","true"
"null","<div style=""font-size:60px;"">+</div>","null","html-keyboard-response","352","633632","0.0-6.0-0.173","MASC","3","f","rechts","23","","fixation","","","",""
"716","img/0_30.png","74","image-keyboard-response","353","634349","0.0-6.0-1.173","MASC","3","f","rechts","23","","","self","j","0","true"
"null","<div style=""font-size:60px;"">+</div>","null","html-keyboard-response","354","634751","0.0-6.0-0.174","MASC","3","f","rechts","23","","fixation","","","",""
"594","img/0_120.png","74","image-keyboard-response","355","635346","0.0-6.0-1.174","MASC","3","f","rechts","23","","","self","j","0","true"
"null","<div style=""font-size:60px;"">+</div>","null","html-keyboard-response","356","635796","0.0-6.0-0.175","MASC","3","f","rechts","23","","fixation","","","",""
"598","img/0_210.png","70","image-keyboard-response","357","636396","0.0-6.0-1.175","MASC","3","f","rechts","23","","","self","f","0","true"
"null","<div style=""font-size:60px;"">+</div>","null","html-keyboard-response","358","636746","0.0-6.0-0.176","MASC","3","f","rechts","23","","fixation","","","",""
"859","img/30_180.png","74","image-keyboard-response","359","637606","0.0-6.0-1.176","MASC","3","f","rechts","23","","","self","j","30","true"
"null","<div style=""font-size:60px;"">+</div>","null","html-keyboard-response","360","638008","0.0-6.0-0.177","MASC","3","f","rechts","23","","fixation","","","",""
"575","img/0_300.png","70","image-keyboard-response","361","638584","0.0-6.0-1.177","MASC","3","f","rechts","23","","","self","f","0","true"
"null","<div style=""font-size:60px;"">+</div>","null","html-keyboard-response","362","638986","0.0-6.0-0.178","MASC","3","f","rechts","23","","fixation","","","",""
"1210","img/60_90.png","70","image-keyboard-response","363","640197","0.0-6.0-1.178","MASC","3","f","rechts","23","","","self","j","60","false"
"null","<div style=""font-size:60px;"">+</div>","null","html-keyboard-response","364","640699","0.0-6.0-0.179","MASC","3","f","rechts","23","","fixation","","","",""
"850","img/90_180.png","74","image-keyboard-response","365","641550","0.0-6.0-1.179","MASC","3","f","rechts","23","","","self","j","90","true"
"null","<div style=""font-size:60px;"">+</div>","null","html-keyboard-response","366","642052","0.0-6.0-0.180","MASC","3","f","rechts","23","","fixation","","","",""
"746","img/L120_180.png","70","image-keyboard-response","367","642799","0.0-6.0-1.180","MASC","3","f","rechts","23","","","self","f","120","true"
"null","<div style=""font-size:60px;"">+</div>","null","html-keyboard-response","368","643251","0.0-6.0-0.181","MASC","3","f","rechts","23","","fixation","","","",""
"1193","img/120_330.png","70","image-keyboard-response","369","644445","0.0-6.0-1.181","MASC","3","f","rechts","23","","","self","f","120","true"
"null","<div style=""font-size:60px;"">+</div>","null","html-keyboard-response","370","644897","0.0-6.0-0.182","MASC","3","f","rechts","23","","fixation","","","",""
"967","img/60_180.png","74","image-keyboard-response","371","645865","0.0-6.0-1.182","MASC","3","f","rechts","23","","","self","j","60","true"
"null","<div style=""font-size:60px;"">+</div>","null","html-keyboard-response","372","646317","0.0-6.0-0.183","MASC","3","f","rechts","23","","fixation","","","",""
"692","img/60_210.png","74","image-keyboard-response","373","647010","0.0-6.0-1.183","MASC","3","f","rechts","23","","","self","j","60","true"
"null","<div style=""font-size:60px;"">+</div>","null","html-keyboard-response","374","647312","0.0-6.0-0.184","MASC","3","f","rechts","23","","fixation","","","",""
"608","img/0_270.png","70","image-keyboard-response","375","647921","0.0-6.0-1.184","MASC","3","f","rechts","23","","","self","f","0","true"
"null","<div style=""font-size:60px;"">+</div>","null","html-keyboard-response","376","648372","0.0-6.0-0.185","MASC","3","f","rechts","23","","fixation","","","",""
"572","img/0_90.png","74","image-keyboard-response","377","648945","0.0-6.0-1.185","MASC","3","f","rechts","23","","","self","j","0","true"
"null","<div style=""font-size:60px;"">+</div>","null","html-keyboard-response","378","649447","0.0-6.0-0.186","MASC","3","f","rechts","23","","fixation","","","",""
"686","img/L150_180.png","70","image-keyboard-response","379","650134","0.0-6.0-1.186","MASC","3","f","rechts","23","","","self","f","150","true"
"null","<div style=""font-size:60px;"">+</div>","null","html-keyboard-response","380","650536","0.0-6.0-0.187","MASC","3","f","rechts","23","","fixation","","","",""
"883","img/30_270.png","70","image-keyboard-response","381","651419","0.0-6.0-1.187","MASC","3","f","rechts","23","","","self","f","30","true"
"null","<div style=""font-size:60px;"">+</div>","null","html-keyboard-response","382","651721","0.0-6.0-0.188","MASC","3","f","rechts","23","","fixation","","","",""
"659","img/0_150.png","74","image-keyboard-response","383","652381","0.0-6.0-1.188","MASC","3","f","rechts","23","","","self","j","0","true"
"null","<div style=""font-size:60px;"">+</div>","null","html-keyboard-response","384","652833","0.0-6.0-0.189","MASC","3","f","rechts","23","","fixation","","","",""
"778","img/150_180.png","74","image-keyboard-response","385","653612","0.0-6.0-1.189","MASC","3","f","rechts","23","","","self","j","150","true"
"null","<div style=""font-size:60px;"">+</div>","null","html-keyboard-response","386","654114","0.0-6.0-0.190","MASC","3","f","rechts","23","","fixation","","","",""
"723","img/90_210.png","74","image-keyboard-response","387","654837","0.0-6.0-1.190","MASC","3","f","rechts","23","","","self","j","90","true"
"null","<div style=""font-size:60px;"">+</div>","null","html-keyboard-response","388","655189","0.0-6.0-0.191","MASC","3","f","rechts","23","","fixation","","","",""
"744","img/120_180.png","74","image-keyboard-response","389","655934","0.0-6.0-1.191","MASC","3","f","rechts","23","","","self","j","120","true"
"null","<div style=""font-size:60px;"">+</div>","null","html-keyboard-response","390","656236","0.0-6.0-0.192","MASC","3","f","rechts","23","","fixation","","","",""
"822","img/150_300.png","74","image-keyboard-response","391","657058","0.0-6.0-1.192","MASC","3","f","rechts","23","","","self","j","150","true"
"null","<div style=""font-size:60px;"">+</div>","null","html-keyboard-response","392","657460","0.0-6.0-0.193","MASC","3","f","rechts","23","","fixation","","","",""
"812","img/150_60.png","70","image-keyboard-response","393","658273","0.0-6.0-1.193","MASC","3","f","rechts","23","","","self","f","150","true"
"null","<div style=""font-size:60px;"">+</div>","null","html-keyboard-response","394","658575","0.0-6.0-0.194","MASC","3","f","rechts","23","","fixation","","","",""
"691","img/120_210.png","74","image-keyboard-response","395","659267","0.0-6.0-1.194","MASC","3","f","rechts","23","","","self","j","120","true"
"null","<div style=""font-size:60px;"">+</div>","null","html-keyboard-response","396","659669","0.0-6.0-0.195","MASC","3","f","rechts","23","","fixation","","","",""
"1068","img/30_60.png","74","image-keyboard-response","397","660737","0.0-6.0-1.195","MASC","3","f","rechts","23","","","self","j","30","true"
"null","<div style=""font-size:60px;"">+</div>","null","html-keyboard-response","398","661239","0.0-6.0-0.196","MASC","3","f","rechts","23","","fixation","","","",""
"553","img/0_60.png","74","image-keyboard-response","399","661793","0.0-6.0-1.196","MASC","3","f","rechts","23","","","self","j","0","true"
"null","<div style=""font-size:60px;"">+</div>","null","html-keyboard-response","400","662095","0.0-6.0-0.197","MASC","3","f","rechts","23","","fixation","","","",""
"865","img/90_120.png","70","image-keyboard-response","401","662960","0.0-6.0-1.197","MASC","3","f","rechts","23","","","self","f","90","true"
"null","<div style=""font-size:60px;"">+</div>","null","html-keyboard-response","402","663262","0.0-6.0-0.198","MASC","3","f","rechts","23","","fixation","","","",""
"995","img/30_90.png","74","image-keyboard-response","403","664257","0.0-6.0-1.198","MASC","3","f","rechts","23","","","self","j","30","true"
"null","<div style=""font-size:60px;"">+</div>","null","html-keyboard-response","404","664709","0.0-6.0-0.199","MASC","3","f","rechts","23","","fixation","","","",""
"1006","img/60_270.png","70","image-keyboard-response","405","665717","0.0-6.0-1.199","MASC","3","f","rechts","23","","","self","f","60","true"
"null","<div style=""font-size:60px;"">+</div>","null","html-keyboard-response","406","666219","0.0-6.0-0.200","MASC","3","f","rechts","23","","fixation","","","",""
"886","img/120_150.png","70","image-keyboard-response","407","667105","0.0-6.0-1.200","MASC","3","f","rechts","23","","","self","f","120","true"
"null","<div style=""font-size:60px;"">+</div>","null","html-keyboard-response","408","667557","0.0-6.0-0.201","MASC","3","f","rechts","23","","fixation","","","",""
"652","img/0_240.png","70","image-keyboard-response","409","668209","0.0-6.0-1.201","MASC","3","f","rechts","23","","","self","f","0","true"
"null","<div style=""font-size:60px;"">+</div>","null","html-keyboard-response","410","668561","0.0-6.0-0.202","MASC","3","f","rechts","23","","fixation","","","",""
"786","img/120_270.png","74","image-keyboard-response","411","669347","0.0-6.0-1.202","MASC","3","f","rechts","23","","","self","j","120","true"
"null","<div style=""font-size:60px;"">+</div>","null","html-keyboard-response","412","669799","0.0-6.0-0.203","MASC","3","f","rechts","23","","fixation","","","",""
"862","img/150_120.png","70","image-keyboard-response","413","670661","0.0-6.0-1.203","MASC","3","f","rechts","23","","","self","f","150","true"
"null","<div style=""font-size:60px;"">+</div>","null","html-keyboard-response","414","670963","0.0-6.0-0.204","MASC","3","f","rechts","23","","fixation","","","",""
"892","img/L60_180.png","70","image-keyboard-response","415","671855","0.0-6.0-1.204","MASC","3","f","rechts","23","","","self","f","60","true"
"null","<div style=""font-size:60px;"">+</div>","null","html-keyboard-response","416","672306","0.0-6.0-0.205","MASC","3","f","rechts","23","","fixation","","","",""
"889","img/60_330.png","74","image-keyboard-response","417","673196","0.0-6.0-1.205","MASC","3","f","rechts","23","","","self","f","60","false"
"null","<div style=""font-size:60px;"">+</div>","null","html-keyboard-response","418","673548","0.0-6.0-0.206","MASC","3","f","rechts","23","","fixation","","","",""
"1327","img/120_30.png","74","image-keyboard-response","419","674875","0.0-6.0-1.206","MASC","3","f","rechts","23","","","self","j","120","true"
"null","<div style=""font-size:60px;"">+</div>","null","html-keyboard-response","420","675177","0.0-6.0-0.207","MASC","3","f","rechts","23","","fixation","","","",""
"1071","img/90_330.png","70","image-keyboard-response","421","676249","0.0-6.0-1.207","MASC","3","f","rechts","23","","","self","f","90","true"
"4398","<p>Du hast in 93% der Versuche korrekt entschieden.</p><p>Deine durchschnittliche Reaktionszeit war  837ms.</p><p>Dr&uuml;cke eine beliebige Taste, um die Session zu beenden. Vielen Dank!</p>","74","html-keyboard-response","422","680648","0.0-7.0","MASC","3","f","rechts","23","","","","","",""
