rt,stimulus,key_press,trial_type,trial_index,time_elapsed,internal_node_id,session,subject,sex,handedness,age,responses,test_part,condition,correct_response,angle,correct
880,"<p>Mental Rotation Experiment.</p> <p>Dr&uuml;cke eine beliebige Taste, um anzufangen.</p>",72,html-keyboard-response,0,883,0.0-0.0,2,MASC,f,rechts,23,,,,,,
4350,,,survey-text,1,5234,0.0-1.0,2,MASC,f,rechts,23,"{""Q0"":""2""}",,,,,
13230,,,survey-text,2,18465,0.0-2.0,2,MASC,f,rechts,23,"{""Q0"":""MASC""}",,,,,
4587,,,survey-multi-choice,3,23055,0.0-3.0,2,MASC,f,rechts,23,"{""Q0"":""f"",""Q1"":""rechts""}",,,,,
3500,,,survey-text,4,26556,0.0-4.0,2,MASC,f,rechts,23,"{""Q0"":""23""}",,,,,
178928,"<p> Stell dir vor, dass du vor einem runden Tisch stehst, auf dem sich ein blauer Ball am Tischrand befindet. Entlang des Tischrands ist jeweils ein verschieden langer Pfeil. Nun bewegst du dich entlang dieses Pfeils bis an seine Spitze. Wenn du am Ende des Pfeils angekommen bist, schau zur Tischmitte. </p> <img src='img/90_180.png'></img> <br> <p>Entscheide dann, ob der Ball von deiner neuen (vorgestellten) Position links oder rechts von dir liegt.</p> <p>Dr&uuml;cke die <strong>'f'</strong>-Taste f&uuml;r links, die <strong>'j'</strong>-Taste f&uuml;r rechts.</p> <br><p> Das Bild wird jeweils 1 Sekunde lang pr&auml;sentiert. Du hast 3 Sekunden Zeit eine Entscheidung zu treffen.</p>",74,html-keyboard-response,5,205485,0.0-5.0,2,MASC,f,rechts,23,,,,,,
null,"<div style=""font-size:60px;"">+</div>",null,html-keyboard-response,6,206939,0.0-6.0-0.0,2,MASC,f,rechts,23,,fixation,,,,
995,img/60_270.png,74,image-keyboard-response,7,207937,0.0-6.0-1.0,2,MASC,f,rechts,23,,,self,f,60,FALSE
null,"<div style=""font-size:60px;"">+</div>",null,html-keyboard-response,8,208289,0.0-6.0-0.1,2,MASC,f,rechts,23,,fixation,,,,
1169,img/150_90.png,70,image-keyboard-response,9,209459,0.0-6.0-1.1,2,MASC,f,rechts,23,,,self,f,150,TRUE
null,"<div style=""font-size:60px;"">+</div>",null,html-keyboard-response,10,209811,0.0-6.0-0.2,2,MASC,f,rechts,23,,fixation,,,,
1117,img/90_60.png,70,image-keyboard-response,11,210929,0.0-6.0-1.2,2,MASC,f,rechts,23,,,self,j,90,FALSE
null,"<div style=""font-size:60px;"">+</div>",null,html-keyboard-response,12,211330,0.0-6.0-0.3,2,MASC,f,rechts,23,,fixation,,,,
1290,img/150_120.png,70,image-keyboard-response,13,212622,0.0-6.0-1.3,2,MASC,f,rechts,23,,,self,f,150,TRUE
null,"<div style=""font-size:60px;"">+</div>",null,html-keyboard-response,14,213073,0.0-6.0-0.4,2,MASC,f,rechts,23,,fixation,,,,
1261,img/60_330.png,70,image-keyboard-response,15,214336,0.0-6.0-1.4,2,MASC,f,rechts,23,,,self,f,60,TRUE
null,"<div style=""font-size:60px;"">+</div>",null,html-keyboard-response,16,214787,0.0-6.0-0.5,2,MASC,f,rechts,23,,fixation,,,,
955,img/150_180.png,74,image-keyboard-response,17,215744,0.0-6.0-1.5,2,MASC,f,rechts,23,,,self,j,150,TRUE
null,"<div style=""font-size:60px;"">+</div>",null,html-keyboard-response,18,216045,0.0-6.0-0.6,2,MASC,f,rechts,23,,fixation,,,,
1069,img/90_150.png,70,image-keyboard-response,19,217115,0.0-6.0-1.6,2,MASC,f,rechts,23,,,self,f,90,TRUE
null,"<div style=""font-size:60px;"">+</div>",null,html-keyboard-response,20,217567,0.0-6.0-0.7,2,MASC,f,rechts,23,,fixation,,,,
719,img/0_60.png,74,image-keyboard-response,21,218287,0.0-6.0-1.7,2,MASC,f,rechts,23,,,self,j,0,TRUE
null,"<div style=""font-size:60px;"">+</div>",null,html-keyboard-response,22,218788,0.0-6.0-0.8,2,MASC,f,rechts,23,,fixation,,,,
601,img/0_150.png,74,image-keyboard-response,23,219391,0.0-6.0-1.8,2,MASC,f,rechts,23,,,self,j,0,TRUE
null,"<div style=""font-size:60px;"">+</div>",null,html-keyboard-response,24,219893,0.0-6.0-0.9,2,MASC,f,rechts,23,,fixation,,,,
984,img/150_60.png,70,image-keyboard-response,25,220879,0.0-6.0-1.9,2,MASC,f,rechts,23,,,self,f,150,TRUE
null,"<div style=""font-size:60px;"">+</div>",null,html-keyboard-response,26,221380,0.0-6.0-0.10,2,MASC,f,rechts,23,,fixation,,,,
1113,img/30_90.png,74,image-keyboard-response,27,222494,0.0-6.0-1.10,2,MASC,f,rechts,23,,,self,j,30,TRUE
null,"<div style=""font-size:60px;"">+</div>",null,html-keyboard-response,28,222846,0.0-6.0-0.11,2,MASC,f,rechts,23,,fixation,,,,
709,img/0_300.png,70,image-keyboard-response,29,223557,0.0-6.0-1.11,2,MASC,f,rechts,23,,,self,f,0,TRUE
null,"<div style=""font-size:60px;"">+</div>",null,html-keyboard-response,30,224058,0.0-6.0-0.12,2,MASC,f,rechts,23,,fixation,,,,
1237,img/L90_180.png,70,image-keyboard-response,31,225296,0.0-6.0-1.12,2,MASC,f,rechts,23,,,self,f,90,TRUE
null,"<div style=""font-size:60px;"">+</div>",null,html-keyboard-response,32,225748,0.0-6.0-0.13,2,MASC,f,rechts,23,,fixation,,,,
977,img/90_180.png,74,image-keyboard-response,33,226727,0.0-6.0-1.13,2,MASC,f,rechts,23,,,self,j,90,TRUE
null,"<div style=""font-size:60px;"">+</div>",null,html-keyboard-response,34,227178,0.0-6.0-0.14,2,MASC,f,rechts,23,,fixation,,,,
721,img/0_120.png,74,image-keyboard-response,35,227904,0.0-6.0-1.14,2,MASC,f,rechts,23,,,self,j,0,TRUE
null,"<div style=""font-size:60px;"">+</div>",null,html-keyboard-response,36,228356,0.0-6.0-0.15,2,MASC,f,rechts,23,,fixation,,,,
1396,img/60_90.png,74,image-keyboard-response,37,229753,0.0-6.0-1.15,2,MASC,f,rechts,23,,,self,j,60,TRUE
null,"<div style=""font-size:60px;"">+</div>",null,html-keyboard-response,38,230205,0.0-6.0-0.16,2,MASC,f,rechts,23,,fixation,,,,
1314,img/90_240.png,74,image-keyboard-response,39,231520,0.0-6.0-1.16,2,MASC,f,rechts,23,,,self,j,90,TRUE
null,"<div style=""font-size:60px;"">+</div>",null,html-keyboard-response,40,231872,0.0-6.0-0.17,2,MASC,f,rechts,23,,fixation,,,,
1005,img/30_300.png,70,image-keyboard-response,41,232877,0.0-6.0-1.17,2,MASC,f,rechts,23,,,self,f,30,TRUE
null,"<div style=""font-size:60px;"">+</div>",null,html-keyboard-response,42,233229,0.0-6.0-0.18,2,MASC,f,rechts,23,,fixation,,,,
1060,img/60_180.png,74,image-keyboard-response,43,234290,0.0-6.0-1.18,2,MASC,f,rechts,23,,,self,j,60,TRUE
null,"<div style=""font-size:60px;"">+</div>",null,html-keyboard-response,44,234742,0.0-6.0-0.19,2,MASC,f,rechts,23,,fixation,,,,
936,img/120_90.png,70,image-keyboard-response,45,235679,0.0-6.0-1.19,2,MASC,f,rechts,23,,,self,f,120,TRUE
null,"<div style=""font-size:60px;"">+</div>",null,html-keyboard-response,46,236131,0.0-6.0-0.20,2,MASC,f,rechts,23,,fixation,,,,
1653,img/120_330.png,70,image-keyboard-response,47,237785,0.0-6.0-1.20,2,MASC,f,rechts,23,,,self,f,120,TRUE
null,"<div style=""font-size:60px;"">+</div>",null,html-keyboard-response,48,238187,0.0-6.0-0.21,2,MASC,f,rechts,23,,fixation,,,,
1112,img/30_240.png,70,image-keyboard-response,49,239300,0.0-6.0-1.21,2,MASC,f,rechts,23,,,self,f,30,TRUE
null,"<div style=""font-size:60px;"">+</div>",null,html-keyboard-response,50,239602,0.0-6.0-0.22,2,MASC,f,rechts,23,,fixation,,,,
1187,img/L60_180.png,70,image-keyboard-response,51,240790,0.0-6.0-1.22,2,MASC,f,rechts,23,,,self,f,60,TRUE
null,"<div style=""font-size:60px;"">+</div>",null,html-keyboard-response,52,241242,0.0-6.0-0.23,2,MASC,f,rechts,23,,fixation,,,,
631,img/0_330.png,70,image-keyboard-response,53,241874,0.0-6.0-1.23,2,MASC,f,rechts,23,,,self,f,0,TRUE
null,"<div style=""font-size:60px;"">+</div>",null,html-keyboard-response,54,242376,0.0-6.0-0.24,2,MASC,f,rechts,23,,fixation,,,,
1104,img/90_210.png,74,image-keyboard-response,55,243481,0.0-6.0-1.24,2,MASC,f,rechts,23,,,self,j,90,TRUE
null,"<div style=""font-size:60px;"">+</div>",null,html-keyboard-response,56,243882,0.0-6.0-0.25,2,MASC,f,rechts,23,,fixation,,,,
1730,img/90_330.png,70,image-keyboard-response,57,245613,0.0-6.0-1.25,2,MASC,f,rechts,23,,,self,f,90,TRUE
null,"<div style=""font-size:60px;"">+</div>",null,html-keyboard-response,58,245965,0.0-6.0-0.26,2,MASC,f,rechts,23,,fixation,,,,
1334,img/30_270.png,70,image-keyboard-response,59,247300,0.0-6.0-1.26,2,MASC,f,rechts,23,,,self,f,30,TRUE
null,"<div style=""font-size:60px;"">+</div>",null,html-keyboard-response,60,247652,0.0-6.0-0.27,2,MASC,f,rechts,23,,fixation,,,,
1114,img/120_150.png,70,image-keyboard-response,61,248768,0.0-6.0-1.27,2,MASC,f,rechts,23,,,self,f,120,TRUE
null,"<div style=""font-size:60px;"">+</div>",null,html-keyboard-response,62,249270,0.0-6.0-0.28,2,MASC,f,rechts,23,,fixation,,,,
927,img/L150_180.png,70,image-keyboard-response,63,250198,0.0-6.0-1.28,2,MASC,f,rechts,23,,,self,f,150,TRUE
null,"<div style=""font-size:60px;"">+</div>",null,html-keyboard-response,64,250500,0.0-6.0-0.29,2,MASC,f,rechts,23,,fixation,,,,
686,img/0_30.png,74,image-keyboard-response,65,251187,0.0-6.0-1.29,2,MASC,f,rechts,23,,,self,j,0,TRUE
null,"<div style=""font-size:60px;"">+</div>",null,html-keyboard-response,66,251689,0.0-6.0-0.30,2,MASC,f,rechts,23,,fixation,,,,
1851,img/90_30.png,74,image-keyboard-response,67,253541,0.0-6.0-1.30,2,MASC,f,rechts,23,,,self,j,90,TRUE
null,"<div style=""font-size:60px;"">+</div>",null,html-keyboard-response,68,253993,0.0-6.0-0.31,2,MASC,f,rechts,23,,fixation,,,,
1622,img/120_270.png,74,image-keyboard-response,69,255616,0.0-6.0-1.31,2,MASC,f,rechts,23,,,self,j,120,TRUE
null,"<div style=""font-size:60px;"">+</div>",null,html-keyboard-response,70,256067,0.0-6.0-0.32,2,MASC,f,rechts,23,,fixation,,,,
1065,img/120_180.png,74,image-keyboard-response,71,257134,0.0-6.0-1.32,2,MASC,f,rechts,23,,,self,j,120,TRUE
null,"<div style=""font-size:60px;"">+</div>",null,html-keyboard-response,72,257636,0.0-6.0-0.33,2,MASC,f,rechts,23,,fixation,,,,
1966,img/150_270.png,74,image-keyboard-response,73,259603,0.0-6.0-1.33,2,MASC,f,rechts,23,,,self,j,150,TRUE
null,"<div style=""font-size:60px;"">+</div>",null,html-keyboard-response,74,260055,0.0-6.0-0.34,2,MASC,f,rechts,23,,fixation,,,,
753,img/0_240.png,70,image-keyboard-response,75,260809,0.0-6.0-1.34,2,MASC,f,rechts,23,,,self,f,0,TRUE
null,"<div style=""font-size:60px;"">+</div>",null,html-keyboard-response,76,261166,0.0-6.0-0.35,2,MASC,f,rechts,23,,fixation,,,,
973,img/90_120.png,70,image-keyboard-response,77,262140,0.0-6.0-1.35,2,MASC,f,rechts,23,,,self,f,90,TRUE
null,"<div style=""font-size:60px;"">+</div>",null,html-keyboard-response,78,262491,0.0-6.0-0.36,2,MASC,f,rechts,23,,fixation,,,,
1558,img/120_30.png,74,image-keyboard-response,79,264051,0.0-6.0-1.36,2,MASC,f,rechts,23,,,self,j,120,TRUE
null,"<div style=""font-size:60px;"">+</div>",null,html-keyboard-response,80,264553,0.0-6.0-0.37,2,MASC,f,rechts,23,,fixation,,,,
663,img/0_90.png,74,image-keyboard-response,81,265217,0.0-6.0-1.37,2,MASC,f,rechts,23,,,self,j,0,TRUE
null,"<div style=""font-size:60px;"">+</div>",null,html-keyboard-response,82,265518,0.0-6.0-0.38,2,MASC,f,rechts,23,,fixation,,,,
1140,img/60_210.png,74,image-keyboard-response,83,266660,0.0-6.0-1.38,2,MASC,f,rechts,23,,,self,j,60,TRUE
null,"<div style=""font-size:60px;"">+</div>",null,html-keyboard-response,84,267161,0.0-6.0-0.39,2,MASC,f,rechts,23,,fixation,,,,
1007,img/L120_180.png,70,image-keyboard-response,85,268169,0.0-6.0-1.39,2,MASC,f,rechts,23,,,self,f,120,TRUE
null,"<div style=""font-size:60px;"">+</div>",null,html-keyboard-response,86,268523,0.0-6.0-0.40,2,MASC,f,rechts,23,,fixation,,,,
1320,img/150_300.png,74,image-keyboard-response,87,269845,0.0-6.0-1.40,2,MASC,f,rechts,23,,,self,j,150,TRUE
null,"<div style=""font-size:60px;"">+</div>",null,html-keyboard-response,88,270296,0.0-6.0-0.41,2,MASC,f,rechts,23,,fixation,,,,
1596,img/30_120.png,74,image-keyboard-response,89,271893,0.0-6.0-1.41,2,MASC,f,rechts,23,,,self,j,30,TRUE
null,"<div style=""font-size:60px;"">+</div>",null,html-keyboard-response,90,272395,0.0-6.0-0.42,2,MASC,f,rechts,23,,fixation,,,,
1192,img/150_240.png,74,image-keyboard-response,91,273588,0.0-6.0-1.42,2,MASC,f,rechts,23,,,self,j,150,TRUE
null,"<div style=""font-size:60px;"">+</div>",null,html-keyboard-response,92,273940,0.0-6.0-0.43,2,MASC,f,rechts,23,,fixation,,,,
672,img/0_270.png,70,image-keyboard-response,93,274614,0.0-6.0-1.43,2,MASC,f,rechts,23,,,self,f,0,TRUE
null,"<div style=""font-size:60px;"">+</div>",null,html-keyboard-response,94,275065,0.0-6.0-0.44,2,MASC,f,rechts,23,,fixation,,,,
1092,img/90_300.png,70,image-keyboard-response,95,276158,0.0-6.0-1.44,2,MASC,f,rechts,23,,,self,f,90,TRUE
null,"<div style=""font-size:60px;"">+</div>",null,html-keyboard-response,96,276510,0.0-6.0-0.45,2,MASC,f,rechts,23,,fixation,,,,
1077,img/30_180.png,74,image-keyboard-response,97,277590,0.0-6.0-1.45,2,MASC,f,rechts,23,,,self,j,30,TRUE
null,"<div style=""font-size:60px;"">+</div>",null,html-keyboard-response,98,277991,0.0-6.0-0.46,2,MASC,f,rechts,23,,fixation,,,,
1154,img/120_210.png,74,image-keyboard-response,99,279146,0.0-6.0-1.46,2,MASC,f,rechts,23,,,self,j,120,TRUE
null,"<div style=""font-size:60px;"">+</div>",null,html-keyboard-response,100,279448,0.0-6.0-0.47,2,MASC,f,rechts,23,,fixation,,,,
1118,img/60_30.png,74,image-keyboard-response,101,280567,0.0-6.0-1.47,2,MASC,f,rechts,23,,,self,j,60,TRUE
null,"<div style=""font-size:60px;"">+</div>",null,html-keyboard-response,102,280919,0.0-6.0-0.48,2,MASC,f,rechts,23,,fixation,,,,
1230,img/60_150.png,70,image-keyboard-response,103,282150,0.0-6.0-1.48,2,MASC,f,rechts,23,,,self,f,60,TRUE
null,"<div style=""font-size:60px;"">+</div>",null,html-keyboard-response,104,282452,0.0-6.0-0.49,2,MASC,f,rechts,23,,fixation,,,,
1729,img/L30_180.png,70,image-keyboard-response,105,284182,0.0-6.0-1.49,2,MASC,f,rechts,23,,,self,f,30,TRUE
null,"<div style=""font-size:60px;"">+</div>",null,html-keyboard-response,106,284484,0.0-6.0-0.50,2,MASC,f,rechts,23,,fixation,,,,
1196,img/30_60.png,74,image-keyboard-response,107,285682,0.0-6.0-1.50,2,MASC,f,rechts,23,,,self,j,30,TRUE
null,"<div style=""font-size:60px;"">+</div>",null,html-keyboard-response,108,285984,0.0-6.0-0.51,2,MASC,f,rechts,23,,fixation,,,,
728,img/0_210.png,70,image-keyboard-response,109,286713,0.0-6.0-1.51,2,MASC,f,rechts,23,,,self,f,0,TRUE
null,"<div style=""font-size:60px;"">+</div>",null,html-keyboard-response,110,287115,0.0-6.0-0.52,2,MASC,f,rechts,23,,fixation,,,,
565,img/0_330.png,70,image-keyboard-response,111,287681,0.0-6.0-1.52,2,MASC,f,rechts,23,,,self,f,0,TRUE
null,"<div style=""font-size:60px;"">+</div>",null,html-keyboard-response,112,287982,0.0-6.0-0.53,2,MASC,f,rechts,23,,fixation,,,,
577,img/0_240.png,70,image-keyboard-response,113,288560,0.0-6.0-1.53,2,MASC,f,rechts,23,,,self,f,0,TRUE
null,"<div style=""font-size:60px;"">+</div>",null,html-keyboard-response,114,289012,0.0-6.0-0.54,2,MASC,f,rechts,23,,fixation,,,,
963,img/60_180.png,74,image-keyboard-response,115,289976,0.0-6.0-1.54,2,MASC,f,rechts,23,,,self,j,60,TRUE
null,"<div style=""font-size:60px;"">+</div>",null,html-keyboard-response,116,290278,0.0-6.0-0.55,2,MASC,f,rechts,23,,fixation,,,,
1076,img/30_270.png,70,image-keyboard-response,117,291355,0.0-6.0-1.55,2,MASC,f,rechts,23,,,self,f,30,TRUE
null,"<div style=""font-size:60px;"">+</div>",null,html-keyboard-response,118,291807,0.0-6.0-0.56,2,MASC,f,rechts,23,,fixation,,,,
1064,img/150_60.png,70,image-keyboard-response,119,292872,0.0-6.0-1.56,2,MASC,f,rechts,23,,,self,f,150,TRUE
null,"<div style=""font-size:60px;"">+</div>",null,html-keyboard-response,120,293374,0.0-6.0-0.57,2,MASC,f,rechts,23,,fixation,,,,
880,img/120_270.png,74,image-keyboard-response,121,294255,0.0-6.0-1.57,2,MASC,f,rechts,23,,,self,j,120,TRUE
null,"<div style=""font-size:60px;"">+</div>",null,html-keyboard-response,122,294657,0.0-6.0-0.58,2,MASC,f,rechts,23,,fixation,,,,
912,img/L150_180.png,70,image-keyboard-response,123,295570,0.0-6.0-1.58,2,MASC,f,rechts,23,,,self,f,150,TRUE
null,"<div style=""font-size:60px;"">+</div>",null,html-keyboard-response,124,295872,0.0-6.0-0.59,2,MASC,f,rechts,23,,fixation,,,,
971,img/150_120.png,70,image-keyboard-response,125,296844,0.0-6.0-1.59,2,MASC,f,rechts,23,,,self,f,150,TRUE
null,"<div style=""font-size:60px;"">+</div>",null,html-keyboard-response,126,297295,0.0-6.0-0.60,2,MASC,f,rechts,23,,fixation,,,,
1124,img/150_300.png,74,image-keyboard-response,127,298420,0.0-6.0-1.60,2,MASC,f,rechts,23,,,self,j,150,TRUE
null,"<div style=""font-size:60px;"">+</div>",null,html-keyboard-response,128,298872,0.0-6.0-0.61,2,MASC,f,rechts,23,,fixation,,,,
1110,img/30_300.png,70,image-keyboard-response,129,299982,0.0-6.0-1.61,2,MASC,f,rechts,23,,,self,f,30,TRUE
null,"<div style=""font-size:60px;"">+</div>",null,html-keyboard-response,130,300383,0.0-6.0-0.62,2,MASC,f,rechts,23,,fixation,,,,
722,img/0_210.png,70,image-keyboard-response,131,301106,0.0-6.0-1.62,2,MASC,f,rechts,23,,,self,f,0,TRUE
null,"<div style=""font-size:60px;"">+</div>",null,html-keyboard-response,132,301458,0.0-6.0-0.63,2,MASC,f,rechts,23,,fixation,,,,
1081,img/60_330.png,70,image-keyboard-response,133,302540,0.0-6.0-1.63,2,MASC,f,rechts,23,,,self,f,60,TRUE
null,"<div style=""font-size:60px;"">+</div>",null,html-keyboard-response,134,302941,0.0-6.0-0.64,2,MASC,f,rechts,23,,fixation,,,,
1147,img/120_330.png,70,image-keyboard-response,135,304089,0.0-6.0-1.64,2,MASC,f,rechts,23,,,self,f,120,TRUE
null,"<div style=""font-size:60px;"">+</div>",null,html-keyboard-response,136,304393,0.0-6.0-0.65,2,MASC,f,rechts,23,,fixation,,,,
749,img/0_300.png,70,image-keyboard-response,137,305143,0.0-6.0-1.65,2,MASC,f,rechts,23,,,self,f,0,TRUE
null,"<div style=""font-size:60px;"">+</div>",null,html-keyboard-response,138,305545,0.0-6.0-0.66,2,MASC,f,rechts,23,,fixation,,,,
823,img/120_180.png,74,image-keyboard-response,139,306369,0.0-6.0-1.66,2,MASC,f,rechts,23,,,self,j,120,TRUE
null,"<div style=""font-size:60px;"">+</div>",null,html-keyboard-response,140,306771,0.0-6.0-0.67,2,MASC,f,rechts,23,,fixation,,,,
1067,img/120_210.png,74,image-keyboard-response,141,307839,0.0-6.0-1.67,2,MASC,f,rechts,23,,,self,j,120,TRUE
null,"<div style=""font-size:60px;"">+</div>",null,html-keyboard-response,142,308140,0.0-6.0-0.68,2,MASC,f,rechts,23,,fixation,,,,
943,img/120_150.png,70,image-keyboard-response,143,309084,0.0-6.0-1.68,2,MASC,f,rechts,23,,,self,f,120,TRUE
null,"<div style=""font-size:60px;"">+</div>",null,html-keyboard-response,144,309486,0.0-6.0-0.69,2,MASC,f,rechts,23,,fixation,,,,
1070,img/90_210.png,74,image-keyboard-response,145,310556,0.0-6.0-1.69,2,MASC,f,rechts,23,,,self,j,90,TRUE
null,"<div style=""font-size:60px;"">+</div>",null,html-keyboard-response,146,311058,0.0-6.0-0.70,2,MASC,f,rechts,23,,fixation,,,,
1070,img/60_90.png,74,image-keyboard-response,147,312129,0.0-6.0-1.70,2,MASC,f,rechts,23,,,self,j,60,TRUE
null,"<div style=""font-size:60px;"">+</div>",null,html-keyboard-response,148,312480,0.0-6.0-0.71,2,MASC,f,rechts,23,,fixation,,,,
946,img/90_150.png,70,image-keyboard-response,149,313427,0.0-6.0-1.71,2,MASC,f,rechts,23,,,self,f,90,TRUE
null,"<div style=""font-size:60px;"">+</div>",null,html-keyboard-response,150,313830,0.0-6.0-0.72,2,MASC,f,rechts,23,,fixation,,,,
716,img/0_60.png,74,image-keyboard-response,151,314547,0.0-6.0-1.72,2,MASC,f,rechts,23,,,self,j,0,TRUE
null,"<div style=""font-size:60px;"">+</div>",null,html-keyboard-response,152,314899,0.0-6.0-0.73,2,MASC,f,rechts,23,,fixation,,,,
781,img/0_150.png,74,image-keyboard-response,153,315681,0.0-6.0-1.73,2,MASC,f,rechts,23,,,self,j,0,TRUE
null,"<div style=""font-size:60px;"">+</div>",null,html-keyboard-response,154,316082,0.0-6.0-0.74,2,MASC,f,rechts,23,,fixation,,,,
910,img/30_120.png,74,image-keyboard-response,155,316994,0.0-6.0-1.74,2,MASC,f,rechts,23,,,self,j,30,TRUE
null,"<div style=""font-size:60px;"">+</div>",null,html-keyboard-response,156,317495,0.0-6.0-0.75,2,MASC,f,rechts,23,,fixation,,,,
968,img/30_180.png,74,image-keyboard-response,157,318464,0.0-6.0-1.75,2,MASC,f,rechts,23,,,self,j,30,TRUE
null,"<div style=""font-size:60px;"">+</div>",null,html-keyboard-response,158,318766,0.0-6.0-0.76,2,MASC,f,rechts,23,,fixation,,,,
1268,img/90_60.png,74,image-keyboard-response,159,320036,0.0-6.0-1.76,2,MASC,f,rechts,23,,,self,j,90,TRUE
null,"<div style=""font-size:60px;"">+</div>",null,html-keyboard-response,160,320487,0.0-6.0-0.77,2,MASC,f,rechts,23,,fixation,,,,
1006,img/120_90.png,70,image-keyboard-response,161,321495,0.0-6.0-1.77,2,MASC,f,rechts,23,,,self,f,120,TRUE
null,"<div style=""font-size:60px;"">+</div>",null,html-keyboard-response,162,321845,0.0-6.0-0.78,2,MASC,f,rechts,23,,fixation,,,,
991,img/150_240.png,74,image-keyboard-response,163,322837,0.0-6.0-1.78,2,MASC,f,rechts,23,,,self,j,150,TRUE
null,"<div style=""font-size:60px;"">+</div>",null,html-keyboard-response,164,323289,0.0-6.0-0.79,2,MASC,f,rechts,23,,fixation,,,,
1082,img/30_60.png,74,image-keyboard-response,165,324372,0.0-6.0-1.79,2,MASC,f,rechts,23,,,self,j,30,TRUE
null,"<div style=""font-size:60px;"">+</div>",null,html-keyboard-response,166,324674,0.0-6.0-0.80,2,MASC,f,rechts,23,,fixation,,,,
1067,img/60_30.png,74,image-keyboard-response,167,325742,0.0-6.0-1.80,2,MASC,f,rechts,23,,,self,j,60,TRUE
null,"<div style=""font-size:60px;"">+</div>",null,html-keyboard-response,168,326043,0.0-6.0-0.81,2,MASC,f,rechts,23,,fixation,,,,
1205,img/90_300.png,70,image-keyboard-response,169,327249,0.0-6.0-1.81,2,MASC,f,rechts,23,,,self,f,90,TRUE
null,"<div style=""font-size:60px;"">+</div>",null,html-keyboard-response,170,327701,0.0-6.0-0.82,2,MASC,f,rechts,23,,fixation,,,,
1006,img/L120_180.png,70,image-keyboard-response,171,328709,0.0-6.0-1.82,2,MASC,f,rechts,23,,,self,f,120,TRUE
null,"<div style=""font-size:60px;"">+</div>",null,html-keyboard-response,172,329160,0.0-6.0-0.83,2,MASC,f,rechts,23,,fixation,,,,
889,img/90_240.png,74,image-keyboard-response,173,330050,0.0-6.0-1.83,2,MASC,f,rechts,23,,,self,j,90,TRUE
null,"<div style=""font-size:60px;"">+</div>",null,html-keyboard-response,174,330352,0.0-6.0-0.84,2,MASC,f,rechts,23,,fixation,,,,
1120,img/60_210.png,74,image-keyboard-response,175,331473,0.0-6.0-1.84,2,MASC,f,rechts,23,,,self,j,60,TRUE
null,"<div style=""font-size:60px;"">+</div>",null,html-keyboard-response,176,331825,0.0-6.0-0.85,2,MASC,f,rechts,23,,fixation,,,,
956,img/150_90.png,70,image-keyboard-response,177,332782,0.0-6.0-1.85,2,MASC,f,rechts,23,,,self,f,150,TRUE
null,"<div style=""font-size:60px;"">+</div>",null,html-keyboard-response,178,333284,0.0-6.0-0.86,2,MASC,f,rechts,23,,fixation,,,,
848,img/150_270.png,74,image-keyboard-response,179,334133,0.0-6.0-1.86,2,MASC,f,rechts,23,,,self,j,150,TRUE
null,"<div style=""font-size:60px;"">+</div>",null,html-keyboard-response,180,334485,0.0-6.0-0.87,2,MASC,f,rechts,23,,fixation,,,,
768,img/0_30.png,74,image-keyboard-response,181,335254,0.0-6.0-1.87,2,MASC,f,rechts,23,,,self,j,0,TRUE
null,"<div style=""font-size:60px;"">+</div>",null,html-keyboard-response,182,335606,0.0-6.0-0.88,2,MASC,f,rechts,23,,fixation,,,,
900,img/L90_180.png,70,image-keyboard-response,183,336507,0.0-6.0-1.88,2,MASC,f,rechts,23,,,self,f,90,TRUE
null,"<div style=""font-size:60px;"">+</div>",null,html-keyboard-response,184,336909,0.0-6.0-0.89,2,MASC,f,rechts,23,,fixation,,,,
950,img/30_240.png,70,image-keyboard-response,185,337860,0.0-6.0-1.89,2,MASC,f,rechts,23,,,self,f,30,TRUE
null,"<div style=""font-size:60px;"">+</div>",null,html-keyboard-response,186,338264,0.0-6.0-0.90,2,MASC,f,rechts,23,,fixation,,,,
1242,img/60_150.png,70,image-keyboard-response,187,339507,0.0-6.0-1.90,2,MASC,f,rechts,23,,,self,f,60,TRUE
null,"<div style=""font-size:60px;"">+</div>",null,html-keyboard-response,188,339809,0.0-6.0-0.91,2,MASC,f,rechts,23,,fixation,,,,
1127,img/90_30.png,74,image-keyboard-response,189,340937,0.0-6.0-1.91,2,MASC,f,rechts,23,,,self,j,90,TRUE
null,"<div style=""font-size:60px;"">+</div>",null,html-keyboard-response,190,341239,0.0-6.0-0.92,2,MASC,f,rechts,23,,fixation,,,,
625,img/0_270.png,70,image-keyboard-response,191,341865,0.0-6.0-1.92,2,MASC,f,rechts,23,,,self,f,0,TRUE
null,"<div style=""font-size:60px;"">+</div>",null,html-keyboard-response,192,342367,0.0-6.0-0.93,2,MASC,f,rechts,23,,fixation,,,,
774,img/30_90.png,74,image-keyboard-response,193,343142,0.0-6.0-1.93,2,MASC,f,rechts,23,,,self,j,30,TRUE
null,"<div style=""font-size:60px;"">+</div>",null,html-keyboard-response,194,343594,0.0-6.0-0.94,2,MASC,f,rechts,23,,fixation,,,,
953,img/90_330.png,70,image-keyboard-response,195,344548,0.0-6.0-1.94,2,MASC,f,rechts,23,,,self,f,90,TRUE
null,"<div style=""font-size:60px;"">+</div>",null,html-keyboard-response,196,344850,0.0-6.0-0.95,2,MASC,f,rechts,23,,fixation,,,,
1305,img/120_30.png,74,image-keyboard-response,197,346156,0.0-6.0-1.95,2,MASC,f,rechts,23,,,self,j,120,TRUE
null,"<div style=""font-size:60px;"">+</div>",null,html-keyboard-response,198,346657,0.0-6.0-0.96,2,MASC,f,rechts,23,,fixation,,,,
928,img/0_90.png,74,image-keyboard-response,199,347588,0.0-6.0-1.96,2,MASC,f,rechts,23,,,self,j,0,TRUE
null,"<div style=""font-size:60px;"">+</div>",null,html-keyboard-response,200,348090,0.0-6.0-0.97,2,MASC,f,rechts,23,,fixation,,,,
1069,img/L30_180.png,70,image-keyboard-response,201,349161,0.0-6.0-1.97,2,MASC,f,rechts,23,,,self,f,30,TRUE
null,"<div style=""font-size:60px;"">+</div>",null,html-keyboard-response,202,349612,0.0-6.0-0.98,2,MASC,f,rechts,23,,fixation,,,,
1065,img/90_120.png,70,image-keyboard-response,203,350678,0.0-6.0-1.98,2,MASC,f,rechts,23,,,self,f,90,TRUE
null,"<div style=""font-size:60px;"">+</div>",null,html-keyboard-response,204,351030,0.0-6.0-0.99,2,MASC,f,rechts,23,,fixation,,,,
1118,img/L60_180.png,70,image-keyboard-response,205,352149,0.0-6.0-1.99,2,MASC,f,rechts,23,,,self,f,60,TRUE
null,"<div style=""font-size:60px;"">+</div>",null,html-keyboard-response,206,352501,0.0-6.0-0.100,2,MASC,f,rechts,23,,fixation,,,,
949,img/90_180.png,74,image-keyboard-response,207,353450,0.0-6.0-1.100,2,MASC,f,rechts,23,,,self,j,90,TRUE
null,"<div style=""font-size:60px;"">+</div>",null,html-keyboard-response,208,353852,0.0-6.0-0.101,2,MASC,f,rechts,23,,fixation,,,,
942,img/60_270.png,70,image-keyboard-response,209,354795,0.0-6.0-1.101,2,MASC,f,rechts,23,,,self,f,60,TRUE
null,"<div style=""font-size:60px;"">+</div>",null,html-keyboard-response,210,355097,0.0-6.0-0.102,2,MASC,f,rechts,23,,fixation,,,,
931,img/150_180.png,74,image-keyboard-response,211,356029,0.0-6.0-1.102,2,MASC,f,rechts,23,,,self,j,150,TRUE
null,"<div style=""font-size:60px;"">+</div>",null,html-keyboard-response,212,356480,0.0-6.0-0.103,2,MASC,f,rechts,23,,fixation,,,,
586,img/0_120.png,74,image-keyboard-response,213,357067,0.0-6.0-1.103,2,MASC,f,rechts,23,,,self,j,0,TRUE
null,"<div style=""font-size:60px;"">+</div>",null,html-keyboard-response,214,357569,0.0-6.0-0.104,2,MASC,f,rechts,23,,fixation,,,,
794,img/30_270.png,70,image-keyboard-response,215,358363,0.0-6.0-1.104,2,MASC,f,rechts,23,,,self,f,30,TRUE
null,"<div style=""font-size:60px;"">+</div>",null,html-keyboard-response,216,358715,0.0-6.0-0.105,2,MASC,f,rechts,23,,fixation,,,,
932,img/L120_180.png,70,image-keyboard-response,217,359647,0.0-6.0-1.105,2,MASC,f,rechts,23,,,self,f,120,TRUE
null,"<div style=""font-size:60px;"">+</div>",null,html-keyboard-response,218,359998,0.0-6.0-0.106,2,MASC,f,rechts,23,,fixation,,,,
1076,img/150_60.png,70,image-keyboard-response,219,361075,0.0-6.0-1.106,2,MASC,f,rechts,23,,,self,f,150,TRUE
null,"<div style=""font-size:60px;"">+</div>",null,html-keyboard-response,220,361427,0.0-6.0-0.107,2,MASC,f,rechts,23,,fixation,,,,
1189,img/150_270.png,74,image-keyboard-response,221,362617,0.0-6.0-1.107,2,MASC,f,rechts,23,,,self,j,150,TRUE
null,"<div style=""font-size:60px;"">+</div>",null,html-keyboard-response,222,363118,0.0-6.0-0.108,2,MASC,f,rechts,23,,fixation,,,,
939,img/90_330.png,70,image-keyboard-response,223,364059,0.0-6.0-1.108,2,MASC,f,rechts,23,,,self,f,90,TRUE
null,"<div style=""font-size:60px;"">+</div>",null,html-keyboard-response,224,364411,0.0-6.0-0.109,2,MASC,f,rechts,23,,fixation,,,,
692,img/0_330.png,70,image-keyboard-response,225,365104,0.0-6.0-1.109,2,MASC,f,rechts,23,,,self,f,0,TRUE
null,"<div style=""font-size:60px;"">+</div>",null,html-keyboard-response,226,365606,0.0-6.0-0.110,2,MASC,f,rechts,23,,fixation,,,,
879,img/150_90.png,70,image-keyboard-response,227,366485,0.0-6.0-1.110,2,MASC,f,rechts,23,,,self,f,150,TRUE
null,"<div style=""font-size:60px;"">+</div>",null,html-keyboard-response,228,366937,0.0-6.0-0.111,2,MASC,f,rechts,23,,fixation,,,,
970,img/120_180.png,74,image-keyboard-response,229,367909,0.0-6.0-1.111,2,MASC,f,rechts,23,,,self,j,120,TRUE
null,"<div style=""font-size:60px;"">+</div>",null,html-keyboard-response,230,368410,0.0-6.0-0.112,2,MASC,f,rechts,23,,fixation,,,,
853,img/L150_180.png,70,image-keyboard-response,231,369266,0.0-6.0-1.112,2,MASC,f,rechts,23,,,self,f,150,TRUE
null,"<div style=""font-size:60px;"">+</div>",null,html-keyboard-response,232,369717,0.0-6.0-0.113,2,MASC,f,rechts,23,,fixation,,,,
987,img/90_210.png,74,image-keyboard-response,233,370706,0.0-6.0-1.113,2,MASC,f,rechts,23,,,self,j,90,TRUE
null,"<div style=""font-size:60px;"">+</div>",null,html-keyboard-response,234,371157,0.0-6.0-0.114,2,MASC,f,rechts,23,,fixation,,,,
644,img/0_120.png,74,image-keyboard-response,235,371803,0.0-6.0-1.114,2,MASC,f,rechts,23,,,self,j,0,TRUE
null,"<div style=""font-size:60px;"">+</div>",null,html-keyboard-response,236,372254,0.0-6.0-0.115,2,MASC,f,rechts,23,,fixation,,,,
1068,img/30_120.png,74,image-keyboard-response,237,373323,0.0-6.0-1.115,2,MASC,f,rechts,23,,,self,j,30,TRUE
null,"<div style=""font-size:60px;"">+</div>",null,html-keyboard-response,238,373625,0.0-6.0-0.116,2,MASC,f,rechts,23,,fixation,,,,
938,img/60_150.png,70,image-keyboard-response,239,374565,0.0-6.0-1.116,2,MASC,f,rechts,23,,,self,f,60,TRUE
null,"<div style=""font-size:60px;"">+</div>",null,html-keyboard-response,240,375016,0.0-6.0-0.117,2,MASC,f,rechts,23,,fixation,,,,
661,img/0_30.png,74,image-keyboard-response,241,375679,0.0-6.0-1.117,2,MASC,f,rechts,23,,,self,j,0,TRUE
null,"<div style=""font-size:60px;"">+</div>",null,html-keyboard-response,242,376130,0.0-6.0-0.118,2,MASC,f,rechts,23,,fixation,,,,
776,img/150_120.png,70,image-keyboard-response,243,376907,0.0-6.0-1.118,2,MASC,f,rechts,23,,,self,f,150,TRUE
null,"<div style=""font-size:60px;"">+</div>",null,html-keyboard-response,244,377208,0.0-6.0-0.119,2,MASC,f,rechts,23,,fixation,,,,
1069,img/30_300.png,70,image-keyboard-response,245,378278,0.0-6.0-1.119,2,MASC,f,rechts,23,,,self,f,30,TRUE
null,"<div style=""font-size:60px;"">+</div>",null,html-keyboard-response,246,378680,0.0-6.0-0.120,2,MASC,f,rechts,23,,fixation,,,,
971,img/90_240.png,74,image-keyboard-response,247,379652,0.0-6.0-1.120,2,MASC,f,rechts,23,,,self,j,90,TRUE
null,"<div style=""font-size:60px;"">+</div>",null,html-keyboard-response,248,380153,0.0-6.0-0.121,2,MASC,f,rechts,23,,fixation,,,,
1008,img/90_60.png,74,image-keyboard-response,249,381163,0.0-6.0-1.121,2,MASC,f,rechts,23,,,self,j,90,TRUE
null,"<div style=""font-size:60px;"">+</div>",null,html-keyboard-response,250,381616,0.0-6.0-0.122,2,MASC,f,rechts,23,,fixation,,,,
674,img/0_150.png,74,image-keyboard-response,251,382290,0.0-6.0-1.122,2,MASC,f,rechts,23,,,self,j,0,TRUE
null,"<div style=""font-size:60px;"">+</div>",null,html-keyboard-response,252,382642,0.0-6.0-0.123,2,MASC,f,rechts,23,,fixation,,,,
938,img/90_30.png,74,image-keyboard-response,253,383581,0.0-6.0-1.123,2,MASC,f,rechts,23,,,self,j,90,TRUE
null,"<div style=""font-size:60px;"">+</div>",null,html-keyboard-response,254,384033,0.0-6.0-0.124,2,MASC,f,rechts,23,,fixation,,,,
924,img/60_30.png,74,image-keyboard-response,255,384958,0.0-6.0-1.124,2,MASC,f,rechts,23,,,self,j,60,TRUE
null,"<div style=""font-size:60px;"">+</div>",null,html-keyboard-response,256,385360,0.0-6.0-0.125,2,MASC,f,rechts,23,,fixation,,,,
990,img/60_270.png,70,image-keyboard-response,257,386350,0.0-6.0-1.125,2,MASC,f,rechts,23,,,self,f,60,TRUE
null,"<div style=""font-size:60px;"">+</div>",null,html-keyboard-response,258,386852,0.0-6.0-0.126,2,MASC,f,rechts,23,,fixation,,,,
926,img/L60_180.png,70,image-keyboard-response,259,387779,0.0-6.0-1.126,2,MASC,f,rechts,23,,,self,f,60,TRUE
null,"<div style=""font-size:60px;"">+</div>",null,html-keyboard-response,260,388181,0.0-6.0-0.127,2,MASC,f,rechts,23,,fixation,,,,
1183,img/150_300.png,74,image-keyboard-response,261,389365,0.0-6.0-1.127,2,MASC,f,rechts,23,,,self,j,150,TRUE
null,"<div style=""font-size:60px;"">+</div>",null,html-keyboard-response,262,389718,0.0-6.0-0.128,2,MASC,f,rechts,23,,fixation,,,,
971,img/30_60.png,74,image-keyboard-response,263,390690,0.0-6.0-1.128,2,MASC,f,rechts,23,,,self,j,30,TRUE
null,"<div style=""font-size:60px;"">+</div>",null,html-keyboard-response,264,391042,0.0-6.0-0.129,2,MASC,f,rechts,23,,fixation,,,,
1030,img/60_90.png,74,image-keyboard-response,265,392073,0.0-6.0-1.129,2,MASC,f,rechts,23,,,self,j,60,TRUE
null,"<div style=""font-size:60px;"">+</div>",null,html-keyboard-response,266,392475,0.0-6.0-0.130,2,MASC,f,rechts,23,,fixation,,,,
1058,img/120_210.png,74,image-keyboard-response,267,393534,0.0-6.0-1.130,2,MASC,f,rechts,23,,,self,j,120,TRUE
null,"<div style=""font-size:60px;"">+</div>",null,html-keyboard-response,268,393936,0.0-6.0-0.131,2,MASC,f,rechts,23,,fixation,,,,
950,img/90_180.png,74,image-keyboard-response,269,394887,0.0-6.0-1.131,2,MASC,f,rechts,23,,,self,j,90,TRUE
null,"<div style=""font-size:60px;"">+</div>",null,html-keyboard-response,270,395339,0.0-6.0-0.132,2,MASC,f,rechts,23,,fixation,,,,
835,img/60_330.png,70,image-keyboard-response,271,396175,0.0-6.0-1.132,2,MASC,f,rechts,23,,,self,f,60,TRUE
null,"<div style=""font-size:60px;"">+</div>",null,html-keyboard-response,272,396677,0.0-6.0-0.133,2,MASC,f,rechts,23,,fixation,,,,
891,img/90_120.png,70,image-keyboard-response,273,397568,0.0-6.0-1.133,2,MASC,f,rechts,23,,,self,f,90,TRUE
null,"<div style=""font-size:60px;"">+</div>",null,html-keyboard-response,274,397869,0.0-6.0-0.134,2,MASC,f,rechts,23,,fixation,,,,
1067,img/30_90.png,74,image-keyboard-response,275,398937,0.0-6.0-1.134,2,MASC,f,rechts,23,,,self,j,30,TRUE
null,"<div style=""font-size:60px;"">+</div>",null,html-keyboard-response,276,399338,0.0-6.0-0.135,2,MASC,f,rechts,23,,fixation,,,,
910,img/120_90.png,70,image-keyboard-response,277,400249,0.0-6.0-1.135,2,MASC,f,rechts,23,,,self,f,120,TRUE
null,"<div style=""font-size:60px;"">+</div>",null,html-keyboard-response,278,400700,0.0-6.0-0.136,2,MASC,f,rechts,23,,fixation,,,,
953,img/120_270.png,74,image-keyboard-response,279,401655,0.0-6.0-1.136,2,MASC,f,rechts,23,,,self,j,120,TRUE
null,"<div style=""font-size:60px;"">+</div>",null,html-keyboard-response,280,402006,0.0-6.0-0.137,2,MASC,f,rechts,23,,fixation,,,,
1063,img/120_330.png,70,image-keyboard-response,281,403071,0.0-6.0-1.137,2,MASC,f,rechts,23,,,self,f,120,TRUE
null,"<div style=""font-size:60px;"">+</div>",null,html-keyboard-response,282,403573,0.0-6.0-0.138,2,MASC,f,rechts,23,,fixation,,,,
998,img/120_150.png,70,image-keyboard-response,283,404572,0.0-6.0-1.138,2,MASC,f,rechts,23,,,self,f,120,TRUE
null,"<div style=""font-size:60px;"">+</div>",null,html-keyboard-response,284,404874,0.0-6.0-0.139,2,MASC,f,rechts,23,,fixation,,,,
925,img/L90_180.png,70,image-keyboard-response,285,405800,0.0-6.0-1.139,2,MASC,f,rechts,23,,,self,f,90,TRUE
null,"<div style=""font-size:60px;"">+</div>",null,html-keyboard-response,286,406101,0.0-6.0-0.140,2,MASC,f,rechts,23,,fixation,,,,
1042,img/90_300.png,70,image-keyboard-response,287,407144,0.0-6.0-1.140,2,MASC,f,rechts,23,,,self,f,90,TRUE
null,"<div style=""font-size:60px;"">+</div>",null,html-keyboard-response,288,407445,0.0-6.0-0.141,2,MASC,f,rechts,23,,fixation,,,,
1140,img/L30_180.png,70,image-keyboard-response,289,408586,0.0-6.0-1.141,2,MASC,f,rechts,23,,,self,f,30,TRUE
null,"<div style=""font-size:60px;"">+</div>",null,html-keyboard-response,290,408937,0.0-6.0-0.142,2,MASC,f,rechts,23,,fixation,,,,
701,img/0_90.png,74,image-keyboard-response,291,409640,0.0-6.0-1.142,2,MASC,f,rechts,23,,,self,j,0,TRUE
null,"<div style=""font-size:60px;"">+</div>",null,html-keyboard-response,292,409941,0.0-6.0-0.143,2,MASC,f,rechts,23,,fixation,,,,
1272,img/120_30.png,70,image-keyboard-response,293,411215,0.0-6.0-1.143,2,MASC,f,rechts,23,,,self,j,120,FALSE
null,"<div style=""font-size:60px;"">+</div>",null,html-keyboard-response,294,411517,0.0-6.0-0.144,2,MASC,f,rechts,23,,fixation,,,,
971,img/150_180.png,70,image-keyboard-response,295,412490,0.0-6.0-1.144,2,MASC,f,rechts,23,,,self,j,150,FALSE
null,"<div style=""font-size:60px;"">+</div>",null,html-keyboard-response,296,412891,0.0-6.0-0.145,2,MASC,f,rechts,23,,fixation,,,,
610,img/0_210.png,70,image-keyboard-response,297,413503,0.0-6.0-1.145,2,MASC,f,rechts,23,,,self,f,0,TRUE
null,"<div style=""font-size:60px;"">+</div>",null,html-keyboard-response,298,413855,0.0-6.0-0.146,2,MASC,f,rechts,23,,fixation,,,,
940,img/150_240.png,74,image-keyboard-response,299,414797,0.0-6.0-1.146,2,MASC,f,rechts,23,,,self,j,150,TRUE
null,"<div style=""font-size:60px;"">+</div>",null,html-keyboard-response,300,415198,0.0-6.0-0.147,2,MASC,f,rechts,23,,fixation,,,,
634,img/0_300.png,70,image-keyboard-response,301,415835,0.0-6.0-1.147,2,MASC,f,rechts,23,,,self,f,0,TRUE
null,"<div style=""font-size:60px;"">+</div>",null,html-keyboard-response,302,416237,0.0-6.0-0.148,2,MASC,f,rechts,23,,fixation,,,,
987,img/30_180.png,74,image-keyboard-response,303,417225,0.0-6.0-1.148,2,MASC,f,rechts,23,,,self,j,30,TRUE
null,"<div style=""font-size:60px;"">+</div>",null,html-keyboard-response,304,417626,0.0-6.0-0.149,2,MASC,f,rechts,23,,fixation,,,,
604,img/0_270.png,70,image-keyboard-response,305,418232,0.0-6.0-1.149,2,MASC,f,rechts,23,,,self,f,0,TRUE
null,"<div style=""font-size:60px;"">+</div>",null,html-keyboard-response,306,418583,0.0-6.0-0.150,2,MASC,f,rechts,23,,fixation,,,,
1016,img/30_240.png,70,image-keyboard-response,307,419600,0.0-6.0-1.150,2,MASC,f,rechts,23,,,self,f,30,TRUE
null,"<div style=""font-size:60px;"">+</div>",null,html-keyboard-response,308,420102,0.0-6.0-0.151,2,MASC,f,rechts,23,,fixation,,,,
950,img/90_150.png,70,image-keyboard-response,309,421054,0.0-6.0-1.151,2,MASC,f,rechts,23,,,self,f,90,TRUE
null,"<div style=""font-size:60px;"">+</div>",null,html-keyboard-response,310,421555,0.0-6.0-0.152,2,MASC,f,rechts,23,,fixation,,,,
837,img/60_210.png,74,image-keyboard-response,311,422393,0.0-6.0-1.152,2,MASC,f,rechts,23,,,self,j,60,TRUE
null,"<div style=""font-size:60px;"">+</div>",null,html-keyboard-response,312,422845,0.0-6.0-0.153,2,MASC,f,rechts,23,,fixation,,,,
640,img/0_240.png,70,image-keyboard-response,313,423487,0.0-6.0-1.153,2,MASC,f,rechts,23,,,self,f,0,TRUE
null,"<div style=""font-size:60px;"">+</div>",null,html-keyboard-response,314,423839,0.0-6.0-0.154,2,MASC,f,rechts,23,,fixation,,,,
641,img/0_60.png,74,image-keyboard-response,315,424482,0.0-6.0-1.154,2,MASC,f,rechts,23,,,self,j,0,TRUE
null,"<div style=""font-size:60px;"">+</div>",null,html-keyboard-response,316,424834,0.0-6.0-0.155,2,MASC,f,rechts,23,,fixation,,,,
963,img/60_180.png,74,image-keyboard-response,317,425799,0.0-6.0-1.155,2,MASC,f,rechts,23,,,self,j,60,TRUE
null,"<div style=""font-size:60px;"">+</div>",null,html-keyboard-response,318,426101,0.0-6.0-0.156,2,MASC,f,rechts,23,,fixation,,,,
942,img/30_240.png,70,image-keyboard-response,319,427044,0.0-6.0-1.156,2,MASC,f,rechts,23,,,self,f,30,TRUE
null,"<div style=""font-size:60px;"">+</div>",null,html-keyboard-response,320,427546,0.0-6.0-0.157,2,MASC,f,rechts,23,,fixation,,,,
633,img/0_330.png,70,image-keyboard-response,321,428180,0.0-6.0-1.157,2,MASC,f,rechts,23,,,self,f,0,TRUE
null,"<div style=""font-size:60px;"">+</div>",null,html-keyboard-response,322,428532,0.0-6.0-0.158,2,MASC,f,rechts,23,,fixation,,,,
1069,img/30_90.png,74,image-keyboard-response,323,429602,0.0-6.0-1.158,2,MASC,f,rechts,23,,,self,j,30,TRUE
null,"<div style=""font-size:60px;"">+</div>",null,html-keyboard-response,324,429953,0.0-6.0-0.159,2,MASC,f,rechts,23,,fixation,,,,
1543,img/120_30.png,74,image-keyboard-response,325,431497,0.0-6.0-1.159,2,MASC,f,rechts,23,,,self,j,120,TRUE
null,"<div style=""font-size:60px;"">+</div>",null,html-keyboard-response,326,431950,0.0-6.0-0.160,2,MASC,f,rechts,23,,fixation,,,,
1919,img/90_300.png,70,image-keyboard-response,327,433871,0.0-6.0-1.160,2,MASC,f,rechts,23,,,self,f,90,TRUE
null,"<div style=""font-size:60px;"">+</div>",null,html-keyboard-response,328,434372,0.0-6.0-0.161,2,MASC,f,rechts,23,,fixation,,,,
988,img/150_240.png,74,image-keyboard-response,329,435361,0.0-6.0-1.161,2,MASC,f,rechts,23,,,self,j,150,TRUE
null,"<div style=""font-size:60px;"">+</div>",null,html-keyboard-response,330,435813,0.0-6.0-0.162,2,MASC,f,rechts,23,,fixation,,,,
1609,img/90_240.png,74,image-keyboard-response,331,437423,0.0-6.0-1.162,2,MASC,f,rechts,23,,,self,j,90,TRUE
null,"<div style=""font-size:60px;"">+</div>",null,html-keyboard-response,332,437876,0.0-6.0-0.163,2,MASC,f,rechts,23,,fixation,,,,
1083,img/150_120.png,70,image-keyboard-response,333,438960,0.0-6.0-1.163,2,MASC,f,rechts,23,,,self,f,150,TRUE
null,"<div style=""font-size:60px;"">+</div>",null,html-keyboard-response,334,439412,0.0-6.0-0.164,2,MASC,f,rechts,23,,fixation,,,,
1064,img/60_330.png,70,image-keyboard-response,335,440477,0.0-6.0-1.164,2,MASC,f,rechts,23,,,self,f,60,TRUE
null,"<div style=""font-size:60px;"">+</div>",null,html-keyboard-response,336,440828,0.0-6.0-0.165,2,MASC,f,rechts,23,,fixation,,,,
665,img/0_240.png,70,image-keyboard-response,337,441494,0.0-6.0-1.165,2,MASC,f,rechts,23,,,self,f,0,TRUE
null,"<div style=""font-size:60px;"">+</div>",null,html-keyboard-response,338,441996,0.0-6.0-0.166,2,MASC,f,rechts,23,,fixation,,,,
647,img/0_210.png,70,image-keyboard-response,339,442644,0.0-6.0-1.166,2,MASC,f,rechts,23,,,self,f,0,TRUE
null,"<div style=""font-size:60px;"">+</div>",null,html-keyboard-response,340,442946,0.0-6.0-0.167,2,MASC,f,rechts,23,,fixation,,,,
1080,img/60_210.png,74,image-keyboard-response,341,444027,0.0-6.0-1.167,2,MASC,f,rechts,23,,,self,j,60,TRUE
null,"<div style=""font-size:60px;"">+</div>",null,html-keyboard-response,342,444429,0.0-6.0-0.168,2,MASC,f,rechts,23,,fixation,,,,
989,img/30_120.png,74,image-keyboard-response,343,445420,0.0-6.0-1.168,2,MASC,f,rechts,23,,,self,j,30,TRUE
null,"<div style=""font-size:60px;"">+</div>",null,html-keyboard-response,344,445872,0.0-6.0-0.169,2,MASC,f,rechts,23,,fixation,,,,
1438,img/120_330.png,70,image-keyboard-response,345,447311,0.0-6.0-1.169,2,MASC,f,rechts,23,,,self,f,120,TRUE
null,"<div style=""font-size:60px;"">+</div>",null,html-keyboard-response,346,447713,0.0-6.0-0.170,2,MASC,f,rechts,23,,fixation,,,,
673,img/0_270.png,70,image-keyboard-response,347,448386,0.0-6.0-1.170,2,MASC,f,rechts,23,,,self,f,0,TRUE
null,"<div style=""font-size:60px;"">+</div>",null,html-keyboard-response,348,448738,0.0-6.0-0.171,2,MASC,f,rechts,23,,fixation,,,,
646,img/0_120.png,74,image-keyboard-response,349,449385,0.0-6.0-1.171,2,MASC,f,rechts,23,,,self,j,0,TRUE
null,"<div style=""font-size:60px;"">+</div>",null,html-keyboard-response,350,449887,0.0-6.0-0.172,2,MASC,f,rechts,23,,fixation,,,,
1766,img/60_270.png,70,image-keyboard-response,351,451654,0.0-6.0-1.172,2,MASC,f,rechts,23,,,self,f,60,TRUE
null,"<div style=""font-size:60px;"">+</div>",null,html-keyboard-response,352,452007,0.0-6.0-0.173,2,MASC,f,rechts,23,,fixation,,,,
1273,img/L30_180.png,70,image-keyboard-response,353,453281,0.0-6.0-1.173,2,MASC,f,rechts,23,,,self,f,30,TRUE
null,"<div style=""font-size:60px;"">+</div>",null,html-keyboard-response,354,453733,0.0-6.0-0.174,2,MASC,f,rechts,23,,fixation,,,,
1066,img/90_30.png,70,image-keyboard-response,355,454800,0.0-6.0-1.174,2,MASC,f,rechts,23,,,self,j,90,FALSE
null,"<div style=""font-size:60px;"">+</div>",null,html-keyboard-response,356,455152,0.0-6.0-0.175,2,MASC,f,rechts,23,,fixation,,,,
965,img/L150_180.png,70,image-keyboard-response,357,456118,0.0-6.0-1.175,2,MASC,f,rechts,23,,,self,f,150,TRUE
null,"<div style=""font-size:60px;"">+</div>",null,html-keyboard-response,358,456470,0.0-6.0-0.176,2,MASC,f,rechts,23,,fixation,,,,
1618,img/60_90.png,74,image-keyboard-response,359,458089,0.0-6.0-1.176,2,MASC,f,rechts,23,,,self,j,60,TRUE
null,"<div style=""font-size:60px;"">+</div>",null,html-keyboard-response,360,458490,0.0-6.0-0.177,2,MASC,f,rechts,23,,fixation,,,,
1289,img/90_60.png,74,image-keyboard-response,361,459781,0.0-6.0-1.177,2,MASC,f,rechts,23,,,self,j,90,TRUE
null,"<div style=""font-size:60px;"">+</div>",null,html-keyboard-response,362,460283,0.0-6.0-0.178,2,MASC,f,rechts,23,,fixation,,,,
1072,img/150_90.png,70,image-keyboard-response,363,461356,0.0-6.0-1.178,2,MASC,f,rechts,23,,,self,f,150,TRUE
null,"<div style=""font-size:60px;"">+</div>",null,html-keyboard-response,364,461657,0.0-6.0-0.179,2,MASC,f,rechts,23,,fixation,,,,
1126,img/90_150.png,70,image-keyboard-response,365,462785,0.0-6.0-1.179,2,MASC,f,rechts,23,,,self,f,90,TRUE
null,"<div style=""font-size:60px;"">+</div>",null,html-keyboard-response,366,463137,0.0-6.0-0.180,2,MASC,f,rechts,23,,fixation,,,,
1162,img/30_270.png,70,image-keyboard-response,367,464300,0.0-6.0-1.180,2,MASC,f,rechts,23,,,self,f,30,TRUE
null,"<div style=""font-size:60px;"">+</div>",null,html-keyboard-response,368,464752,0.0-6.0-0.181,2,MASC,f,rechts,23,,fixation,,,,
930,img/120_180.png,74,image-keyboard-response,369,465684,0.0-6.0-1.181,2,MASC,f,rechts,23,,,self,j,120,TRUE
null,"<div style=""font-size:60px;"">+</div>",null,html-keyboard-response,370,465987,0.0-6.0-0.182,2,MASC,f,rechts,23,,fixation,,,,
949,img/90_180.png,74,image-keyboard-response,371,466937,0.0-6.0-1.182,2,MASC,f,rechts,23,,,self,j,90,TRUE
null,"<div style=""font-size:60px;"">+</div>",null,html-keyboard-response,372,467238,0.0-6.0-0.183,2,MASC,f,rechts,23,,fixation,,,,
876,img/120_150.png,70,image-keyboard-response,373,468116,0.0-6.0-1.183,2,MASC,f,rechts,23,,,self,f,120,TRUE
null,"<div style=""font-size:60px;"">+</div>",null,html-keyboard-response,374,468617,0.0-6.0-0.184,2,MASC,f,rechts,23,,fixation,,,,
649,img/0_30.png,74,image-keyboard-response,375,469268,0.0-6.0-1.184,2,MASC,f,rechts,23,,,self,j,0,TRUE
null,"<div style=""font-size:60px;"">+</div>",null,html-keyboard-response,376,469569,0.0-6.0-0.185,2,MASC,f,rechts,23,,fixation,,,,
1129,img/150_300.png,74,image-keyboard-response,377,470699,0.0-6.0-1.185,2,MASC,f,rechts,23,,,self,j,150,TRUE
null,"<div style=""font-size:60px;"">+</div>",null,html-keyboard-response,378,471201,0.0-6.0-0.186,2,MASC,f,rechts,23,,fixation,,,,
1120,img/30_180.png,74,image-keyboard-response,379,472322,0.0-6.0-1.186,2,MASC,f,rechts,23,,,self,j,30,TRUE
null,"<div style=""font-size:60px;"">+</div>",null,html-keyboard-response,380,472675,0.0-6.0-0.187,2,MASC,f,rechts,23,,fixation,,,,
1176,img/60_30.png,74,image-keyboard-response,381,473853,0.0-6.0-1.187,2,MASC,f,rechts,23,,,self,j,60,TRUE
null,"<div style=""font-size:60px;"">+</div>",null,html-keyboard-response,382,474204,0.0-6.0-0.188,2,MASC,f,rechts,23,,fixation,,,,
851,img/30_60.png,74,image-keyboard-response,383,475056,0.0-6.0-1.188,2,MASC,f,rechts,23,,,self,j,30,TRUE
null,"<div style=""font-size:60px;"">+</div>",null,html-keyboard-response,384,475558,0.0-6.0-0.189,2,MASC,f,rechts,23,,fixation,,,,
979,img/150_270.png,74,image-keyboard-response,385,476538,0.0-6.0-1.189,2,MASC,f,rechts,23,,,self,j,150,TRUE
null,"<div style=""font-size:60px;"">+</div>",null,html-keyboard-response,386,476941,0.0-6.0-0.190,2,MASC,f,rechts,23,,fixation,,,,
992,img/L90_180.png,70,image-keyboard-response,387,477934,0.0-6.0-1.190,2,MASC,f,rechts,23,,,self,f,90,TRUE
null,"<div style=""font-size:60px;"">+</div>",null,html-keyboard-response,388,478386,0.0-6.0-0.191,2,MASC,f,rechts,23,,fixation,,,,
999,img/120_90.png,70,image-keyboard-response,389,479386,0.0-6.0-1.191,2,MASC,f,rechts,23,,,self,f,120,TRUE
null,"<div style=""font-size:60px;"">+</div>",null,html-keyboard-response,390,479838,0.0-6.0-0.192,2,MASC,f,rechts,23,,fixation,,,,
1075,img/150_60.png,70,image-keyboard-response,391,480915,0.0-6.0-1.192,2,MASC,f,rechts,23,,,self,f,150,TRUE
null,"<div style=""font-size:60px;"">+</div>",null,html-keyboard-response,392,481417,0.0-6.0-0.193,2,MASC,f,rechts,23,,fixation,,,,
728,img/0_150.png,74,image-keyboard-response,393,482146,0.0-6.0-1.193,2,MASC,f,rechts,23,,,self,j,0,TRUE
null,"<div style=""font-size:60px;"">+</div>",null,html-keyboard-response,394,482498,0.0-6.0-0.194,2,MASC,f,rechts,23,,fixation,,,,
1233,img/120_210.png,74,image-keyboard-response,395,483732,0.0-6.0-1.194,2,MASC,f,rechts,23,,,self,j,120,TRUE
null,"<div style=""font-size:60px;"">+</div>",null,html-keyboard-response,396,484034,0.0-6.0-0.195,2,MASC,f,rechts,23,,fixation,,,,
755,img/60_180.png,74,image-keyboard-response,397,484790,0.0-6.0-1.195,2,MASC,f,rechts,23,,,self,j,60,TRUE
null,"<div style=""font-size:60px;"">+</div>",null,html-keyboard-response,398,485092,0.0-6.0-0.196,2,MASC,f,rechts,23,,fixation,,,,
701,img/0_300.png,70,image-keyboard-response,399,485794,0.0-6.0-1.196,2,MASC,f,rechts,23,,,self,f,0,TRUE
null,"<div style=""font-size:60px;"">+</div>",null,html-keyboard-response,400,486147,0.0-6.0-0.197,2,MASC,f,rechts,23,,fixation,,,,
922,img/90_210.png,74,image-keyboard-response,401,487070,0.0-6.0-1.197,2,MASC,f,rechts,23,,,self,j,90,TRUE
null,"<div style=""font-size:60px;"">+</div>",null,html-keyboard-response,402,487522,0.0-6.0-0.198,2,MASC,f,rechts,23,,fixation,,,,
689,img/0_60.png,74,image-keyboard-response,403,488212,0.0-6.0-1.198,2,MASC,f,rechts,23,,,self,j,0,TRUE
null,"<div style=""font-size:60px;"">+</div>",null,html-keyboard-response,404,488714,0.0-6.0-0.199,2,MASC,f,rechts,23,,fixation,,,,
745,img/L120_180.png,70,image-keyboard-response,405,489460,0.0-6.0-1.199,2,MASC,f,rechts,23,,,self,f,120,TRUE
null,"<div style=""font-size:60px;"">+</div>",null,html-keyboard-response,406,489862,0.0-6.0-0.200,2,MASC,f,rechts,23,,fixation,,,,
980,img/L60_180.png,70,image-keyboard-response,407,490843,0.0-6.0-1.200,2,MASC,f,rechts,23,,,self,f,60,TRUE
null,"<div style=""font-size:60px;"">+</div>",null,html-keyboard-response,408,491146,0.0-6.0-0.201,2,MASC,f,rechts,23,,fixation,,,,
963,img/30_300.png,70,image-keyboard-response,409,492110,0.0-6.0-1.201,2,MASC,f,rechts,23,,,self,f,30,TRUE
null,"<div style=""font-size:60px;"">+</div>",null,html-keyboard-response,410,492612,0.0-6.0-0.202,2,MASC,f,rechts,23,,fixation,,,,
1161,img/90_120.png,70,image-keyboard-response,411,493774,0.0-6.0-1.202,2,MASC,f,rechts,23,,,self,f,90,TRUE
null,"<div style=""font-size:60px;"">+</div>",null,html-keyboard-response,412,494076,0.0-6.0-0.203,2,MASC,f,rechts,23,,fixation,,,,
1126,img/120_270.png,70,image-keyboard-response,413,495203,0.0-6.0-1.203,2,MASC,f,rechts,23,,,self,j,120,FALSE
null,"<div style=""font-size:60px;"">+</div>",null,html-keyboard-response,414,495705,0.0-6.0-0.204,2,MASC,f,rechts,23,,fixation,,,,
862,img/150_180.png,74,image-keyboard-response,415,496568,0.0-6.0-1.204,2,MASC,f,rechts,23,,,self,j,150,TRUE
null,"<div style=""font-size:60px;"">+</div>",null,html-keyboard-response,416,496920,0.0-6.0-0.205,2,MASC,f,rechts,23,,fixation,,,,
688,img/0_90.png,74,image-keyboard-response,417,497610,0.0-6.0-1.205,2,MASC,f,rechts,23,,,self,j,0,TRUE
null,"<div style=""font-size:60px;"">+</div>",null,html-keyboard-response,418,497913,0.0-6.0-0.206,2,MASC,f,rechts,23,,fixation,,,,
1168,img/90_330.png,70,image-keyboard-response,419,499082,0.0-6.0-1.206,2,MASC,f,rechts,23,,,self,f,90,TRUE
null,"<div style=""font-size:60px;"">+</div>",null,html-keyboard-response,420,499483,0.0-6.0-0.207,2,MASC,f,rechts,23,,fixation,,,,
1163,img/60_150.png,70,image-keyboard-response,421,500647,0.0-6.0-1.207,2,MASC,f,rechts,23,,,self,f,60,TRUE
21908,"<p>Du hast in 94% der Versuche korrekt entschieden.</p><p>Deine durchschnittliche Reaktionszeit war  1009ms.</p><p>Dr&uuml;cke eine beliebige Taste, um die Session zu beenden. Vielen Dank!</p>",74,html-keyboard-response,422,522557,0.0-7.0,2,MASC,f,rechts,23,,,,,,