"rt","stimulus","key_press","trial_type","trial_index","time_elapsed","internal_node_id","subject","session","sex","handedness","age","responses","test_part","condition","correct_response","angle","correct"
"1840","<p>Mental Rotation Experiment.</p> <p>Dr&uuml;cke eine beliebige Taste, um anzufangen.</p>","70","html-keyboard-response","0","1844","0.0-0.0","MASC","1","f","rechts","23","","","","","",""
"2260","","","survey-text","1","4105","0.0-1.0","MASC","1","f","rechts","23","{""Q0"":""MASC""}","","","","",""
"1852","","","survey-text","2","5958","0.0-2.0","MASC","1","f","rechts","23","{""Q0"":""1""}","","","","",""
"3863","","","survey-multi-choice","3","9823","0.0-3.0","MASC","1","f","rechts","23","{""Q0"":""f"",""Q1"":""rechts""}","","","","",""
"1441","","","survey-text","4","11265","0.0-4.0","MASC","1","f","rechts","23","{""Q0"":""23""}","","","","",""
"39941","<p> Stell dir vor, dass du vor einem runden Tisch stehst, auf dem sich ein blauer Ball am Tischrand befindet. Entlang des Tischrands ist jeweils ein verschieden langer Pfeil. Nun bewegst du dich entlang dieses Pfeils bis an seine Spitze. Wenn du am Ende des Pfeils angekommen bist, schau zur Tischmitte. </p> <img src='img/90_180.png'></img> <br> <p>Entscheide dann, ob der Ball von deiner neuen (vorgestellten) Position links oder rechts von dir liegt.</p> <p>Dr&uuml;cke die <strong>'f'</strong>-Taste f&uuml;r links, die <strong>'j'</strong>-Taste f&uuml;r rechts.</p> <br><p> Das Bild wird jeweils 1 Sekunde lang pr&auml;sentiert. Du hast 3 Sekunden Zeit eine Entscheidung zu treffen.</p>","74","html-keyboard-response","5","51208","0.0-5.0","MASC","1","f","rechts","23","","","","","",""
"null","<div style=""font-size:60px;"">+</div>","null","html-keyboard-response","6","52512","0.0-6.0-0.0","MASC","1","f","rechts","23","","fixation","","","",""
"1125","img/L60_180.png","70","image-keyboard-response","7","53638","0.0-6.0-1.0","MASC","1","f","rechts","23","","","self","f","60","true"
"null","<div style=""font-size:60px;"">+</div>","null","html-keyboard-response","8","54089","0.0-6.0-0.1","MASC","1","f","rechts","23","","fixation","","","",""
"834","img/0_240.png","70","image-keyboard-response","9","54924","0.0-6.0-1.1","MASC","1","f","rechts","23","","","self","f","0","true"
"null","<div style=""font-size:60px;"">+</div>","null","html-keyboard-response","10","55226","0.0-6.0-0.2","MASC","1","f","rechts","23","","fixation","","","",""
"671","img/0_60.png","74","image-keyboard-response","11","55898","0.0-6.0-1.2","MASC","1","f","rechts","23","","","self","j","0","true"
"null","<div style=""font-size:60px;"">+</div>","null","html-keyboard-response","12","56199","0.0-6.0-0.3","MASC","1","f","rechts","23","","fixation","","","",""
"1868","img/90_30.png","74","image-keyboard-response","13","58068","0.0-6.0-1.3","MASC","1","f","rechts","23","","","self","j","90","true"
"null","<div style=""font-size:60px;"">+</div>","null","html-keyboard-response","14","58520","0.0-6.0-0.4","MASC","1","f","rechts","23","","fixation","","","",""
"1246","img/120_330.png","74","image-keyboard-response","15","59767","0.0-6.0-1.4","MASC","1","f","rechts","23","","","self","f","120","false"
"null","<div style=""font-size:60px;"">+</div>","null","html-keyboard-response","16","60168","0.0-6.0-0.5","MASC","1","f","rechts","23","","fixation","","","",""
"1256","img/30_300.png","70","image-keyboard-response","17","61426","0.0-6.0-1.5","MASC","1","f","rechts","23","","","self","f","30","true"
"null","<div style=""font-size:60px;"">+</div>","null","html-keyboard-response","18","61828","0.0-6.0-0.6","MASC","1","f","rechts","23","","fixation","","","",""
"1685","img/90_120.png","70","image-keyboard-response","19","63514","0.0-6.0-1.6","MASC","1","f","rechts","23","","","self","f","90","true"
"null","<div style=""font-size:60px;"">+</div>","null","html-keyboard-response","20","63915","0.0-6.0-0.7","MASC","1","f","rechts","23","","fixation","","","",""
"675","img/0_120.png","74","image-keyboard-response","21","64591","0.0-6.0-1.7","MASC","1","f","rechts","23","","","self","j","0","true"
"null","<div style=""font-size:60px;"">+</div>","null","html-keyboard-response","22","64993","0.0-6.0-0.8","MASC","1","f","rechts","23","","fixation","","","",""
"1164","img/60_210.png","74","image-keyboard-response","23","66158","0.0-6.0-1.8","MASC","1","f","rechts","23","","","self","j","60","true"
"null","<div style=""font-size:60px;"">+</div>","null","html-keyboard-response","24","66509","0.0-6.0-0.9","MASC","1","f","rechts","23","","fixation","","","",""
"1289","img/30_270.png","70","image-keyboard-response","25","67800","0.0-6.0-1.9","MASC","1","f","rechts","23","","","self","f","30","true"
"null","<div style=""font-size:60px;"">+</div>","null","html-keyboard-response","26","68301","0.0-6.0-0.10","MASC","1","f","rechts","23","","fixation","","","",""
"1219","img/30_180.png","74","image-keyboard-response","27","69523","0.0-6.0-1.10","MASC","1","f","rechts","23","","","self","j","30","true"
"null","<div style=""font-size:60px;"">+</div>","null","html-keyboard-response","28","69874","0.0-6.0-0.11","MASC","1","f","rechts","23","","fixation","","","",""
"1207","img/150_240.png","74","image-keyboard-response","29","71084","0.0-6.0-1.11","MASC","1","f","rechts","23","","","self","j","150","true"
"null","<div style=""font-size:60px;"">+</div>","null","html-keyboard-response","30","71435","0.0-6.0-0.12","MASC","1","f","rechts","23","","fixation","","","",""
"2218","img/90_300.png","74","image-keyboard-response","31","73655","0.0-6.0-1.12","MASC","1","f","rechts","23","","","self","f","90","false"
"null","<div style=""font-size:60px;"">+</div>","null","html-keyboard-response","32","73957","0.0-6.0-0.13","MASC","1","f","rechts","23","","fixation","","","",""
"1262","img/150_300.png","74","image-keyboard-response","33","75221","0.0-6.0-1.13","MASC","1","f","rechts","23","","","self","j","150","true"
"null","<div style=""font-size:60px;"">+</div>","null","html-keyboard-response","34","75721","0.0-6.0-0.14","MASC","1","f","rechts","23","","fixation","","","",""
"1134","img/150_270.png","74","image-keyboard-response","35","76857","0.0-6.0-1.14","MASC","1","f","rechts","23","","","self","j","150","true"
"null","<div style=""font-size:60px;"">+</div>","null","html-keyboard-response","36","77209","0.0-6.0-0.15","MASC","1","f","rechts","23","","fixation","","","",""
"1177","img/120_210.png","74","image-keyboard-response","37","78388","0.0-6.0-1.15","MASC","1","f","rechts","23","","","self","j","120","true"
"null","<div style=""font-size:60px;"">+</div>","null","html-keyboard-response","38","78789","0.0-6.0-0.16","MASC","1","f","rechts","23","","fixation","","","",""
"753","img/0_30.png","74","image-keyboard-response","39","79544","0.0-6.0-1.16","MASC","1","f","rechts","23","","","self","j","0","true"
"null","<div style=""font-size:60px;"">+</div>","null","html-keyboard-response","40","79895","0.0-6.0-0.17","MASC","1","f","rechts","23","","fixation","","","",""
"1825","img/60_150.png","70","image-keyboard-response","41","81722","0.0-6.0-1.17","MASC","1","f","rechts","23","","","self","f","60","true"
"null","<div style=""font-size:60px;"">+</div>","null","html-keyboard-response","42","82174","0.0-6.0-0.18","MASC","1","f","rechts","23","","fixation","","","",""
"1535","img/60_90.png","74","image-keyboard-response","43","83711","0.0-6.0-1.18","MASC","1","f","rechts","23","","","self","j","60","true"
"null","<div style=""font-size:60px;"">+</div>","null","html-keyboard-response","44","84162","0.0-6.0-0.19","MASC","1","f","rechts","23","","fixation","","","",""
"1327","img/150_90.png","70","image-keyboard-response","45","85490","0.0-6.0-1.19","MASC","1","f","rechts","23","","","self","f","150","true"
"null","<div style=""font-size:60px;"">+</div>","null","html-keyboard-response","46","85892","0.0-6.0-0.20","MASC","1","f","rechts","23","","fixation","","","",""
"1524","img/30_240.png","70","image-keyboard-response","47","87417","0.0-6.0-1.20","MASC","1","f","rechts","23","","","self","f","30","true"
"null","<div style=""font-size:60px;"">+</div>","null","html-keyboard-response","48","87719","0.0-6.0-0.21","MASC","1","f","rechts","23","","fixation","","","",""
"1086","img/90_210.png","74","image-keyboard-response","49","88807","0.0-6.0-1.21","MASC","1","f","rechts","23","","","self","j","90","true"
"null","<div style=""font-size:60px;"">+</div>","null","html-keyboard-response","50","89309","0.0-6.0-0.22","MASC","1","f","rechts","23","","fixation","","","",""
"1471","img/60_30.png","74","image-keyboard-response","51","90781","0.0-6.0-1.22","MASC","1","f","rechts","23","","","self","j","60","true"
"null","<div style=""font-size:60px;"">+</div>","null","html-keyboard-response","52","91233","0.0-6.0-0.23","MASC","1","f","rechts","23","","fixation","","","",""
"1962","img/90_60.png","74","image-keyboard-response","53","93196","0.0-6.0-1.23","MASC","1","f","rechts","23","","","self","j","90","true"
"null","<div style=""font-size:60px;"">+</div>","null","html-keyboard-response","54","93498","0.0-6.0-0.24","MASC","1","f","rechts","23","","fixation","","","",""
"1407","img/60_270.png","70","image-keyboard-response","55","94906","0.0-6.0-1.24","MASC","1","f","rechts","23","","","self","f","60","true"
"null","<div style=""font-size:60px;"">+</div>","null","html-keyboard-response","56","95358","0.0-6.0-0.25","MASC","1","f","rechts","23","","fixation","","","",""
"1288","img/L120_180.png","70","image-keyboard-response","57","96647","0.0-6.0-1.25","MASC","1","f","rechts","23","","","self","f","120","true"
"null","<div style=""font-size:60px;"">+</div>","null","html-keyboard-response","58","97149","0.0-6.0-0.26","MASC","1","f","rechts","23","","fixation","","","",""
"1208","img/90_330.png","70","image-keyboard-response","59","98358","0.0-6.0-1.26","MASC","1","f","rechts","23","","","self","f","90","true"
"null","<div style=""font-size:60px;"">+</div>","null","html-keyboard-response","60","98659","0.0-6.0-0.27","MASC","1","f","rechts","23","","fixation","","","",""
"901","img/0_300.png","70","image-keyboard-response","61","99561","0.0-6.0-1.27","MASC","1","f","rechts","23","","","self","f","0","true"
"null","<div style=""font-size:60px;"">+</div>","null","html-keyboard-response","62","99962","0.0-6.0-0.28","MASC","1","f","rechts","23","","fixation","","","",""
"1214","img/150_180.png","74","image-keyboard-response","63","101177","0.0-6.0-1.28","MASC","1","f","rechts","23","","","self","j","150","true"
"null","<div style=""font-size:60px;"">+</div>","null","html-keyboard-response","64","101479","0.0-6.0-0.29","MASC","1","f","rechts","23","","fixation","","","",""
"1181","img/120_150.png","70","image-keyboard-response","65","102661","0.0-6.0-1.29","MASC","1","f","rechts","23","","","self","f","120","true"
"null","<div style=""font-size:60px;"">+</div>","null","html-keyboard-response","66","102962","0.0-6.0-0.30","MASC","1","f","rechts","23","","fixation","","","",""
"771","img/0_150.png","74","image-keyboard-response","67","103734","0.0-6.0-1.30","MASC","1","f","rechts","23","","","self","j","0","true"
"null","<div style=""font-size:60px;"">+</div>","null","html-keyboard-response","68","104086","0.0-6.0-0.31","MASC","1","f","rechts","23","","fixation","","","",""
"1181","img/30_120.png","74","image-keyboard-response","69","105268","0.0-6.0-1.31","MASC","1","f","rechts","23","","","self","j","30","true"
"null","<div style=""font-size:60px;"">+</div>","null","html-keyboard-response","70","105669","0.0-6.0-0.32","MASC","1","f","rechts","23","","fixation","","","",""
"1133","img/L30_180.png","70","image-keyboard-response","71","106803","0.0-6.0-1.32","MASC","1","f","rechts","23","","","self","f","30","true"
"null","<div style=""font-size:60px;"">+</div>","null","html-keyboard-response","72","107204","0.0-6.0-0.33","MASC","1","f","rechts","23","","fixation","","","",""
"1178","img/90_240.png","74","image-keyboard-response","73","108383","0.0-6.0-1.33","MASC","1","f","rechts","23","","","self","j","90","true"
"null","<div style=""font-size:60px;"">+</div>","null","html-keyboard-response","74","108835","0.0-6.0-0.34","MASC","1","f","rechts","23","","fixation","","","",""
"1160","img/60_330.png","70","image-keyboard-response","75","109996","0.0-6.0-1.34","MASC","1","f","rechts","23","","","self","f","60","true"
"null","<div style=""font-size:60px;"">+</div>","null","html-keyboard-response","76","110348","0.0-6.0-0.35","MASC","1","f","rechts","23","","fixation","","","",""
"1078","img/60_180.png","74","image-keyboard-response","77","111427","0.0-6.0-1.35","MASC","1","f","rechts","23","","","self","j","60","true"
"null","<div style=""font-size:60px;"">+</div>","null","html-keyboard-response","78","111729","0.0-6.0-0.36","MASC","1","f","rechts","23","","fixation","","","",""
"1421","img/90_180.png","74","image-keyboard-response","79","113150","0.0-6.0-1.36","MASC","1","f","rechts","23","","","self","j","90","true"
"null","<div style=""font-size:60px;"">+</div>","null","html-keyboard-response","80","113651","0.0-6.0-0.37","MASC","1","f","rechts","23","","fixation","","","",""
"1696","img/30_60.png","74","image-keyboard-response","81","115349","0.0-6.0-1.37","MASC","1","f","rechts","23","","","self","j","30","true"
"null","<div style=""font-size:60px;"">+</div>","null","html-keyboard-response","82","115700","0.0-6.0-0.38","MASC","1","f","rechts","23","","fixation","","","",""
"1058","img/150_120.png","70","image-keyboard-response","83","116760","0.0-6.0-1.38","MASC","1","f","rechts","23","","","self","f","150","true"
"null","<div style=""font-size:60px;"">+</div>","null","html-keyboard-response","84","117261","0.0-6.0-0.39","MASC","1","f","rechts","23","","fixation","","","",""
"1065","img/0_90.png","74","image-keyboard-response","85","118327","0.0-6.0-1.39","MASC","1","f","rechts","23","","","self","j","0","true"
"null","<div style=""font-size:60px;"">+</div>","null","html-keyboard-response","86","118779","0.0-6.0-0.40","MASC","1","f","rechts","23","","fixation","","","",""
"1134","img/150_60.png","70","image-keyboard-response","87","119915","0.0-6.0-1.40","MASC","1","f","rechts","23","","","self","f","150","true"
"null","<div style=""font-size:60px;"">+</div>","null","html-keyboard-response","88","120416","0.0-6.0-0.41","MASC","1","f","rechts","23","","fixation","","","",""
"1008","img/0_210.png","70","image-keyboard-response","89","121426","0.0-6.0-1.41","MASC","1","f","rechts","23","","","self","f","0","true"
"null","<div style=""font-size:60px;"">+</div>","null","html-keyboard-response","90","121828","0.0-6.0-0.42","MASC","1","f","rechts","23","","fixation","","","",""
"2321","img/120_30.png","74","image-keyboard-response","91","124152","0.0-6.0-1.42","MASC","1","f","rechts","23","","","self","j","120","true"
"null","<div style=""font-size:60px;"">+</div>","null","html-keyboard-response","92","124453","0.0-6.0-0.43","MASC","1","f","rechts","23","","fixation","","","",""
"1162","img/120_180.png","74","image-keyboard-response","93","125617","0.0-6.0-1.43","MASC","1","f","rechts","23","","","self","j","120","true"
"null","<div style=""font-size:60px;"">+</div>","null","html-keyboard-response","94","126068","0.0-6.0-0.44","MASC","1","f","rechts","23","","fixation","","","",""
"1484","img/30_90.png","74","image-keyboard-response","95","127553","0.0-6.0-1.44","MASC","1","f","rechts","23","","","self","j","30","true"
"null","<div style=""font-size:60px;"">+</div>","null","html-keyboard-response","96","127854","0.0-6.0-0.45","MASC","1","f","rechts","23","","fixation","","","",""
"2073","img/L150_180.png","70","image-keyboard-response","97","129929","0.0-6.0-1.45","MASC","1","f","rechts","23","","","self","f","150","true"
"null","<div style=""font-size:60px;"">+</div>","null","html-keyboard-response","98","130231","0.0-6.0-0.46","MASC","1","f","rechts","23","","fixation","","","",""
"1626","img/120_90.png","70","image-keyboard-response","99","131859","0.0-6.0-1.46","MASC","1","f","rechts","23","","","self","f","120","true"
"null","<div style=""font-size:60px;"">+</div>","null","html-keyboard-response","100","132311","0.0-6.0-0.47","MASC","1","f","rechts","23","","fixation","","","",""
"791","img/0_270.png","70","image-keyboard-response","101","133103","0.0-6.0-1.47","MASC","1","f","rechts","23","","","self","f","0","true"
"null","<div style=""font-size:60px;"">+</div>","null","html-keyboard-response","102","133605","0.0-6.0-0.48","MASC","1","f","rechts","23","","fixation","","","",""
"1383","img/120_270.png","74","image-keyboard-response","103","134990","0.0-6.0-1.48","MASC","1","f","rechts","23","","","self","j","120","true"
"null","<div style=""font-size:60px;"">+</div>","null","html-keyboard-response","104","135440","0.0-6.0-0.49","MASC","1","f","rechts","23","","fixation","","","",""
"828","img/0_330.png","70","image-keyboard-response","105","136270","0.0-6.0-1.49","MASC","1","f","rechts","23","","","self","f","0","true"
"null","<div style=""font-size:60px;"">+</div>","null","html-keyboard-response","106","136672","0.0-6.0-0.50","MASC","1","f","rechts","23","","fixation","","","",""
"1190","img/90_150.png","70","image-keyboard-response","107","137863","0.0-6.0-1.50","MASC","1","f","rechts","23","","","self","f","90","true"
"null","<div style=""font-size:60px;"">+</div>","null","html-keyboard-response","108","138365","0.0-6.0-0.51","MASC","1","f","rechts","23","","fixation","","","",""
"1058","img/L90_180.png","70","image-keyboard-response","109","139424","0.0-6.0-1.51","MASC","1","f","rechts","23","","","self","f","90","true"
"null","<div style=""font-size:60px;"">+</div>","null","html-keyboard-response","110","139926","0.0-6.0-0.52","MASC","1","f","rechts","23","","fixation","","","",""
"1932","img/60_270.png","70","image-keyboard-response","111","141859","0.0-6.0-1.52","MASC","1","f","rechts","23","","","self","f","60","true"
"null","<div style=""font-size:60px;"">+</div>","null","html-keyboard-response","112","142160","0.0-6.0-0.53","MASC","1","f","rechts","23","","fixation","","","",""
"2182","img/L90_180.png","70","image-keyboard-response","113","144343","0.0-6.0-1.53","MASC","1","f","rechts","23","","","self","f","90","true"
"null","<div style=""font-size:60px;"">+</div>","null","html-keyboard-response","114","144845","0.0-6.0-0.54","MASC","1","f","rechts","23","","fixation","","","",""
"1562","img/L60_180.png","70","image-keyboard-response","115","146407","0.0-6.0-1.54","MASC","1","f","rechts","23","","","self","f","60","true"
"null","<div style=""font-size:60px;"">+</div>","null","html-keyboard-response","116","146858","0.0-6.0-0.55","MASC","1","f","rechts","23","","fixation","","","",""
"1644","img/30_270.png","70","image-keyboard-response","117","148503","0.0-6.0-1.55","MASC","1","f","rechts","23","","","self","f","30","true"
"null","<div style=""font-size:60px;"">+</div>","null","html-keyboard-response","118","149005","0.0-6.0-0.56","MASC","1","f","rechts","23","","fixation","","","",""
"1402","img/120_210.png","74","image-keyboard-response","119","150408","0.0-6.0-1.56","MASC","1","f","rechts","23","","","self","j","120","true"
"null","<div style=""font-size:60px;"">+</div>","null","html-keyboard-response","120","150709","0.0-6.0-0.57","MASC","1","f","rechts","23","","fixation","","","",""
"1208","img/90_210.png","74","image-keyboard-response","121","151918","0.0-6.0-1.57","MASC","1","f","rechts","23","","","self","j","90","true"
"null","<div style=""font-size:60px;"">+</div>","null","html-keyboard-response","122","152420","0.0-6.0-0.58","MASC","1","f","rechts","23","","fixation","","","",""
"843","img/0_90.png","74","image-keyboard-response","123","153263","0.0-6.0-1.58","MASC","1","f","rechts","23","","","self","j","0","true"
"null","<div style=""font-size:60px;"">+</div>","null","html-keyboard-response","124","153565","0.0-6.0-0.59","MASC","1","f","rechts","23","","fixation","","","",""
"1891","img/30_240.png","74","image-keyboard-response","125","155456","0.0-6.0-1.59","MASC","1","f","rechts","23","","","self","f","30","false"
"null","<div style=""font-size:60px;"">+</div>","null","html-keyboard-response","126","155758","0.0-6.0-0.60","MASC","1","f","rechts","23","","fixation","","","",""
"1662","img/90_60.png","70","image-keyboard-response","127","157421","0.0-6.0-1.60","MASC","1","f","rechts","23","","","self","j","90","false"
"null","<div style=""font-size:60px;"">+</div>","null","html-keyboard-response","128","157773","0.0-6.0-0.61","MASC","1","f","rechts","23","","fixation","","","",""
"1689","img/0_240.png","70","image-keyboard-response","129","159463","0.0-6.0-1.61","MASC","1","f","rechts","23","","","self","f","0","true"
"null","<div style=""font-size:60px;"">+</div>","null","html-keyboard-response","130","159864","0.0-6.0-0.62","MASC","1","f","rechts","23","","fixation","","","",""
"1076","img/30_90.png","74","image-keyboard-response","131","160941","0.0-6.0-1.62","MASC","1","f","rechts","23","","","self","j","30","true"
"null","<div style=""font-size:60px;"">+</div>","null","html-keyboard-response","132","161392","0.0-6.0-0.63","MASC","1","f","rechts","23","","fixation","","","",""
"1363","img/150_60.png","70","image-keyboard-response","133","162756","0.0-6.0-1.63","MASC","1","f","rechts","23","","","self","f","150","true"
"null","<div style=""font-size:60px;"">+</div>","null","html-keyboard-response","134","163208","0.0-6.0-0.64","MASC","1","f","rechts","23","","fixation","","","",""
"1080","img/120_180.png","74","image-keyboard-response","135","164288","0.0-6.0-1.64","MASC","1","f","rechts","23","","","self","j","120","true"
"null","<div style=""font-size:60px;"">+</div>","null","html-keyboard-response","136","164740","0.0-6.0-0.65","MASC","1","f","rechts","23","","fixation","","","",""
"1262","img/150_270.png","74","image-keyboard-response","137","166004","0.0-6.0-1.65","MASC","1","f","rechts","23","","","self","j","150","true"
"null","<div style=""font-size:60px;"">+</div>","null","html-keyboard-response","138","166456","0.0-6.0-0.66","MASC","1","f","rechts","23","","fixation","","","",""
"1283","img/60_330.png","70","image-keyboard-response","139","167739","0.0-6.0-1.66","MASC","1","f","rechts","23","","","self","f","60","true"
"null","<div style=""font-size:60px;"">+</div>","null","html-keyboard-response","140","168141","0.0-6.0-0.67","MASC","1","f","rechts","23","","fixation","","","",""
"1207","img/90_120.png","70","image-keyboard-response","141","169350","0.0-6.0-1.67","MASC","1","f","rechts","23","","","self","f","90","true"
"null","<div style=""font-size:60px;"">+</div>","null","html-keyboard-response","142","169701","0.0-6.0-0.68","MASC","1","f","rechts","23","","fixation","","","",""
"761","img/0_330.png","70","image-keyboard-response","143","170464","0.0-6.0-1.68","MASC","1","f","rechts","23","","","self","f","0","true"
"null","<div style=""font-size:60px;"">+</div>","null","html-keyboard-response","144","170815","0.0-6.0-0.69","MASC","1","f","rechts","23","","fixation","","","",""
"1048","img/60_210.png","74","image-keyboard-response","145","171864","0.0-6.0-1.69","MASC","1","f","rechts","23","","","self","j","60","true"
"null","<div style=""font-size:60px;"">+</div>","null","html-keyboard-response","146","172316","0.0-6.0-0.70","MASC","1","f","rechts","23","","fixation","","","",""
"1533","img/90_300.png","70","image-keyboard-response","147","173850","0.0-6.0-1.70","MASC","1","f","rechts","23","","","self","f","90","true"
"null","<div style=""font-size:60px;"">+</div>","null","html-keyboard-response","148","174151","0.0-6.0-0.71","MASC","1","f","rechts","23","","fixation","","","",""
"1671","img/120_330.png","70","image-keyboard-response","149","175823","0.0-6.0-1.71","MASC","1","f","rechts","23","","","self","f","120","true"
"null","<div style=""font-size:60px;"">+</div>","null","html-keyboard-response","150","176175","0.0-6.0-0.72","MASC","1","f","rechts","23","","fixation","","","",""
"1205","img/60_150.png","70","image-keyboard-response","151","177380","0.0-6.0-1.72","MASC","1","f","rechts","23","","","self","f","60","true"
"null","<div style=""font-size:60px;"">+</div>","null","html-keyboard-response","152","177882","0.0-6.0-0.73","MASC","1","f","rechts","23","","fixation","","","",""
"951","img/60_180.png","74","image-keyboard-response","153","178834","0.0-6.0-1.73","MASC","1","f","rechts","23","","","self","j","60","true"
"null","<div style=""font-size:60px;"">+</div>","null","html-keyboard-response","154","179136","0.0-6.0-0.74","MASC","1","f","rechts","23","","fixation","","","",""
"1071","img/120_150.png","70","image-keyboard-response","155","180208","0.0-6.0-1.74","MASC","1","f","rechts","23","","","self","f","120","true"
"null","<div style=""font-size:60px;"">+</div>","null","html-keyboard-response","156","180510","0.0-6.0-0.75","MASC","1","f","rechts","23","","fixation","","","",""
"1201","img/30_300.png","70","image-keyboard-response","157","181712","0.0-6.0-1.75","MASC","1","f","rechts","23","","","self","f","30","true"
"null","<div style=""font-size:60px;"">+</div>","null","html-keyboard-response","158","182014","0.0-6.0-0.76","MASC","1","f","rechts","23","","fixation","","","",""
"2173","img/150_300.png","70","image-keyboard-response","159","184188","0.0-6.0-1.76","MASC","1","f","rechts","23","","","self","j","150","false"
"null","<div style=""font-size:60px;"">+</div>","null","html-keyboard-response","160","184640","0.0-6.0-0.77","MASC","1","f","rechts","23","","fixation","","","",""
"998","img/L30_180.png","70","image-keyboard-response","161","185638","0.0-6.0-1.77","MASC","1","f","rechts","23","","","self","f","30","true"
"null","<div style=""font-size:60px;"">+</div>","null","html-keyboard-response","162","186040","0.0-6.0-0.78","MASC","1","f","rechts","23","","fixation","","","",""
"706","img/0_30.png","74","image-keyboard-response","163","186747","0.0-6.0-1.78","MASC","1","f","rechts","23","","","self","j","0","true"
"null","<div style=""font-size:60px;"">+</div>","null","html-keyboard-response","164","187099","0.0-6.0-0.79","MASC","1","f","rechts","23","","fixation","","","",""
"1325","img/30_120.png","74","image-keyboard-response","165","188424","0.0-6.0-1.79","MASC","1","f","rechts","23","","","self","j","30","true"
"null","<div style=""font-size:60px;"">+</div>","null","html-keyboard-response","166","188876","0.0-6.0-0.80","MASC","1","f","rechts","23","","fixation","","","",""
"2004","img/60_30.png","74","image-keyboard-response","167","190881","0.0-6.0-1.80","MASC","1","f","rechts","23","","","self","j","60","true"
"null","<div style=""font-size:60px;"">+</div>","null","html-keyboard-response","168","191233","0.0-6.0-0.81","MASC","1","f","rechts","23","","fixation","","","",""
"747","img/0_150.png","74","image-keyboard-response","169","191981","0.0-6.0-1.81","MASC","1","f","rechts","23","","","self","j","0","true"
"null","<div style=""font-size:60px;"">+</div>","null","html-keyboard-response","170","192483","0.0-6.0-0.82","MASC","1","f","rechts","23","","fixation","","","",""
"725","img/0_210.png","70","image-keyboard-response","171","193208","0.0-6.0-1.82","MASC","1","f","rechts","23","","","self","f","0","true"
"null","<div style=""font-size:60px;"">+</div>","null","html-keyboard-response","172","193660","0.0-6.0-0.83","MASC","1","f","rechts","23","","fixation","","","",""
"1484","img/90_150.png","70","image-keyboard-response","173","195144","0.0-6.0-1.83","MASC","1","f","rechts","23","","","self","f","90","true"
"null","<div style=""font-size:60px;"">+</div>","null","html-keyboard-response","174","195546","0.0-6.0-0.84","MASC","1","f","rechts","23","","fixation","","","",""
"682","img/0_300.png","70","image-keyboard-response","175","196229","0.0-6.0-1.84","MASC","1","f","rechts","23","","","self","f","0","true"
"null","<div style=""font-size:60px;"">+</div>","null","html-keyboard-response","176","196631","0.0-6.0-0.85","MASC","1","f","rechts","23","","fixation","","","",""
"1195","img/L150_180.png","70","image-keyboard-response","177","197827","0.0-6.0-1.85","MASC","1","f","rechts","23","","","self","f","150","true"
"null","<div style=""font-size:60px;"">+</div>","null","html-keyboard-response","178","198129","0.0-6.0-0.86","MASC","1","f","rechts","23","","fixation","","","",""
"1478","img/90_30.png","74","image-keyboard-response","179","199607","0.0-6.0-1.86","MASC","1","f","rechts","23","","","self","j","90","true"
"null","<div style=""font-size:60px;"">+</div>","null","html-keyboard-response","180","199959","0.0-6.0-0.87","MASC","1","f","rechts","23","","fixation","","","",""
"1345","img/30_180.png","74","image-keyboard-response","181","201304","0.0-6.0-1.87","MASC","1","f","rechts","23","","","self","j","30","true"
"null","<div style=""font-size:60px;"">+</div>","null","html-keyboard-response","182","201755","0.0-6.0-0.88","MASC","1","f","rechts","23","","fixation","","","",""
"1224","img/120_90.png","70","image-keyboard-response","183","202980","0.0-6.0-1.88","MASC","1","f","rechts","23","","","self","f","120","true"
"null","<div style=""font-size:60px;"">+</div>","null","html-keyboard-response","184","203282","0.0-6.0-0.89","MASC","1","f","rechts","23","","fixation","","","",""
"1518","img/150_180.png","74","image-keyboard-response","185","204801","0.0-6.0-1.89","MASC","1","f","rechts","23","","","self","j","150","true"
"null","<div style=""font-size:60px;"">+</div>","null","html-keyboard-response","186","205101","0.0-6.0-0.90","MASC","1","f","rechts","23","","fixation","","","",""
"1671","img/L120_180.png","70","image-keyboard-response","187","206773","0.0-6.0-1.90","MASC","1","f","rechts","23","","","self","f","120","true"
"null","<div style=""font-size:60px;"">+</div>","null","html-keyboard-response","188","207175","0.0-6.0-0.91","MASC","1","f","rechts","23","","fixation","","","",""
"2543","img/30_60.png","74","image-keyboard-response","189","209718","0.0-6.0-1.91","MASC","1","f","rechts","23","","","self","j","30","true"
"null","<div style=""font-size:60px;"">+</div>","null","html-keyboard-response","190","210020","0.0-6.0-0.92","MASC","1","f","rechts","23","","fixation","","","",""
"1203","img/90_330.png","70","image-keyboard-response","191","211224","0.0-6.0-1.92","MASC","1","f","rechts","23","","","self","f","90","true"
"null","<div style=""font-size:60px;"">+</div>","null","html-keyboard-response","192","211575","0.0-6.0-0.93","MASC","1","f","rechts","23","","fixation","","","",""
"2106","img/90_180.png","74","image-keyboard-response","193","213683","0.0-6.0-1.93","MASC","1","f","rechts","23","","","self","j","90","true"
"null","<div style=""font-size:60px;"">+</div>","null","html-keyboard-response","194","213984","0.0-6.0-0.94","MASC","1","f","rechts","23","","fixation","","","",""
"971","img/0_270.png","70","image-keyboard-response","195","214956","0.0-6.0-1.94","MASC","1","f","rechts","23","","","self","f","0","true"
"null","<div style=""font-size:60px;"">+</div>","null","html-keyboard-response","196","215257","0.0-6.0-0.95","MASC","1","f","rechts","23","","fixation","","","",""
"1686","img/0_120.png","74","image-keyboard-response","197","216944","0.0-6.0-1.95","MASC","1","f","rechts","23","","","self","j","0","true"
"null","<div style=""font-size:60px;"">+</div>","null","html-keyboard-response","198","217296","0.0-6.0-0.96","MASC","1","f","rechts","23","","fixation","","","",""
"1289","img/150_90.png","70","image-keyboard-response","199","218586","0.0-6.0-1.96","MASC","1","f","rechts","23","","","self","f","150","true"
"null","<div style=""font-size:60px;"">+</div>","null","html-keyboard-response","200","218987","0.0-6.0-0.97","MASC","1","f","rechts","23","","fixation","","","",""
"1266","img/90_240.png","74","image-keyboard-response","201","220254","0.0-6.0-1.97","MASC","1","f","rechts","23","","","self","j","90","true"
"null","<div style=""font-size:60px;"">+</div>","null","html-keyboard-response","202","220706","0.0-6.0-0.98","MASC","1","f","rechts","23","","fixation","","","",""
"1205","img/150_120.png","70","image-keyboard-response","203","221913","0.0-6.0-1.98","MASC","1","f","rechts","23","","","self","f","150","true"
"null","<div style=""font-size:60px;"">+</div>","null","html-keyboard-response","204","222264","0.0-6.0-0.99","MASC","1","f","rechts","23","","fixation","","","",""
"1611","img/120_30.png","70","image-keyboard-response","205","223877","0.0-6.0-1.99","MASC","1","f","rechts","23","","","self","j","120","false"
"null","<div style=""font-size:60px;"">+</div>","null","html-keyboard-response","206","224228","0.0-6.0-0.100","MASC","1","f","rechts","23","","fixation","","","",""
"1154","img/150_240.png","74","image-keyboard-response","207","225383","0.0-6.0-1.100","MASC","1","f","rechts","23","","","self","j","150","true"
"null","<div style=""font-size:60px;"">+</div>","null","html-keyboard-response","208","225735","0.0-6.0-0.101","MASC","1","f","rechts","23","","fixation","","","",""
"1381","img/120_270.png","74","image-keyboard-response","209","227117","0.0-6.0-1.101","MASC","1","f","rechts","23","","","self","j","120","true"
"null","<div style=""font-size:60px;"">+</div>","null","html-keyboard-response","210","227418","0.0-6.0-0.102","MASC","1","f","rechts","23","","fixation","","","",""
"807","img/0_60.png","74","image-keyboard-response","211","228226","0.0-6.0-1.102","MASC","1","f","rechts","23","","","self","j","0","true"
"null","<div style=""font-size:60px;"">+</div>","null","html-keyboard-response","212","228728","0.0-6.0-0.103","MASC","1","f","rechts","23","","fixation","","","",""
"1344","img/60_90.png","74","image-keyboard-response","213","230074","0.0-6.0-1.103","MASC","1","f","rechts","23","","","self","j","60","true"
"null","<div style=""font-size:60px;"">+</div>","null","html-keyboard-response","214","230525","0.0-6.0-0.104","MASC","1","f","rechts","23","","fixation","","","",""
"1458","img/30_60.png","74","image-keyboard-response","215","231984","0.0-6.0-1.104","MASC","1","f","rechts","23","","","self","j","30","true"
"null","<div style=""font-size:60px;"">+</div>","null","html-keyboard-response","216","232436","0.0-6.0-0.105","MASC","1","f","rechts","23","","fixation","","","",""
"1312","img/60_180.png","74","image-keyboard-response","217","233749","0.0-6.0-1.105","MASC","1","f","rechts","23","","","self","j","60","true"
"null","<div style=""font-size:60px;"">+</div>","null","html-keyboard-response","218","234151","0.0-6.0-0.106","MASC","1","f","rechts","23","","fixation","","","",""
"1509","img/60_90.png","74","image-keyboard-response","219","235660","0.0-6.0-1.106","MASC","1","f","rechts","23","","","self","j","60","true"
"null","<div style=""font-size:60px;"">+</div>","null","html-keyboard-response","220","236062","0.0-6.0-0.107","MASC","1","f","rechts","23","","fixation","","","",""
"1785","img/120_180.png","74","image-keyboard-response","221","237848","0.0-6.0-1.107","MASC","1","f","rechts","23","","","self","j","120","true"
"null","<div style=""font-size:60px;"">+</div>","null","html-keyboard-response","222","238150","0.0-6.0-0.108","MASC","1","f","rechts","23","","fixation","","","",""
"768","img/0_150.png","74","image-keyboard-response","223","238918","0.0-6.0-1.108","MASC","1","f","rechts","23","","","self","j","0","true"
"null","<div style=""font-size:60px;"">+</div>","null","html-keyboard-response","224","239320","0.0-6.0-0.109","MASC","1","f","rechts","23","","fixation","","","",""
"1258","img/150_90.png","70","image-keyboard-response","225","240579","0.0-6.0-1.109","MASC","1","f","rechts","23","","","self","f","150","true"
"null","<div style=""font-size:60px;"">+</div>","null","html-keyboard-response","226","240881","0.0-6.0-0.110","MASC","1","f","rechts","23","","fixation","","","",""
"1301","img/90_330.png","70","image-keyboard-response","227","242182","0.0-6.0-1.110","MASC","1","f","rechts","23","","","self","f","90","true"
"null","<div style=""font-size:60px;"">+</div>","null","html-keyboard-response","228","242634","0.0-6.0-0.111","MASC","1","f","rechts","23","","fixation","","","",""
"1330","img/30_240.png","70","image-keyboard-response","229","243964","0.0-6.0-1.111","MASC","1","f","rechts","23","","","self","f","30","true"
"null","<div style=""font-size:60px;"">+</div>","null","html-keyboard-response","230","244366","0.0-6.0-0.112","MASC","1","f","rechts","23","","fixation","","","",""
"785","img/0_210.png","70","image-keyboard-response","231","245151","0.0-6.0-1.112","MASC","1","f","rechts","23","","","self","f","0","true"
"null","<div style=""font-size:60px;"">+</div>","null","html-keyboard-response","232","245551","0.0-6.0-0.113","MASC","1","f","rechts","23","","fixation","","","",""
"1831","img/L120_180.png","70","image-keyboard-response","233","247383","0.0-6.0-1.113","MASC","1","f","rechts","23","","","self","f","120","true"
"null","<div style=""font-size:60px;"">+</div>","null","html-keyboard-response","234","247884","0.0-6.0-0.114","MASC","1","f","rechts","23","","fixation","","","",""
"631","img/0_90.png","74","image-keyboard-response","235","248516","0.0-6.0-1.114","MASC","1","f","rechts","23","","","self","j","0","true"
"null","<div style=""font-size:60px;"">+</div>","null","html-keyboard-response","236","248818","0.0-6.0-0.115","MASC","1","f","rechts","23","","fixation","","","",""
"2185","img/120_330.png","70","image-keyboard-response","237","251003","0.0-6.0-1.115","MASC","1","f","rechts","23","","","self","f","120","true"
"null","<div style=""font-size:60px;"">+</div>","null","html-keyboard-response","238","251455","0.0-6.0-0.116","MASC","1","f","rechts","23","","fixation","","","",""
"1696","img/60_210.png","74","image-keyboard-response","239","253151","0.0-6.0-1.116","MASC","1","f","rechts","23","","","self","j","60","true"
"null","<div style=""font-size:60px;"">+</div>","null","html-keyboard-response","240","253602","0.0-6.0-0.117","MASC","1","f","rechts","23","","fixation","","","",""
"755","img/0_60.png","74","image-keyboard-response","241","254357","0.0-6.0-1.117","MASC","1","f","rechts","23","","","self","j","0","true"
"null","<div style=""font-size:60px;"">+</div>","null","html-keyboard-response","242","254709","0.0-6.0-0.118","MASC","1","f","rechts","23","","fixation","","","",""
"2258","img/120_210.png","74","image-keyboard-response","243","256968","0.0-6.0-1.118","MASC","1","f","rechts","23","","","self","j","120","true"
"null","<div style=""font-size:60px;"">+</div>","null","html-keyboard-response","244","257370","0.0-6.0-0.119","MASC","1","f","rechts","23","","fixation","","","",""
"1581","img/150_300.png","74","image-keyboard-response","245","258952","0.0-6.0-1.119","MASC","1","f","rechts","23","","","self","j","150","true"
"null","<div style=""font-size:60px;"">+</div>","null","html-keyboard-response","246","259304","0.0-6.0-0.120","MASC","1","f","rechts","23","","fixation","","","",""
"1371","img/30_120.png","74","image-keyboard-response","247","260676","0.0-6.0-1.120","MASC","1","f","rechts","23","","","self","j","30","true"
"null","<div style=""font-size:60px;"">+</div>","null","html-keyboard-response","248","260977","0.0-6.0-0.121","MASC","1","f","rechts","23","","fixation","","","",""
"1621","img/L90_180.png","70","image-keyboard-response","249","262599","0.0-6.0-1.121","MASC","1","f","rechts","23","","","self","f","90","true"
"null","<div style=""font-size:60px;"">+</div>","null","html-keyboard-response","250","263101","0.0-6.0-0.122","MASC","1","f","rechts","23","","fixation","","","",""
"1075","img/L30_180.png","70","image-keyboard-response","251","264176","0.0-6.0-1.122","MASC","1","f","rechts","23","","","self","f","30","true"
"null","<div style=""font-size:60px;"">+</div>","null","html-keyboard-response","252","264578","0.0-6.0-0.123","MASC","1","f","rechts","23","","fixation","","","",""
"1558","img/150_120.png","70","image-keyboard-response","253","266136","0.0-6.0-1.123","MASC","1","f","rechts","23","","","self","f","150","true"
"null","<div style=""font-size:60px;"">+</div>","null","html-keyboard-response","254","266638","0.0-6.0-0.124","MASC","1","f","rechts","23","","fixation","","","",""
"687","img/0_300.png","70","image-keyboard-response","255","267326","0.0-6.0-1.124","MASC","1","f","rechts","23","","","self","f","0","true"
"null","<div style=""font-size:60px;"">+</div>","null","html-keyboard-response","256","267677","0.0-6.0-0.125","MASC","1","f","rechts","23","","fixation","","","",""
"1192","img/120_90.png","70","image-keyboard-response","257","268871","0.0-6.0-1.125","MASC","1","f","rechts","23","","","self","f","120","true"
"null","<div style=""font-size:60px;"">+</div>","null","html-keyboard-response","258","269322","0.0-6.0-0.126","MASC","1","f","rechts","23","","fixation","","","",""
"null","img/150_270.png","null","image-keyboard-response","259","272325","0.0-6.0-1.126","MASC","1","f","rechts","23","","","self","j","150","false"
"null","<div style=""font-size:60px;"">+</div>","null","html-keyboard-response","260","272777","0.0-6.0-0.127","MASC","1","f","rechts","23","","fixation","","","",""
"null","img/30_270.png","null","image-keyboard-response","261","275779","0.0-6.0-1.127","MASC","1","f","rechts","23","","","self","f","30","false"
"null","<div style=""font-size:60px;"">+</div>","null","html-keyboard-response","262","276131","0.0-6.0-0.128","MASC","1","f","rechts","23","","fixation","","","",""
"844","img/0_30.png","74","image-keyboard-response","263","276977","0.0-6.0-1.128","MASC","1","f","rechts","23","","","self","j","0","true"
"null","<div style=""font-size:60px;"">+</div>","null","html-keyboard-response","264","277328","0.0-6.0-0.129","MASC","1","f","rechts","23","","fixation","","","",""
"727","img/0_330.png","70","image-keyboard-response","265","278056","0.0-6.0-1.129","MASC","1","f","rechts","23","","","self","f","0","true"
"null","<div style=""font-size:60px;"">+</div>","null","html-keyboard-response","266","278458","0.0-6.0-0.130","MASC","1","f","rechts","23","","fixation","","","",""
"2526","img/90_180.png","70","image-keyboard-response","267","280985","0.0-6.0-1.130","MASC","1","f","rechts","23","","","self","j","90","false"
"null","<div style=""font-size:60px;"">+</div>","null","html-keyboard-response","268","281437","0.0-6.0-0.131","MASC","1","f","rechts","23","","fixation","","","",""
"1695","img/120_270.png","74","image-keyboard-response","269","283134","0.0-6.0-1.131","MASC","1","f","rechts","23","","","self","j","120","true"
"null","<div style=""font-size:60px;"">+</div>","null","html-keyboard-response","270","283585","0.0-6.0-0.132","MASC","1","f","rechts","23","","fixation","","","",""
"733","img/0_240.png","70","image-keyboard-response","271","284320","0.0-6.0-1.132","MASC","1","f","rechts","23","","","self","f","0","true"
"null","<div style=""font-size:60px;"">+</div>","null","html-keyboard-response","272","284671","0.0-6.0-0.133","MASC","1","f","rechts","23","","fixation","","","",""
"2384","img/30_180.png","74","image-keyboard-response","273","287057","0.0-6.0-1.133","MASC","1","f","rechts","23","","","self","j","30","true"
"null","<div style=""font-size:60px;"">+</div>","null","html-keyboard-response","274","287458","0.0-6.0-0.134","MASC","1","f","rechts","23","","fixation","","","",""
"1266","img/L150_180.png","70","image-keyboard-response","275","288725","0.0-6.0-1.134","MASC","1","f","rechts","23","","","self","f","150","true"
"null","<div style=""font-size:60px;"">+</div>","null","html-keyboard-response","276","289127","0.0-6.0-0.135","MASC","1","f","rechts","23","","fixation","","","",""
"2363","img/60_270.png","70","image-keyboard-response","277","291491","0.0-6.0-1.135","MASC","1","f","rechts","23","","","self","f","60","true"
"null","<div style=""font-size:60px;"">+</div>","null","html-keyboard-response","278","291792","0.0-6.0-0.136","MASC","1","f","rechts","23","","fixation","","","",""
"2524","img/90_30.png","70","image-keyboard-response","279","294317","0.0-6.0-1.136","MASC","1","f","rechts","23","","","self","j","90","false"
"null","<div style=""font-size:60px;"">+</div>","null","html-keyboard-response","280","294619","0.0-6.0-0.137","MASC","1","f","rechts","23","","fixation","","","",""
"1728","img/150_180.png","70","image-keyboard-response","281","296348","0.0-6.0-1.137","MASC","1","f","rechts","23","","","self","j","150","false"
"null","<div style=""font-size:60px;"">+</div>","null","html-keyboard-response","282","296699","0.0-6.0-0.138","MASC","1","f","rechts","23","","fixation","","","",""
"2402","img/90_210.png","74","image-keyboard-response","283","299102","0.0-6.0-1.138","MASC","1","f","rechts","23","","","self","j","90","true"
"null","<div style=""font-size:60px;"">+</div>","null","html-keyboard-response","284","299504","0.0-6.0-0.139","MASC","1","f","rechts","23","","fixation","","","",""
"1227","img/90_120.png","70","image-keyboard-response","285","300732","0.0-6.0-1.139","MASC","1","f","rechts","23","","","self","f","90","true"
"null","<div style=""font-size:60px;"">+</div>","null","html-keyboard-response","286","301184","0.0-6.0-0.140","MASC","1","f","rechts","23","","fixation","","","",""
"1064","img/90_150.png","70","image-keyboard-response","287","302249","0.0-6.0-1.140","MASC","1","f","rechts","23","","","self","f","90","true"
"null","<div style=""font-size:60px;"">+</div>","null","html-keyboard-response","288","302650","0.0-6.0-0.141","MASC","1","f","rechts","23","","fixation","","","",""
"2332","img/90_300.png","70","image-keyboard-response","289","304983","0.0-6.0-1.141","MASC","1","f","rechts","23","","","self","f","90","true"
"null","<div style=""font-size:60px;"">+</div>","null","html-keyboard-response","290","305435","0.0-6.0-0.142","MASC","1","f","rechts","23","","fixation","","","",""
"1156","img/60_150.png","74","image-keyboard-response","291","306591","0.0-6.0-1.142","MASC","1","f","rechts","23","","","self","f","60","false"
"null","<div style=""font-size:60px;"">+</div>","null","html-keyboard-response","292","306892","0.0-6.0-0.143","MASC","1","f","rechts","23","","fixation","","","",""
"2128","img/120_30.png","70","image-keyboard-response","293","309021","0.0-6.0-1.143","MASC","1","f","rechts","23","","","self","j","120","false"
"null","<div style=""font-size:60px;"">+</div>","null","html-keyboard-response","294","309473","0.0-6.0-0.144","MASC","1","f","rechts","23","","fixation","","","",""
"1739","img/60_330.png","70","image-keyboard-response","295","311212","0.0-6.0-1.144","MASC","1","f","rechts","23","","","self","f","60","true"
"null","<div style=""font-size:60px;"">+</div>","null","html-keyboard-response","296","311513","0.0-6.0-0.145","MASC","1","f","rechts","23","","fixation","","","",""
"1915","img/30_300.png","70","image-keyboard-response","297","313429","0.0-6.0-1.145","MASC","1","f","rechts","23","","","self","f","30","true"
"null","<div style=""font-size:60px;"">+</div>","null","html-keyboard-response","298","313881","0.0-6.0-0.146","MASC","1","f","rechts","23","","fixation","","","",""
"1562","img/30_90.png","74","image-keyboard-response","299","315443","0.0-6.0-1.146","MASC","1","f","rechts","23","","","self","j","30","true"
"null","<div style=""font-size:60px;"">+</div>","null","html-keyboard-response","300","315895","0.0-6.0-0.147","MASC","1","f","rechts","23","","fixation","","","",""
"1232","img/150_60.png","70","image-keyboard-response","301","317128","0.0-6.0-1.147","MASC","1","f","rechts","23","","","self","f","150","true"
"null","<div style=""font-size:60px;"">+</div>","null","html-keyboard-response","302","317630","0.0-6.0-0.148","MASC","1","f","rechts","23","","fixation","","","",""
"1500","img/90_60.png","74","image-keyboard-response","303","319130","0.0-6.0-1.148","MASC","1","f","rechts","23","","","self","j","90","true"
"null","<div style=""font-size:60px;"">+</div>","null","html-keyboard-response","304","319631","0.0-6.0-0.149","MASC","1","f","rechts","23","","fixation","","","",""
"1175","img/90_240.png","74","image-keyboard-response","305","320808","0.0-6.0-1.149","MASC","1","f","rechts","23","","","self","j","90","true"
"null","<div style=""font-size:60px;"">+</div>","null","html-keyboard-response","306","321109","0.0-6.0-0.150","MASC","1","f","rechts","23","","fixation","","","",""
"719","img/0_120.png","74","image-keyboard-response","307","321829","0.0-6.0-1.150","MASC","1","f","rechts","23","","","self","j","0","true"
"null","<div style=""font-size:60px;"">+</div>","null","html-keyboard-response","308","322181","0.0-6.0-0.151","MASC","1","f","rechts","23","","fixation","","","",""
"777","img/0_270.png","70","image-keyboard-response","309","322959","0.0-6.0-1.151","MASC","1","f","rechts","23","","","self","f","0","true"
"null","<div style=""font-size:60px;"">+</div>","null","html-keyboard-response","310","323410","0.0-6.0-0.152","MASC","1","f","rechts","23","","fixation","","","",""
"1444","img/60_30.png","74","image-keyboard-response","311","324856","0.0-6.0-1.152","MASC","1","f","rechts","23","","","self","j","60","true"
"null","<div style=""font-size:60px;"">+</div>","null","html-keyboard-response","312","325307","0.0-6.0-0.153","MASC","1","f","rechts","23","","fixation","","","",""
"1700","img/150_240.png","74","image-keyboard-response","313","327009","0.0-6.0-1.153","MASC","1","f","rechts","23","","","self","j","150","true"
"null","<div style=""font-size:60px;"">+</div>","null","html-keyboard-response","314","327410","0.0-6.0-0.154","MASC","1","f","rechts","23","","fixation","","","",""
"1104","img/L60_180.png","70","image-keyboard-response","315","328516","0.0-6.0-1.154","MASC","1","f","rechts","23","","","self","f","60","true"
"null","<div style=""font-size:60px;"">+</div>","null","html-keyboard-response","316","329017","0.0-6.0-0.155","MASC","1","f","rechts","23","","fixation","","","",""
"1356","img/120_150.png","70","image-keyboard-response","317","330375","0.0-6.0-1.155","MASC","1","f","rechts","23","","","self","f","120","true"
"null","<div style=""font-size:60px;"">+</div>","null","html-keyboard-response","318","330876","0.0-6.0-0.156","MASC","1","f","rechts","23","","fixation","","","",""
"1700","img/120_270.png","74","image-keyboard-response","319","332577","0.0-6.0-1.156","MASC","1","f","rechts","23","","","self","j","120","true"
"null","<div style=""font-size:60px;"">+</div>","null","html-keyboard-response","320","332929","0.0-6.0-0.157","MASC","1","f","rechts","23","","fixation","","","",""
"1075","img/90_150.png","70","image-keyboard-response","321","334006","0.0-6.0-1.157","MASC","1","f","rechts","23","","","self","f","90","true"
"null","<div style=""font-size:60px;"">+</div>","null","html-keyboard-response","322","334307","0.0-6.0-0.158","MASC","1","f","rechts","23","","fixation","","","",""
"1004","img/150_180.png","74","image-keyboard-response","323","335312","0.0-6.0-1.158","MASC","1","f","rechts","23","","","self","j","150","true"
"null","<div style=""font-size:60px;"">+</div>","null","html-keyboard-response","324","335764","0.0-6.0-0.159","MASC","1","f","rechts","23","","fixation","","","",""
"954","img/150_90.png","70","image-keyboard-response","325","336719","0.0-6.0-1.159","MASC","1","f","rechts","23","","","self","f","150","true"
"null","<div style=""font-size:60px;"">+</div>","null","html-keyboard-response","326","337071","0.0-6.0-0.160","MASC","1","f","rechts","23","","fixation","","","",""
"1075","img/150_300.png","74","image-keyboard-response","327","338147","0.0-6.0-1.160","MASC","1","f","rechts","23","","","self","j","150","true"
"null","<div style=""font-size:60px;"">+</div>","null","html-keyboard-response","328","338649","0.0-6.0-0.161","MASC","1","f","rechts","23","","fixation","","","",""
"1412","img/150_240.png","74","image-keyboard-response","329","340062","0.0-6.0-1.161","MASC","1","f","rechts","23","","","self","j","150","true"
"null","<div style=""font-size:60px;"">+</div>","null","html-keyboard-response","330","340564","0.0-6.0-0.162","MASC","1","f","rechts","23","","fixation","","","",""
"846","img/L150_180.png","70","image-keyboard-response","331","341411","0.0-6.0-1.162","MASC","1","f","rechts","23","","","self","f","150","true"
"null","<div style=""font-size:60px;"">+</div>","null","html-keyboard-response","332","341913","0.0-6.0-0.163","MASC","1","f","rechts","23","","fixation","","","",""
"1920","img/30_270.png","70","image-keyboard-response","333","343834","0.0-6.0-1.163","MASC","1","f","rechts","23","","","self","f","30","true"
"null","<div style=""font-size:60px;"">+</div>","null","html-keyboard-response","334","344236","0.0-6.0-0.164","MASC","1","f","rechts","23","","fixation","","","",""
"1670","img/120_330.png","70","image-keyboard-response","335","345907","0.0-6.0-1.164","MASC","1","f","rechts","23","","","self","f","120","true"
"null","<div style=""font-size:60px;"">+</div>","null","html-keyboard-response","336","346358","0.0-6.0-0.165","MASC","1","f","rechts","23","","fixation","","","",""
"1423","img/30_90.png","74","image-keyboard-response","337","347782","0.0-6.0-1.165","MASC","1","f","rechts","23","","","self","j","30","true"
"null","<div style=""font-size:60px;"">+</div>","null","html-keyboard-response","338","348184","0.0-6.0-0.166","MASC","1","f","rechts","23","","fixation","","","",""
"803","img/0_240.png","70","image-keyboard-response","339","348988","0.0-6.0-1.166","MASC","1","f","rechts","23","","","self","f","0","true"
"null","<div style=""font-size:60px;"">+</div>","null","html-keyboard-response","340","349390","0.0-6.0-0.167","MASC","1","f","rechts","23","","fixation","","","",""
"1777","img/60_210.png","74","image-keyboard-response","341","351168","0.0-6.0-1.167","MASC","1","f","rechts","23","","","self","j","60","true"
"null","<div style=""font-size:60px;"">+</div>","null","html-keyboard-response","342","351570","0.0-6.0-0.168","MASC","1","f","rechts","23","","fixation","","","",""
"773","img/0_300.png","70","image-keyboard-response","343","352343","0.0-6.0-1.168","MASC","1","f","rechts","23","","","self","f","0","true"
"null","<div style=""font-size:60px;"">+</div>","null","html-keyboard-response","344","352645","0.0-6.0-0.169","MASC","1","f","rechts","23","","fixation","","","",""
"1927","img/30_120.png","74","image-keyboard-response","345","354572","0.0-6.0-1.169","MASC","1","f","rechts","23","","","self","j","30","true"
"null","<div style=""font-size:60px;"">+</div>","null","html-keyboard-response","346","354874","0.0-6.0-0.170","MASC","1","f","rechts","23","","fixation","","","",""
"1063","img/60_180.png","70","image-keyboard-response","347","355938","0.0-6.0-1.170","MASC","1","f","rechts","23","","","self","j","60","false"
"null","<div style=""font-size:60px;"">+</div>","null","html-keyboard-response","348","356240","0.0-6.0-0.171","MASC","1","f","rechts","23","","fixation","","","",""
"778","img/0_60.png","74","image-keyboard-response","349","357018","0.0-6.0-1.171","MASC","1","f","rechts","23","","","self","j","0","true"
"null","<div style=""font-size:60px;"">+</div>","null","html-keyboard-response","350","357470","0.0-6.0-0.172","MASC","1","f","rechts","23","","fixation","","","",""
"725","img/0_150.png","74","image-keyboard-response","351","358195","0.0-6.0-1.172","MASC","1","f","rechts","23","","","self","j","0","true"
"null","<div style=""font-size:60px;"">+</div>","null","html-keyboard-response","352","358597","0.0-6.0-0.173","MASC","1","f","rechts","23","","fixation","","","",""
"1235","img/L90_180.png","70","image-keyboard-response","353","359833","0.0-6.0-1.173","MASC","1","f","rechts","23","","","self","f","90","true"
"null","<div style=""font-size:60px;"">+</div>","null","html-keyboard-response","354","360284","0.0-6.0-0.174","MASC","1","f","rechts","23","","fixation","","","",""
"1826","img/30_60.png","74","image-keyboard-response","355","362111","0.0-6.0-1.174","MASC","1","f","rechts","23","","","self","j","30","true"
"null","<div style=""font-size:60px;"">+</div>","null","html-keyboard-response","356","362413","0.0-6.0-0.175","MASC","1","f","rechts","23","","fixation","","","",""
"772","img/0_120.png","74","image-keyboard-response","357","363185","0.0-6.0-1.175","MASC","1","f","rechts","23","","","self","j","0","true"
"null","<div style=""font-size:60px;"">+</div>","null","html-keyboard-response","358","363537","0.0-6.0-0.176","MASC","1","f","rechts","23","","fixation","","","",""
"1717","img/60_330.png","70","image-keyboard-response","359","365255","0.0-6.0-1.176","MASC","1","f","rechts","23","","","self","f","60","true"
"null","<div style=""font-size:60px;"">+</div>","null","html-keyboard-response","360","365756","0.0-6.0-0.177","MASC","1","f","rechts","23","","fixation","","","",""
"2190","img/90_330.png","70","image-keyboard-response","361","367947","0.0-6.0-1.177","MASC","1","f","rechts","23","","","self","f","90","true"
"null","<div style=""font-size:60px;"">+</div>","null","html-keyboard-response","362","368299","0.0-6.0-0.178","MASC","1","f","rechts","23","","fixation","","","",""
"1332","img/L30_180.png","74","image-keyboard-response","363","369632","0.0-6.0-1.178","MASC","1","f","rechts","23","","","self","f","30","false"
"null","<div style=""font-size:60px;"">+</div>","null","html-keyboard-response","364","369984","0.0-6.0-0.179","MASC","1","f","rechts","23","","fixation","","","",""
"2020","img/120_90.png","74","image-keyboard-response","365","372005","0.0-6.0-1.179","MASC","1","f","rechts","23","","","self","f","120","false"
"null","<div style=""font-size:60px;"">+</div>","null","html-keyboard-response","366","372457","0.0-6.0-0.180","MASC","1","f","rechts","23","","fixation","","","",""
"1568","img/60_90.png","74","image-keyboard-response","367","374025","0.0-6.0-1.180","MASC","1","f","rechts","23","","","self","j","60","true"
"null","<div style=""font-size:60px;"">+</div>","null","html-keyboard-response","368","374377","0.0-6.0-0.181","MASC","1","f","rechts","23","","fixation","","","",""
"1016","img/L60_180.png","70","image-keyboard-response","369","375395","0.0-6.0-1.181","MASC","1","f","rechts","23","","","self","f","60","true"
"null","<div style=""font-size:60px;"">+</div>","null","html-keyboard-response","370","375696","0.0-6.0-0.182","MASC","1","f","rechts","23","","fixation","","","",""
"1238","img/60_30.png","74","image-keyboard-response","371","376935","0.0-6.0-1.182","MASC","1","f","rechts","23","","","self","j","60","true"
"null","<div style=""font-size:60px;"">+</div>","null","html-keyboard-response","372","377337","0.0-6.0-0.183","MASC","1","f","rechts","23","","fixation","","","",""
"1737","img/60_270.png","70","image-keyboard-response","373","379074","0.0-6.0-1.183","MASC","1","f","rechts","23","","","self","f","60","true"
"null","<div style=""font-size:60px;"">+</div>","null","html-keyboard-response","374","379526","0.0-6.0-0.184","MASC","1","f","rechts","23","","fixation","","","",""
"773","img/0_90.png","74","image-keyboard-response","375","380301","0.0-6.0-1.184","MASC","1","f","rechts","23","","","self","j","0","true"
"null","<div style=""font-size:60px;"">+</div>","null","html-keyboard-response","376","380802","0.0-6.0-0.185","MASC","1","f","rechts","23","","fixation","","","",""
"1039","img/150_120.png","70","image-keyboard-response","377","381842","0.0-6.0-1.185","MASC","1","f","rechts","23","","","self","f","150","true"
"null","<div style=""font-size:60px;"">+</div>","null","html-keyboard-response","378","382344","0.0-6.0-0.186","MASC","1","f","rechts","23","","fixation","","","",""
"761","img/0_270.png","70","image-keyboard-response","379","383106","0.0-6.0-1.186","MASC","1","f","rechts","23","","","self","f","0","true"
"null","<div style=""font-size:60px;"">+</div>","null","html-keyboard-response","380","383608","0.0-6.0-0.187","MASC","1","f","rechts","23","","fixation","","","",""
"1700","img/30_240.png","74","image-keyboard-response","381","385309","0.0-6.0-1.187","MASC","1","f","rechts","23","","","self","f","30","false"
"null","<div style=""font-size:60px;"">+</div>","null","html-keyboard-response","382","385711","0.0-6.0-0.188","MASC","1","f","rechts","23","","fixation","","","",""
"1527","img/120_180.png","74","image-keyboard-response","383","387239","0.0-6.0-1.188","MASC","1","f","rechts","23","","","self","j","120","true"
"null","<div style=""font-size:60px;"">+</div>","null","html-keyboard-response","384","387591","0.0-6.0-0.189","MASC","1","f","rechts","23","","fixation","","","",""
"1624","img/30_180.png","74","image-keyboard-response","385","389216","0.0-6.0-1.189","MASC","1","f","rechts","23","","","self","j","30","true"
"null","<div style=""font-size:60px;"">+</div>","null","html-keyboard-response","386","389518","0.0-6.0-0.190","MASC","1","f","rechts","23","","fixation","","","",""
"1131","img/90_120.png","70","image-keyboard-response","387","390650","0.0-6.0-1.190","MASC","1","f","rechts","23","","","self","f","90","true"
"null","<div style=""font-size:60px;"">+</div>","null","html-keyboard-response","388","391002","0.0-6.0-0.191","MASC","1","f","rechts","23","","fixation","","","",""
"1199","img/30_300.png","70","image-keyboard-response","389","392202","0.0-6.0-1.191","MASC","1","f","rechts","23","","","self","f","30","true"
"null","<div style=""font-size:60px;"">+</div>","null","html-keyboard-response","390","392654","0.0-6.0-0.192","MASC","1","f","rechts","23","","fixation","","","",""
"1077","img/90_180.png","74","image-keyboard-response","391","393731","0.0-6.0-1.192","MASC","1","f","rechts","23","","","self","j","90","true"
"null","<div style=""font-size:60px;"">+</div>","null","html-keyboard-response","392","394233","0.0-6.0-0.193","MASC","1","f","rechts","23","","fixation","","","",""
"1419","img/L120_180.png","70","image-keyboard-response","393","395653","0.0-6.0-1.193","MASC","1","f","rechts","23","","","self","f","120","true"
"null","<div style=""font-size:60px;"">+</div>","null","html-keyboard-response","394","396105","0.0-6.0-0.194","MASC","1","f","rechts","23","","fixation","","","",""
"1611","img/120_30.png","70","image-keyboard-response","395","397716","0.0-6.0-1.194","MASC","1","f","rechts","23","","","self","j","120","false"
"null","<div style=""font-size:60px;"">+</div>","null","html-keyboard-response","396","398118","0.0-6.0-0.195","MASC","1","f","rechts","23","","fixation","","","",""
"944","img/0_210.png","70","image-keyboard-response","397","399063","0.0-6.0-1.195","MASC","1","f","rechts","23","","","self","f","0","true"
"null","<div style=""font-size:60px;"">+</div>","null","html-keyboard-response","398","399414","0.0-6.0-0.196","MASC","1","f","rechts","23","","fixation","","","",""
"1534","img/90_60.png","74","image-keyboard-response","399","400950","0.0-6.0-1.196","MASC","1","f","rechts","23","","","self","j","90","true"
"null","<div style=""font-size:60px;"">+</div>","null","html-keyboard-response","400","401251","0.0-6.0-0.197","MASC","1","f","rechts","23","","fixation","","","",""
"1479","img/150_270.png","74","image-keyboard-response","401","402731","0.0-6.0-1.197","MASC","1","f","rechts","23","","","self","j","150","true"
"null","<div style=""font-size:60px;"">+</div>","null","html-keyboard-response","402","403082","0.0-6.0-0.198","MASC","1","f","rechts","23","","fixation","","","",""
"735","img/0_30.png","74","image-keyboard-response","403","403818","0.0-6.0-1.198","MASC","1","f","rechts","23","","","self","j","0","true"
"null","<div style=""font-size:60px;"">+</div>","null","html-keyboard-response","404","404170","0.0-6.0-0.199","MASC","1","f","rechts","23","","fixation","","","",""
"1147","img/90_210.png","74","image-keyboard-response","405","405317","0.0-6.0-1.199","MASC","1","f","rechts","23","","","self","j","90","true"
"null","<div style=""font-size:60px;"">+</div>","null","html-keyboard-response","406","405768","0.0-6.0-0.200","MASC","1","f","rechts","23","","fixation","","","",""
"1673","img/150_60.png","70","image-keyboard-response","407","407442","0.0-6.0-1.200","MASC","1","f","rechts","23","","","self","f","150","true"
"null","<div style=""font-size:60px;"">+</div>","null","html-keyboard-response","408","407794","0.0-6.0-0.201","MASC","1","f","rechts","23","","fixation","","","",""
"1536","img/90_30.png","74","image-keyboard-response","409","409331","0.0-6.0-1.201","MASC","1","f","rechts","23","","","self","j","90","true"
"null","<div style=""font-size:60px;"">+</div>","null","html-keyboard-response","410","409632","0.0-6.0-0.202","MASC","1","f","rechts","23","","fixation","","","",""
"1306","img/120_210.png","74","image-keyboard-response","411","410939","0.0-6.0-1.202","MASC","1","f","rechts","23","","","self","j","120","true"
"null","<div style=""font-size:60px;"">+</div>","null","html-keyboard-response","412","411241","0.0-6.0-0.203","MASC","1","f","rechts","23","","fixation","","","",""
"1368","img/90_300.png","70","image-keyboard-response","413","412609","0.0-6.0-1.203","MASC","1","f","rechts","23","","","self","f","90","true"
"null","<div style=""font-size:60px;"">+</div>","null","html-keyboard-response","414","412910","0.0-6.0-0.204","MASC","1","f","rechts","23","","fixation","","","",""
"1069","img/0_330.png","70","image-keyboard-response","415","413980","0.0-6.0-1.204","MASC","1","f","rechts","23","","","self","f","0","true"
"null","<div style=""font-size:60px;"">+</div>","null","html-keyboard-response","416","414432","0.0-6.0-0.205","MASC","1","f","rechts","23","","fixation","","","",""
"1157","img/90_240.png","74","image-keyboard-response","417","415590","0.0-6.0-1.205","MASC","1","f","rechts","23","","","self","j","90","true"
"null","<div style=""font-size:60px;"">+</div>","null","html-keyboard-response","418","415941","0.0-6.0-0.206","MASC","1","f","rechts","23","","fixation","","","",""
"1327","img/60_150.png","70","image-keyboard-response","419","417268","0.0-6.0-1.206","MASC","1","f","rechts","23","","","self","f","60","true"
"null","<div style=""font-size:60px;"">+</div>","null","html-keyboard-response","420","417669","0.0-6.0-0.207","MASC","1","f","rechts","23","","fixation","","","",""
"1088","img/120_150.png","70","image-keyboard-response","421","418759","0.0-6.0-1.207","MASC","1","f","rechts","23","","","self","f","120","true"
"5071","<p>Du hast in 89% der Versuche korrekt entschieden.</p><p>Deine durchschnittliche Reaktionszeit war  1313ms.</p><p>Dr&uuml;cke eine beliebige Taste, um die Session zu beenden. Vielen Dank!</p>","74","html-keyboard-response","422","423833","0.0-7.0","MASC","1","f","rechts","23","","","","","",""
