"rt","stimulus","key_press","trial_type","trial_index","time_elapsed","internal_node_id","subject","session","sex","handedness","age","responses","test_part","condition","correct_response","angle","correct"
"1201","<p>Mental Rotation Experiment.</p> <p>Dr&uuml;cke eine beliebige Taste, um anzufangen.</p>","72","html-keyboard-response","0","1201","0.0-0.0","SAST","3","f","links","18","","","","","",""
"5583","","","survey-text","1","6787","0.0-1.0","SAST","3","f","links","18","{""Q0"":""SAST""}","","","","",""
"3502","","","survey-text","2","10289","0.0-2.0","SAST","3","f","links","18","{""Q0"":""3""}","","","","",""
"2833","","","survey-multi-choice","3","13126","0.0-3.0","SAST","3","f","links","18","{""Q0"":""f"",""Q1"":""links""}","","","","",""
"9704","","","survey-text","4","22831","0.0-4.0","SAST","3","f","links","18","{""Q0"":""18""}","","","","",""
"32400","<p>Stell dir vor, dass du vor einem runden Tisch stehst, auf dem sich ein blauer Ball am Tischrand befindet. Entlang des Tischrands ist jeweils ein verschieden langer Pfeil. Nun bleibst du an deinem Platz vor dem Tisch und rotierst den Tisch entlang des Pfeils (gleiche Richtung und Länge). </p> <img src='img/30_180.png'></img> <br><p> Nachdem du diese (vorgestellte) Rotation durchgef&uuml;hrt hast, schau in Richtung der Tischmitte, und entscheide dann, ob der Ball links oder rechts von dir liegt.</p> <p>Dr&uuml;cke die <strong>'f'</strong>-Taste f&uuml;r links, die <strong>'j'</strong>-Taste f&uuml;r rechts.</p><br><p> Das Bild wird jeweils 1 Sekunde lang pr&auml;sentiert. Du hast 3 Sekunden Zeit eine Entscheidung zu treffen.</p>","74","html-keyboard-response","5","55232","0.0-5.0","SAST","3","f","links","18","","","","","",""
"null","<div style=""font-size:60px;"">+</div>","null","html-keyboard-response","6","56535","0.0-6.0-0.0","SAST","3","f","links","18","","fixation","","","",""
"1646","img/120_270.png","70","image-keyboard-response","7","58184","0.0-6.0-1.0","SAST","3","f","links","18","","","object","j","120","false"
"null","<div style=""font-size:60px;"">+</div>","null","html-keyboard-response","8","58686","0.0-6.0-0.1","SAST","3","f","links","18","","fixation","","","",""
"2952","img/30_120.png","74","image-keyboard-response","9","61639","0.0-6.0-1.1","SAST","3","f","links","18","","","object","j","30","true"
"null","<div style=""font-size:60px;"">+</div>","null","html-keyboard-response","10","61940","0.0-6.0-0.2","SAST","3","f","links","18","","fixation","","","",""
"1781","img/30_270.png","70","image-keyboard-response","11","63722","0.0-6.0-1.2","SAST","3","f","links","18","","","object","f","30","true"
"null","<div style=""font-size:60px;"">+</div>","null","html-keyboard-response","12","64224","0.0-6.0-0.3","SAST","3","f","links","18","","fixation","","","",""
"1402","img/60_270.png","70","image-keyboard-response","13","65627","0.0-6.0-1.3","SAST","3","f","links","18","","","object","f","60","true"
"null","<div style=""font-size:60px;"">+</div>","null","html-keyboard-response","14","66129","0.0-6.0-0.4","SAST","3","f","links","18","","fixation","","","",""
"2079","img/L60_180.png","74","image-keyboard-response","15","68209","0.0-6.0-1.4","SAST","3","f","links","18","","","object","j","60","true"
"null","<div style=""font-size:60px;"">+</div>","null","html-keyboard-response","16","68711","0.0-6.0-0.5","SAST","3","f","links","18","","fixation","","","",""
"2452","img/90_150.png","74","image-keyboard-response","17","71164","0.0-6.0-1.5","SAST","3","f","links","18","","","object","j","90","true"
"null","<div style=""font-size:60px;"">+</div>","null","html-keyboard-response","18","71516","0.0-6.0-0.6","SAST","3","f","links","18","","fixation","","","",""
"2859","img/150_300.png","70","image-keyboard-response","19","74376","0.0-6.0-1.6","SAST","3","f","links","18","","","object","j","150","false"
"null","<div style=""font-size:60px;"">+</div>","null","html-keyboard-response","20","74678","0.0-6.0-0.7","SAST","3","f","links","18","","fixation","","","",""
"1248","img/90_180.png","70","image-keyboard-response","21","75927","0.0-6.0-1.7","SAST","3","f","links","18","","","object","f","90","true"
"null","<div style=""font-size:60px;"">+</div>","null","html-keyboard-response","22","76379","0.0-6.0-0.8","SAST","3","f","links","18","","fixation","","","",""
"1812","img/150_270.png","74","image-keyboard-response","23","78192","0.0-6.0-1.8","SAST","3","f","links","18","","","object","j","150","true"
"null","<div style=""font-size:60px;"">+</div>","null","html-keyboard-response","24","78494","0.0-6.0-0.9","SAST","3","f","links","18","","fixation","","","",""
"null","img/120_150.png","null","image-keyboard-response","25","81496","0.0-6.0-1.9","SAST","3","f","links","18","","","object","j","120","false"
"null","<div style=""font-size:60px;"">+</div>","null","html-keyboard-response","26","81948","0.0-6.0-0.10","SAST","3","f","links","18","","fixation","","","",""
"1749","img/120_180.png","74","image-keyboard-response","27","83698","0.0-6.0-1.10","SAST","3","f","links","18","","","object","f","120","false"
"null","<div style=""font-size:60px;"">+</div>","null","html-keyboard-response","28","84049","0.0-6.0-0.11","SAST","3","f","links","18","","fixation","","","",""
"775","img/0_330.png","70","image-keyboard-response","29","84824","0.0-6.0-1.11","SAST","3","f","links","18","","","object","f","0","true"
"null","<div style=""font-size:60px;"">+</div>","null","html-keyboard-response","30","85176","0.0-6.0-0.12","SAST","3","f","links","18","","fixation","","","",""
"1885","img/120_90.png","74","image-keyboard-response","31","87062","0.0-6.0-1.12","SAST","3","f","links","18","","","object","f","120","false"
"null","<div style=""font-size:60px;"">+</div>","null","html-keyboard-response","32","87414","0.0-6.0-0.13","SAST","3","f","links","18","","fixation","","","",""
"2538","img/60_330.png","70","image-keyboard-response","33","89952","0.0-6.0-1.13","SAST","3","f","links","18","","","object","j","60","false"
"null","<div style=""font-size:60px;"">+</div>","null","html-keyboard-response","34","90354","0.0-6.0-0.14","SAST","3","f","links","18","","fixation","","","",""
"734","img/0_150.png","74","image-keyboard-response","35","91089","0.0-6.0-1.14","SAST","3","f","links","18","","","object","j","0","true"
"null","<div style=""font-size:60px;"">+</div>","null","html-keyboard-response","36","91490","0.0-6.0-0.15","SAST","3","f","links","18","","fixation","","","",""
"2569","img/L30_180.png","74","image-keyboard-response","37","94060","0.0-6.0-1.15","SAST","3","f","links","18","","","object","j","30","true"
"null","<div style=""font-size:60px;"">+</div>","null","html-keyboard-response","38","94462","0.0-6.0-0.16","SAST","3","f","links","18","","fixation","","","",""
"2717","img/90_240.png","70","image-keyboard-response","39","97179","0.0-6.0-1.16","SAST","3","f","links","18","","","object","f","90","true"
"null","<div style=""font-size:60px;"">+</div>","null","html-keyboard-response","40","97581","0.0-6.0-0.17","SAST","3","f","links","18","","fixation","","","",""
"804","img/0_210.png","70","image-keyboard-response","41","98386","0.0-6.0-1.17","SAST","3","f","links","18","","","object","f","0","true"
"null","<div style=""font-size:60px;"">+</div>","null","html-keyboard-response","42","98837","0.0-6.0-0.18","SAST","3","f","links","18","","fixation","","","",""
"2036","img/120_210.png","70","image-keyboard-response","43","100874","0.0-6.0-1.18","SAST","3","f","links","18","","","object","f","120","true"
"null","<div style=""font-size:60px;"">+</div>","null","html-keyboard-response","44","101176","0.0-6.0-0.19","SAST","3","f","links","18","","fixation","","","",""
"2643","img/150_60.png","74","image-keyboard-response","45","103821","0.0-6.0-1.19","SAST","3","f","links","18","","","object","f","150","false"
"null","<div style=""font-size:60px;"">+</div>","null","html-keyboard-response","46","104122","0.0-6.0-0.20","SAST","3","f","links","18","","fixation","","","",""
"2920","img/30_180.png","70","image-keyboard-response","47","107044","0.0-6.0-1.20","SAST","3","f","links","18","","","object","f","30","true"
"null","<div style=""font-size:60px;"">+</div>","null","html-keyboard-response","48","107445","0.0-6.0-0.21","SAST","3","f","links","18","","fixation","","","",""
"null","img/150_180.png","null","image-keyboard-response","49","110448","0.0-6.0-1.21","SAST","3","f","links","18","","","object","f","150","false"
"null","<div style=""font-size:60px;"">+</div>","null","html-keyboard-response","50","110850","0.0-6.0-0.22","SAST","3","f","links","18","","fixation","","","",""
"997","img/150_90.png","74","image-keyboard-response","51","111848","0.0-6.0-1.22","SAST","3","f","links","18","","","object","f","150","false"
"null","<div style=""font-size:60px;"">+</div>","null","html-keyboard-response","52","112300","0.0-6.0-0.23","SAST","3","f","links","18","","fixation","","","",""
"1634","img/30_300.png","70","image-keyboard-response","53","113935","0.0-6.0-1.23","SAST","3","f","links","18","","","object","f","30","true"
"null","<div style=""font-size:60px;"">+</div>","null","html-keyboard-response","54","114387","0.0-6.0-0.24","SAST","3","f","links","18","","fixation","","","",""
"1399","img/30_90.png","74","image-keyboard-response","55","115786","0.0-6.0-1.24","SAST","3","f","links","18","","","object","j","30","true"
"null","<div style=""font-size:60px;"">+</div>","null","html-keyboard-response","56","116287","0.0-6.0-0.25","SAST","3","f","links","18","","fixation","","","",""
"1220","img/90_330.png","74","image-keyboard-response","57","117508","0.0-6.0-1.25","SAST","3","f","links","18","","","object","j","90","true"
"null","<div style=""font-size:60px;"">+</div>","null","html-keyboard-response","58","117910","0.0-6.0-0.26","SAST","3","f","links","18","","fixation","","","",""
"757","img/60_30.png","74","image-keyboard-response","59","118668","0.0-6.0-1.26","SAST","3","f","links","18","","","object","f","60","false"
"null","<div style=""font-size:60px;"">+</div>","null","html-keyboard-response","60","119070","0.0-6.0-0.27","SAST","3","f","links","18","","fixation","","","",""
"814","img/0_300.png","70","image-keyboard-response","61","119884","0.0-6.0-1.27","SAST","3","f","links","18","","","object","f","0","true"
"null","<div style=""font-size:60px;"">+</div>","null","html-keyboard-response","62","120286","0.0-6.0-0.28","SAST","3","f","links","18","","fixation","","","",""
"993","img/90_300.png","70","image-keyboard-response","63","121280","0.0-6.0-1.28","SAST","3","f","links","18","","","object","j","90","false"
"null","<div style=""font-size:60px;"">+</div>","null","html-keyboard-response","64","121581","0.0-6.0-0.29","SAST","3","f","links","18","","fixation","","","",""
"963","img/150_120.png","74","image-keyboard-response","65","122545","0.0-6.0-1.29","SAST","3","f","links","18","","","object","f","150","false"
"null","<div style=""font-size:60px;"">+</div>","null","html-keyboard-response","66","123047","0.0-6.0-0.30","SAST","3","f","links","18","","fixation","","","",""
"1287","img/90_30.png","74","image-keyboard-response","67","124335","0.0-6.0-1.30","SAST","3","f","links","18","","","object","f","90","false"
"null","<div style=""font-size:60px;"">+</div>","null","html-keyboard-response","68","124786","0.0-6.0-0.31","SAST","3","f","links","18","","fixation","","","",""
"641","img/60_90.png","74","image-keyboard-response","69","125428","0.0-6.0-1.31","SAST","3","f","links","18","","","object","j","60","true"
"null","<div style=""font-size:60px;"">+</div>","null","html-keyboard-response","70","125830","0.0-6.0-0.32","SAST","3","f","links","18","","fixation","","","",""
"2261","img/L90_180.png","74","image-keyboard-response","71","128092","0.0-6.0-1.32","SAST","3","f","links","18","","","object","j","90","true"
"null","<div style=""font-size:60px;"">+</div>","null","html-keyboard-response","72","128494","0.0-6.0-0.33","SAST","3","f","links","18","","fixation","","","",""
"1540","img/30_60.png","74","image-keyboard-response","73","130035","0.0-6.0-1.33","SAST","3","f","links","18","","","object","j","30","true"
"null","<div style=""font-size:60px;"">+</div>","null","html-keyboard-response","74","130536","0.0-6.0-0.34","SAST","3","f","links","18","","fixation","","","",""
"801","img/60_150.png","74","image-keyboard-response","75","131339","0.0-6.0-1.34","SAST","3","f","links","18","","","object","j","60","true"
"null","<div style=""font-size:60px;"">+</div>","null","html-keyboard-response","76","131791","0.0-6.0-0.35","SAST","3","f","links","18","","fixation","","","",""
"2300","img/60_210.png","70","image-keyboard-response","77","134092","0.0-6.0-1.35","SAST","3","f","links","18","","","object","f","60","true"
"null","<div style=""font-size:60px;"">+</div>","null","html-keyboard-response","78","134544","0.0-6.0-0.36","SAST","3","f","links","18","","fixation","","","",""
"1723","img/L120_180.png","74","image-keyboard-response","79","136268","0.0-6.0-1.36","SAST","3","f","links","18","","","object","j","120","true"
"null","<div style=""font-size:60px;"">+</div>","null","html-keyboard-response","80","136570","0.0-6.0-0.37","SAST","3","f","links","18","","fixation","","","",""
"814","img/90_60.png","74","image-keyboard-response","81","137386","0.0-6.0-1.37","SAST","3","f","links","18","","","object","f","90","false"
"null","<div style=""font-size:60px;"">+</div>","null","html-keyboard-response","82","137787","0.0-6.0-0.38","SAST","3","f","links","18","","fixation","","","",""
"828","img/0_270.png","70","image-keyboard-response","83","138616","0.0-6.0-1.38","SAST","3","f","links","18","","","object","f","0","true"
"null","<div style=""font-size:60px;"">+</div>","null","html-keyboard-response","84","139118","0.0-6.0-0.39","SAST","3","f","links","18","","fixation","","","",""
"971","img/90_120.png","74","image-keyboard-response","85","140090","0.0-6.0-1.39","SAST","3","f","links","18","","","object","j","90","true"
"null","<div style=""font-size:60px;"">+</div>","null","html-keyboard-response","86","140492","0.0-6.0-0.40","SAST","3","f","links","18","","fixation","","","",""
"778","img/60_180.png","70","image-keyboard-response","87","141271","0.0-6.0-1.40","SAST","3","f","links","18","","","object","f","60","true"
"null","<div style=""font-size:60px;"">+</div>","null","html-keyboard-response","88","141573","0.0-6.0-0.41","SAST","3","f","links","18","","fixation","","","",""
"687","img/0_60.png","74","image-keyboard-response","89","142261","0.0-6.0-1.41","SAST","3","f","links","18","","","object","j","0","true"
"null","<div style=""font-size:60px;"">+</div>","null","html-keyboard-response","90","142713","0.0-6.0-0.42","SAST","3","f","links","18","","fixation","","","",""
"674","img/0_120.png","74","image-keyboard-response","91","143388","0.0-6.0-1.42","SAST","3","f","links","18","","","object","j","0","true"
"null","<div style=""font-size:60px;"">+</div>","null","html-keyboard-response","92","143740","0.0-6.0-0.43","SAST","3","f","links","18","","fixation","","","",""
"716","img/0_30.png","74","image-keyboard-response","93","144457","0.0-6.0-1.43","SAST","3","f","links","18","","","object","j","0","true"
"null","<div style=""font-size:60px;"">+</div>","null","html-keyboard-response","94","144859","0.0-6.0-0.44","SAST","3","f","links","18","","fixation","","","",""
"1476","img/150_240.png","70","image-keyboard-response","95","146336","0.0-6.0-1.44","SAST","3","f","links","18","","","object","j","150","false"
"null","<div style=""font-size:60px;"">+</div>","null","html-keyboard-response","96","146738","0.0-6.0-0.45","SAST","3","f","links","18","","fixation","","","",""
"794","img/120_30.png","74","image-keyboard-response","97","147533","0.0-6.0-1.45","SAST","3","f","links","18","","","object","f","120","false"
"null","<div style=""font-size:60px;"">+</div>","null","html-keyboard-response","98","148035","0.0-6.0-0.46","SAST","3","f","links","18","","fixation","","","",""
"931","img/120_330.png","70","image-keyboard-response","99","148967","0.0-6.0-1.46","SAST","3","f","links","18","","","object","j","120","false"
"null","<div style=""font-size:60px;"">+</div>","null","html-keyboard-response","100","149269","0.0-6.0-0.47","SAST","3","f","links","18","","fixation","","","",""
"2074","img/90_210.png","74","image-keyboard-response","101","151344","0.0-6.0-1.47","SAST","3","f","links","18","","","object","f","90","false"
"null","<div style=""font-size:60px;"">+</div>","null","html-keyboard-response","102","151746","0.0-6.0-0.48","SAST","3","f","links","18","","fixation","","","",""
"2502","img/30_240.png","70","image-keyboard-response","103","154249","0.0-6.0-1.48","SAST","3","f","links","18","","","object","f","30","true"
"null","<div style=""font-size:60px;"">+</div>","null","html-keyboard-response","104","154600","0.0-6.0-0.49","SAST","3","f","links","18","","fixation","","","",""
"773","img/0_90.png","74","image-keyboard-response","105","155374","0.0-6.0-1.49","SAST","3","f","links","18","","","object","j","0","true"
"null","<div style=""font-size:60px;"">+</div>","null","html-keyboard-response","106","155776","0.0-6.0-0.50","SAST","3","f","links","18","","fixation","","","",""
"1157","img/0_240.png","70","image-keyboard-response","107","156934","0.0-6.0-1.50","SAST","3","f","links","18","","","object","f","0","true"
"null","<div style=""font-size:60px;"">+</div>","null","html-keyboard-response","108","157336","0.0-6.0-0.51","SAST","3","f","links","18","","fixation","","","",""
"2672","img/L150_180.png","74","image-keyboard-response","109","160008","0.0-6.0-1.51","SAST","3","f","links","18","","","object","j","150","true"
"null","<div style=""font-size:60px;"">+</div>","null","html-keyboard-response","110","160309","0.0-6.0-0.52","SAST","3","f","links","18","","fixation","","","",""
"2615","img/30_120.png","74","image-keyboard-response","111","162925","0.0-6.0-1.52","SAST","3","f","links","18","","","object","j","30","true"
"null","<div style=""font-size:60px;"">+</div>","null","html-keyboard-response","112","163327","0.0-6.0-0.53","SAST","3","f","links","18","","fixation","","","",""
"1068","img/0_60.png","74","image-keyboard-response","113","164395","0.0-6.0-1.53","SAST","3","f","links","18","","","object","j","0","true"
"null","<div style=""font-size:60px;"">+</div>","null","html-keyboard-response","114","164897","0.0-6.0-0.54","SAST","3","f","links","18","","fixation","","","",""
"1545","img/60_210.png","70","image-keyboard-response","115","166442","0.0-6.0-1.54","SAST","3","f","links","18","","","object","f","60","true"
"null","<div style=""font-size:60px;"">+</div>","null","html-keyboard-response","116","166794","0.0-6.0-0.55","SAST","3","f","links","18","","fixation","","","",""
"978","img/150_180.png","70","image-keyboard-response","117","167772","0.0-6.0-1.55","SAST","3","f","links","18","","","object","f","150","true"
"null","<div style=""font-size:60px;"">+</div>","null","html-keyboard-response","118","168174","0.0-6.0-0.56","SAST","3","f","links","18","","fixation","","","",""
"1585","img/L150_180.png","74","image-keyboard-response","119","169759","0.0-6.0-1.56","SAST","3","f","links","18","","","object","j","150","true"
"null","<div style=""font-size:60px;"">+</div>","null","html-keyboard-response","120","170211","0.0-6.0-0.57","SAST","3","f","links","18","","fixation","","","",""
"1675","img/30_270.png","70","image-keyboard-response","121","171886","0.0-6.0-1.57","SAST","3","f","links","18","","","object","f","30","true"
"null","<div style=""font-size:60px;"">+</div>","null","html-keyboard-response","122","172238","0.0-6.0-0.58","SAST","3","f","links","18","","fixation","","","",""
"1333","img/60_30.png","74","image-keyboard-response","123","173571","0.0-6.0-1.58","SAST","3","f","links","18","","","object","f","60","false"
"null","<div style=""font-size:60px;"">+</div>","null","html-keyboard-response","124","174073","0.0-6.0-0.59","SAST","3","f","links","18","","fixation","","","",""
"1460","img/L60_180.png","74","image-keyboard-response","125","175533","0.0-6.0-1.59","SAST","3","f","links","18","","","object","j","60","true"
"null","<div style=""font-size:60px;"">+</div>","null","html-keyboard-response","126","175934","0.0-6.0-0.60","SAST","3","f","links","18","","fixation","","","",""
"916","img/60_90.png","74","image-keyboard-response","127","176851","0.0-6.0-1.60","SAST","3","f","links","18","","","object","j","60","true"
"null","<div style=""font-size:60px;"">+</div>","null","html-keyboard-response","128","177152","0.0-6.0-0.61","SAST","3","f","links","18","","fixation","","","",""
"2883","img/30_60.png","74","image-keyboard-response","129","180036","0.0-6.0-1.61","SAST","3","f","links","18","","","object","j","30","true"
"null","<div style=""font-size:60px;"">+</div>","null","html-keyboard-response","130","180388","0.0-6.0-0.62","SAST","3","f","links","18","","fixation","","","",""
"1994","img/90_240.png","70","image-keyboard-response","131","182382","0.0-6.0-1.62","SAST","3","f","links","18","","","object","f","90","true"
"null","<div style=""font-size:60px;"">+</div>","null","html-keyboard-response","132","182833","0.0-6.0-0.63","SAST","3","f","links","18","","fixation","","","",""
"735","img/0_210.png","70","image-keyboard-response","133","183570","0.0-6.0-1.63","SAST","3","f","links","18","","","object","f","0","true"
"null","<div style=""font-size:60px;"">+</div>","null","html-keyboard-response","134","183971","0.0-6.0-0.64","SAST","3","f","links","18","","fixation","","","",""
"1338","img/120_210.png","70","image-keyboard-response","135","185311","0.0-6.0-1.64","SAST","3","f","links","18","","","object","f","120","true"
"null","<div style=""font-size:60px;"">+</div>","null","html-keyboard-response","136","185712","0.0-6.0-0.65","SAST","3","f","links","18","","fixation","","","",""
"2220","img/90_210.png","74","image-keyboard-response","137","187933","0.0-6.0-1.65","SAST","3","f","links","18","","","object","f","90","false"
"null","<div style=""font-size:60px;"">+</div>","null","html-keyboard-response","138","188434","0.0-6.0-0.66","SAST","3","f","links","18","","fixation","","","",""
"802","img/0_150.png","74","image-keyboard-response","139","189238","0.0-6.0-1.66","SAST","3","f","links","18","","","object","j","0","true"
"null","<div style=""font-size:60px;"">+</div>","null","html-keyboard-response","140","189739","0.0-6.0-0.67","SAST","3","f","links","18","","fixation","","","",""
"2247","img/90_330.png","70","image-keyboard-response","141","191987","0.0-6.0-1.67","SAST","3","f","links","18","","","object","j","90","false"
"null","<div style=""font-size:60px;"">+</div>","null","html-keyboard-response","142","192389","0.0-6.0-0.68","SAST","3","f","links","18","","fixation","","","",""
"null","img/120_270.png","null","image-keyboard-response","143","195391","0.0-6.0-1.68","SAST","3","f","links","18","","","object","j","120","false"
"null","<div style=""font-size:60px;"">+</div>","null","html-keyboard-response","144","195843","0.0-6.0-0.69","SAST","3","f","links","18","","fixation","","","",""
"1432","img/90_120.png","74","image-keyboard-response","145","197275","0.0-6.0-1.69","SAST","3","f","links","18","","","object","j","90","true"
"null","<div style=""font-size:60px;"">+</div>","null","html-keyboard-response","146","197577","0.0-6.0-0.70","SAST","3","f","links","18","","fixation","","","",""
"1192","img/0_240.png","70","image-keyboard-response","147","198770","0.0-6.0-1.70","SAST","3","f","links","18","","","object","f","0","true"
"null","<div style=""font-size:60px;"">+</div>","null","html-keyboard-response","148","199221","0.0-6.0-0.71","SAST","3","f","links","18","","fixation","","","",""
"1352","img/30_300.png","70","image-keyboard-response","149","200575","0.0-6.0-1.71","SAST","3","f","links","18","","","object","f","30","true"
"null","<div style=""font-size:60px;"">+</div>","null","html-keyboard-response","150","201076","0.0-6.0-0.72","SAST","3","f","links","18","","fixation","","","",""
"752","img/0_270.png","70","image-keyboard-response","151","201829","0.0-6.0-1.72","SAST","3","f","links","18","","","object","f","0","true"
"null","<div style=""font-size:60px;"">+</div>","null","html-keyboard-response","152","202231","0.0-6.0-0.73","SAST","3","f","links","18","","fixation","","","",""
"null","img/90_150.png","null","image-keyboard-response","153","205233","0.0-6.0-1.73","SAST","3","f","links","18","","","object","j","90","false"
"null","<div style=""font-size:60px;"">+</div>","null","html-keyboard-response","154","205535","0.0-6.0-0.74","SAST","3","f","links","18","","fixation","","","",""
"756","img/0_30.png","74","image-keyboard-response","155","206292","0.0-6.0-1.74","SAST","3","f","links","18","","","object","j","0","true"
"null","<div style=""font-size:60px;"">+</div>","null","html-keyboard-response","156","206794","0.0-6.0-0.75","SAST","3","f","links","18","","fixation","","","",""
"2641","img/150_60.png","70","image-keyboard-response","157","209436","0.0-6.0-1.75","SAST","3","f","links","18","","","object","f","150","true"
"null","<div style=""font-size:60px;"">+</div>","null","html-keyboard-response","158","209938","0.0-6.0-0.76","SAST","3","f","links","18","","fixation","","","",""
"833","img/30_90.png","74","image-keyboard-response","159","210772","0.0-6.0-1.76","SAST","3","f","links","18","","","object","j","30","true"
"null","<div style=""font-size:60px;"">+</div>","null","html-keyboard-response","160","211274","0.0-6.0-0.77","SAST","3","f","links","18","","fixation","","","",""
"2466","img/120_180.png","70","image-keyboard-response","161","213741","0.0-6.0-1.77","SAST","3","f","links","18","","","object","f","120","true"
"null","<div style=""font-size:60px;"">+</div>","null","html-keyboard-response","162","214193","0.0-6.0-0.78","SAST","3","f","links","18","","fixation","","","",""
"2478","img/150_270.png","74","image-keyboard-response","163","216672","0.0-6.0-1.78","SAST","3","f","links","18","","","object","j","150","true"
"null","<div style=""font-size:60px;"">+</div>","null","html-keyboard-response","164","217124","0.0-6.0-0.79","SAST","3","f","links","18","","fixation","","","",""
"974","img/90_30.png","74","image-keyboard-response","165","218099","0.0-6.0-1.79","SAST","3","f","links","18","","","object","f","90","false"
"null","<div style=""font-size:60px;"">+</div>","null","html-keyboard-response","166","218501","0.0-6.0-0.80","SAST","3","f","links","18","","fixation","","","",""
"null","img/L120_180.png","null","image-keyboard-response","167","221504","0.0-6.0-1.80","SAST","3","f","links","18","","","object","j","120","false"
"null","<div style=""font-size:60px;"">+</div>","null","html-keyboard-response","168","221905","0.0-6.0-0.81","SAST","3","f","links","18","","fixation","","","",""
"85","img/120_90.png","70","image-keyboard-response","169","221991","0.0-6.0-1.81","SAST","3","f","links","18","","","object","f","120","true"
"null","<div style=""font-size:60px;"">+</div>","null","html-keyboard-response","170","222493","0.0-6.0-0.82","SAST","3","f","links","18","","fixation","","","",""
"558","img/150_240.png","74","image-keyboard-response","171","223051","0.0-6.0-1.82","SAST","3","f","links","18","","","object","j","150","true"
"null","<div style=""font-size:60px;"">+</div>","null","html-keyboard-response","172","223502","0.0-6.0-0.83","SAST","3","f","links","18","","fixation","","","",""
"1348","img/120_150.png","74","image-keyboard-response","173","224851","0.0-6.0-1.83","SAST","3","f","links","18","","","object","j","120","true"
"null","<div style=""font-size:60px;"">+</div>","null","html-keyboard-response","174","225253","0.0-6.0-0.84","SAST","3","f","links","18","","fixation","","","",""
"1308","img/L30_180.png","74","image-keyboard-response","175","226561","0.0-6.0-1.84","SAST","3","f","links","18","","","object","j","30","true"
"null","<div style=""font-size:60px;"">+</div>","null","html-keyboard-response","176","226862","0.0-6.0-0.85","SAST","3","f","links","18","","fixation","","","",""
"1428","img/90_180.png","70","image-keyboard-response","177","228291","0.0-6.0-1.85","SAST","3","f","links","18","","","object","f","90","true"
"null","<div style=""font-size:60px;"">+</div>","null","html-keyboard-response","178","228742","0.0-6.0-0.86","SAST","3","f","links","18","","fixation","","","",""
"null","img/150_120.png","null","image-keyboard-response","179","231744","0.0-6.0-1.86","SAST","3","f","links","18","","","object","f","150","false"
"null","<div style=""font-size:60px;"">+</div>","null","html-keyboard-response","180","232196","0.0-6.0-0.87","SAST","3","f","links","18","","fixation","","","",""
"786","img/0_300.png","70","image-keyboard-response","181","232983","0.0-6.0-1.87","SAST","3","f","links","18","","","object","f","0","true"
"null","<div style=""font-size:60px;"">+</div>","null","html-keyboard-response","182","233435","0.0-6.0-0.88","SAST","3","f","links","18","","fixation","","","",""
"2530","img/30_180.png","70","image-keyboard-response","183","235965","0.0-6.0-1.88","SAST","3","f","links","18","","","object","f","30","true"
"null","<div style=""font-size:60px;"">+</div>","null","html-keyboard-response","184","236266","0.0-6.0-0.89","SAST","3","f","links","18","","fixation","","","",""
"null","img/L90_180.png","null","image-keyboard-response","185","239268","0.0-6.0-1.89","SAST","3","f","links","18","","","object","j","90","false"
"null","<div style=""font-size:60px;"">+</div>","null","html-keyboard-response","186","239670","0.0-6.0-0.90","SAST","3","f","links","18","","fixation","","","",""
"609","img/0_120.png","74","image-keyboard-response","187","240280","0.0-6.0-1.90","SAST","3","f","links","18","","","object","j","0","true"
"null","<div style=""font-size:60px;"">+</div>","null","html-keyboard-response","188","240781","0.0-6.0-0.91","SAST","3","f","links","18","","fixation","","","",""
"957","img/0_90.png","74","image-keyboard-response","189","241739","0.0-6.0-1.91","SAST","3","f","links","18","","","object","j","0","true"
"null","<div style=""font-size:60px;"">+</div>","null","html-keyboard-response","190","242141","0.0-6.0-0.92","SAST","3","f","links","18","","fixation","","","",""
"1325","img/0_330.png","70","image-keyboard-response","191","243466","0.0-6.0-1.92","SAST","3","f","links","18","","","object","f","0","true"
"null","<div style=""font-size:60px;"">+</div>","null","html-keyboard-response","192","243867","0.0-6.0-0.93","SAST","3","f","links","18","","fixation","","","",""
"null","img/90_60.png","null","image-keyboard-response","193","246869","0.0-6.0-1.93","SAST","3","f","links","18","","","object","f","90","false"
"null","<div style=""font-size:60px;"">+</div>","null","html-keyboard-response","194","247221","0.0-6.0-0.94","SAST","3","f","links","18","","fixation","","","",""
"1071","img/60_270.png","70","image-keyboard-response","195","248293","0.0-6.0-1.94","SAST","3","f","links","18","","","object","f","60","true"
"null","<div style=""font-size:60px;"">+</div>","null","html-keyboard-response","196","248744","0.0-6.0-0.95","SAST","3","f","links","18","","fixation","","","",""
"null","img/60_180.png","null","image-keyboard-response","197","251746","0.0-6.0-1.95","SAST","3","f","links","18","","","object","f","60","false"
"null","<div style=""font-size:60px;"">+</div>","null","html-keyboard-response","198","252148","0.0-6.0-0.96","SAST","3","f","links","18","","fixation","","","",""
"2326","img/120_30.png","70","image-keyboard-response","199","254474","0.0-6.0-1.96","SAST","3","f","links","18","","","object","f","120","true"
"null","<div style=""font-size:60px;"">+</div>","null","html-keyboard-response","200","254826","0.0-6.0-0.97","SAST","3","f","links","18","","fixation","","","",""
"2054","img/150_300.png","74","image-keyboard-response","201","256880","0.0-6.0-1.97","SAST","3","f","links","18","","","object","j","150","true"
"null","<div style=""font-size:60px;"">+</div>","null","html-keyboard-response","202","257282","0.0-6.0-0.98","SAST","3","f","links","18","","fixation","","","",""
"2217","img/150_90.png","74","image-keyboard-response","203","259500","0.0-6.0-1.98","SAST","3","f","links","18","","","object","f","150","false"
"null","<div style=""font-size:60px;"">+</div>","null","html-keyboard-response","204","259852","0.0-6.0-0.99","SAST","3","f","links","18","","fixation","","","",""
"2233","img/90_300.png","70","image-keyboard-response","205","262087","0.0-6.0-1.99","SAST","3","f","links","18","","","object","j","90","false"
"null","<div style=""font-size:60px;"">+</div>","null","html-keyboard-response","206","262588","0.0-6.0-0.100","SAST","3","f","links","18","","fixation","","","",""
"null","img/60_330.png","null","image-keyboard-response","207","265591","0.0-6.0-1.100","SAST","3","f","links","18","","","object","j","60","false"
"null","<div style=""font-size:60px;"">+</div>","null","html-keyboard-response","208","266043","0.0-6.0-0.101","SAST","3","f","links","18","","fixation","","","",""
"715","img/60_150.png","74","image-keyboard-response","209","266758","0.0-6.0-1.101","SAST","3","f","links","18","","","object","j","60","true"
"null","<div style=""font-size:60px;"">+</div>","null","html-keyboard-response","210","267159","0.0-6.0-0.102","SAST","3","f","links","18","","fixation","","","",""
"1218","img/120_330.png","70","image-keyboard-response","211","268377","0.0-6.0-1.102","SAST","3","f","links","18","","","object","j","120","false"
"null","<div style=""font-size:60px;"">+</div>","null","html-keyboard-response","212","268828","0.0-6.0-0.103","SAST","3","f","links","18","","fixation","","","",""
"2142","img/30_240.png","70","image-keyboard-response","213","270971","0.0-6.0-1.103","SAST","3","f","links","18","","","object","f","30","true"
"null","<div style=""font-size:60px;"">+</div>","null","html-keyboard-response","214","271422","0.0-6.0-0.104","SAST","3","f","links","18","","fixation","","","",""
"null","img/90_180.png","null","image-keyboard-response","215","274425","0.0-6.0-1.104","SAST","3","f","links","18","","","object","f","90","false"
"null","<div style=""font-size:60px;"">+</div>","null","html-keyboard-response","216","274876","0.0-6.0-0.105","SAST","3","f","links","18","","fixation","","","",""
"747","img/90_240.png","70","image-keyboard-response","217","275624","0.0-6.0-1.105","SAST","3","f","links","18","","","object","f","90","true"
"null","<div style=""font-size:60px;"">+</div>","null","html-keyboard-response","218","276076","0.0-6.0-0.106","SAST","3","f","links","18","","fixation","","","",""
"2738","img/60_30.png","74","image-keyboard-response","219","278814","0.0-6.0-1.106","SAST","3","f","links","18","","","object","f","60","false"
"null","<div style=""font-size:60px;"">+</div>","null","html-keyboard-response","220","279216","0.0-6.0-0.107","SAST","3","f","links","18","","fixation","","","",""
"null","img/90_210.png","null","image-keyboard-response","221","282218","0.0-6.0-1.107","SAST","3","f","links","18","","","object","f","90","false"
"null","<div style=""font-size:60px;"">+</div>","null","html-keyboard-response","222","282519","0.0-6.0-0.108","SAST","3","f","links","18","","fixation","","","",""
"1168","img/90_30.png","74","image-keyboard-response","223","283688","0.0-6.0-1.108","SAST","3","f","links","18","","","object","f","90","false"
"null","<div style=""font-size:60px;"">+</div>","null","html-keyboard-response","224","284040","0.0-6.0-0.109","SAST","3","f","links","18","","fixation","","","",""
"832","img/0_300.png","70","image-keyboard-response","225","284872","0.0-6.0-1.109","SAST","3","f","links","18","","","object","f","0","true"
"null","<div style=""font-size:60px;"">+</div>","null","html-keyboard-response","226","285373","0.0-6.0-0.110","SAST","3","f","links","18","","fixation","","","",""
"1862","img/30_240.png","70","image-keyboard-response","227","287236","0.0-6.0-1.110","SAST","3","f","links","18","","","object","f","30","true"
"null","<div style=""font-size:60px;"">+</div>","null","html-keyboard-response","228","287537","0.0-6.0-0.111","SAST","3","f","links","18","","fixation","","","",""
"1288","img/L30_180.png","74","image-keyboard-response","229","288826","0.0-6.0-1.111","SAST","3","f","links","18","","","object","j","30","true"
"null","<div style=""font-size:60px;"">+</div>","null","html-keyboard-response","230","289328","0.0-6.0-0.112","SAST","3","f","links","18","","fixation","","","",""
"837","img/0_150.png","74","image-keyboard-response","231","290165","0.0-6.0-1.112","SAST","3","f","links","18","","","object","j","0","true"
"null","<div style=""font-size:60px;"">+</div>","null","html-keyboard-response","232","290617","0.0-6.0-0.113","SAST","3","f","links","18","","fixation","","","",""
"1100","img/30_120.png","74","image-keyboard-response","233","291717","0.0-6.0-1.113","SAST","3","f","links","18","","","object","j","30","true"
"null","<div style=""font-size:60px;"">+</div>","null","html-keyboard-response","234","292219","0.0-6.0-0.114","SAST","3","f","links","18","","fixation","","","",""
"763","img/0_90.png","74","image-keyboard-response","235","292982","0.0-6.0-1.114","SAST","3","f","links","18","","","object","j","0","true"
"null","<div style=""font-size:60px;"">+</div>","null","html-keyboard-response","236","293383","0.0-6.0-0.115","SAST","3","f","links","18","","fixation","","","",""
"1066","img/120_30.png","74","image-keyboard-response","237","294450","0.0-6.0-1.115","SAST","3","f","links","18","","","object","f","120","false"
"null","<div style=""font-size:60px;"">+</div>","null","html-keyboard-response","238","294752","0.0-6.0-0.116","SAST","3","f","links","18","","fixation","","","",""
"761","img/0_60.png","74","image-keyboard-response","239","295513","0.0-6.0-1.116","SAST","3","f","links","18","","","object","j","0","true"
"null","<div style=""font-size:60px;"">+</div>","null","html-keyboard-response","240","295964","0.0-6.0-0.117","SAST","3","f","links","18","","fixation","","","",""
"979","img/60_180.png","70","image-keyboard-response","241","296944","0.0-6.0-1.117","SAST","3","f","links","18","","","object","f","60","true"
"null","<div style=""font-size:60px;"">+</div>","null","html-keyboard-response","242","297346","0.0-6.0-0.118","SAST","3","f","links","18","","fixation","","","",""
"931","img/120_330.png","70","image-keyboard-response","243","298278","0.0-6.0-1.118","SAST","3","f","links","18","","","object","j","120","false"
"null","<div style=""font-size:60px;"">+</div>","null","html-keyboard-response","244","298729","0.0-6.0-0.119","SAST","3","f","links","18","","fixation","","","",""
"764","img/30_90.png","74","image-keyboard-response","245","299494","0.0-6.0-1.119","SAST","3","f","links","18","","","object","j","30","true"
"null","<div style=""font-size:60px;"">+</div>","null","html-keyboard-response","246","299846","0.0-6.0-0.120","SAST","3","f","links","18","","fixation","","","",""
"941","img/120_150.png","74","image-keyboard-response","247","300788","0.0-6.0-1.120","SAST","3","f","links","18","","","object","j","120","true"
"null","<div style=""font-size:60px;"">+</div>","null","html-keyboard-response","248","301139","0.0-6.0-0.121","SAST","3","f","links","18","","fixation","","","",""
"1052","img/L150_180.png","74","image-keyboard-response","249","302192","0.0-6.0-1.121","SAST","3","f","links","18","","","object","j","150","true"
"null","<div style=""font-size:60px;"">+</div>","null","html-keyboard-response","250","302694","0.0-6.0-0.122","SAST","3","f","links","18","","fixation","","","",""
"null","img/60_90.png","null","image-keyboard-response","251","305696","0.0-6.0-1.122","SAST","3","f","links","18","","","object","j","60","false"
"null","<div style=""font-size:60px;"">+</div>","null","html-keyboard-response","252","306098","0.0-6.0-0.123","SAST","3","f","links","18","","fixation","","","",""
"744","img/0_30.png","74","image-keyboard-response","253","306842","0.0-6.0-1.123","SAST","3","f","links","18","","","object","j","0","true"
"null","<div style=""font-size:60px;"">+</div>","null","html-keyboard-response","254","307193","0.0-6.0-0.124","SAST","3","f","links","18","","fixation","","","",""
"2157","img/120_180.png","70","image-keyboard-response","255","309351","0.0-6.0-1.124","SAST","3","f","links","18","","","object","f","120","true"
"null","<div style=""font-size:60px;"">+</div>","null","html-keyboard-response","256","309703","0.0-6.0-0.125","SAST","3","f","links","18","","fixation","","","",""
"914","img/120_270.png","70","image-keyboard-response","257","310618","0.0-6.0-1.125","SAST","3","f","links","18","","","object","j","120","false"
"null","<div style=""font-size:60px;"">+</div>","null","html-keyboard-response","258","311120","0.0-6.0-0.126","SAST","3","f","links","18","","fixation","","","",""
"2475","img/90_120.png","74","image-keyboard-response","259","313596","0.0-6.0-1.126","SAST","3","f","links","18","","","object","j","90","true"
"null","<div style=""font-size:60px;"">+</div>","null","html-keyboard-response","260","313998","0.0-6.0-0.127","SAST","3","f","links","18","","fixation","","","",""
"746","img/0_330.png","70","image-keyboard-response","261","314745","0.0-6.0-1.127","SAST","3","f","links","18","","","object","f","0","true"
"null","<div style=""font-size:60px;"">+</div>","null","html-keyboard-response","262","315197","0.0-6.0-0.128","SAST","3","f","links","18","","fixation","","","",""
"2261","img/150_180.png","70","image-keyboard-response","263","317459","0.0-6.0-1.128","SAST","3","f","links","18","","","object","f","150","true"
"null","<div style=""font-size:60px;"">+</div>","null","html-keyboard-response","264","317761","0.0-6.0-0.129","SAST","3","f","links","18","","fixation","","","",""
"1586","img/90_300.png","70","image-keyboard-response","265","319348","0.0-6.0-1.129","SAST","3","f","links","18","","","object","j","90","false"
"null","<div style=""font-size:60px;"">+</div>","null","html-keyboard-response","266","319700","0.0-6.0-0.130","SAST","3","f","links","18","","fixation","","","",""
"2135","img/120_210.png","74","image-keyboard-response","267","321836","0.0-6.0-1.130","SAST","3","f","links","18","","","object","f","120","false"
"null","<div style=""font-size:60px;"">+</div>","null","html-keyboard-response","268","322137","0.0-6.0-0.131","SAST","3","f","links","18","","fixation","","","",""
"2341","img/150_270.png","74","image-keyboard-response","269","324478","0.0-6.0-1.131","SAST","3","f","links","18","","","object","j","150","true"
"null","<div style=""font-size:60px;"">+</div>","null","html-keyboard-response","270","324880","0.0-6.0-0.132","SAST","3","f","links","18","","fixation","","","",""
"1436","img/30_300.png","70","image-keyboard-response","271","326317","0.0-6.0-1.132","SAST","3","f","links","18","","","object","f","30","true"
"null","<div style=""font-size:60px;"">+</div>","null","html-keyboard-response","272","326769","0.0-6.0-0.133","SAST","3","f","links","18","","fixation","","","",""
"1242","img/90_60.png","74","image-keyboard-response","273","328012","0.0-6.0-1.133","SAST","3","f","links","18","","","object","f","90","false"
"null","<div style=""font-size:60px;"">+</div>","null","html-keyboard-response","274","328464","0.0-6.0-0.134","SAST","3","f","links","18","","fixation","","","",""
"null","img/90_150.png","null","image-keyboard-response","275","331466","0.0-6.0-1.134","SAST","3","f","links","18","","","object","j","90","false"
"null","<div style=""font-size:60px;"">+</div>","null","html-keyboard-response","276","331917","0.0-6.0-0.135","SAST","3","f","links","18","","fixation","","","",""
"1101","img/0_240.png","70","image-keyboard-response","277","333018","0.0-6.0-1.135","SAST","3","f","links","18","","","object","f","0","true"
"null","<div style=""font-size:60px;"">+</div>","null","html-keyboard-response","278","333320","0.0-6.0-0.136","SAST","3","f","links","18","","fixation","","","",""
"2094","img/L60_180.png","74","image-keyboard-response","279","335414","0.0-6.0-1.136","SAST","3","f","links","18","","","object","j","60","true"
"null","<div style=""font-size:60px;"">+</div>","null","html-keyboard-response","280","335715","0.0-6.0-0.137","SAST","3","f","links","18","","fixation","","","",""
"null","img/60_330.png","null","image-keyboard-response","281","338717","0.0-6.0-1.137","SAST","3","f","links","18","","","object","j","60","false"
"null","<div style=""font-size:60px;"">+</div>","null","html-keyboard-response","282","339219","0.0-6.0-0.138","SAST","3","f","links","18","","fixation","","","",""
"495","img/60_210.png","70","image-keyboard-response","283","339715","0.0-6.0-1.138","SAST","3","f","links","18","","","object","f","60","true"
"null","<div style=""font-size:60px;"">+</div>","null","html-keyboard-response","284","340167","0.0-6.0-0.139","SAST","3","f","links","18","","fixation","","","",""
"null","img/30_60.png","null","image-keyboard-response","285","343167","0.0-6.0-1.139","SAST","3","f","links","18","","","object","j","30","false"
"null","<div style=""font-size:60px;"">+</div>","null","html-keyboard-response","286","343619","0.0-6.0-0.140","SAST","3","f","links","18","","fixation","","","",""
"70","img/L120_180.png","74","image-keyboard-response","287","343690","0.0-6.0-1.140","SAST","3","f","links","18","","","object","j","120","true"
"null","<div style=""font-size:60px;"">+</div>","null","html-keyboard-response","288","343992","0.0-6.0-0.141","SAST","3","f","links","18","","fixation","","","",""
"2476","img/30_270.png","70","image-keyboard-response","289","346470","0.0-6.0-1.141","SAST","3","f","links","18","","","object","f","30","true"
"null","<div style=""font-size:60px;"">+</div>","null","html-keyboard-response","290","346872","0.0-6.0-0.142","SAST","3","f","links","18","","fixation","","","",""
"813","img/0_210.png","70","image-keyboard-response","291","347686","0.0-6.0-1.142","SAST","3","f","links","18","","","object","f","0","true"
"null","<div style=""font-size:60px;"">+</div>","null","html-keyboard-response","292","347986","0.0-6.0-0.143","SAST","3","f","links","18","","fixation","","","",""
"null","img/150_120.png","null","image-keyboard-response","293","350988","0.0-6.0-1.143","SAST","3","f","links","18","","","object","f","150","false"
"null","<div style=""font-size:60px;"">+</div>","null","html-keyboard-response","294","351440","0.0-6.0-0.144","SAST","3","f","links","18","","fixation","","","",""
"62","img/0_270.png","74","image-keyboard-response","295","351503","0.0-6.0-1.144","SAST","3","f","links","18","","","object","f","0","false"
"null","<div style=""font-size:60px;"">+</div>","null","html-keyboard-response","296","352005","0.0-6.0-0.145","SAST","3","f","links","18","","fixation","","","",""
"1933","img/60_150.png","74","image-keyboard-response","297","353940","0.0-6.0-1.145","SAST","3","f","links","18","","","object","j","60","true"
"null","<div style=""font-size:60px;"">+</div>","null","html-keyboard-response","298","354341","0.0-6.0-0.146","SAST","3","f","links","18","","fixation","","","",""
"1406","img/L90_180.png","74","image-keyboard-response","299","355748","0.0-6.0-1.146","SAST","3","f","links","18","","","object","j","90","true"
"null","<div style=""font-size:60px;"">+</div>","null","html-keyboard-response","300","356200","0.0-6.0-0.147","SAST","3","f","links","18","","fixation","","","",""
"2545","img/120_90.png","70","image-keyboard-response","301","358746","0.0-6.0-1.147","SAST","3","f","links","18","","","object","f","120","true"
"null","<div style=""font-size:60px;"">+</div>","null","html-keyboard-response","302","359248","0.0-6.0-0.148","SAST","3","f","links","18","","fixation","","","",""
"1943","img/60_270.png","74","image-keyboard-response","303","361191","0.0-6.0-1.148","SAST","3","f","links","18","","","object","f","60","false"
"null","<div style=""font-size:60px;"">+</div>","null","html-keyboard-response","304","361693","0.0-6.0-0.149","SAST","3","f","links","18","","fixation","","","",""
"null","img/150_60.png","null","image-keyboard-response","305","364694","0.0-6.0-1.149","SAST","3","f","links","18","","","object","f","150","false"
"null","<div style=""font-size:60px;"">+</div>","null","html-keyboard-response","306","364995","0.0-6.0-0.150","SAST","3","f","links","18","","fixation","","","",""
"316","img/0_120.png","70","image-keyboard-response","307","365312","0.0-6.0-1.150","SAST","3","f","links","18","","","object","j","0","false"
"null","<div style=""font-size:60px;"">+</div>","null","html-keyboard-response","308","365664","0.0-6.0-0.151","SAST","3","f","links","18","","fixation","","","",""
"1181","img/90_330.png","70","image-keyboard-response","309","366846","0.0-6.0-1.151","SAST","3","f","links","18","","","object","j","90","false"
"null","<div style=""font-size:60px;"">+</div>","null","html-keyboard-response","310","367197","0.0-6.0-0.152","SAST","3","f","links","18","","fixation","","","",""
"1650","img/150_90.png","74","image-keyboard-response","311","368848","0.0-6.0-1.152","SAST","3","f","links","18","","","object","f","150","false"
"null","<div style=""font-size:60px;"">+</div>","null","html-keyboard-response","312","369300","0.0-6.0-0.153","SAST","3","f","links","18","","fixation","","","",""
"2915","img/150_300.png","70","image-keyboard-response","313","372215","0.0-6.0-1.153","SAST","3","f","links","18","","","object","j","150","false"
"null","<div style=""font-size:60px;"">+</div>","null","html-keyboard-response","314","372717","0.0-6.0-0.154","SAST","3","f","links","18","","fixation","","","",""
"null","img/150_240.png","null","image-keyboard-response","315","375719","0.0-6.0-1.154","SAST","3","f","links","18","","","object","j","150","false"
"null","<div style=""font-size:60px;"">+</div>","null","html-keyboard-response","316","376121","0.0-6.0-0.155","SAST","3","f","links","18","","fixation","","","",""
"1573","img/30_180.png","70","image-keyboard-response","317","377694","0.0-6.0-1.155","SAST","3","f","links","18","","","object","f","30","true"
"null","<div style=""font-size:60px;"">+</div>","null","html-keyboard-response","318","378146","0.0-6.0-0.156","SAST","3","f","links","18","","fixation","","","",""
"null","img/150_120.png","null","image-keyboard-response","319","381148","0.0-6.0-1.156","SAST","3","f","links","18","","","object","f","150","false"
"null","<div style=""font-size:60px;"">+</div>","null","html-keyboard-response","320","381650","0.0-6.0-0.157","SAST","3","f","links","18","","fixation","","","",""
"909","img/90_210.png","70","image-keyboard-response","321","382560","0.0-6.0-1.157","SAST","3","f","links","18","","","object","f","90","true"
"null","<div style=""font-size:60px;"">+</div>","null","html-keyboard-response","322","382962","0.0-6.0-0.158","SAST","3","f","links","18","","fixation","","","",""
"1162","img/90_30.png","74","image-keyboard-response","323","384125","0.0-6.0-1.158","SAST","3","f","links","18","","","object","f","90","false"
"null","<div style=""font-size:60px;"">+</div>","null","html-keyboard-response","324","384627","0.0-6.0-0.159","SAST","3","f","links","18","","fixation","","","",""
"null","img/L60_180.png","null","image-keyboard-response","325","387629","0.0-6.0-1.159","SAST","3","f","links","18","","","object","j","60","false"
"null","<div style=""font-size:60px;"">+</div>","null","html-keyboard-response","326","388081","0.0-6.0-0.160","SAST","3","f","links","18","","fixation","","","",""
"372","img/150_240.png","74","image-keyboard-response","327","388453","0.0-6.0-1.160","SAST","3","f","links","18","","","object","j","150","true"
"null","<div style=""font-size:60px;"">+</div>","null","html-keyboard-response","328","388854","0.0-6.0-0.161","SAST","3","f","links","18","","fixation","","","",""
"1244","img/60_90.png","74","image-keyboard-response","329","390099","0.0-6.0-1.161","SAST","3","f","links","18","","","object","j","60","true"
"null","<div style=""font-size:60px;"">+</div>","null","html-keyboard-response","330","390601","0.0-6.0-0.162","SAST","3","f","links","18","","fixation","","","",""
"null","img/150_270.png","null","image-keyboard-response","331","393603","0.0-6.0-1.162","SAST","3","f","links","18","","","object","j","150","false"
"null","<div style=""font-size:60px;"">+</div>","null","html-keyboard-response","332","394005","0.0-6.0-0.163","SAST","3","f","links","18","","fixation","","","",""
"1395","img/60_270.png","70","image-keyboard-response","333","395401","0.0-6.0-1.163","SAST","3","f","links","18","","","object","f","60","true"
"null","<div style=""font-size:60px;"">+</div>","null","html-keyboard-response","334","395902","0.0-6.0-0.164","SAST","3","f","links","18","","fixation","","","",""
"null","img/30_270.png","null","image-keyboard-response","335","398904","0.0-6.0-1.164","SAST","3","f","links","18","","","object","f","30","false"
"null","<div style=""font-size:60px;"">+</div>","null","html-keyboard-response","336","399356","0.0-6.0-0.165","SAST","3","f","links","18","","fixation","","","",""
"718","img/120_150.png","74","image-keyboard-response","337","400074","0.0-6.0-1.165","SAST","3","f","links","18","","","object","j","120","true"
"null","<div style=""font-size:60px;"">+</div>","null","html-keyboard-response","338","400476","0.0-6.0-0.166","SAST","3","f","links","18","","fixation","","","",""
"1079","img/60_150.png","74","image-keyboard-response","339","401556","0.0-6.0-1.166","SAST","3","f","links","18","","","object","j","60","true"
"null","<div style=""font-size:60px;"">+</div>","null","html-keyboard-response","340","402007","0.0-6.0-0.167","SAST","3","f","links","18","","fixation","","","",""
"1240","img/150_60.png","74","image-keyboard-response","341","403248","0.0-6.0-1.167","SAST","3","f","links","18","","","object","f","150","false"
"null","<div style=""font-size:60px;"">+</div>","null","html-keyboard-response","342","403699","0.0-6.0-0.168","SAST","3","f","links","18","","fixation","","","",""
"749","img/0_120.png","74","image-keyboard-response","343","404449","0.0-6.0-1.168","SAST","3","f","links","18","","","object","j","0","true"
"null","<div style=""font-size:60px;"">+</div>","null","html-keyboard-response","344","404900","0.0-6.0-0.169","SAST","3","f","links","18","","fixation","","","",""
"713","img/0_330.png","70","image-keyboard-response","345","405614","0.0-6.0-1.169","SAST","3","f","links","18","","","object","f","0","true"
"null","<div style=""font-size:60px;"">+</div>","null","html-keyboard-response","346","406116","0.0-6.0-0.170","SAST","3","f","links","18","","fixation","","","",""
"1314","img/30_90.png","74","image-keyboard-response","347","407431","0.0-6.0-1.170","SAST","3","f","links","18","","","object","j","30","true"
"null","<div style=""font-size:60px;"">+</div>","null","html-keyboard-response","348","407833","0.0-6.0-0.171","SAST","3","f","links","18","","fixation","","","",""
"883","img/0_150.png","74","image-keyboard-response","349","408717","0.0-6.0-1.171","SAST","3","f","links","18","","","object","j","0","true"
"null","<div style=""font-size:60px;"">+</div>","null","html-keyboard-response","350","409069","0.0-6.0-0.172","SAST","3","f","links","18","","fixation","","","",""
"2319","img/L30_180.png","74","image-keyboard-response","351","411389","0.0-6.0-1.172","SAST","3","f","links","18","","","object","j","30","true"
"null","<div style=""font-size:60px;"">+</div>","null","html-keyboard-response","352","411691","0.0-6.0-0.173","SAST","3","f","links","18","","fixation","","","",""
"2431","img/60_210.png","70","image-keyboard-response","353","414123","0.0-6.0-1.173","SAST","3","f","links","18","","","object","f","60","true"
"null","<div style=""font-size:60px;"">+</div>","null","html-keyboard-response","354","414425","0.0-6.0-0.174","SAST","3","f","links","18","","fixation","","","",""
"null","img/90_150.png","null","image-keyboard-response","355","417427","0.0-6.0-1.174","SAST","3","f","links","18","","","object","j","90","false"
"null","<div style=""font-size:60px;"">+</div>","null","html-keyboard-response","356","417829","0.0-6.0-0.175","SAST","3","f","links","18","","fixation","","","",""
"null","img/L90_180.png","null","image-keyboard-response","357","420831","0.0-6.0-1.175","SAST","3","f","links","18","","","object","j","90","false"
"null","<div style=""font-size:60px;"">+</div>","null","html-keyboard-response","358","421133","0.0-6.0-0.176","SAST","3","f","links","18","","fixation","","","",""
"778","img/0_30.png","74","image-keyboard-response","359","421912","0.0-6.0-1.176","SAST","3","f","links","18","","","object","j","0","true"
"null","<div style=""font-size:60px;"">+</div>","null","html-keyboard-response","360","422214","0.0-6.0-0.177","SAST","3","f","links","18","","fixation","","","",""
"1646","img/30_180.png","70","image-keyboard-response","361","423861","0.0-6.0-1.177","SAST","3","f","links","18","","","object","f","30","true"
"null","<div style=""font-size:60px;"">+</div>","null","html-keyboard-response","362","424163","0.0-6.0-0.178","SAST","3","f","links","18","","fixation","","","",""
"null","img/120_270.png","null","image-keyboard-response","363","427165","0.0-6.0-1.178","SAST","3","f","links","18","","","object","j","120","false"
"null","<div style=""font-size:60px;"">+</div>","null","html-keyboard-response","364","427517","0.0-6.0-0.179","SAST","3","f","links","18","","fixation","","","",""
"1163","img/150_90.png","70","image-keyboard-response","365","428681","0.0-6.0-1.179","SAST","3","f","links","18","","","object","f","150","true"
"null","<div style=""font-size:60px;"">+</div>","null","html-keyboard-response","366","429083","0.0-6.0-0.180","SAST","3","f","links","18","","fixation","","","",""
"null","img/60_180.png","null","image-keyboard-response","367","432085","0.0-6.0-1.180","SAST","3","f","links","18","","","object","f","60","false"
"null","<div style=""font-size:60px;"">+</div>","null","html-keyboard-response","368","432387","0.0-6.0-0.181","SAST","3","f","links","18","","fixation","","","",""
"1101","img/30_120.png","74","image-keyboard-response","369","433488","0.0-6.0-1.181","SAST","3","f","links","18","","","object","j","30","true"
"null","<div style=""font-size:60px;"">+</div>","null","html-keyboard-response","370","433789","0.0-6.0-0.182","SAST","3","f","links","18","","fixation","","","",""
"null","img/120_30.png","null","image-keyboard-response","371","436791","0.0-6.0-1.182","SAST","3","f","links","18","","","object","f","120","false"
"null","<div style=""font-size:60px;"">+</div>","null","html-keyboard-response","372","437193","0.0-6.0-0.183","SAST","3","f","links","18","","fixation","","","",""
"1065","img/90_300.png","70","image-keyboard-response","373","438259","0.0-6.0-1.183","SAST","3","f","links","18","","","object","j","90","false"
"null","<div style=""font-size:60px;"">+</div>","null","html-keyboard-response","374","438761","0.0-6.0-0.184","SAST","3","f","links","18","","fixation","","","",""
"1320","img/90_120.png","74","image-keyboard-response","375","440081","0.0-6.0-1.184","SAST","3","f","links","18","","","object","j","90","true"
"null","<div style=""font-size:60px;"">+</div>","null","html-keyboard-response","376","440433","0.0-6.0-0.185","SAST","3","f","links","18","","fixation","","","",""
"2192","img/30_240.png","70","image-keyboard-response","377","442625","0.0-6.0-1.185","SAST","3","f","links","18","","","object","f","30","true"
"null","<div style=""font-size:60px;"">+</div>","null","html-keyboard-response","378","443027","0.0-6.0-0.186","SAST","3","f","links","18","","fixation","","","",""
"1067","img/0_300.png","70","image-keyboard-response","379","444095","0.0-6.0-1.186","SAST","3","f","links","18","","","object","f","0","true"
"null","<div style=""font-size:60px;"">+</div>","null","html-keyboard-response","380","444597","0.0-6.0-0.187","SAST","3","f","links","18","","fixation","","","",""
"1954","img/L150_180.png","74","image-keyboard-response","381","446552","0.0-6.0-1.187","SAST","3","f","links","18","","","object","j","150","true"
"null","<div style=""font-size:60px;"">+</div>","null","html-keyboard-response","382","446954","0.0-6.0-0.188","SAST","3","f","links","18","","fixation","","","",""
"1110","img/120_180.png","70","image-keyboard-response","383","448065","0.0-6.0-1.188","SAST","3","f","links","18","","","object","f","120","true"
"null","<div style=""font-size:60px;"">+</div>","null","html-keyboard-response","384","448517","0.0-6.0-0.189","SAST","3","f","links","18","","fixation","","","",""
"1359","img/90_60.png","74","image-keyboard-response","385","449876","0.0-6.0-1.189","SAST","3","f","links","18","","","object","f","90","false"
"null","<div style=""font-size:60px;"">+</div>","null","html-keyboard-response","386","450228","0.0-6.0-0.190","SAST","3","f","links","18","","fixation","","","",""
"1755","img/150_300.png","74","image-keyboard-response","387","451984","0.0-6.0-1.190","SAST","3","f","links","18","","","object","j","150","true"
"null","<div style=""font-size:60px;"">+</div>","null","html-keyboard-response","388","452386","0.0-6.0-0.191","SAST","3","f","links","18","","fixation","","","",""
"961","img/0_240.png","70","image-keyboard-response","389","453348","0.0-6.0-1.191","SAST","3","f","links","18","","","object","f","0","true"
"null","<div style=""font-size:60px;"">+</div>","null","html-keyboard-response","390","453700","0.0-6.0-0.192","SAST","3","f","links","18","","fixation","","","",""
"1709","img/L120_180.png","74","image-keyboard-response","391","455411","0.0-6.0-1.192","SAST","3","f","links","18","","","object","j","120","true"
"null","<div style=""font-size:60px;"">+</div>","null","html-keyboard-response","392","455862","0.0-6.0-0.193","SAST","3","f","links","18","","fixation","","","",""
"2956","img/90_180.png","70","image-keyboard-response","393","458818","0.0-6.0-1.193","SAST","3","f","links","18","","","object","f","90","true"
"null","<div style=""font-size:60px;"">+</div>","null","html-keyboard-response","394","459320","0.0-6.0-0.194","SAST","3","f","links","18","","fixation","","","",""
"1932","img/30_60.png","74","image-keyboard-response","395","461253","0.0-6.0-1.194","SAST","3","f","links","18","","","object","j","30","true"
"null","<div style=""font-size:60px;"">+</div>","null","html-keyboard-response","396","461655","0.0-6.0-0.195","SAST","3","f","links","18","","fixation","","","",""
"1462","img/60_30.png","74","image-keyboard-response","397","463118","0.0-6.0-1.195","SAST","3","f","links","18","","","object","f","60","false"
"null","<div style=""font-size:60px;"">+</div>","null","html-keyboard-response","398","463620","0.0-6.0-0.196","SAST","3","f","links","18","","fixation","","","",""
"2486","img/120_330.png","70","image-keyboard-response","399","466107","0.0-6.0-1.196","SAST","3","f","links","18","","","object","j","120","false"
"null","<div style=""font-size:60px;"">+</div>","null","html-keyboard-response","400","466609","0.0-6.0-0.197","SAST","3","f","links","18","","fixation","","","",""
"1012","img/0_90.png","74","image-keyboard-response","401","467622","0.0-6.0-1.197","SAST","3","f","links","18","","","object","j","0","true"
"null","<div style=""font-size:60px;"">+</div>","null","html-keyboard-response","402","467974","0.0-6.0-0.198","SAST","3","f","links","18","","fixation","","","",""
"725","img/0_60.png","74","image-keyboard-response","403","468699","0.0-6.0-1.198","SAST","3","f","links","18","","","object","j","0","true"
"null","<div style=""font-size:60px;"">+</div>","null","html-keyboard-response","404","469051","0.0-6.0-0.199","SAST","3","f","links","18","","fixation","","","",""
"2055","img/120_90.png","70","image-keyboard-response","405","471107","0.0-6.0-1.199","SAST","3","f","links","18","","","object","f","120","true"
"null","<div style=""font-size:60px;"">+</div>","null","html-keyboard-response","406","471609","0.0-6.0-0.200","SAST","3","f","links","18","","fixation","","","",""
"897","img/60_330.png","70","image-keyboard-response","407","472507","0.0-6.0-1.200","SAST","3","f","links","18","","","object","j","60","false"
"null","<div style=""font-size:60px;"">+</div>","null","html-keyboard-response","408","473009","0.0-6.0-0.201","SAST","3","f","links","18","","fixation","","","",""
"1289","img/120_210.png","74","image-keyboard-response","409","474299","0.0-6.0-1.201","SAST","3","f","links","18","","","object","f","120","false"
"null","<div style=""font-size:60px;"">+</div>","null","html-keyboard-response","410","474701","0.0-6.0-0.202","SAST","3","f","links","18","","fixation","","","",""
"null","img/150_180.png","null","image-keyboard-response","411","477703","0.0-6.0-1.202","SAST","3","f","links","18","","","object","f","150","false"
"null","<div style=""font-size:60px;"">+</div>","null","html-keyboard-response","412","478105","0.0-6.0-0.203","SAST","3","f","links","18","","fixation","","","",""
"701","img/30_300.png","70","image-keyboard-response","413","478806","0.0-6.0-1.203","SAST","3","f","links","18","","","object","f","30","true"
"null","<div style=""font-size:60px;"">+</div>","null","html-keyboard-response","414","479308","0.0-6.0-0.204","SAST","3","f","links","18","","fixation","","","",""
"1118","img/0_210.png","70","image-keyboard-response","415","480427","0.0-6.0-1.204","SAST","3","f","links","18","","","object","f","0","true"
"null","<div style=""font-size:60px;"">+</div>","null","html-keyboard-response","416","480879","0.0-6.0-0.205","SAST","3","f","links","18","","fixation","","","",""
"1568","img/0_270.png","70","image-keyboard-response","417","482448","0.0-6.0-1.205","SAST","3","f","links","18","","","object","f","0","true"
"null","<div style=""font-size:60px;"">+</div>","null","html-keyboard-response","418","482899","0.0-6.0-0.206","SAST","3","f","links","18","","fixation","","","",""
"930","img/90_240.png","70","image-keyboard-response","419","483830","0.0-6.0-1.206","SAST","3","f","links","18","","","object","f","90","true"
"null","<div style=""font-size:60px;"">+</div>","null","html-keyboard-response","420","484132","0.0-6.0-0.207","SAST","3","f","links","18","","fixation","","","",""
"1001","img/90_330.png","70","image-keyboard-response","421","485133","0.0-6.0-1.207","SAST","3","f","links","18","","","object","j","90","false"
"9122","<p>Du hast in 62% der Versuche korrekt entschieden.</p><p>Deine durchschnittliche Reaktionszeit war  1410ms.</p><p>Dr&uuml;cke eine beliebige Taste, um die Session zu beenden. Vielen Dank!</p>","72","html-keyboard-response","422","494256","0.0-7.0","SAST","3","f","links","18","","","","","",""
