"rt","stimulus","key_press","trial_type","trial_index","time_elapsed","internal_node_id","subject","session","sex","handedness","age","responses","test_part","condition","correct_response","angle","correct"
"2121","<p>Mental Rotation Experiment.</p> <p>Dr&uuml;cke eine beliebige Taste, um anzufangen.</p>","71","html-keyboard-response","0","2125","0.0-0.0","SAST","1","f","links","18","","","","","",""
"4193","","","survey-text","1","6320","0.0-1.0","SAST","1","f","links","18","{""Q0"":""SAST""}","","","","",""
"948","","","survey-text","2","7269","0.0-2.0","SAST","1","f","links","18","{""Q0"":""1""}","","","","",""
"2284","","","survey-multi-choice","3","9555","0.0-3.0","SAST","1","f","links","18","{""Q0"":""f"",""Q1"":""links""}","","","","",""
"2364","","","survey-text","4","11920","0.0-4.0","SAST","1","f","links","18","{""Q0"":""18""}","","","","",""
"288141","<p>Stell dir vor, dass du vor einem runden Tisch stehst, auf dem sich ein blauer Ball am Tischrand befindet. Entlang des Tischrands ist jeweils ein verschieden langer Pfeil. Nun bleibst du an deinem Platz vor dem Tisch und rotierst den Tisch entlang des Pfeils (gleiche Richtung und Länge). </p> <img src='img/30_180.png'></img> <br><p> Nachdem du diese (vorgestellte) Rotation durchgef&uuml;hrt hast, schau in Richtung der Tischmitte, und entscheide dann, ob der Ball links oder rechts von dir liegt.</p> <p>Dr&uuml;cke die <strong>'f'</strong>-Taste f&uuml;r links, die <strong>'j'</strong>-Taste f&uuml;r rechts.</p><br><p> Das Bild wird jeweils 1 Sekunde lang pr&auml;sentiert. Du hast 3 Sekunden Zeit eine Entscheidung zu treffen.</p>","74","html-keyboard-response","5","300062","0.0-5.0","SAST","1","f","links","18","","","","","",""
"null","<div style=""font-size:60px;"">+</div>","null","html-keyboard-response","6","301416","0.0-6.0-0.0","SAST","1","f","links","18","","fixation","","","",""
"834","img/0_90.png","74","image-keyboard-response","7","302252","0.0-6.0-1.0","SAST","1","f","links","18","","","object","j","0","true"
"null","<div style=""font-size:60px;"">+</div>","null","html-keyboard-response","8","302604","0.0-6.0-0.1","SAST","1","f","links","18","","fixation","","","",""
"1094","img/30_270.png","70","image-keyboard-response","9","303700","0.0-6.0-1.1","SAST","1","f","links","18","","","object","f","30","true"
"null","<div style=""font-size:60px;"">+</div>","null","html-keyboard-response","10","304151","0.0-6.0-0.2","SAST","1","f","links","18","","fixation","","","",""
"952","img/120_180.png","70","image-keyboard-response","11","305106","0.0-6.0-1.2","SAST","1","f","links","18","","","object","f","120","true"
"null","<div style=""font-size:60px;"">+</div>","null","html-keyboard-response","12","305607","0.0-6.0-0.3","SAST","1","f","links","18","","fixation","","","",""
"1151","img/150_240.png","70","image-keyboard-response","13","306760","0.0-6.0-1.3","SAST","1","f","links","18","","","object","j","150","false"
"null","<div style=""font-size:60px;"">+</div>","null","html-keyboard-response","14","307061","0.0-6.0-0.4","SAST","1","f","links","18","","fixation","","","",""
"1074","img/90_30.png","74","image-keyboard-response","15","308136","0.0-6.0-1.4","SAST","1","f","links","18","","","object","f","90","false"
"null","<div style=""font-size:60px;"">+</div>","null","html-keyboard-response","16","308587","0.0-6.0-0.5","SAST","1","f","links","18","","fixation","","","",""
"666","img/60_270.png","70","image-keyboard-response","17","309256","0.0-6.0-1.5","SAST","1","f","links","18","","","object","f","60","true"
"null","<div style=""font-size:60px;"">+</div>","null","html-keyboard-response","18","309757","0.0-6.0-0.6","SAST","1","f","links","18","","fixation","","","",""
"792","img/0_120.png","74","image-keyboard-response","19","310551","0.0-6.0-1.6","SAST","1","f","links","18","","","object","j","0","true"
"null","<div style=""font-size:60px;"">+</div>","null","html-keyboard-response","20","310902","0.0-6.0-0.7","SAST","1","f","links","18","","fixation","","","",""
"729","img/90_180.png","70","image-keyboard-response","21","311632","0.0-6.0-1.7","SAST","1","f","links","18","","","object","f","90","true"
"null","<div style=""font-size:60px;"">+</div>","null","html-keyboard-response","22","312033","0.0-6.0-0.8","SAST","1","f","links","18","","fixation","","","",""
"848","img/L120_180.png","74","image-keyboard-response","23","312882","0.0-6.0-1.8","SAST","1","f","links","18","","","object","j","120","true"
"null","<div style=""font-size:60px;"">+</div>","null","html-keyboard-response","24","313184","0.0-6.0-0.9","SAST","1","f","links","18","","fixation","","","",""
"822","img/0_30.png","74","image-keyboard-response","25","314007","0.0-6.0-1.9","SAST","1","f","links","18","","","object","j","0","true"
"null","<div style=""font-size:60px;"">+</div>","null","html-keyboard-response","26","314309","0.0-6.0-0.10","SAST","1","f","links","18","","fixation","","","",""
"749","img/120_270.png","70","image-keyboard-response","27","315059","0.0-6.0-1.10","SAST","1","f","links","18","","","object","j","120","false"
"null","<div style=""font-size:60px;"">+</div>","null","html-keyboard-response","28","315361","0.0-6.0-0.11","SAST","1","f","links","18","","fixation","","","",""
"1064","img/30_300.png","70","image-keyboard-response","29","316427","0.0-6.0-1.11","SAST","1","f","links","18","","","object","f","30","true"
"null","<div style=""font-size:60px;"">+</div>","null","html-keyboard-response","30","316728","0.0-6.0-0.12","SAST","1","f","links","18","","fixation","","","",""
"1078","img/30_120.png","74","image-keyboard-response","31","317807","0.0-6.0-1.12","SAST","1","f","links","18","","","object","j","30","true"
"null","<div style=""font-size:60px;"">+</div>","null","html-keyboard-response","32","318109","0.0-6.0-0.13","SAST","1","f","links","18","","fixation","","","",""
"1070","img/90_60.png","74","image-keyboard-response","33","319180","0.0-6.0-1.13","SAST","1","f","links","18","","","object","f","90","false"
"null","<div style=""font-size:60px;"">+</div>","null","html-keyboard-response","34","319682","0.0-6.0-0.14","SAST","1","f","links","18","","fixation","","","",""
"1161","img/150_60.png","74","image-keyboard-response","35","320844","0.0-6.0-1.14","SAST","1","f","links","18","","","object","f","150","false"
"null","<div style=""font-size:60px;"">+</div>","null","html-keyboard-response","36","321296","0.0-6.0-0.15","SAST","1","f","links","18","","fixation","","","",""
"822","img/150_180.png","70","image-keyboard-response","37","322119","0.0-6.0-1.15","SAST","1","f","links","18","","","object","f","150","true"
"null","<div style=""font-size:60px;"">+</div>","null","html-keyboard-response","38","322571","0.0-6.0-0.16","SAST","1","f","links","18","","fixation","","","",""
"1223","img/90_150.png","74","image-keyboard-response","39","323795","0.0-6.0-1.16","SAST","1","f","links","18","","","object","j","90","true"
"null","<div style=""font-size:60px;"">+</div>","null","html-keyboard-response","40","324297","0.0-6.0-0.17","SAST","1","f","links","18","","fixation","","","",""
"961","img/60_90.png","74","image-keyboard-response","41","325259","0.0-6.0-1.17","SAST","1","f","links","18","","","object","j","60","true"
"null","<div style=""font-size:60px;"">+</div>","null","html-keyboard-response","42","325611","0.0-6.0-0.18","SAST","1","f","links","18","","fixation","","","",""
"787","img/L90_180.png","74","image-keyboard-response","43","326399","0.0-6.0-1.18","SAST","1","f","links","18","","","object","j","90","true"
"null","<div style=""font-size:60px;"">+</div>","null","html-keyboard-response","44","326701","0.0-6.0-0.19","SAST","1","f","links","18","","fixation","","","",""
"1207","img/30_180.png","70","image-keyboard-response","45","327909","0.0-6.0-1.19","SAST","1","f","links","18","","","object","f","30","true"
"null","<div style=""font-size:60px;"">+</div>","null","html-keyboard-response","46","328311","0.0-6.0-0.20","SAST","1","f","links","18","","fixation","","","",""
"822","img/120_210.png","70","image-keyboard-response","47","329134","0.0-6.0-1.20","SAST","1","f","links","18","","","object","f","120","true"
"null","<div style=""font-size:60px;"">+</div>","null","html-keyboard-response","48","329486","0.0-6.0-0.21","SAST","1","f","links","18","","fixation","","","",""
"755","img/150_300.png","74","image-keyboard-response","49","330242","0.0-6.0-1.21","SAST","1","f","links","18","","","object","j","150","true"
"null","<div style=""font-size:60px;"">+</div>","null","html-keyboard-response","50","330744","0.0-6.0-0.22","SAST","1","f","links","18","","fixation","","","",""
"827","img/L30_180.png","74","image-keyboard-response","51","331572","0.0-6.0-1.22","SAST","1","f","links","18","","","object","j","30","true"
"null","<div style=""font-size:60px;"">+</div>","null","html-keyboard-response","52","331974","0.0-6.0-0.23","SAST","1","f","links","18","","fixation","","","",""
"853","img/60_180.png","70","image-keyboard-response","53","332828","0.0-6.0-1.23","SAST","1","f","links","18","","","object","f","60","true"
"null","<div style=""font-size:60px;"">+</div>","null","html-keyboard-response","54","333230","0.0-6.0-0.24","SAST","1","f","links","18","","fixation","","","",""
"1066","img/90_210.png","70","image-keyboard-response","55","334298","0.0-6.0-1.24","SAST","1","f","links","18","","","object","f","90","true"
"null","<div style=""font-size:60px;"">+</div>","null","html-keyboard-response","56","334599","0.0-6.0-0.25","SAST","1","f","links","18","","fixation","","","",""
"713","img/0_60.png","74","image-keyboard-response","57","335313","0.0-6.0-1.25","SAST","1","f","links","18","","","object","j","0","true"
"null","<div style=""font-size:60px;"">+</div>","null","html-keyboard-response","58","335815","0.0-6.0-0.26","SAST","1","f","links","18","","fixation","","","",""
"915","img/30_60.png","74","image-keyboard-response","59","336731","0.0-6.0-1.26","SAST","1","f","links","18","","","object","j","30","true"
"null","<div style=""font-size:60px;"">+</div>","null","html-keyboard-response","60","337033","0.0-6.0-0.27","SAST","1","f","links","18","","fixation","","","",""
"963","img/60_150.png","74","image-keyboard-response","61","337997","0.0-6.0-1.27","SAST","1","f","links","18","","","object","j","60","true"
"null","<div style=""font-size:60px;"">+</div>","null","html-keyboard-response","62","338298","0.0-6.0-0.28","SAST","1","f","links","18","","fixation","","","",""
"757","img/0_330.png","70","image-keyboard-response","63","339056","0.0-6.0-1.28","SAST","1","f","links","18","","","object","f","0","true"
"null","<div style=""font-size:60px;"">+</div>","null","html-keyboard-response","64","339357","0.0-6.0-0.29","SAST","1","f","links","18","","fixation","","","",""
"1068","img/L150_180.png","74","image-keyboard-response","65","340427","0.0-6.0-1.29","SAST","1","f","links","18","","","object","j","150","true"
"null","<div style=""font-size:60px;"">+</div>","null","html-keyboard-response","66","340729","0.0-6.0-0.30","SAST","1","f","links","18","","fixation","","","",""
"1173","img/90_300.png","70","image-keyboard-response","67","341903","0.0-6.0-1.30","SAST","1","f","links","18","","","object","j","90","false"
"null","<div style=""font-size:60px;"">+</div>","null","html-keyboard-response","68","342404","0.0-6.0-0.31","SAST","1","f","links","18","","fixation","","","",""
"1093","img/90_120.png","74","image-keyboard-response","69","343499","0.0-6.0-1.31","SAST","1","f","links","18","","","object","j","90","true"
"null","<div style=""font-size:60px;"">+</div>","null","html-keyboard-response","70","343800","0.0-6.0-0.32","SAST","1","f","links","18","","fixation","","","",""
"1268","img/L60_180.png","74","image-keyboard-response","71","345070","0.0-6.0-1.32","SAST","1","f","links","18","","","object","j","60","true"
"null","<div style=""font-size:60px;"">+</div>","null","html-keyboard-response","72","345372","0.0-6.0-0.33","SAST","1","f","links","18","","fixation","","","",""
"1135","img/120_30.png","74","image-keyboard-response","73","346508","0.0-6.0-1.33","SAST","1","f","links","18","","","object","f","120","false"
"null","<div style=""font-size:60px;"">+</div>","null","html-keyboard-response","74","346810","0.0-6.0-0.34","SAST","1","f","links","18","","fixation","","","",""
"831","img/0_300.png","70","image-keyboard-response","75","347642","0.0-6.0-1.34","SAST","1","f","links","18","","","object","f","0","true"
"null","<div style=""font-size:60px;"">+</div>","null","html-keyboard-response","76","348094","0.0-6.0-0.35","SAST","1","f","links","18","","fixation","","","",""
"1066","img/60_30.png","74","image-keyboard-response","77","349161","0.0-6.0-1.35","SAST","1","f","links","18","","","object","f","60","false"
"null","<div style=""font-size:60px;"">+</div>","null","html-keyboard-response","78","349512","0.0-6.0-0.36","SAST","1","f","links","18","","fixation","","","",""
"983","img/0_270.png","70","image-keyboard-response","79","350498","0.0-6.0-1.36","SAST","1","f","links","18","","","object","f","0","true"
"null","<div style=""font-size:60px;"">+</div>","null","html-keyboard-response","80","350798","0.0-6.0-0.37","SAST","1","f","links","18","","fixation","","","",""
"1033","img/0_210.png","70","image-keyboard-response","81","351832","0.0-6.0-1.37","SAST","1","f","links","18","","","object","f","0","true"
"null","<div style=""font-size:60px;"">+</div>","null","html-keyboard-response","82","352283","0.0-6.0-0.38","SAST","1","f","links","18","","fixation","","","",""
"878","img/30_240.png","70","image-keyboard-response","83","353164","0.0-6.0-1.38","SAST","1","f","links","18","","","object","f","30","true"
"null","<div style=""font-size:60px;"">+</div>","null","html-keyboard-response","84","353615","0.0-6.0-0.39","SAST","1","f","links","18","","fixation","","","",""
"831","img/0_240.png","70","image-keyboard-response","85","354448","0.0-6.0-1.39","SAST","1","f","links","18","","","object","f","0","true"
"null","<div style=""font-size:60px;"">+</div>","null","html-keyboard-response","86","354750","0.0-6.0-0.40","SAST","1","f","links","18","","fixation","","","",""
"1249","img/150_120.png","74","image-keyboard-response","87","356001","0.0-6.0-1.40","SAST","1","f","links","18","","","object","f","150","false"
"null","<div style=""font-size:60px;"">+</div>","null","html-keyboard-response","88","356302","0.0-6.0-0.41","SAST","1","f","links","18","","fixation","","","",""
"1328","img/60_330.png","70","image-keyboard-response","89","357633","0.0-6.0-1.41","SAST","1","f","links","18","","","object","j","60","false"
"null","<div style=""font-size:60px;"">+</div>","null","html-keyboard-response","90","357934","0.0-6.0-0.42","SAST","1","f","links","18","","fixation","","","",""
"1237","img/60_210.png","70","image-keyboard-response","91","359174","0.0-6.0-1.42","SAST","1","f","links","18","","","object","f","60","true"
"null","<div style=""font-size:60px;"">+</div>","null","html-keyboard-response","92","359575","0.0-6.0-0.43","SAST","1","f","links","18","","fixation","","","",""
"932","img/30_90.png","74","image-keyboard-response","93","360510","0.0-6.0-1.43","SAST","1","f","links","18","","","object","j","30","true"
"null","<div style=""font-size:60px;"">+</div>","null","html-keyboard-response","94","360811","0.0-6.0-0.44","SAST","1","f","links","18","","fixation","","","",""
"886","img/90_330.png","70","image-keyboard-response","95","361698","0.0-6.0-1.44","SAST","1","f","links","18","","","object","j","90","false"
"null","<div style=""font-size:60px;"">+</div>","null","html-keyboard-response","96","362100","0.0-6.0-0.45","SAST","1","f","links","18","","fixation","","","",""
"842","img/150_90.png","74","image-keyboard-response","97","362944","0.0-6.0-1.45","SAST","1","f","links","18","","","object","f","150","false"
"null","<div style=""font-size:60px;"">+</div>","null","html-keyboard-response","98","363295","0.0-6.0-0.46","SAST","1","f","links","18","","fixation","","","",""
"882","img/90_240.png","70","image-keyboard-response","99","364180","0.0-6.0-1.46","SAST","1","f","links","18","","","object","f","90","true"
"null","<div style=""font-size:60px;"">+</div>","null","html-keyboard-response","100","364480","0.0-6.0-0.47","SAST","1","f","links","18","","fixation","","","",""
"749","img/0_150.png","74","image-keyboard-response","101","365231","0.0-6.0-1.47","SAST","1","f","links","18","","","object","j","0","true"
"null","<div style=""font-size:60px;"">+</div>","null","html-keyboard-response","102","365733","0.0-6.0-0.48","SAST","1","f","links","18","","fixation","","","",""
"767","img/150_270.png","70","image-keyboard-response","103","366501","0.0-6.0-1.48","SAST","1","f","links","18","","","object","j","150","false"
"null","<div style=""font-size:60px;"">+</div>","null","html-keyboard-response","104","366803","0.0-6.0-0.49","SAST","1","f","links","18","","fixation","","","",""
"657","img/120_150.png","74","image-keyboard-response","105","367461","0.0-6.0-1.49","SAST","1","f","links","18","","","object","j","120","true"
"null","<div style=""font-size:60px;"">+</div>","null","html-keyboard-response","106","367963","0.0-6.0-0.50","SAST","1","f","links","18","","fixation","","","",""
"645","img/120_90.png","74","image-keyboard-response","107","368609","0.0-6.0-1.50","SAST","1","f","links","18","","","object","f","120","false"
"null","<div style=""font-size:60px;"">+</div>","null","html-keyboard-response","108","368911","0.0-6.0-0.51","SAST","1","f","links","18","","fixation","","","",""
"777","img/120_330.png","70","image-keyboard-response","109","369689","0.0-6.0-1.51","SAST","1","f","links","18","","","object","j","120","false"
"null","<div style=""font-size:60px;"">+</div>","null","html-keyboard-response","110","370141","0.0-6.0-0.52","SAST","1","f","links","18","","fixation","","","",""
"661","img/30_120.png","74","image-keyboard-response","111","370803","0.0-6.0-1.52","SAST","1","f","links","18","","","object","j","30","true"
"null","<div style=""font-size:60px;"">+</div>","null","html-keyboard-response","112","371155","0.0-6.0-0.53","SAST","1","f","links","18","","fixation","","","",""
"718","img/30_180.png","70","image-keyboard-response","113","371874","0.0-6.0-1.53","SAST","1","f","links","18","","","object","f","30","true"
"null","<div style=""font-size:60px;"">+</div>","null","html-keyboard-response","114","372326","0.0-6.0-0.54","SAST","1","f","links","18","","fixation","","","",""
"677","img/60_270.png","70","image-keyboard-response","115","373004","0.0-6.0-1.54","SAST","1","f","links","18","","","object","f","60","true"
"null","<div style=""font-size:60px;"">+</div>","null","html-keyboard-response","116","373406","0.0-6.0-0.55","SAST","1","f","links","18","","fixation","","","",""
"686","img/30_270.png","70","image-keyboard-response","117","374092","0.0-6.0-1.55","SAST","1","f","links","18","","","object","f","30","true"
"null","<div style=""font-size:60px;"">+</div>","null","html-keyboard-response","118","374594","0.0-6.0-0.56","SAST","1","f","links","18","","fixation","","","",""
"694","img/60_210.png","70","image-keyboard-response","119","375289","0.0-6.0-1.56","SAST","1","f","links","18","","","object","f","60","true"
"null","<div style=""font-size:60px;"">+</div>","null","html-keyboard-response","120","375691","0.0-6.0-0.57","SAST","1","f","links","18","","fixation","","","",""
"498","img/60_180.png","70","image-keyboard-response","121","376189","0.0-6.0-1.57","SAST","1","f","links","18","","","object","f","60","true"
"null","<div style=""font-size:60px;"">+</div>","null","html-keyboard-response","122","376641","0.0-6.0-0.58","SAST","1","f","links","18","","fixation","","","",""
"710","img/0_240.png","70","image-keyboard-response","123","377351","0.0-6.0-1.58","SAST","1","f","links","18","","","object","f","0","true"
"null","<div style=""font-size:60px;"">+</div>","null","html-keyboard-response","124","377703","0.0-6.0-0.59","SAST","1","f","links","18","","fixation","","","",""
"600","img/90_150.png","74","image-keyboard-response","125","378304","0.0-6.0-1.59","SAST","1","f","links","18","","","object","j","90","true"
"null","<div style=""font-size:60px;"">+</div>","null","html-keyboard-response","126","378806","0.0-6.0-0.60","SAST","1","f","links","18","","fixation","","","",""
"758","img/90_300.png","70","image-keyboard-response","127","379565","0.0-6.0-1.60","SAST","1","f","links","18","","","object","j","90","false"
"null","<div style=""font-size:60px;"">+</div>","null","html-keyboard-response","128","379917","0.0-6.0-0.61","SAST","1","f","links","18","","fixation","","","",""
"558","img/90_30.png","74","image-keyboard-response","129","380475","0.0-6.0-1.61","SAST","1","f","links","18","","","object","f","90","false"
"null","<div style=""font-size:60px;"">+</div>","null","html-keyboard-response","130","380827","0.0-6.0-0.62","SAST","1","f","links","18","","fixation","","","",""
"893","img/150_60.png","74","image-keyboard-response","131","381721","0.0-6.0-1.62","SAST","1","f","links","18","","","object","f","150","false"
"null","<div style=""font-size:60px;"">+</div>","null","html-keyboard-response","132","382073","0.0-6.0-0.63","SAST","1","f","links","18","","fixation","","","",""
"989","img/150_270.png","70","image-keyboard-response","133","383062","0.0-6.0-1.63","SAST","1","f","links","18","","","object","j","150","false"
"null","<div style=""font-size:60px;"">+</div>","null","html-keyboard-response","134","383514","0.0-6.0-0.64","SAST","1","f","links","18","","fixation","","","",""
"1008","img/150_120.png","74","image-keyboard-response","135","384524","0.0-6.0-1.64","SAST","1","f","links","18","","","object","f","150","false"
"null","<div style=""font-size:60px;"">+</div>","null","html-keyboard-response","136","384875","0.0-6.0-0.65","SAST","1","f","links","18","","fixation","","","",""
"1078","img/L120_180.png","74","image-keyboard-response","137","385954","0.0-6.0-1.65","SAST","1","f","links","18","","","object","j","120","true"
"null","<div style=""font-size:60px;"">+</div>","null","html-keyboard-response","138","386256","0.0-6.0-0.66","SAST","1","f","links","18","","fixation","","","",""
"685","img/60_330.png","70","image-keyboard-response","139","386942","0.0-6.0-1.66","SAST","1","f","links","18","","","object","j","60","false"
"null","<div style=""font-size:60px;"">+</div>","null","html-keyboard-response","140","387344","0.0-6.0-0.67","SAST","1","f","links","18","","fixation","","","",""
"914","img/30_240.png","70","image-keyboard-response","141","388259","0.0-6.0-1.67","SAST","1","f","links","18","","","object","f","30","true"
"null","<div style=""font-size:60px;"">+</div>","null","html-keyboard-response","142","388611","0.0-6.0-0.68","SAST","1","f","links","18","","fixation","","","",""
"773","img/0_300.png","70","image-keyboard-response","143","389384","0.0-6.0-1.68","SAST","1","f","links","18","","","object","f","0","true"
"null","<div style=""font-size:60px;"">+</div>","null","html-keyboard-response","144","389885","0.0-6.0-0.69","SAST","1","f","links","18","","fixation","","","",""
"744","img/30_300.png","70","image-keyboard-response","145","390631","0.0-6.0-1.69","SAST","1","f","links","18","","","object","f","30","true"
"null","<div style=""font-size:60px;"">+</div>","null","html-keyboard-response","146","391132","0.0-6.0-0.70","SAST","1","f","links","18","","fixation","","","",""
"977","img/0_150.png","74","image-keyboard-response","147","392110","0.0-6.0-1.70","SAST","1","f","links","18","","","object","j","0","true"
"null","<div style=""font-size:60px;"">+</div>","null","html-keyboard-response","148","392412","0.0-6.0-0.71","SAST","1","f","links","18","","fixation","","","",""
"1201","img/120_30.png","74","image-keyboard-response","149","393613","0.0-6.0-1.71","SAST","1","f","links","18","","","object","f","120","false"
"null","<div style=""font-size:60px;"">+</div>","null","html-keyboard-response","150","394065","0.0-6.0-0.72","SAST","1","f","links","18","","fixation","","","",""
"null","img/60_90.png","null","image-keyboard-response","151","397067","0.0-6.0-1.72","SAST","1","f","links","18","","","object","j","60","false"
"null","<div style=""font-size:60px;"">+</div>","null","html-keyboard-response","152","397369","0.0-6.0-0.73","SAST","1","f","links","18","","fixation","","","",""
"717","img/0_270.png","70","image-keyboard-response","153","398087","0.0-6.0-1.73","SAST","1","f","links","18","","","object","f","0","true"
"null","<div style=""font-size:60px;"">+</div>","null","html-keyboard-response","154","398539","0.0-6.0-0.74","SAST","1","f","links","18","","fixation","","","",""
"1265","img/90_240.png","74","image-keyboard-response","155","399805","0.0-6.0-1.74","SAST","1","f","links","18","","","object","f","90","false"
"null","<div style=""font-size:60px;"">+</div>","null","html-keyboard-response","156","400306","0.0-6.0-0.75","SAST","1","f","links","18","","fixation","","","",""
"1673","img/120_270.png","70","image-keyboard-response","157","401980","0.0-6.0-1.75","SAST","1","f","links","18","","","object","j","120","false"
"null","<div style=""font-size:60px;"">+</div>","null","html-keyboard-response","158","402332","0.0-6.0-0.76","SAST","1","f","links","18","","fixation","","","",""
"750","img/0_330.png","70","image-keyboard-response","159","403082","0.0-6.0-1.76","SAST","1","f","links","18","","","object","f","0","true"
"null","<div style=""font-size:60px;"">+</div>","null","html-keyboard-response","160","403534","0.0-6.0-0.77","SAST","1","f","links","18","","fixation","","","",""
"null","img/90_120.png","null","image-keyboard-response","161","406536","0.0-6.0-1.77","SAST","1","f","links","18","","","object","j","90","false"
"null","<div style=""font-size:60px;"">+</div>","null","html-keyboard-response","162","406838","0.0-6.0-0.78","SAST","1","f","links","18","","fixation","","","",""
"746","img/0_90.png","70","image-keyboard-response","163","407585","0.0-6.0-1.78","SAST","1","f","links","18","","","object","j","0","false"
"null","<div style=""font-size:60px;"">+</div>","null","html-keyboard-response","164","407986","0.0-6.0-0.79","SAST","1","f","links","18","","fixation","","","",""
"842","img/0_210.png","70","image-keyboard-response","165","408829","0.0-6.0-1.79","SAST","1","f","links","18","","","object","f","0","true"
"null","<div style=""font-size:60px;"">+</div>","null","html-keyboard-response","166","409231","0.0-6.0-0.80","SAST","1","f","links","18","","fixation","","","",""
"null","img/90_210.png","null","image-keyboard-response","167","412233","0.0-6.0-1.80","SAST","1","f","links","18","","","object","f","90","false"
"null","<div style=""font-size:60px;"">+</div>","null","html-keyboard-response","168","412585","0.0-6.0-0.81","SAST","1","f","links","18","","fixation","","","",""
"544","img/L30_180.png","74","image-keyboard-response","169","413131","0.0-6.0-1.81","SAST","1","f","links","18","","","object","j","30","true"
"null","<div style=""font-size:60px;"">+</div>","null","html-keyboard-response","170","413632","0.0-6.0-0.82","SAST","1","f","links","18","","fixation","","","",""
"1738","img/120_210.png","70","image-keyboard-response","171","415371","0.0-6.0-1.82","SAST","1","f","links","18","","","object","f","120","true"
"null","<div style=""font-size:60px;"">+</div>","null","html-keyboard-response","172","415773","0.0-6.0-0.83","SAST","1","f","links","18","","fixation","","","",""
"986","img/0_120.png","74","image-keyboard-response","173","416759","0.0-6.0-1.83","SAST","1","f","links","18","","","object","j","0","true"
"null","<div style=""font-size:60px;"">+</div>","null","html-keyboard-response","174","417161","0.0-6.0-0.84","SAST","1","f","links","18","","fixation","","","",""
"1842","img/90_180.png","70","image-keyboard-response","175","419003","0.0-6.0-1.84","SAST","1","f","links","18","","","object","f","90","true"
"null","<div style=""font-size:60px;"">+</div>","null","html-keyboard-response","176","419405","0.0-6.0-0.85","SAST","1","f","links","18","","fixation","","","",""
"1193","img/90_330.png","70","image-keyboard-response","177","420599","0.0-6.0-1.85","SAST","1","f","links","18","","","object","j","90","false"
"null","<div style=""font-size:60px;"">+</div>","null","html-keyboard-response","178","421101","0.0-6.0-0.86","SAST","1","f","links","18","","fixation","","","",""
"707","img/0_30.png","74","image-keyboard-response","179","421809","0.0-6.0-1.86","SAST","1","f","links","18","","","object","j","0","true"
"null","<div style=""font-size:60px;"">+</div>","null","html-keyboard-response","180","422161","0.0-6.0-0.87","SAST","1","f","links","18","","fixation","","","",""
"1107","img/L150_180.png","74","image-keyboard-response","181","423269","0.0-6.0-1.87","SAST","1","f","links","18","","","object","j","150","true"
"null","<div style=""font-size:60px;"">+</div>","null","html-keyboard-response","182","423670","0.0-6.0-0.88","SAST","1","f","links","18","","fixation","","","",""
"903","img/90_60.png","74","image-keyboard-response","183","424574","0.0-6.0-1.88","SAST","1","f","links","18","","","object","f","90","false"
"null","<div style=""font-size:60px;"">+</div>","null","html-keyboard-response","184","424926","0.0-6.0-0.89","SAST","1","f","links","18","","fixation","","","",""
"756","img/30_90.png","74","image-keyboard-response","185","425682","0.0-6.0-1.89","SAST","1","f","links","18","","","object","j","30","true"
"null","<div style=""font-size:60px;"">+</div>","null","html-keyboard-response","186","425984","0.0-6.0-0.90","SAST","1","f","links","18","","fixation","","","",""
"962","img/120_90.png","74","image-keyboard-response","187","426947","0.0-6.0-1.90","SAST","1","f","links","18","","","object","f","120","false"
"null","<div style=""font-size:60px;"">+</div>","null","html-keyboard-response","188","427249","0.0-6.0-0.91","SAST","1","f","links","18","","fixation","","","",""
"1115","img/120_330.png","70","image-keyboard-response","189","428364","0.0-6.0-1.91","SAST","1","f","links","18","","","object","j","120","false"
"null","<div style=""font-size:60px;"">+</div>","null","html-keyboard-response","190","428766","0.0-6.0-0.92","SAST","1","f","links","18","","fixation","","","",""
"678","img/L90_180.png","74","image-keyboard-response","191","429444","0.0-6.0-1.92","SAST","1","f","links","18","","","object","j","90","true"
"null","<div style=""font-size:60px;"">+</div>","null","html-keyboard-response","192","429846","0.0-6.0-0.93","SAST","1","f","links","18","","fixation","","","",""
"1065","img/30_60.png","74","image-keyboard-response","193","430912","0.0-6.0-1.93","SAST","1","f","links","18","","","object","j","30","true"
"null","<div style=""font-size:60px;"">+</div>","null","html-keyboard-response","194","431413","0.0-6.0-0.94","SAST","1","f","links","18","","fixation","","","",""
"1066","img/60_150.png","74","image-keyboard-response","195","432480","0.0-6.0-1.94","SAST","1","f","links","18","","","object","j","60","true"
"null","<div style=""font-size:60px;"">+</div>","null","html-keyboard-response","196","432982","0.0-6.0-0.95","SAST","1","f","links","18","","fixation","","","",""
"1103","img/150_90.png","70","image-keyboard-response","197","434085","0.0-6.0-1.95","SAST","1","f","links","18","","","object","f","150","true"
"null","<div style=""font-size:60px;"">+</div>","null","html-keyboard-response","198","434487","0.0-6.0-0.96","SAST","1","f","links","18","","fixation","","","",""
"950","img/120_180.png","70","image-keyboard-response","199","435439","0.0-6.0-1.96","SAST","1","f","links","18","","","object","f","120","true"
"null","<div style=""font-size:60px;"">+</div>","null","html-keyboard-response","200","435890","0.0-6.0-0.97","SAST","1","f","links","18","","fixation","","","",""
"685","img/150_300.png","70","image-keyboard-response","201","436576","0.0-6.0-1.97","SAST","1","f","links","18","","","object","j","150","false"
"null","<div style=""font-size:60px;"">+</div>","null","html-keyboard-response","202","437077","0.0-6.0-0.98","SAST","1","f","links","18","","fixation","","","",""
"599","img/0_60.png","74","image-keyboard-response","203","437677","0.0-6.0-1.98","SAST","1","f","links","18","","","object","j","0","true"
"null","<div style=""font-size:60px;"">+</div>","null","html-keyboard-response","204","437979","0.0-6.0-0.99","SAST","1","f","links","18","","fixation","","","",""
"750","img/L60_180.png","74","image-keyboard-response","205","438729","0.0-6.0-1.99","SAST","1","f","links","18","","","object","j","60","true"
"null","<div style=""font-size:60px;"">+</div>","null","html-keyboard-response","206","439181","0.0-6.0-0.100","SAST","1","f","links","18","","fixation","","","",""
"991","img/150_240.png","74","image-keyboard-response","207","440172","0.0-6.0-1.100","SAST","1","f","links","18","","","object","j","150","true"
"null","<div style=""font-size:60px;"">+</div>","null","html-keyboard-response","208","440474","0.0-6.0-0.101","SAST","1","f","links","18","","fixation","","","",""
"748","img/120_150.png","74","image-keyboard-response","209","441222","0.0-6.0-1.101","SAST","1","f","links","18","","","object","j","120","true"
"null","<div style=""font-size:60px;"">+</div>","null","html-keyboard-response","210","441573","0.0-6.0-0.102","SAST","1","f","links","18","","fixation","","","",""
"761","img/60_30.png","74","image-keyboard-response","211","442335","0.0-6.0-1.102","SAST","1","f","links","18","","","object","f","60","false"
"null","<div style=""font-size:60px;"">+</div>","null","html-keyboard-response","212","442837","0.0-6.0-0.103","SAST","1","f","links","18","","fixation","","","",""
"678","img/150_180.png","70","image-keyboard-response","213","443515","0.0-6.0-1.103","SAST","1","f","links","18","","","object","f","150","true"
"null","<div style=""font-size:60px;"">+</div>","null","html-keyboard-response","214","443967","0.0-6.0-0.104","SAST","1","f","links","18","","fixation","","","",""
"656","img/60_30.png","74","image-keyboard-response","215","444625","0.0-6.0-1.104","SAST","1","f","links","18","","","object","f","60","false"
"null","<div style=""font-size:60px;"">+</div>","null","html-keyboard-response","216","445076","0.0-6.0-0.105","SAST","1","f","links","18","","fixation","","","",""
"933","img/30_270.png","74","image-keyboard-response","217","446010","0.0-6.0-1.105","SAST","1","f","links","18","","","object","f","30","false"
"null","<div style=""font-size:60px;"">+</div>","null","html-keyboard-response","218","446361","0.0-6.0-0.106","SAST","1","f","links","18","","fixation","","","",""
"1393","img/60_90.png","74","image-keyboard-response","219","447756","0.0-6.0-1.106","SAST","1","f","links","18","","","object","j","60","true"
"null","<div style=""font-size:60px;"">+</div>","null","html-keyboard-response","220","448207","0.0-6.0-0.107","SAST","1","f","links","18","","fixation","","","",""
"1071","img/120_210.png","70","image-keyboard-response","221","449279","0.0-6.0-1.107","SAST","1","f","links","18","","","object","f","120","true"
"null","<div style=""font-size:60px;"">+</div>","null","html-keyboard-response","222","449731","0.0-6.0-0.108","SAST","1","f","links","18","","fixation","","","",""
"903","img/90_210.png","70","image-keyboard-response","223","450635","0.0-6.0-1.108","SAST","1","f","links","18","","","object","f","90","true"
"null","<div style=""font-size:60px;"">+</div>","null","html-keyboard-response","224","450936","0.0-6.0-0.109","SAST","1","f","links","18","","fixation","","","",""
"861","img/0_270.png","70","image-keyboard-response","225","451799","0.0-6.0-1.109","SAST","1","f","links","18","","","object","f","0","true"
"null","<div style=""font-size:60px;"">+</div>","null","html-keyboard-response","226","452250","0.0-6.0-0.110","SAST","1","f","links","18","","fixation","","","",""
"1535","img/30_120.png","74","image-keyboard-response","227","453787","0.0-6.0-1.110","SAST","1","f","links","18","","","object","j","30","true"
"null","<div style=""font-size:60px;"">+</div>","null","html-keyboard-response","228","454188","0.0-6.0-0.111","SAST","1","f","links","18","","fixation","","","",""
"1087","img/90_30.png","74","image-keyboard-response","229","455276","0.0-6.0-1.111","SAST","1","f","links","18","","","object","f","90","false"
"null","<div style=""font-size:60px;"">+</div>","null","html-keyboard-response","230","455778","0.0-6.0-0.112","SAST","1","f","links","18","","fixation","","","",""
"1142","img/L150_180.png","74","image-keyboard-response","231","456922","0.0-6.0-1.112","SAST","1","f","links","18","","","object","j","150","true"
"null","<div style=""font-size:60px;"">+</div>","null","html-keyboard-response","232","457423","0.0-6.0-0.113","SAST","1","f","links","18","","fixation","","","",""
"831","img/0_60.png","74","image-keyboard-response","233","458256","0.0-6.0-1.113","SAST","1","f","links","18","","","object","j","0","true"
"null","<div style=""font-size:60px;"">+</div>","null","html-keyboard-response","234","458657","0.0-6.0-0.114","SAST","1","f","links","18","","fixation","","","",""
"1063","img/90_120.png","74","image-keyboard-response","235","459721","0.0-6.0-1.114","SAST","1","f","links","18","","","object","j","90","true"
"null","<div style=""font-size:60px;"">+</div>","null","html-keyboard-response","236","460073","0.0-6.0-0.115","SAST","1","f","links","18","","fixation","","","",""
"1007","img/150_270.png","74","image-keyboard-response","237","461080","0.0-6.0-1.115","SAST","1","f","links","18","","","object","j","150","true"
"null","<div style=""font-size:60px;"">+</div>","null","html-keyboard-response","238","461582","0.0-6.0-0.116","SAST","1","f","links","18","","fixation","","","",""
"1130","img/150_90.png","74","image-keyboard-response","239","462714","0.0-6.0-1.116","SAST","1","f","links","18","","","object","f","150","false"
"null","<div style=""font-size:60px;"">+</div>","null","html-keyboard-response","240","463215","0.0-6.0-0.117","SAST","1","f","links","18","","fixation","","","",""
"1300","img/60_270.png","74","image-keyboard-response","241","464516","0.0-6.0-1.117","SAST","1","f","links","18","","","object","f","60","false"
"null","<div style=""font-size:60px;"">+</div>","null","html-keyboard-response","242","465018","0.0-6.0-0.118","SAST","1","f","links","18","","fixation","","","",""
"1065","img/90_60.png","74","image-keyboard-response","243","466085","0.0-6.0-1.118","SAST","1","f","links","18","","","object","f","90","false"
"null","<div style=""font-size:60px;"">+</div>","null","html-keyboard-response","244","466485","0.0-6.0-0.119","SAST","1","f","links","18","","fixation","","","",""
"1064","img/90_180.png","74","image-keyboard-response","245","467550","0.0-6.0-1.119","SAST","1","f","links","18","","","object","f","90","false"
"null","<div style=""font-size:60px;"">+</div>","null","html-keyboard-response","246","467852","0.0-6.0-0.120","SAST","1","f","links","18","","fixation","","","",""
"856","img/60_330.png","70","image-keyboard-response","247","468709","0.0-6.0-1.120","SAST","1","f","links","18","","","object","j","60","false"
"null","<div style=""font-size:60px;"">+</div>","null","html-keyboard-response","248","469111","0.0-6.0-0.121","SAST","1","f","links","18","","fixation","","","",""
"933","img/30_60.png","74","image-keyboard-response","249","470045","0.0-6.0-1.121","SAST","1","f","links","18","","","object","j","30","true"
"null","<div style=""font-size:60px;"">+</div>","null","html-keyboard-response","250","470447","0.0-6.0-0.122","SAST","1","f","links","18","","fixation","","","",""
"1384","img/90_240.png","74","image-keyboard-response","251","471831","0.0-6.0-1.122","SAST","1","f","links","18","","","object","f","90","false"
"null","<div style=""font-size:60px;"">+</div>","null","html-keyboard-response","252","472283","0.0-6.0-0.123","SAST","1","f","links","18","","fixation","","","",""
"1072","img/L30_180.png","74","image-keyboard-response","253","473356","0.0-6.0-1.123","SAST","1","f","links","18","","","object","j","30","true"
"null","<div style=""font-size:60px;"">+</div>","null","html-keyboard-response","254","473708","0.0-6.0-0.124","SAST","1","f","links","18","","fixation","","","",""
"843","img/0_90.png","74","image-keyboard-response","255","474551","0.0-6.0-1.124","SAST","1","f","links","18","","","object","j","0","true"
"null","<div style=""font-size:60px;"">+</div>","null","html-keyboard-response","256","475053","0.0-6.0-0.125","SAST","1","f","links","18","","fixation","","","",""
"1074","img/150_120.png","74","image-keyboard-response","257","476127","0.0-6.0-1.125","SAST","1","f","links","18","","","object","f","150","false"
"null","<div style=""font-size:60px;"">+</div>","null","html-keyboard-response","258","476579","0.0-6.0-0.126","SAST","1","f","links","18","","fixation","","","",""
"881","img/0_150.png","74","image-keyboard-response","259","477461","0.0-6.0-1.126","SAST","1","f","links","18","","","object","j","0","true"
"null","<div style=""font-size:60px;"">+</div>","null","html-keyboard-response","260","477963","0.0-6.0-0.127","SAST","1","f","links","18","","fixation","","","",""
"638","img/30_180.png","70","image-keyboard-response","261","478602","0.0-6.0-1.127","SAST","1","f","links","18","","","object","f","30","true"
"null","<div style=""font-size:60px;"">+</div>","null","html-keyboard-response","262","479104","0.0-6.0-0.128","SAST","1","f","links","18","","fixation","","","",""
"711","img/0_210.png","70","image-keyboard-response","263","479815","0.0-6.0-1.128","SAST","1","f","links","18","","","object","f","0","true"
"null","<div style=""font-size:60px;"">+</div>","null","html-keyboard-response","264","480166","0.0-6.0-0.129","SAST","1","f","links","18","","fixation","","","",""
"977","img/120_180.png","70","image-keyboard-response","265","481144","0.0-6.0-1.129","SAST","1","f","links","18","","","object","f","120","true"
"null","<div style=""font-size:60px;"">+</div>","null","html-keyboard-response","266","481596","0.0-6.0-0.130","SAST","1","f","links","18","","fixation","","","",""
"851","img/0_240.png","70","image-keyboard-response","267","482448","0.0-6.0-1.130","SAST","1","f","links","18","","","object","f","0","true"
"null","<div style=""font-size:60px;"">+</div>","null","html-keyboard-response","268","482750","0.0-6.0-0.131","SAST","1","f","links","18","","fixation","","","",""
"863","img/90_300.png","70","image-keyboard-response","269","483613","0.0-6.0-1.131","SAST","1","f","links","18","","","object","j","90","false"
"null","<div style=""font-size:60px;"">+</div>","null","html-keyboard-response","270","484015","0.0-6.0-0.132","SAST","1","f","links","18","","fixation","","","",""
"964","img/150_300.png","70","image-keyboard-response","271","484980","0.0-6.0-1.132","SAST","1","f","links","18","","","object","j","150","false"
"null","<div style=""font-size:60px;"">+</div>","null","html-keyboard-response","272","485482","0.0-6.0-0.133","SAST","1","f","links","18","","fixation","","","",""
"821","img/0_330.png","70","image-keyboard-response","273","486304","0.0-6.0-1.133","SAST","1","f","links","18","","","object","f","0","true"
"null","<div style=""font-size:60px;"">+</div>","null","html-keyboard-response","274","486705","0.0-6.0-0.134","SAST","1","f","links","18","","fixation","","","",""
"715","img/0_30.png","74","image-keyboard-response","275","487421","0.0-6.0-1.134","SAST","1","f","links","18","","","object","j","0","true"
"null","<div style=""font-size:60px;"">+</div>","null","html-keyboard-response","276","487873","0.0-6.0-0.135","SAST","1","f","links","18","","fixation","","","",""
"817","img/0_300.png","70","image-keyboard-response","277","488690","0.0-6.0-1.135","SAST","1","f","links","18","","","object","f","0","true"
"null","<div style=""font-size:60px;"">+</div>","null","html-keyboard-response","278","489142","0.0-6.0-0.136","SAST","1","f","links","18","","fixation","","","",""
"784","img/60_210.png","70","image-keyboard-response","279","489926","0.0-6.0-1.136","SAST","1","f","links","18","","","object","f","60","true"
"null","<div style=""font-size:60px;"">+</div>","null","html-keyboard-response","280","490428","0.0-6.0-0.137","SAST","1","f","links","18","","fixation","","","",""
"1173","img/90_330.png","70","image-keyboard-response","281","491601","0.0-6.0-1.137","SAST","1","f","links","18","","","object","j","90","false"
"null","<div style=""font-size:60px;"">+</div>","null","html-keyboard-response","282","491902","0.0-6.0-0.138","SAST","1","f","links","18","","fixation","","","",""
"802","img/120_30.png","74","image-keyboard-response","283","492705","0.0-6.0-1.138","SAST","1","f","links","18","","","object","f","120","false"
"null","<div style=""font-size:60px;"">+</div>","null","html-keyboard-response","284","493207","0.0-6.0-0.139","SAST","1","f","links","18","","fixation","","","",""
"688","img/30_240.png","70","image-keyboard-response","285","493895","0.0-6.0-1.139","SAST","1","f","links","18","","","object","f","30","true"
"null","<div style=""font-size:60px;"">+</div>","null","html-keyboard-response","286","494197","0.0-6.0-0.140","SAST","1","f","links","18","","fixation","","","",""
"680","img/L60_180.png","74","image-keyboard-response","287","494877","0.0-6.0-1.140","SAST","1","f","links","18","","","object","j","60","true"
"null","<div style=""font-size:60px;"">+</div>","null","html-keyboard-response","288","495329","0.0-6.0-0.141","SAST","1","f","links","18","","fixation","","","",""
"null","img/120_90.png","null","image-keyboard-response","289","498331","0.0-6.0-1.141","SAST","1","f","links","18","","","object","f","120","false"
"null","<div style=""font-size:60px;"">+</div>","null","html-keyboard-response","290","498782","0.0-6.0-0.142","SAST","1","f","links","18","","fixation","","","",""
"632","img/90_150.png","74","image-keyboard-response","291","499415","0.0-6.0-1.142","SAST","1","f","links","18","","","object","j","90","true"
"null","<div style=""font-size:60px;"">+</div>","null","html-keyboard-response","292","499817","0.0-6.0-0.143","SAST","1","f","links","18","","fixation","","","",""
"2229","img/60_180.png","70","image-keyboard-response","293","502047","0.0-6.0-1.143","SAST","1","f","links","18","","","object","f","60","true"
"null","<div style=""font-size:60px;"">+</div>","null","html-keyboard-response","294","502399","0.0-6.0-0.144","SAST","1","f","links","18","","fixation","","","",""
"1197","img/60_150.png","74","image-keyboard-response","295","503597","0.0-6.0-1.144","SAST","1","f","links","18","","","object","j","60","true"
"null","<div style=""font-size:60px;"">+</div>","null","html-keyboard-response","296","503999","0.0-6.0-0.145","SAST","1","f","links","18","","fixation","","","",""
"null","img/30_300.png","null","image-keyboard-response","297","507001","0.0-6.0-1.145","SAST","1","f","links","18","","","object","f","30","false"
"null","<div style=""font-size:60px;"">+</div>","null","html-keyboard-response","298","507353","0.0-6.0-0.146","SAST","1","f","links","18","","fixation","","","",""
"914","img/150_180.png","70","image-keyboard-response","299","508267","0.0-6.0-1.146","SAST","1","f","links","18","","","object","f","150","true"
"null","<div style=""font-size:60px;"">+</div>","null","html-keyboard-response","300","508619","0.0-6.0-0.147","SAST","1","f","links","18","","fixation","","","",""
"1149","img/120_150.png","74","image-keyboard-response","301","509769","0.0-6.0-1.147","SAST","1","f","links","18","","","object","j","120","true"
"null","<div style=""font-size:60px;"">+</div>","null","html-keyboard-response","302","510121","0.0-6.0-0.148","SAST","1","f","links","18","","fixation","","","",""
"1213","img/120_330.png","70","image-keyboard-response","303","511334","0.0-6.0-1.148","SAST","1","f","links","18","","","object","j","120","false"
"null","<div style=""font-size:60px;"">+</div>","null","html-keyboard-response","304","511686","0.0-6.0-0.149","SAST","1","f","links","18","","fixation","","","",""
"963","img/0_120.png","74","image-keyboard-response","305","512649","0.0-6.0-1.149","SAST","1","f","links","18","","","object","j","0","true"
"null","<div style=""font-size:60px;"">+</div>","null","html-keyboard-response","306","513001","0.0-6.0-0.150","SAST","1","f","links","18","","fixation","","","",""
"1659","img/L120_180.png","74","image-keyboard-response","307","514661","0.0-6.0-1.150","SAST","1","f","links","18","","","object","j","120","true"
"null","<div style=""font-size:60px;"">+</div>","null","html-keyboard-response","308","515113","0.0-6.0-0.151","SAST","1","f","links","18","","fixation","","","",""
"987","img/150_60.png","70","image-keyboard-response","309","516101","0.0-6.0-1.151","SAST","1","f","links","18","","","object","f","150","true"
"null","<div style=""font-size:60px;"">+</div>","null","html-keyboard-response","310","516453","0.0-6.0-0.152","SAST","1","f","links","18","","fixation","","","",""
"797","img/150_240.png","70","image-keyboard-response","311","517251","0.0-6.0-1.152","SAST","1","f","links","18","","","object","j","150","false"
"null","<div style=""font-size:60px;"">+</div>","null","html-keyboard-response","312","517703","0.0-6.0-0.153","SAST","1","f","links","18","","fixation","","","",""
"818","img/30_90.png","74","image-keyboard-response","313","518522","0.0-6.0-1.153","SAST","1","f","links","18","","","object","j","30","true"
"null","<div style=""font-size:60px;"">+</div>","null","html-keyboard-response","314","518874","0.0-6.0-0.154","SAST","1","f","links","18","","fixation","","","",""
"874","img/120_270.png","70","image-keyboard-response","315","519748","0.0-6.0-1.154","SAST","1","f","links","18","","","object","j","120","false"
"null","<div style=""font-size:60px;"">+</div>","null","html-keyboard-response","316","520250","0.0-6.0-0.155","SAST","1","f","links","18","","fixation","","","",""
"877","img/L90_180.png","74","image-keyboard-response","317","521128","0.0-6.0-1.155","SAST","1","f","links","18","","","object","j","90","true"
"null","<div style=""font-size:60px;"">+</div>","null","html-keyboard-response","318","521480","0.0-6.0-0.156","SAST","1","f","links","18","","fixation","","","",""
"904","img/120_210.png","70","image-keyboard-response","319","522384","0.0-6.0-1.156","SAST","1","f","links","18","","","object","f","120","true"
"null","<div style=""font-size:60px;"">+</div>","null","html-keyboard-response","320","522736","0.0-6.0-0.157","SAST","1","f","links","18","","fixation","","","",""
"1153","img/L120_180.png","74","image-keyboard-response","321","523890","0.0-6.0-1.157","SAST","1","f","links","18","","","object","j","120","true"
"null","<div style=""font-size:60px;"">+</div>","null","html-keyboard-response","322","524390","0.0-6.0-0.158","SAST","1","f","links","18","","fixation","","","",""
"927","img/150_60.png","74","image-keyboard-response","323","525319","0.0-6.0-1.158","SAST","1","f","links","18","","","object","f","150","false"
"null","<div style=""font-size:60px;"">+</div>","null","html-keyboard-response","324","525720","0.0-6.0-0.159","SAST","1","f","links","18","","fixation","","","",""
"951","img/0_30.png","74","image-keyboard-response","325","526672","0.0-6.0-1.159","SAST","1","f","links","18","","","object","j","0","true"
"null","<div style=""font-size:60px;"">+</div>","null","html-keyboard-response","326","527124","0.0-6.0-0.160","SAST","1","f","links","18","","fixation","","","",""
"1115","img/90_150.png","74","image-keyboard-response","327","528239","0.0-6.0-1.160","SAST","1","f","links","18","","","object","j","90","true"
"null","<div style=""font-size:60px;"">+</div>","null","html-keyboard-response","328","528591","0.0-6.0-0.161","SAST","1","f","links","18","","fixation","","","",""
"886","img/120_180.png","70","image-keyboard-response","329","529477","0.0-6.0-1.161","SAST","1","f","links","18","","","object","f","120","true"
"null","<div style=""font-size:60px;"">+</div>","null","html-keyboard-response","330","529928","0.0-6.0-0.162","SAST","1","f","links","18","","fixation","","","",""
"718","img/0_60.png","74","image-keyboard-response","331","530648","0.0-6.0-1.162","SAST","1","f","links","18","","","object","j","0","true"
"null","<div style=""font-size:60px;"">+</div>","null","html-keyboard-response","332","531150","0.0-6.0-0.163","SAST","1","f","links","18","","fixation","","","",""
"957","img/150_270.png","70","image-keyboard-response","333","532108","0.0-6.0-1.163","SAST","1","f","links","18","","","object","j","150","false"
"null","<div style=""font-size:60px;"">+</div>","null","html-keyboard-response","334","532510","0.0-6.0-0.164","SAST","1","f","links","18","","fixation","","","",""
"1047","img/60_180.png","70","image-keyboard-response","335","533557","0.0-6.0-1.164","SAST","1","f","links","18","","","object","f","60","true"
"null","<div style=""font-size:60px;"">+</div>","null","html-keyboard-response","336","533859","0.0-6.0-0.165","SAST","1","f","links","18","","fixation","","","",""
"1263","img/90_120.png","74","image-keyboard-response","337","535123","0.0-6.0-1.165","SAST","1","f","links","18","","","object","j","90","true"
"null","<div style=""font-size:60px;"">+</div>","null","html-keyboard-response","338","535574","0.0-6.0-0.166","SAST","1","f","links","18","","fixation","","","",""
"null","img/150_120.png","null","image-keyboard-response","339","538576","0.0-6.0-1.166","SAST","1","f","links","18","","","object","f","150","false"
"null","<div style=""font-size:60px;"">+</div>","null","html-keyboard-response","340","539028","0.0-6.0-0.167","SAST","1","f","links","18","","fixation","","","",""
"371","img/60_150.png","74","image-keyboard-response","341","539400","0.0-6.0-1.167","SAST","1","f","links","18","","","object","j","60","true"
"null","<div style=""font-size:60px;"">+</div>","null","html-keyboard-response","342","539852","0.0-6.0-0.168","SAST","1","f","links","18","","fixation","","","",""
"1064","img/0_330.png","70","image-keyboard-response","343","540916","0.0-6.0-1.168","SAST","1","f","links","18","","","object","f","0","true"
"null","<div style=""font-size:60px;"">+</div>","null","html-keyboard-response","344","541268","0.0-6.0-0.169","SAST","1","f","links","18","","fixation","","","",""
"1282","img/30_270.png","70","image-keyboard-response","345","542552","0.0-6.0-1.169","SAST","1","f","links","18","","","object","f","30","true"
"null","<div style=""font-size:60px;"">+</div>","null","html-keyboard-response","346","542953","0.0-6.0-0.170","SAST","1","f","links","18","","fixation","","","",""
"1385","img/L60_180.png","74","image-keyboard-response","347","544340","0.0-6.0-1.170","SAST","1","f","links","18","","","object","j","60","true"
"null","<div style=""font-size:60px;"">+</div>","null","html-keyboard-response","348","544741","0.0-6.0-0.171","SAST","1","f","links","18","","fixation","","","",""
"1995","img/30_180.png","74","image-keyboard-response","349","546737","0.0-6.0-1.171","SAST","1","f","links","18","","","object","f","30","false"
"null","<div style=""font-size:60px;"">+</div>","null","html-keyboard-response","350","547089","0.0-6.0-0.172","SAST","1","f","links","18","","fixation","","","",""
"null","img/90_300.png","null","image-keyboard-response","351","550091","0.0-6.0-1.172","SAST","1","f","links","18","","","object","j","90","false"
"null","<div style=""font-size:60px;"">+</div>","null","html-keyboard-response","352","550593","0.0-6.0-0.173","SAST","1","f","links","18","","fixation","","","",""
"882","img/0_210.png","70","image-keyboard-response","353","551476","0.0-6.0-1.173","SAST","1","f","links","18","","","object","f","0","true"
"null","<div style=""font-size:60px;"">+</div>","null","html-keyboard-response","354","551778","0.0-6.0-0.174","SAST","1","f","links","18","","fixation","","","",""
"2629","img/30_60.png","74","image-keyboard-response","355","554407","0.0-6.0-1.174","SAST","1","f","links","18","","","object","j","30","true"
"null","<div style=""font-size:60px;"">+</div>","null","html-keyboard-response","356","554809","0.0-6.0-0.175","SAST","1","f","links","18","","fixation","","","",""
"1959","img/L150_180.png","74","image-keyboard-response","357","556769","0.0-6.0-1.175","SAST","1","f","links","18","","","object","j","150","true"
"null","<div style=""font-size:60px;"">+</div>","null","html-keyboard-response","358","557271","0.0-6.0-0.176","SAST","1","f","links","18","","fixation","","","",""
"693","img/120_150.png","74","image-keyboard-response","359","557965","0.0-6.0-1.176","SAST","1","f","links","18","","","object","j","120","true"
"null","<div style=""font-size:60px;"">+</div>","null","html-keyboard-response","360","558267","0.0-6.0-0.177","SAST","1","f","links","18","","fixation","","","",""
"715","img/L90_180.png","74","image-keyboard-response","361","558983","0.0-6.0-1.177","SAST","1","f","links","18","","","object","j","90","true"
"null","<div style=""font-size:60px;"">+</div>","null","html-keyboard-response","362","559385","0.0-6.0-0.178","SAST","1","f","links","18","","fixation","","","",""
"2329","img/60_210.png","70","image-keyboard-response","363","561716","0.0-6.0-1.178","SAST","1","f","links","18","","","object","f","60","true"
"null","<div style=""font-size:60px;"">+</div>","null","html-keyboard-response","364","562168","0.0-6.0-0.179","SAST","1","f","links","18","","fixation","","","",""
"867","img/0_120.png","74","image-keyboard-response","365","563037","0.0-6.0-1.179","SAST","1","f","links","18","","","object","j","0","true"
"null","<div style=""font-size:60px;"">+</div>","null","html-keyboard-response","366","563488","0.0-6.0-0.180","SAST","1","f","links","18","","fixation","","","",""
"1432","img/120_330.png","70","image-keyboard-response","367","564921","0.0-6.0-1.180","SAST","1","f","links","18","","","object","j","120","false"
"null","<div style=""font-size:60px;"">+</div>","null","html-keyboard-response","368","565273","0.0-6.0-0.181","SAST","1","f","links","18","","fixation","","","",""
"1073","img/60_270.png","70","image-keyboard-response","369","566347","0.0-6.0-1.181","SAST","1","f","links","18","","","object","f","60","true"
"null","<div style=""font-size:60px;"">+</div>","null","html-keyboard-response","370","566748","0.0-6.0-0.182","SAST","1","f","links","18","","fixation","","","",""
"1065","img/60_90.png","74","image-keyboard-response","371","567814","0.0-6.0-1.182","SAST","1","f","links","18","","","object","j","60","true"
"null","<div style=""font-size:60px;"">+</div>","null","html-keyboard-response","372","568116","0.0-6.0-0.183","SAST","1","f","links","18","","fixation","","","",""
"967","img/0_90.png","74","image-keyboard-response","373","569083","0.0-6.0-1.183","SAST","1","f","links","18","","","object","j","0","true"
"null","<div style=""font-size:60px;"">+</div>","null","html-keyboard-response","374","569585","0.0-6.0-0.184","SAST","1","f","links","18","","fixation","","","",""
"625","img/0_300.png","70","image-keyboard-response","375","570211","0.0-6.0-1.184","SAST","1","f","links","18","","","object","f","0","true"
"null","<div style=""font-size:60px;"">+</div>","null","html-keyboard-response","376","570513","0.0-6.0-0.185","SAST","1","f","links","18","","fixation","","","",""
"780","img/0_240.png","70","image-keyboard-response","377","571294","0.0-6.0-1.185","SAST","1","f","links","18","","","object","f","0","true"
"null","<div style=""font-size:60px;"">+</div>","null","html-keyboard-response","378","571696","0.0-6.0-0.186","SAST","1","f","links","18","","fixation","","","",""
"1103","img/120_30.png","74","image-keyboard-response","379","572800","0.0-6.0-1.186","SAST","1","f","links","18","","","object","f","120","false"
"null","<div style=""font-size:60px;"">+</div>","null","html-keyboard-response","380","573202","0.0-6.0-0.187","SAST","1","f","links","18","","fixation","","","",""
"956","img/60_30.png","74","image-keyboard-response","381","574159","0.0-6.0-1.187","SAST","1","f","links","18","","","object","f","60","false"
"null","<div style=""font-size:60px;"">+</div>","null","html-keyboard-response","382","574661","0.0-6.0-0.188","SAST","1","f","links","18","","fixation","","","",""
"1426","img/90_60.png","74","image-keyboard-response","383","576088","0.0-6.0-1.188","SAST","1","f","links","18","","","object","f","90","false"
"null","<div style=""font-size:60px;"">+</div>","null","html-keyboard-response","384","576440","0.0-6.0-0.189","SAST","1","f","links","18","","fixation","","","",""
"1441","img/60_330.png","70","image-keyboard-response","385","577882","0.0-6.0-1.189","SAST","1","f","links","18","","","object","j","60","false"
"null","<div style=""font-size:60px;"">+</div>","null","html-keyboard-response","386","578384","0.0-6.0-0.190","SAST","1","f","links","18","","fixation","","","",""
"801","img/30_300.png","70","image-keyboard-response","387","579186","0.0-6.0-1.190","SAST","1","f","links","18","","","object","f","30","true"
"null","<div style=""font-size:60px;"">+</div>","null","html-keyboard-response","388","579588","0.0-6.0-0.191","SAST","1","f","links","18","","fixation","","","",""
"1853","img/30_120.png","74","image-keyboard-response","389","581442","0.0-6.0-1.191","SAST","1","f","links","18","","","object","j","30","true"
"null","<div style=""font-size:60px;"">+</div>","null","html-keyboard-response","390","581944","0.0-6.0-0.192","SAST","1","f","links","18","","fixation","","","",""
"963","img/90_330.png","70","image-keyboard-response","391","582908","0.0-6.0-1.192","SAST","1","f","links","18","","","object","j","90","false"
"null","<div style=""font-size:60px;"">+</div>","null","html-keyboard-response","392","583410","0.0-6.0-0.193","SAST","1","f","links","18","","fixation","","","",""
"1385","img/90_240.png","70","image-keyboard-response","393","584796","0.0-6.0-1.193","SAST","1","f","links","18","","","object","f","90","true"
"null","<div style=""font-size:60px;"">+</div>","null","html-keyboard-response","394","585198","0.0-6.0-0.194","SAST","1","f","links","18","","fixation","","","",""
"1099","img/150_180.png","74","image-keyboard-response","395","586297","0.0-6.0-1.194","SAST","1","f","links","18","","","object","f","150","false"
"null","<div style=""font-size:60px;"">+</div>","null","html-keyboard-response","396","586749","0.0-6.0-0.195","SAST","1","f","links","18","","fixation","","","",""
"1073","img/150_240.png","70","image-keyboard-response","397","587822","0.0-6.0-1.195","SAST","1","f","links","18","","","object","j","150","false"
"null","<div style=""font-size:60px;"">+</div>","null","html-keyboard-response","398","588324","0.0-6.0-0.196","SAST","1","f","links","18","","fixation","","","",""
"889","img/30_240.png","70","image-keyboard-response","399","589214","0.0-6.0-1.196","SAST","1","f","links","18","","","object","f","30","true"
"null","<div style=""font-size:60px;"">+</div>","null","html-keyboard-response","400","589516","0.0-6.0-0.197","SAST","1","f","links","18","","fixation","","","",""
"1412","img/90_180.png","70","image-keyboard-response","401","590928","0.0-6.0-1.197","SAST","1","f","links","18","","","object","f","90","true"
"null","<div style=""font-size:60px;"">+</div>","null","html-keyboard-response","402","591279","0.0-6.0-0.198","SAST","1","f","links","18","","fixation","","","",""
"2889","img/150_90.png","70","image-keyboard-response","403","594169","0.0-6.0-1.198","SAST","1","f","links","18","","","object","f","150","true"
"null","<div style=""font-size:60px;"">+</div>","null","html-keyboard-response","404","594571","0.0-6.0-0.199","SAST","1","f","links","18","","fixation","","","",""
"1377","img/0_270.png","70","image-keyboard-response","405","595948","0.0-6.0-1.199","SAST","1","f","links","18","","","object","f","0","true"
"null","<div style=""font-size:60px;"">+</div>","null","html-keyboard-response","406","596349","0.0-6.0-0.200","SAST","1","f","links","18","","fixation","","","",""
"1313","img/120_90.png","74","image-keyboard-response","407","597663","0.0-6.0-1.200","SAST","1","f","links","18","","","object","f","120","false"
"null","<div style=""font-size:60px;"">+</div>","null","html-keyboard-response","408","598015","0.0-6.0-0.201","SAST","1","f","links","18","","fixation","","","",""
"null","img/120_270.png","null","image-keyboard-response","409","601017","0.0-6.0-1.201","SAST","1","f","links","18","","","object","j","120","false"
"null","<div style=""font-size:60px;"">+</div>","null","html-keyboard-response","410","601518","0.0-6.0-0.202","SAST","1","f","links","18","","fixation","","","",""
"735","img/90_210.png","70","image-keyboard-response","411","602254","0.0-6.0-1.202","SAST","1","f","links","18","","","object","f","90","true"
"null","<div style=""font-size:60px;"">+</div>","null","html-keyboard-response","412","602656","0.0-6.0-0.203","SAST","1","f","links","18","","fixation","","","",""
"1309","img/30_90.png","74","image-keyboard-response","413","603965","0.0-6.0-1.203","SAST","1","f","links","18","","","object","j","30","true"
"null","<div style=""font-size:60px;"">+</div>","null","html-keyboard-response","414","604267","0.0-6.0-0.204","SAST","1","f","links","18","","fixation","","","",""
"null","img/L30_180.png","null","image-keyboard-response","415","607269","0.0-6.0-1.204","SAST","1","f","links","18","","","object","j","30","false"
"null","<div style=""font-size:60px;"">+</div>","null","html-keyboard-response","416","607621","0.0-6.0-0.205","SAST","1","f","links","18","","fixation","","","",""
"754","img/150_300.png","70","image-keyboard-response","417","608376","0.0-6.0-1.205","SAST","1","f","links","18","","","object","j","150","false"
"null","<div style=""font-size:60px;"">+</div>","null","html-keyboard-response","418","608878","0.0-6.0-0.206","SAST","1","f","links","18","","fixation","","","",""
"799","img/90_30.png","74","image-keyboard-response","419","609678","0.0-6.0-1.206","SAST","1","f","links","18","","","object","f","90","false"
"null","<div style=""font-size:60px;"">+</div>","null","html-keyboard-response","420","610130","0.0-6.0-0.207","SAST","1","f","links","18","","fixation","","","",""
"854","img/0_150.png","74","image-keyboard-response","421","610984","0.0-6.0-1.207","SAST","1","f","links","18","","","object","j","0","true"
"21829","<p>Du hast in 64% der Versuche korrekt entschieden.</p><p>Deine durchschnittliche Reaktionszeit war  987ms.</p><p>Dr&uuml;cke eine beliebige Taste, um die Session zu beenden. Vielen Dank!</p>","74","html-keyboard-response","422","632814","0.0-7.0","SAST","1","f","links","18","","","","","",""
