"rt","stimulus","key_press","trial_type","trial_index","time_elapsed","internal_node_id","subject","session","sex","handedness","age","responses","test_part","condition","correct_response","angle","correct"
"1088","<p>Mental Rotation Experiment.</p> <p>Dr&uuml;cke eine beliebige Taste, um anzufangen.</p>","72","html-keyboard-response","0","1092","0.0-0.0","SAST","2","f","rechts","18","","","","","",""
"8522","","","survey-text","1","9616","0.0-1.0","SAST","2","f","rechts","18","{""Q0"":""SAST""}","","","","",""
"4902","","","survey-text","2","14519","0.0-2.0","SAST","2","f","rechts","18","{""Q0"":""2""}","","","","",""
"4322","","","survey-multi-choice","3","18843","0.0-3.0","SAST","2","f","rechts","18","{""Q0"":""f"",""Q1"":""rechts""}","","","","",""
"2864","","","survey-text","4","21707","0.0-4.0","SAST","2","f","rechts","18","{""Q0"":""18""}","","","","",""
"30671","<p>Stell dir vor, dass du vor einem runden Tisch stehst, auf dem sich ein blauer Ball am Tischrand befindet. Entlang des Tischrands ist jeweils ein verschieden langer Pfeil. Nun bleibst du an deinem Platz vor dem Tisch und rotierst den Tisch entlang des Pfeils (gleiche Richtung und Länge). </p> <img src='img/30_180.png'></img> <br><p> Nachdem du diese (vorgestellte) Rotation durchgef&uuml;hrt hast, schau in Richtung der Tischmitte, und entscheide dann, ob der Ball links oder rechts von dir liegt.</p> <p>Dr&uuml;cke die <strong>'f'</strong>-Taste f&uuml;r links, die <strong>'j'</strong>-Taste f&uuml;r rechts.</p><br><p> Das Bild wird jeweils 1 Sekunde lang pr&auml;sentiert. Du hast 3 Sekunden Zeit eine Entscheidung zu treffen.</p>","70","html-keyboard-response","5","52380","0.0-5.0","SAST","2","f","rechts","18","","","","","",""
"null","<div style=""font-size:60px;"">+</div>","null","html-keyboard-response","6","53683","0.0-6.0-0.0","SAST","2","f","rechts","18","","fixation","","","",""
"1087","img/150_60.png","74","image-keyboard-response","7","54773","0.0-6.0-1.0","SAST","2","f","rechts","18","","","object","f","150","false"
"null","<div style=""font-size:60px;"">+</div>","null","html-keyboard-response","8","55225","0.0-6.0-0.1","SAST","2","f","rechts","18","","fixation","","","",""
"629","img/90_180.png","70","image-keyboard-response","9","55856","0.0-6.0-1.1","SAST","2","f","rechts","18","","","object","f","90","true"
"null","<div style=""font-size:60px;"">+</div>","null","html-keyboard-response","10","56308","0.0-6.0-0.2","SAST","2","f","rechts","18","","fixation","","","",""
"999","img/60_150.png","74","image-keyboard-response","11","57308","0.0-6.0-1.2","SAST","2","f","rechts","18","","","object","j","60","true"
"null","<div style=""font-size:60px;"">+</div>","null","html-keyboard-response","12","57810","0.0-6.0-0.3","SAST","2","f","rechts","18","","fixation","","","",""
"742","img/120_330.png","70","image-keyboard-response","13","58553","0.0-6.0-1.3","SAST","2","f","rechts","18","","","object","j","120","false"
"null","<div style=""font-size:60px;"">+</div>","null","html-keyboard-response","14","58955","0.0-6.0-0.4","SAST","2","f","rechts","18","","fixation","","","",""
"790","img/L90_180.png","74","image-keyboard-response","15","59748","0.0-6.0-1.4","SAST","2","f","rechts","18","","","object","j","90","true"
"null","<div style=""font-size:60px;"">+</div>","null","html-keyboard-response","16","60249","0.0-6.0-0.5","SAST","2","f","rechts","18","","fixation","","","",""
"793","img/150_120.png","74","image-keyboard-response","17","61044","0.0-6.0-1.5","SAST","2","f","rechts","18","","","object","f","150","false"
"null","<div style=""font-size:60px;"">+</div>","null","html-keyboard-response","18","61345","0.0-6.0-0.6","SAST","2","f","rechts","18","","fixation","","","",""
"1062","img/120_30.png","74","image-keyboard-response","19","62409","0.0-6.0-1.6","SAST","2","f","rechts","18","","","object","f","120","false"
"null","<div style=""font-size:60px;"">+</div>","null","html-keyboard-response","20","62811","0.0-6.0-0.7","SAST","2","f","rechts","18","","fixation","","","",""
"705","img/150_270.png","70","image-keyboard-response","21","63517","0.0-6.0-1.7","SAST","2","f","rechts","18","","","object","j","150","false"
"null","<div style=""font-size:60px;"">+</div>","null","html-keyboard-response","22","63869","0.0-6.0-0.8","SAST","2","f","rechts","18","","fixation","","","",""
"1322","img/60_330.png","70","image-keyboard-response","23","65192","0.0-6.0-1.8","SAST","2","f","rechts","18","","","object","j","60","false"
"null","<div style=""font-size:60px;"">+</div>","null","html-keyboard-response","24","65494","0.0-6.0-0.9","SAST","2","f","rechts","18","","fixation","","","",""
"758","img/0_120.png","74","image-keyboard-response","25","66253","0.0-6.0-1.9","SAST","2","f","rechts","18","","","object","j","0","true"
"null","<div style=""font-size:60px;"">+</div>","null","html-keyboard-response","26","66706","0.0-6.0-0.10","SAST","2","f","rechts","18","","fixation","","","",""
"712","img/0_60.png","74","image-keyboard-response","27","67420","0.0-6.0-1.10","SAST","2","f","rechts","18","","","object","j","0","true"
"null","<div style=""font-size:60px;"">+</div>","null","html-keyboard-response","28","67721","0.0-6.0-0.11","SAST","2","f","rechts","18","","fixation","","","",""
"890","img/L120_180.png","74","image-keyboard-response","29","68612","0.0-6.0-1.11","SAST","2","f","rechts","18","","","object","j","120","true"
"null","<div style=""font-size:60px;"">+</div>","null","html-keyboard-response","30","69114","0.0-6.0-0.12","SAST","2","f","rechts","18","","fixation","","","",""
"669","img/0_150.png","74","image-keyboard-response","31","69784","0.0-6.0-1.12","SAST","2","f","rechts","18","","","object","j","0","true"
"null","<div style=""font-size:60px;"">+</div>","null","html-keyboard-response","32","70236","0.0-6.0-0.13","SAST","2","f","rechts","18","","fixation","","","",""
"848","img/120_150.png","74","image-keyboard-response","33","71085","0.0-6.0-1.13","SAST","2","f","rechts","18","","","object","j","120","true"
"null","<div style=""font-size:60px;"">+</div>","null","html-keyboard-response","34","71387","0.0-6.0-0.14","SAST","2","f","rechts","18","","fixation","","","",""
"946","img/90_30.png","74","image-keyboard-response","35","72334","0.0-6.0-1.14","SAST","2","f","rechts","18","","","object","f","90","false"
"null","<div style=""font-size:60px;"">+</div>","null","html-keyboard-response","36","72686","0.0-6.0-0.15","SAST","2","f","rechts","18","","fixation","","","",""
"832","img/90_150.png","74","image-keyboard-response","37","73519","0.0-6.0-1.15","SAST","2","f","rechts","18","","","object","j","90","true"
"null","<div style=""font-size:60px;"">+</div>","null","html-keyboard-response","38","73971","0.0-6.0-0.16","SAST","2","f","rechts","18","","fixation","","","",""
"917","img/90_330.png","70","image-keyboard-response","39","74889","0.0-6.0-1.16","SAST","2","f","rechts","18","","","object","j","90","false"
"null","<div style=""font-size:60px;"">+</div>","null","html-keyboard-response","40","75291","0.0-6.0-0.17","SAST","2","f","rechts","18","","fixation","","","",""
"499","img/90_60.png","74","image-keyboard-response","41","75791","0.0-6.0-1.17","SAST","2","f","rechts","18","","","object","f","90","false"
"null","<div style=""font-size:60px;"">+</div>","null","html-keyboard-response","42","76143","0.0-6.0-0.18","SAST","2","f","rechts","18","","fixation","","","",""
"720","img/120_210.png","70","image-keyboard-response","43","76864","0.0-6.0-1.18","SAST","2","f","rechts","18","","","object","f","120","true"
"null","<div style=""font-size:60px;"">+</div>","null","html-keyboard-response","44","77316","0.0-6.0-0.19","SAST","2","f","rechts","18","","fixation","","","",""
"1068","img/0_210.png","70","image-keyboard-response","45","78386","0.0-6.0-1.19","SAST","2","f","rechts","18","","","object","f","0","true"
"null","<div style=""font-size:60px;"">+</div>","null","html-keyboard-response","46","78736","0.0-6.0-0.20","SAST","2","f","rechts","18","","fixation","","","",""
"747","img/0_90.png","74","image-keyboard-response","47","79486","0.0-6.0-1.20","SAST","2","f","rechts","18","","","object","j","0","true"
"null","<div style=""font-size:60px;"">+</div>","null","html-keyboard-response","48","79987","0.0-6.0-0.21","SAST","2","f","rechts","18","","fixation","","","",""
"738","img/0_300.png","70","image-keyboard-response","49","80728","0.0-6.0-1.21","SAST","2","f","rechts","18","","","object","f","0","true"
"null","<div style=""font-size:60px;"">+</div>","null","html-keyboard-response","50","81179","0.0-6.0-0.22","SAST","2","f","rechts","18","","fixation","","","",""
"716","img/30_60.png","74","image-keyboard-response","51","81897","0.0-6.0-1.22","SAST","2","f","rechts","18","","","object","j","30","true"
"null","<div style=""font-size:60px;"">+</div>","null","html-keyboard-response","52","82299","0.0-6.0-0.23","SAST","2","f","rechts","18","","fixation","","","",""
"1079","img/120_180.png","70","image-keyboard-response","53","83379","0.0-6.0-1.23","SAST","2","f","rechts","18","","","object","f","120","true"
"null","<div style=""font-size:60px;"">+</div>","null","html-keyboard-response","54","83681","0.0-6.0-0.24","SAST","2","f","rechts","18","","fixation","","","",""
"1353","img/150_180.png","74","image-keyboard-response","55","85035","0.0-6.0-1.24","SAST","2","f","rechts","18","","","object","f","150","false"
"null","<div style=""font-size:60px;"">+</div>","null","html-keyboard-response","56","85437","0.0-6.0-0.25","SAST","2","f","rechts","18","","fixation","","","",""
"null","img/30_240.png","null","image-keyboard-response","57","88439","0.0-6.0-1.25","SAST","2","f","rechts","18","","","object","f","30","false"
"null","<div style=""font-size:60px;"">+</div>","null","html-keyboard-response","58","88941","0.0-6.0-0.26","SAST","2","f","rechts","18","","fixation","","","",""
"747","img/0_30.png","74","image-keyboard-response","59","89689","0.0-6.0-1.26","SAST","2","f","rechts","18","","","object","j","0","true"
"null","<div style=""font-size:60px;"">+</div>","null","html-keyboard-response","60","90141","0.0-6.0-0.27","SAST","2","f","rechts","18","","fixation","","","",""
"1281","img/90_240.png","70","image-keyboard-response","61","91424","0.0-6.0-1.27","SAST","2","f","rechts","18","","","object","f","90","true"
"null","<div style=""font-size:60px;"">+</div>","null","html-keyboard-response","62","91875","0.0-6.0-0.28","SAST","2","f","rechts","18","","fixation","","","",""
"1096","img/90_210.png","70","image-keyboard-response","63","92973","0.0-6.0-1.28","SAST","2","f","rechts","18","","","object","f","90","true"
"null","<div style=""font-size:60px;"">+</div>","null","html-keyboard-response","64","93274","0.0-6.0-0.29","SAST","2","f","rechts","18","","fixation","","","",""
"1230","img/60_90.png","74","image-keyboard-response","65","94506","0.0-6.0-1.29","SAST","2","f","rechts","18","","","object","j","60","true"
"null","<div style=""font-size:60px;"">+</div>","null","html-keyboard-response","66","94807","0.0-6.0-0.30","SAST","2","f","rechts","18","","fixation","","","",""
"983","img/60_30.png","74","image-keyboard-response","67","95792","0.0-6.0-1.30","SAST","2","f","rechts","18","","","object","f","60","false"
"null","<div style=""font-size:60px;"">+</div>","null","html-keyboard-response","68","96293","0.0-6.0-0.31","SAST","2","f","rechts","18","","fixation","","","",""
"1684","img/30_180.png","70","image-keyboard-response","69","97978","0.0-6.0-1.31","SAST","2","f","rechts","18","","","object","f","30","true"
"null","<div style=""font-size:60px;"">+</div>","null","html-keyboard-response","70","98330","0.0-6.0-0.32","SAST","2","f","rechts","18","","fixation","","","",""
"909","img/30_90.png","74","image-keyboard-response","71","99240","0.0-6.0-1.32","SAST","2","f","rechts","18","","","object","j","30","true"
"null","<div style=""font-size:60px;"">+</div>","null","html-keyboard-response","72","99742","0.0-6.0-0.33","SAST","2","f","rechts","18","","fixation","","","",""
"925","img/30_120.png","74","image-keyboard-response","73","100668","0.0-6.0-1.33","SAST","2","f","rechts","18","","","object","j","30","true"
"null","<div style=""font-size:60px;"">+</div>","null","html-keyboard-response","74","101120","0.0-6.0-0.34","SAST","2","f","rechts","18","","fixation","","","",""
"1116","img/150_90.png","74","image-keyboard-response","75","102238","0.0-6.0-1.34","SAST","2","f","rechts","18","","","object","f","150","false"
"null","<div style=""font-size:60px;"">+</div>","null","html-keyboard-response","76","102539","0.0-6.0-0.35","SAST","2","f","rechts","18","","fixation","","","",""
"917","img/0_330.png","70","image-keyboard-response","77","103458","0.0-6.0-1.35","SAST","2","f","rechts","18","","","object","f","0","true"
"null","<div style=""font-size:60px;"">+</div>","null","html-keyboard-response","78","103759","0.0-6.0-0.36","SAST","2","f","rechts","18","","fixation","","","",""
"1079","img/150_300.png","74","image-keyboard-response","79","104840","0.0-6.0-1.36","SAST","2","f","rechts","18","","","object","j","150","true"
"null","<div style=""font-size:60px;"">+</div>","null","html-keyboard-response","80","105241","0.0-6.0-0.37","SAST","2","f","rechts","18","","fixation","","","",""
"980","img/120_90.png","74","image-keyboard-response","81","106223","0.0-6.0-1.37","SAST","2","f","rechts","18","","","object","f","120","false"
"null","<div style=""font-size:60px;"">+</div>","null","html-keyboard-response","82","106574","0.0-6.0-0.38","SAST","2","f","rechts","18","","fixation","","","",""
"1165","img/60_270.png","70","image-keyboard-response","83","107742","0.0-6.0-1.38","SAST","2","f","rechts","18","","","object","f","60","true"
"null","<div style=""font-size:60px;"">+</div>","null","html-keyboard-response","84","108043","0.0-6.0-0.39","SAST","2","f","rechts","18","","fixation","","","",""
"643","img/90_120.png","74","image-keyboard-response","85","108688","0.0-6.0-1.39","SAST","2","f","rechts","18","","","object","j","90","true"
"null","<div style=""font-size:60px;"">+</div>","null","html-keyboard-response","86","109140","0.0-6.0-0.40","SAST","2","f","rechts","18","","fixation","","","",""
"766","img/90_300.png","70","image-keyboard-response","87","109909","0.0-6.0-1.40","SAST","2","f","rechts","18","","","object","j","90","false"
"null","<div style=""font-size:60px;"">+</div>","null","html-keyboard-response","88","110411","0.0-6.0-0.41","SAST","2","f","rechts","18","","fixation","","","",""
"1071","img/L30_180.png","74","image-keyboard-response","89","111484","0.0-6.0-1.41","SAST","2","f","rechts","18","","","object","j","30","true"
"null","<div style=""font-size:60px;"">+</div>","null","html-keyboard-response","90","111885","0.0-6.0-0.42","SAST","2","f","rechts","18","","fixation","","","",""
"1222","img/30_270.png","70","image-keyboard-response","91","113109","0.0-6.0-1.42","SAST","2","f","rechts","18","","","object","f","30","true"
"null","<div style=""font-size:60px;"">+</div>","null","html-keyboard-response","92","113460","0.0-6.0-0.43","SAST","2","f","rechts","18","","fixation","","","",""
"901","img/120_270.png","70","image-keyboard-response","93","114363","0.0-6.0-1.43","SAST","2","f","rechts","18","","","object","j","120","false"
"null","<div style=""font-size:60px;"">+</div>","null","html-keyboard-response","94","114714","0.0-6.0-0.44","SAST","2","f","rechts","18","","fixation","","","",""
"1015","img/150_240.png","70","image-keyboard-response","95","115731","0.0-6.0-1.44","SAST","2","f","rechts","18","","","object","j","150","false"
"null","<div style=""font-size:60px;"">+</div>","null","html-keyboard-response","96","116083","0.0-6.0-0.45","SAST","2","f","rechts","18","","fixation","","","",""
"1787","img/30_300.png","70","image-keyboard-response","97","117871","0.0-6.0-1.45","SAST","2","f","rechts","18","","","object","f","30","true"
"null","<div style=""font-size:60px;"">+</div>","null","html-keyboard-response","98","118373","0.0-6.0-0.46","SAST","2","f","rechts","18","","fixation","","","",""
"1085","img/L150_180.png","70","image-keyboard-response","99","119459","0.0-6.0-1.46","SAST","2","f","rechts","18","","","object","j","150","false"
"null","<div style=""font-size:60px;"">+</div>","null","html-keyboard-response","100","119811","0.0-6.0-0.47","SAST","2","f","rechts","18","","fixation","","","",""
"null","img/60_210.png","null","image-keyboard-response","101","122814","0.0-6.0-1.47","SAST","2","f","rechts","18","","","object","f","60","false"
"null","<div style=""font-size:60px;"">+</div>","null","html-keyboard-response","102","123166","0.0-6.0-0.48","SAST","2","f","rechts","18","","fixation","","","",""
"820","img/0_240.png","70","image-keyboard-response","103","123987","0.0-6.0-1.48","SAST","2","f","rechts","18","","","object","f","0","true"
"null","<div style=""font-size:60px;"">+</div>","null","html-keyboard-response","104","124289","0.0-6.0-0.49","SAST","2","f","rechts","18","","fixation","","","",""
"1017","img/60_180.png","70","image-keyboard-response","105","125307","0.0-6.0-1.49","SAST","2","f","rechts","18","","","object","f","60","true"
"null","<div style=""font-size:60px;"">+</div>","null","html-keyboard-response","106","125658","0.0-6.0-0.50","SAST","2","f","rechts","18","","fixation","","","",""
"676","img/0_270.png","70","image-keyboard-response","107","126335","0.0-6.0-1.50","SAST","2","f","rechts","18","","","object","f","0","true"
"null","<div style=""font-size:60px;"">+</div>","null","html-keyboard-response","108","126636","0.0-6.0-0.51","SAST","2","f","rechts","18","","fixation","","","",""
"1227","img/L60_180.png","74","image-keyboard-response","109","127866","0.0-6.0-1.51","SAST","2","f","rechts","18","","","object","j","60","true"
"null","<div style=""font-size:60px;"">+</div>","null","html-keyboard-response","110","128168","0.0-6.0-0.52","SAST","2","f","rechts","18","","fixation","","","",""
"1064","img/120_30.png","74","image-keyboard-response","111","129233","0.0-6.0-1.52","SAST","2","f","rechts","18","","","object","f","120","false"
"null","<div style=""font-size:60px;"">+</div>","null","html-keyboard-response","112","129535","0.0-6.0-0.53","SAST","2","f","rechts","18","","fixation","","","",""
"null","img/90_210.png","null","image-keyboard-response","113","132537","0.0-6.0-1.53","SAST","2","f","rechts","18","","","object","f","90","false"
"null","<div style=""font-size:60px;"">+</div>","null","html-keyboard-response","114","132839","0.0-6.0-0.54","SAST","2","f","rechts","18","","fixation","","","",""
"740","img/0_60.png","74","image-keyboard-response","115","133579","0.0-6.0-1.54","SAST","2","f","rechts","18","","","object","j","0","true"
"null","<div style=""font-size:60px;"">+</div>","null","html-keyboard-response","116","133980","0.0-6.0-0.55","SAST","2","f","rechts","18","","fixation","","","",""
"756","img/120_330.png","70","image-keyboard-response","117","134737","0.0-6.0-1.55","SAST","2","f","rechts","18","","","object","j","120","false"
"null","<div style=""font-size:60px;"">+</div>","null","html-keyboard-response","118","135089","0.0-6.0-0.56","SAST","2","f","rechts","18","","fixation","","","",""
"1302","img/120_180.png","70","image-keyboard-response","119","136391","0.0-6.0-1.56","SAST","2","f","rechts","18","","","object","f","120","true"
"null","<div style=""font-size:60px;"">+</div>","null","html-keyboard-response","120","136843","0.0-6.0-0.57","SAST","2","f","rechts","18","","fixation","","","",""
"966","img/60_330.png","70","image-keyboard-response","121","137809","0.0-6.0-1.57","SAST","2","f","rechts","18","","","object","j","60","false"
"null","<div style=""font-size:60px;"">+</div>","null","html-keyboard-response","122","138261","0.0-6.0-0.58","SAST","2","f","rechts","18","","fixation","","","",""
"1248","img/150_120.png","74","image-keyboard-response","123","139509","0.0-6.0-1.58","SAST","2","f","rechts","18","","","object","f","150","false"
"null","<div style=""font-size:60px;"">+</div>","null","html-keyboard-response","124","139960","0.0-6.0-0.59","SAST","2","f","rechts","18","","fixation","","","",""
"1248","img/60_180.png","74","image-keyboard-response","125","141209","0.0-6.0-1.59","SAST","2","f","rechts","18","","","object","f","60","false"
"null","<div style=""font-size:60px;"">+</div>","null","html-keyboard-response","126","141611","0.0-6.0-0.60","SAST","2","f","rechts","18","","fixation","","","",""
"980","img/150_60.png","74","image-keyboard-response","127","142591","0.0-6.0-1.60","SAST","2","f","rechts","18","","","object","f","150","false"
"null","<div style=""font-size:60px;"">+</div>","null","html-keyboard-response","128","142943","0.0-6.0-0.61","SAST","2","f","rechts","18","","fixation","","","",""
"821","img/0_300.png","70","image-keyboard-response","129","143764","0.0-6.0-1.61","SAST","2","f","rechts","18","","","object","f","0","true"
"null","<div style=""font-size:60px;"">+</div>","null","html-keyboard-response","130","144266","0.0-6.0-0.62","SAST","2","f","rechts","18","","fixation","","","",""
"791","img/150_270.png","74","image-keyboard-response","131","145057","0.0-6.0-1.62","SAST","2","f","rechts","18","","","object","j","150","true"
"null","<div style=""font-size:60px;"">+</div>","null","html-keyboard-response","132","145409","0.0-6.0-0.63","SAST","2","f","rechts","18","","fixation","","","",""
"null","img/90_300.png","null","image-keyboard-response","133","148410","0.0-6.0-1.63","SAST","2","f","rechts","18","","","object","j","90","false"
"null","<div style=""font-size:60px;"">+</div>","null","html-keyboard-response","134","148912","0.0-6.0-0.64","SAST","2","f","rechts","18","","fixation","","","",""
"1050","img/120_90.png","74","image-keyboard-response","135","149963","0.0-6.0-1.64","SAST","2","f","rechts","18","","","object","f","120","false"
"null","<div style=""font-size:60px;"">+</div>","null","html-keyboard-response","136","150415","0.0-6.0-0.65","SAST","2","f","rechts","18","","fixation","","","",""
"954","img/30_60.png","74","image-keyboard-response","137","151371","0.0-6.0-1.65","SAST","2","f","rechts","18","","","object","j","30","true"
"null","<div style=""font-size:60px;"">+</div>","null","html-keyboard-response","138","151872","0.0-6.0-0.66","SAST","2","f","rechts","18","","fixation","","","",""
"1008","img/90_60.png","74","image-keyboard-response","139","152881","0.0-6.0-1.66","SAST","2","f","rechts","18","","","object","f","90","false"
"null","<div style=""font-size:60px;"">+</div>","null","html-keyboard-response","140","153233","0.0-6.0-0.67","SAST","2","f","rechts","18","","fixation","","","",""
"795","img/150_240.png","70","image-keyboard-response","141","154029","0.0-6.0-1.67","SAST","2","f","rechts","18","","","object","j","150","false"
"null","<div style=""font-size:60px;"">+</div>","null","html-keyboard-response","142","154430","0.0-6.0-0.68","SAST","2","f","rechts","18","","fixation","","","",""
"616","img/60_150.png","74","image-keyboard-response","143","155047","0.0-6.0-1.68","SAST","2","f","rechts","18","","","object","j","60","true"
"null","<div style=""font-size:60px;"">+</div>","null","html-keyboard-response","144","155349","0.0-6.0-0.69","SAST","2","f","rechts","18","","fixation","","","",""
"646","img/90_120.png","74","image-keyboard-response","145","155996","0.0-6.0-1.69","SAST","2","f","rechts","18","","","object","j","90","true"
"null","<div style=""font-size:60px;"">+</div>","null","html-keyboard-response","146","156498","0.0-6.0-0.70","SAST","2","f","rechts","18","","fixation","","","",""
"782","img/0_150.png","74","image-keyboard-response","147","157280","0.0-6.0-1.70","SAST","2","f","rechts","18","","","object","j","0","true"
"null","<div style=""font-size:60px;"">+</div>","null","html-keyboard-response","148","157682","0.0-6.0-0.71","SAST","2","f","rechts","18","","fixation","","","",""
"577","img/30_240.png","70","image-keyboard-response","149","158259","0.0-6.0-1.71","SAST","2","f","rechts","18","","","object","f","30","true"
"null","<div style=""font-size:60px;"">+</div>","null","html-keyboard-response","150","158761","0.0-6.0-0.72","SAST","2","f","rechts","18","","fixation","","","",""
"713","img/120_150.png","74","image-keyboard-response","151","159475","0.0-6.0-1.72","SAST","2","f","rechts","18","","","object","j","120","true"
"null","<div style=""font-size:60px;"">+</div>","null","html-keyboard-response","152","159977","0.0-6.0-0.73","SAST","2","f","rechts","18","","fixation","","","",""
"901","img/30_180.png","70","image-keyboard-response","153","160879","0.0-6.0-1.73","SAST","2","f","rechts","18","","","object","f","30","true"
"null","<div style=""font-size:60px;"">+</div>","null","html-keyboard-response","154","161330","0.0-6.0-0.74","SAST","2","f","rechts","18","","fixation","","","",""
"1125","img/120_210.png","74","image-keyboard-response","155","162456","0.0-6.0-1.74","SAST","2","f","rechts","18","","","object","f","120","false"
"null","<div style=""font-size:60px;"">+</div>","null","html-keyboard-response","156","162958","0.0-6.0-0.75","SAST","2","f","rechts","18","","fixation","","","",""
"1066","img/L30_180.png","74","image-keyboard-response","157","164024","0.0-6.0-1.75","SAST","2","f","rechts","18","","","object","j","30","true"
"null","<div style=""font-size:60px;"">+</div>","null","html-keyboard-response","158","164476","0.0-6.0-0.76","SAST","2","f","rechts","18","","fixation","","","",""
"1242","img/120_270.png","70","image-keyboard-response","159","165718","0.0-6.0-1.76","SAST","2","f","rechts","18","","","object","j","120","false"
"null","<div style=""font-size:60px;"">+</div>","null","html-keyboard-response","160","166070","0.0-6.0-0.77","SAST","2","f","rechts","18","","fixation","","","",""
"847","img/90_150.png","74","image-keyboard-response","161","166917","0.0-6.0-1.77","SAST","2","f","rechts","18","","","object","j","90","true"
"null","<div style=""font-size:60px;"">+</div>","null","html-keyboard-response","162","167419","0.0-6.0-0.78","SAST","2","f","rechts","18","","fixation","","","",""
"943","img/150_180.png","74","image-keyboard-response","163","168362","0.0-6.0-1.78","SAST","2","f","rechts","18","","","object","f","150","false"
"null","<div style=""font-size:60px;"">+</div>","null","html-keyboard-response","164","168764","0.0-6.0-0.79","SAST","2","f","rechts","18","","fixation","","","",""
"981","img/0_330.png","70","image-keyboard-response","165","169745","0.0-6.0-1.79","SAST","2","f","rechts","18","","","object","f","0","true"
"null","<div style=""font-size:60px;"">+</div>","null","html-keyboard-response","166","170147","0.0-6.0-0.80","SAST","2","f","rechts","18","","fixation","","","",""
"720","img/90_180.png","70","image-keyboard-response","167","170868","0.0-6.0-1.80","SAST","2","f","rechts","18","","","object","f","90","true"
"null","<div style=""font-size:60px;"">+</div>","null","html-keyboard-response","168","171220","0.0-6.0-0.81","SAST","2","f","rechts","18","","fixation","","","",""
"699","img/0_30.png","74","image-keyboard-response","169","171919","0.0-6.0-1.81","SAST","2","f","rechts","18","","","object","j","0","true"
"null","<div style=""font-size:60px;"">+</div>","null","html-keyboard-response","170","172271","0.0-6.0-0.82","SAST","2","f","rechts","18","","fixation","","","",""
"727","img/0_270.png","70","image-keyboard-response","171","172998","0.0-6.0-1.82","SAST","2","f","rechts","18","","","object","f","0","true"
"null","<div style=""font-size:60px;"">+</div>","null","html-keyboard-response","172","173450","0.0-6.0-0.83","SAST","2","f","rechts","18","","fixation","","","",""
"598","img/90_330.png","70","image-keyboard-response","173","174049","0.0-6.0-1.83","SAST","2","f","rechts","18","","","object","j","90","false"
"null","<div style=""font-size:60px;"">+</div>","null","html-keyboard-response","174","174501","0.0-6.0-0.84","SAST","2","f","rechts","18","","fixation","","","",""
"732","img/30_270.png","70","image-keyboard-response","175","175234","0.0-6.0-1.84","SAST","2","f","rechts","18","","","object","f","30","true"
"null","<div style=""font-size:60px;"">+</div>","null","html-keyboard-response","176","175736","0.0-6.0-0.85","SAST","2","f","rechts","18","","fixation","","","",""
"578","img/0_120.png","74","image-keyboard-response","177","176314","0.0-6.0-1.85","SAST","2","f","rechts","18","","","object","j","0","true"
"null","<div style=""font-size:60px;"">+</div>","null","html-keyboard-response","178","176716","0.0-6.0-0.86","SAST","2","f","rechts","18","","fixation","","","",""
"825","img/L60_180.png","74","image-keyboard-response","179","177542","0.0-6.0-1.86","SAST","2","f","rechts","18","","","object","j","60","true"
"null","<div style=""font-size:60px;"">+</div>","null","html-keyboard-response","180","178043","0.0-6.0-0.87","SAST","2","f","rechts","18","","fixation","","","",""
"756","img/90_240.png","70","image-keyboard-response","181","178800","0.0-6.0-1.87","SAST","2","f","rechts","18","","","object","f","90","true"
"null","<div style=""font-size:60px;"">+</div>","null","html-keyboard-response","182","179301","0.0-6.0-0.88","SAST","2","f","rechts","18","","fixation","","","",""
"887","img/150_90.png","74","image-keyboard-response","183","180189","0.0-6.0-1.88","SAST","2","f","rechts","18","","","object","f","150","false"
"null","<div style=""font-size:60px;"">+</div>","null","html-keyboard-response","184","180541","0.0-6.0-0.89","SAST","2","f","rechts","18","","fixation","","","",""
"931","img/150_300.png","70","image-keyboard-response","185","181472","0.0-6.0-1.89","SAST","2","f","rechts","18","","","object","j","150","false"
"null","<div style=""font-size:60px;"">+</div>","null","html-keyboard-response","186","181874","0.0-6.0-0.90","SAST","2","f","rechts","18","","fixation","","","",""
"744","img/60_210.png","70","image-keyboard-response","187","182618","0.0-6.0-1.90","SAST","2","f","rechts","18","","","object","f","60","true"
"null","<div style=""font-size:60px;"">+</div>","null","html-keyboard-response","188","183069","0.0-6.0-0.91","SAST","2","f","rechts","18","","fixation","","","",""
"899","img/L120_180.png","74","image-keyboard-response","189","183969","0.0-6.0-1.91","SAST","2","f","rechts","18","","","object","j","120","true"
"null","<div style=""font-size:60px;"">+</div>","null","html-keyboard-response","190","184271","0.0-6.0-0.92","SAST","2","f","rechts","18","","fixation","","","",""
"898","img/90_30.png","74","image-keyboard-response","191","185171","0.0-6.0-1.92","SAST","2","f","rechts","18","","","object","f","90","false"
"null","<div style=""font-size:60px;"">+</div>","null","html-keyboard-response","192","185472","0.0-6.0-0.93","SAST","2","f","rechts","18","","fixation","","","",""
"823","img/60_270.png","70","image-keyboard-response","193","186296","0.0-6.0-1.93","SAST","2","f","rechts","18","","","object","f","60","true"
"null","<div style=""font-size:60px;"">+</div>","null","html-keyboard-response","194","186647","0.0-6.0-0.94","SAST","2","f","rechts","18","","fixation","","","",""
"2064","img/60_30.png","74","image-keyboard-response","195","188712","0.0-6.0-1.94","SAST","2","f","rechts","18","","","object","f","60","false"
"null","<div style=""font-size:60px;"">+</div>","null","html-keyboard-response","196","189063","0.0-6.0-0.95","SAST","2","f","rechts","18","","fixation","","","",""
"818","img/0_240.png","70","image-keyboard-response","197","189882","0.0-6.0-1.95","SAST","2","f","rechts","18","","","object","f","0","true"
"null","<div style=""font-size:60px;"">+</div>","null","html-keyboard-response","198","190333","0.0-6.0-0.96","SAST","2","f","rechts","18","","fixation","","","",""
"1284","img/0_210.png","70","image-keyboard-response","199","191619","0.0-6.0-1.96","SAST","2","f","rechts","18","","","object","f","0","true"
"null","<div style=""font-size:60px;"">+</div>","null","html-keyboard-response","200","192120","0.0-6.0-0.97","SAST","2","f","rechts","18","","fixation","","","",""
"921","img/30_90.png","74","image-keyboard-response","201","193043","0.0-6.0-1.97","SAST","2","f","rechts","18","","","object","j","30","true"
"null","<div style=""font-size:60px;"">+</div>","null","html-keyboard-response","202","193494","0.0-6.0-0.98","SAST","2","f","rechts","18","","fixation","","","",""
"1075","img/30_120.png","74","image-keyboard-response","203","194571","0.0-6.0-1.98","SAST","2","f","rechts","18","","","object","j","30","true"
"null","<div style=""font-size:60px;"">+</div>","null","html-keyboard-response","204","195022","0.0-6.0-0.99","SAST","2","f","rechts","18","","fixation","","","",""
"1130","img/L150_180.png","74","image-keyboard-response","205","196153","0.0-6.0-1.99","SAST","2","f","rechts","18","","","object","j","150","true"
"null","<div style=""font-size:60px;"">+</div>","null","html-keyboard-response","206","196505","0.0-6.0-0.100","SAST","2","f","rechts","18","","fixation","","","",""
"1075","img/60_90.png","74","image-keyboard-response","207","197581","0.0-6.0-1.100","SAST","2","f","rechts","18","","","object","j","60","true"
"null","<div style=""font-size:60px;"">+</div>","null","html-keyboard-response","208","197982","0.0-6.0-0.101","SAST","2","f","rechts","18","","fixation","","","",""
"771","img/0_90.png","74","image-keyboard-response","209","198755","0.0-6.0-1.101","SAST","2","f","rechts","18","","","object","j","0","true"
"null","<div style=""font-size:60px;"">+</div>","null","html-keyboard-response","210","199256","0.0-6.0-0.102","SAST","2","f","rechts","18","","fixation","","","",""
"1352","img/L90_180.png","74","image-keyboard-response","211","200610","0.0-6.0-1.102","SAST","2","f","rechts","18","","","object","j","90","true"
"null","<div style=""font-size:60px;"">+</div>","null","html-keyboard-response","212","201011","0.0-6.0-0.103","SAST","2","f","rechts","18","","fixation","","","",""
"984","img/30_300.png","70","image-keyboard-response","213","201996","0.0-6.0-1.103","SAST","2","f","rechts","18","","","object","f","30","true"
"null","<div style=""font-size:60px;"">+</div>","null","html-keyboard-response","214","202448","0.0-6.0-0.104","SAST","2","f","rechts","18","","fixation","","","",""
"988","img/L90_180.png","74","image-keyboard-response","215","203437","0.0-6.0-1.104","SAST","2","f","rechts","18","","","object","j","90","true"
"null","<div style=""font-size:60px;"">+</div>","null","html-keyboard-response","216","203839","0.0-6.0-0.105","SAST","2","f","rechts","18","","fixation","","","",""
"1117","img/150_180.png","70","image-keyboard-response","217","204957","0.0-6.0-1.105","SAST","2","f","rechts","18","","","object","f","150","true"
"null","<div style=""font-size:60px;"">+</div>","null","html-keyboard-response","218","205259","0.0-6.0-0.106","SAST","2","f","rechts","18","","fixation","","","",""
"1320","img/90_210.png","70","image-keyboard-response","219","206581","0.0-6.0-1.106","SAST","2","f","rechts","18","","","object","f","90","true"
"null","<div style=""font-size:60px;"">+</div>","null","html-keyboard-response","220","207082","0.0-6.0-0.107","SAST","2","f","rechts","18","","fixation","","","",""
"1154","img/90_300.png","70","image-keyboard-response","221","208237","0.0-6.0-1.107","SAST","2","f","rechts","18","","","object","j","90","false"
"null","<div style=""font-size:60px;"">+</div>","null","html-keyboard-response","222","208538","0.0-6.0-0.108","SAST","2","f","rechts","18","","fixation","","","",""
"866","img/90_180.png","70","image-keyboard-response","223","209405","0.0-6.0-1.108","SAST","2","f","rechts","18","","","object","f","90","true"
"null","<div style=""font-size:60px;"">+</div>","null","html-keyboard-response","224","209807","0.0-6.0-0.109","SAST","2","f","rechts","18","","fixation","","","",""
"680","img/0_60.png","74","image-keyboard-response","225","210487","0.0-6.0-1.109","SAST","2","f","rechts","18","","","object","j","0","true"
"null","<div style=""font-size:60px;"">+</div>","null","html-keyboard-response","226","210839","0.0-6.0-0.110","SAST","2","f","rechts","18","","fixation","","","",""
"854","img/30_300.png","70","image-keyboard-response","227","211694","0.0-6.0-1.110","SAST","2","f","rechts","18","","","object","f","30","true"
"null","<div style=""font-size:60px;"">+</div>","null","html-keyboard-response","228","212096","0.0-6.0-0.111","SAST","2","f","rechts","18","","fixation","","","",""
"991","img/90_150.png","74","image-keyboard-response","229","213088","0.0-6.0-1.111","SAST","2","f","rechts","18","","","object","j","90","true"
"null","<div style=""font-size:60px;"">+</div>","null","html-keyboard-response","230","213590","0.0-6.0-0.112","SAST","2","f","rechts","18","","fixation","","","",""
"1380","img/150_60.png","74","image-keyboard-response","231","214970","0.0-6.0-1.112","SAST","2","f","rechts","18","","","object","f","150","false"
"null","<div style=""font-size:60px;"">+</div>","null","html-keyboard-response","232","215272","0.0-6.0-0.113","SAST","2","f","rechts","18","","fixation","","","",""
"1700","img/120_270.png","70","image-keyboard-response","233","216972","0.0-6.0-1.113","SAST","2","f","rechts","18","","","object","j","120","false"
"null","<div style=""font-size:60px;"">+</div>","null","html-keyboard-response","234","217373","0.0-6.0-0.114","SAST","2","f","rechts","18","","fixation","","","",""
"1356","img/30_180.png","70","image-keyboard-response","235","218730","0.0-6.0-1.114","SAST","2","f","rechts","18","","","object","f","30","true"
"null","<div style=""font-size:60px;"">+</div>","null","html-keyboard-response","236","219182","0.0-6.0-0.115","SAST","2","f","rechts","18","","fixation","","","",""
"819","img/30_270.png","74","image-keyboard-response","237","220001","0.0-6.0-1.115","SAST","2","f","rechts","18","","","object","f","30","false"
"null","<div style=""font-size:60px;"">+</div>","null","html-keyboard-response","238","220453","0.0-6.0-0.116","SAST","2","f","rechts","18","","fixation","","","",""
"696","img/0_90.png","74","image-keyboard-response","239","221150","0.0-6.0-1.116","SAST","2","f","rechts","18","","","object","j","0","true"
"null","<div style=""font-size:60px;"">+</div>","null","html-keyboard-response","240","221502","0.0-6.0-0.117","SAST","2","f","rechts","18","","fixation","","","",""
"null","img/120_210.png","null","image-keyboard-response","241","224504","0.0-6.0-1.117","SAST","2","f","rechts","18","","","object","f","120","false"
"null","<div style=""font-size:60px;"">+</div>","null","html-keyboard-response","242","224855","0.0-6.0-0.118","SAST","2","f","rechts","18","","fixation","","","",""
"752","img/30_60.png","74","image-keyboard-response","243","225608","0.0-6.0-1.118","SAST","2","f","rechts","18","","","object","j","30","true"
"null","<div style=""font-size:60px;"">+</div>","null","html-keyboard-response","244","226059","0.0-6.0-0.119","SAST","2","f","rechts","18","","fixation","","","",""
"922","img/150_300.png","70","image-keyboard-response","245","226982","0.0-6.0-1.119","SAST","2","f","rechts","18","","","object","j","150","false"
"null","<div style=""font-size:60px;"">+</div>","null","html-keyboard-response","246","227434","0.0-6.0-0.120","SAST","2","f","rechts","18","","fixation","","","",""
"1072","img/120_30.png","74","image-keyboard-response","247","228507","0.0-6.0-1.120","SAST","2","f","rechts","18","","","object","f","120","false"
"null","<div style=""font-size:60px;"">+</div>","null","html-keyboard-response","248","229009","0.0-6.0-0.121","SAST","2","f","rechts","18","","fixation","","","",""
"743","img/0_210.png","70","image-keyboard-response","249","229753","0.0-6.0-1.121","SAST","2","f","rechts","18","","","object","f","0","true"
"null","<div style=""font-size:60px;"">+</div>","null","html-keyboard-response","250","230055","0.0-6.0-0.122","SAST","2","f","rechts","18","","fixation","","","",""
"797","img/0_120.png","74","image-keyboard-response","251","230852","0.0-6.0-1.122","SAST","2","f","rechts","18","","","object","j","0","true"
"null","<div style=""font-size:60px;"">+</div>","null","html-keyboard-response","252","231204","0.0-6.0-0.123","SAST","2","f","rechts","18","","fixation","","","",""
"1545","img/L60_180.png","74","image-keyboard-response","253","232749","0.0-6.0-1.123","SAST","2","f","rechts","18","","","object","j","60","true"
"null","<div style=""font-size:60px;"">+</div>","null","html-keyboard-response","254","233251","0.0-6.0-0.124","SAST","2","f","rechts","18","","fixation","","","",""
"1669","img/120_180.png","70","image-keyboard-response","255","234920","0.0-6.0-1.124","SAST","2","f","rechts","18","","","object","f","120","true"
"null","<div style=""font-size:60px;"">+</div>","null","html-keyboard-response","256","235222","0.0-6.0-0.125","SAST","2","f","rechts","18","","fixation","","","",""
"2591","img/60_210.png","70","image-keyboard-response","257","237813","0.0-6.0-1.125","SAST","2","f","rechts","18","","","object","f","60","true"
"null","<div style=""font-size:60px;"">+</div>","null","html-keyboard-response","258","238165","0.0-6.0-0.126","SAST","2","f","rechts","18","","fixation","","","",""
"2272","img/150_90.png","74","image-keyboard-response","259","240438","0.0-6.0-1.126","SAST","2","f","rechts","18","","","object","f","150","false"
"null","<div style=""font-size:60px;"">+</div>","null","html-keyboard-response","260","240940","0.0-6.0-0.127","SAST","2","f","rechts","18","","fixation","","","",""
"1423","img/30_240.png","70","image-keyboard-response","261","242363","0.0-6.0-1.127","SAST","2","f","rechts","18","","","object","f","30","true"
"null","<div style=""font-size:60px;"">+</div>","null","html-keyboard-response","262","242715","0.0-6.0-0.128","SAST","2","f","rechts","18","","fixation","","","",""
"1090","img/120_330.png","70","image-keyboard-response","263","243805","0.0-6.0-1.128","SAST","2","f","rechts","18","","","object","j","120","false"
"null","<div style=""font-size:60px;"">+</div>","null","html-keyboard-response","264","244207","0.0-6.0-0.129","SAST","2","f","rechts","18","","fixation","","","",""
"1269","img/90_30.png","74","image-keyboard-response","265","245477","0.0-6.0-1.129","SAST","2","f","rechts","18","","","object","f","90","false"
"null","<div style=""font-size:60px;"">+</div>","null","html-keyboard-response","266","245829","0.0-6.0-0.130","SAST","2","f","rechts","18","","fixation","","","",""
"877","img/0_150.png","74","image-keyboard-response","267","246706","0.0-6.0-1.130","SAST","2","f","rechts","18","","","object","j","0","true"
"null","<div style=""font-size:60px;"">+</div>","null","html-keyboard-response","268","247208","0.0-6.0-0.131","SAST","2","f","rechts","18","","fixation","","","",""
"1401","img/30_90.png","74","image-keyboard-response","269","248610","0.0-6.0-1.131","SAST","2","f","rechts","18","","","object","j","30","true"
"null","<div style=""font-size:60px;"">+</div>","null","html-keyboard-response","270","249112","0.0-6.0-0.132","SAST","2","f","rechts","18","","fixation","","","",""
"1078","img/90_120.png","74","image-keyboard-response","271","250191","0.0-6.0-1.132","SAST","2","f","rechts","18","","","object","j","90","true"
"null","<div style=""font-size:60px;"">+</div>","null","html-keyboard-response","272","250493","0.0-6.0-0.133","SAST","2","f","rechts","18","","fixation","","","",""
"939","img/0_270.png","70","image-keyboard-response","273","251433","0.0-6.0-1.133","SAST","2","f","rechts","18","","","object","f","0","true"
"null","<div style=""font-size:60px;"">+</div>","null","html-keyboard-response","274","251835","0.0-6.0-0.134","SAST","2","f","rechts","18","","fixation","","","",""
"1014","img/60_180.png","70","image-keyboard-response","275","252850","0.0-6.0-1.134","SAST","2","f","rechts","18","","","object","f","60","true"
"null","<div style=""font-size:60px;"">+</div>","null","html-keyboard-response","276","253352","0.0-6.0-0.135","SAST","2","f","rechts","18","","fixation","","","",""
"1024","img/L150_180.png","74","image-keyboard-response","277","254376","0.0-6.0-1.135","SAST","2","f","rechts","18","","","object","j","150","true"
"null","<div style=""font-size:60px;"">+</div>","null","html-keyboard-response","278","254678","0.0-6.0-0.136","SAST","2","f","rechts","18","","fixation","","","",""
"1373","img/30_120.png","74","image-keyboard-response","279","256053","0.0-6.0-1.136","SAST","2","f","rechts","18","","","object","j","30","true"
"null","<div style=""font-size:60px;"">+</div>","null","html-keyboard-response","280","256454","0.0-6.0-0.137","SAST","2","f","rechts","18","","fixation","","","",""
"926","img/120_90.png","74","image-keyboard-response","281","257380","0.0-6.0-1.137","SAST","2","f","rechts","18","","","object","f","120","false"
"null","<div style=""font-size:60px;"">+</div>","null","html-keyboard-response","282","257732","0.0-6.0-0.138","SAST","2","f","rechts","18","","fixation","","","",""
"1375","img/60_150.png","74","image-keyboard-response","283","259109","0.0-6.0-1.138","SAST","2","f","rechts","18","","","object","j","60","true"
"null","<div style=""font-size:60px;"">+</div>","null","html-keyboard-response","284","259610","0.0-6.0-0.139","SAST","2","f","rechts","18","","fixation","","","",""
"1009","img/L30_180.png","74","image-keyboard-response","285","260620","0.0-6.0-1.139","SAST","2","f","rechts","18","","","object","j","30","true"
"null","<div style=""font-size:60px;"">+</div>","null","html-keyboard-response","286","261022","0.0-6.0-0.140","SAST","2","f","rechts","18","","fixation","","","",""
"941","img/60_270.png","70","image-keyboard-response","287","261964","0.0-6.0-1.140","SAST","2","f","rechts","18","","","object","f","60","true"
"null","<div style=""font-size:60px;"">+</div>","null","html-keyboard-response","288","262315","0.0-6.0-0.141","SAST","2","f","rechts","18","","fixation","","","",""
"781","img/0_300.png","70","image-keyboard-response","289","263097","0.0-6.0-1.141","SAST","2","f","rechts","18","","","object","f","0","true"
"null","<div style=""font-size:60px;"">+</div>","null","html-keyboard-response","290","263549","0.0-6.0-0.142","SAST","2","f","rechts","18","","fixation","","","",""
"675","img/L120_180.png","74","image-keyboard-response","291","264225","0.0-6.0-1.142","SAST","2","f","rechts","18","","","object","j","120","true"
"null","<div style=""font-size:60px;"">+</div>","null","html-keyboard-response","292","264626","0.0-6.0-0.143","SAST","2","f","rechts","18","","fixation","","","",""
"684","img/60_30.png","74","image-keyboard-response","293","265312","0.0-6.0-1.143","SAST","2","f","rechts","18","","","object","f","60","false"
"null","<div style=""font-size:60px;"">+</div>","null","html-keyboard-response","294","265613","0.0-6.0-0.144","SAST","2","f","rechts","18","","fixation","","","",""
"929","img/150_120.png","70","image-keyboard-response","295","266543","0.0-6.0-1.144","SAST","2","f","rechts","18","","","object","f","150","true"
"null","<div style=""font-size:60px;"">+</div>","null","html-keyboard-response","296","266995","0.0-6.0-0.145","SAST","2","f","rechts","18","","fixation","","","",""
"1191","img/120_150.png","74","image-keyboard-response","297","268187","0.0-6.0-1.145","SAST","2","f","rechts","18","","","object","j","120","true"
"null","<div style=""font-size:60px;"">+</div>","null","html-keyboard-response","298","268689","0.0-6.0-0.146","SAST","2","f","rechts","18","","fixation","","","",""
"988","img/60_330.png","70","image-keyboard-response","299","269678","0.0-6.0-1.146","SAST","2","f","rechts","18","","","object","j","60","false"
"null","<div style=""font-size:60px;"">+</div>","null","html-keyboard-response","300","270080","0.0-6.0-0.147","SAST","2","f","rechts","18","","fixation","","","",""
"1114","img/90_60.png","74","image-keyboard-response","301","271194","0.0-6.0-1.147","SAST","2","f","rechts","18","","","object","f","90","false"
"null","<div style=""font-size:60px;"">+</div>","null","html-keyboard-response","302","271596","0.0-6.0-0.148","SAST","2","f","rechts","18","","fixation","","","",""
"904","img/0_240.png","70","image-keyboard-response","303","272501","0.0-6.0-1.148","SAST","2","f","rechts","18","","","object","f","0","true"
"null","<div style=""font-size:60px;"">+</div>","null","html-keyboard-response","304","273003","0.0-6.0-0.149","SAST","2","f","rechts","18","","fixation","","","",""
"1945","img/150_240.png","74","image-keyboard-response","305","274948","0.0-6.0-1.149","SAST","2","f","rechts","18","","","object","j","150","true"
"null","<div style=""font-size:60px;"">+</div>","null","html-keyboard-response","306","275350","0.0-6.0-0.150","SAST","2","f","rechts","18","","fixation","","","",""
"1464","img/60_90.png","74","image-keyboard-response","307","276815","0.0-6.0-1.150","SAST","2","f","rechts","18","","","object","j","60","true"
"null","<div style=""font-size:60px;"">+</div>","null","html-keyboard-response","308","277167","0.0-6.0-0.151","SAST","2","f","rechts","18","","fixation","","","",""
"1113","img/0_330.png","70","image-keyboard-response","309","278281","0.0-6.0-1.151","SAST","2","f","rechts","18","","","object","f","0","true"
"null","<div style=""font-size:60px;"">+</div>","null","html-keyboard-response","310","278583","0.0-6.0-0.152","SAST","2","f","rechts","18","","fixation","","","",""
"1305","img/90_330.png","70","image-keyboard-response","311","279889","0.0-6.0-1.152","SAST","2","f","rechts","18","","","object","j","90","false"
"null","<div style=""font-size:60px;"">+</div>","null","html-keyboard-response","312","280391","0.0-6.0-0.153","SAST","2","f","rechts","18","","fixation","","","",""
"798","img/0_30.png","74","image-keyboard-response","313","281190","0.0-6.0-1.153","SAST","2","f","rechts","18","","","object","j","0","true"
"null","<div style=""font-size:60px;"">+</div>","null","html-keyboard-response","314","281592","0.0-6.0-0.154","SAST","2","f","rechts","18","","fixation","","","",""
"1988","img/90_240.png","70","image-keyboard-response","315","283581","0.0-6.0-1.154","SAST","2","f","rechts","18","","","object","f","90","true"
"null","<div style=""font-size:60px;"">+</div>","null","html-keyboard-response","316","284033","0.0-6.0-0.155","SAST","2","f","rechts","18","","fixation","","","",""
"852","img/150_270.png","70","image-keyboard-response","317","284885","0.0-6.0-1.155","SAST","2","f","rechts","18","","","object","j","150","false"
"null","<div style=""font-size:60px;"">+</div>","null","html-keyboard-response","318","285337","0.0-6.0-0.156","SAST","2","f","rechts","18","","fixation","","","",""
"1150","img/150_90.png","74","image-keyboard-response","319","286488","0.0-6.0-1.156","SAST","2","f","rechts","18","","","object","f","150","false"
"null","<div style=""font-size:60px;"">+</div>","null","html-keyboard-response","320","286990","0.0-6.0-0.157","SAST","2","f","rechts","18","","fixation","","","",""
"1125","img/30_90.png","74","image-keyboard-response","321","288115","0.0-6.0-1.157","SAST","2","f","rechts","18","","","object","j","30","true"
"null","<div style=""font-size:60px;"">+</div>","null","html-keyboard-response","322","288467","0.0-6.0-0.158","SAST","2","f","rechts","18","","fixation","","","",""
"996","img/120_150.png","74","image-keyboard-response","323","289463","0.0-6.0-1.158","SAST","2","f","rechts","18","","","object","j","120","true"
"null","<div style=""font-size:60px;"">+</div>","null","html-keyboard-response","324","289764","0.0-6.0-0.159","SAST","2","f","rechts","18","","fixation","","","",""
"1256","img/120_270.png","70","image-keyboard-response","325","291022","0.0-6.0-1.159","SAST","2","f","rechts","18","","","object","j","120","false"
"null","<div style=""font-size:60px;"">+</div>","null","html-keyboard-response","326","291523","0.0-6.0-0.160","SAST","2","f","rechts","18","","fixation","","","",""
"1801","img/30_180.png","74","image-keyboard-response","327","293325","0.0-6.0-1.160","SAST","2","f","rechts","18","","","object","f","30","false"
"null","<div style=""font-size:60px;"">+</div>","null","html-keyboard-response","328","293777","0.0-6.0-0.161","SAST","2","f","rechts","18","","fixation","","","",""
"1558","img/L120_180.png","74","image-keyboard-response","329","295335","0.0-6.0-1.161","SAST","2","f","rechts","18","","","object","j","120","true"
"null","<div style=""font-size:60px;"">+</div>","null","html-keyboard-response","330","295837","0.0-6.0-0.162","SAST","2","f","rechts","18","","fixation","","","",""
"1258","img/60_90.png","74","image-keyboard-response","331","297096","0.0-6.0-1.162","SAST","2","f","rechts","18","","","object","j","60","true"
"null","<div style=""font-size:60px;"">+</div>","null","html-keyboard-response","332","297497","0.0-6.0-0.163","SAST","2","f","rechts","18","","fixation","","","",""
"1111","img/150_60.png","70","image-keyboard-response","333","298609","0.0-6.0-1.163","SAST","2","f","rechts","18","","","object","f","150","true"
"null","<div style=""font-size:60px;"">+</div>","null","html-keyboard-response","334","299110","0.0-6.0-0.164","SAST","2","f","rechts","18","","fixation","","","",""
"717","img/0_60.png","74","image-keyboard-response","335","299828","0.0-6.0-1.164","SAST","2","f","rechts","18","","","object","j","0","true"
"null","<div style=""font-size:60px;"">+</div>","null","html-keyboard-response","336","300330","0.0-6.0-0.165","SAST","2","f","rechts","18","","fixation","","","",""
"814","img/90_300.png","70","image-keyboard-response","337","301144","0.0-6.0-1.165","SAST","2","f","rechts","18","","","object","j","90","false"
"null","<div style=""font-size:60px;"">+</div>","null","html-keyboard-response","338","301595","0.0-6.0-0.166","SAST","2","f","rechts","18","","fixation","","","",""
"683","img/0_30.png","74","image-keyboard-response","339","302279","0.0-6.0-1.166","SAST","2","f","rechts","18","","","object","j","0","true"
"null","<div style=""font-size:60px;"">+</div>","null","html-keyboard-response","340","302579","0.0-6.0-0.167","SAST","2","f","rechts","18","","fixation","","","",""
"721","img/0_300.png","70","image-keyboard-response","341","303301","0.0-6.0-1.167","SAST","2","f","rechts","18","","","object","f","0","true"
"null","<div style=""font-size:60px;"">+</div>","null","html-keyboard-response","342","303802","0.0-6.0-0.168","SAST","2","f","rechts","18","","fixation","","","",""
"1717","img/150_240.png","74","image-keyboard-response","343","305520","0.0-6.0-1.168","SAST","2","f","rechts","18","","","object","j","150","true"
"null","<div style=""font-size:60px;"">+</div>","null","html-keyboard-response","344","305972","0.0-6.0-0.169","SAST","2","f","rechts","18","","fixation","","","",""
"2433","img/L150_180.png","74","image-keyboard-response","345","308406","0.0-6.0-1.169","SAST","2","f","rechts","18","","","object","j","150","true"
"null","<div style=""font-size:60px;"">+</div>","null","html-keyboard-response","346","308807","0.0-6.0-0.170","SAST","2","f","rechts","18","","fixation","","","",""
"1365","img/30_270.png","70","image-keyboard-response","347","310173","0.0-6.0-1.170","SAST","2","f","rechts","18","","","object","f","30","true"
"null","<div style=""font-size:60px;"">+</div>","null","html-keyboard-response","348","310575","0.0-6.0-0.171","SAST","2","f","rechts","18","","fixation","","","",""
"1459","img/90_30.png","74","image-keyboard-response","349","312035","0.0-6.0-1.171","SAST","2","f","rechts","18","","","object","f","90","false"
"null","<div style=""font-size:60px;"">+</div>","null","html-keyboard-response","350","312337","0.0-6.0-0.172","SAST","2","f","rechts","18","","fixation","","","",""
"1205","img/60_30.png","74","image-keyboard-response","351","313544","0.0-6.0-1.172","SAST","2","f","rechts","18","","","object","f","60","false"
"null","<div style=""font-size:60px;"">+</div>","null","html-keyboard-response","352","314045","0.0-6.0-0.173","SAST","2","f","rechts","18","","fixation","","","",""
"1251","img/0_210.png","70","image-keyboard-response","353","315297","0.0-6.0-1.173","SAST","2","f","rechts","18","","","object","f","0","true"
"null","<div style=""font-size:60px;"">+</div>","null","html-keyboard-response","354","315799","0.0-6.0-0.174","SAST","2","f","rechts","18","","fixation","","","",""
"1448","img/120_90.png","74","image-keyboard-response","355","317248","0.0-6.0-1.174","SAST","2","f","rechts","18","","","object","f","120","false"
"null","<div style=""font-size:60px;"">+</div>","null","html-keyboard-response","356","317600","0.0-6.0-0.175","SAST","2","f","rechts","18","","fixation","","","",""
"2188","img/120_330.png","70","image-keyboard-response","357","319789","0.0-6.0-1.175","SAST","2","f","rechts","18","","","object","j","120","false"
"null","<div style=""font-size:60px;"">+</div>","null","html-keyboard-response","358","320141","0.0-6.0-0.176","SAST","2","f","rechts","18","","fixation","","","",""
"null","img/120_210.png","null","image-keyboard-response","359","323144","0.0-6.0-1.176","SAST","2","f","rechts","18","","","object","f","120","false"
"null","<div style=""font-size:60px;"">+</div>","null","html-keyboard-response","360","323596","0.0-6.0-0.177","SAST","2","f","rechts","18","","fixation","","","",""
"775","img/120_30.png","74","image-keyboard-response","361","324372","0.0-6.0-1.177","SAST","2","f","rechts","18","","","object","f","120","false"
"null","<div style=""font-size:60px;"">+</div>","null","html-keyboard-response","362","324773","0.0-6.0-0.178","SAST","2","f","rechts","18","","fixation","","","",""
"1077","img/90_60.png","74","image-keyboard-response","363","325851","0.0-6.0-1.178","SAST","2","f","rechts","18","","","object","f","90","false"
"null","<div style=""font-size:60px;"">+</div>","null","html-keyboard-response","364","326303","0.0-6.0-0.179","SAST","2","f","rechts","18","","fixation","","","",""
"2447","img/60_330.png","70","image-keyboard-response","365","328750","0.0-6.0-1.179","SAST","2","f","rechts","18","","","object","j","60","false"
"null","<div style=""font-size:60px;"">+</div>","null","html-keyboard-response","366","329152","0.0-6.0-0.180","SAST","2","f","rechts","18","","fixation","","","",""
"1911","img/150_180.png","74","image-keyboard-response","367","331064","0.0-6.0-1.180","SAST","2","f","rechts","18","","","object","f","150","false"
"null","<div style=""font-size:60px;"">+</div>","null","html-keyboard-response","368","331516","0.0-6.0-0.181","SAST","2","f","rechts","18","","fixation","","","",""
"1992","img/60_150.png","74","image-keyboard-response","369","333509","0.0-6.0-1.181","SAST","2","f","rechts","18","","","object","j","60","true"
"null","<div style=""font-size:60px;"">+</div>","null","html-keyboard-response","370","333911","0.0-6.0-0.182","SAST","2","f","rechts","18","","fixation","","","",""
"1485","img/L60_180.png","70","image-keyboard-response","371","335396","0.0-6.0-1.182","SAST","2","f","rechts","18","","","object","j","60","false"
"null","<div style=""font-size:60px;"">+</div>","null","html-keyboard-response","372","335898","0.0-6.0-0.183","SAST","2","f","rechts","18","","fixation","","","",""
"1075","img/0_120.png","74","image-keyboard-response","373","336974","0.0-6.0-1.183","SAST","2","f","rechts","18","","","object","j","0","true"
"null","<div style=""font-size:60px;"">+</div>","null","html-keyboard-response","374","337276","0.0-6.0-0.184","SAST","2","f","rechts","18","","fixation","","","",""
"2069","img/90_150.png","70","image-keyboard-response","375","339346","0.0-6.0-1.184","SAST","2","f","rechts","18","","","object","j","90","false"
"null","<div style=""font-size:60px;"">+</div>","null","html-keyboard-response","376","339698","0.0-6.0-0.185","SAST","2","f","rechts","18","","fixation","","","",""
"1136","img/30_60.png","74","image-keyboard-response","377","340835","0.0-6.0-1.185","SAST","2","f","rechts","18","","","object","j","30","true"
"null","<div style=""font-size:60px;"">+</div>","null","html-keyboard-response","378","341287","0.0-6.0-0.186","SAST","2","f","rechts","18","","fixation","","","",""
"1183","img/0_90.png","70","image-keyboard-response","379","342470","0.0-6.0-1.186","SAST","2","f","rechts","18","","","object","j","0","false"
"null","<div style=""font-size:60px;"">+</div>","null","html-keyboard-response","380","342822","0.0-6.0-0.187","SAST","2","f","rechts","18","","fixation","","","",""
"1637","img/60_180.png","70","image-keyboard-response","381","344459","0.0-6.0-1.187","SAST","2","f","rechts","18","","","object","f","60","true"
"null","<div style=""font-size:60px;"">+</div>","null","html-keyboard-response","382","344761","0.0-6.0-0.188","SAST","2","f","rechts","18","","fixation","","","",""
"1182","img/90_330.png","74","image-keyboard-response","383","345943","0.0-6.0-1.188","SAST","2","f","rechts","18","","","object","j","90","true"
"null","<div style=""font-size:60px;"">+</div>","null","html-keyboard-response","384","346445","0.0-6.0-0.189","SAST","2","f","rechts","18","","fixation","","","",""
"2650","img/90_120.png","74","image-keyboard-response","385","349095","0.0-6.0-1.189","SAST","2","f","rechts","18","","","object","j","90","true"
"null","<div style=""font-size:60px;"">+</div>","null","html-keyboard-response","386","349497","0.0-6.0-0.190","SAST","2","f","rechts","18","","fixation","","","",""
"2836","img/60_270.png","70","image-keyboard-response","387","352334","0.0-6.0-1.190","SAST","2","f","rechts","18","","","object","f","60","true"
"null","<div style=""font-size:60px;"">+</div>","null","html-keyboard-response","388","352735","0.0-6.0-0.191","SAST","2","f","rechts","18","","fixation","","","",""
"null","img/90_180.png","null","image-keyboard-response","389","355738","0.0-6.0-1.191","SAST","2","f","rechts","18","","","object","f","90","false"
"null","<div style=""font-size:60px;"">+</div>","null","html-keyboard-response","390","356189","0.0-6.0-0.192","SAST","2","f","rechts","18","","fixation","","","",""
"1494","img/150_270.png","74","image-keyboard-response","391","357684","0.0-6.0-1.192","SAST","2","f","rechts","18","","","object","j","150","true"
"null","<div style=""font-size:60px;"">+</div>","null","html-keyboard-response","392","358186","0.0-6.0-0.193","SAST","2","f","rechts","18","","fixation","","","",""
"1654","img/L90_180.png","74","image-keyboard-response","393","359840","0.0-6.0-1.193","SAST","2","f","rechts","18","","","object","j","90","true"
"null","<div style=""font-size:60px;"">+</div>","null","html-keyboard-response","394","360242","0.0-6.0-0.194","SAST","2","f","rechts","18","","fixation","","","",""
"876","img/0_240.png","70","image-keyboard-response","395","361120","0.0-6.0-1.194","SAST","2","f","rechts","18","","","object","f","0","true"
"null","<div style=""font-size:60px;"">+</div>","null","html-keyboard-response","396","361421","0.0-6.0-0.195","SAST","2","f","rechts","18","","fixation","","","",""
"null","img/120_180.png","null","image-keyboard-response","397","364424","0.0-6.0-1.195","SAST","2","f","rechts","18","","","object","f","120","false"
"null","<div style=""font-size:60px;"">+</div>","null","html-keyboard-response","398","364776","0.0-6.0-0.196","SAST","2","f","rechts","18","","fixation","","","",""
"857","img/0_150.png","74","image-keyboard-response","399","365633","0.0-6.0-1.196","SAST","2","f","rechts","18","","","object","j","0","true"
"null","<div style=""font-size:60px;"">+</div>","null","html-keyboard-response","400","366035","0.0-6.0-0.197","SAST","2","f","rechts","18","","fixation","","","",""
"2285","img/30_240.png","70","image-keyboard-response","401","368321","0.0-6.0-1.197","SAST","2","f","rechts","18","","","object","f","30","true"
"null","<div style=""font-size:60px;"">+</div>","null","html-keyboard-response","402","368723","0.0-6.0-0.198","SAST","2","f","rechts","18","","fixation","","","",""
"2192","img/L30_180.png","74","image-keyboard-response","403","370916","0.0-6.0-1.198","SAST","2","f","rechts","18","","","object","j","30","true"
"null","<div style=""font-size:60px;"">+</div>","null","html-keyboard-response","404","371368","0.0-6.0-0.199","SAST","2","f","rechts","18","","fixation","","","",""
"null","img/60_210.png","null","image-keyboard-response","405","374370","0.0-6.0-1.199","SAST","2","f","rechts","18","","","object","f","60","false"
"null","<div style=""font-size:60px;"">+</div>","null","html-keyboard-response","406","374872","0.0-6.0-0.200","SAST","2","f","rechts","18","","fixation","","","",""
"1636","img/150_300.png","74","image-keyboard-response","407","376509","0.0-6.0-1.200","SAST","2","f","rechts","18","","","object","j","150","true"
"null","<div style=""font-size:60px;"">+</div>","null","html-keyboard-response","408","376911","0.0-6.0-0.201","SAST","2","f","rechts","18","","fixation","","","",""
"2430","img/90_240.png","74","image-keyboard-response","409","379341","0.0-6.0-1.201","SAST","2","f","rechts","18","","","object","f","90","false"
"null","<div style=""font-size:60px;"">+</div>","null","html-keyboard-response","410","379693","0.0-6.0-0.202","SAST","2","f","rechts","18","","fixation","","","",""
"null","img/30_300.png","null","image-keyboard-response","411","382695","0.0-6.0-1.202","SAST","2","f","rechts","18","","","object","f","30","false"
"null","<div style=""font-size:60px;"">+</div>","null","html-keyboard-response","412","382997","0.0-6.0-0.203","SAST","2","f","rechts","18","","fixation","","","",""
"2103","img/150_120.png","74","image-keyboard-response","413","385101","0.0-6.0-1.203","SAST","2","f","rechts","18","","","object","f","150","false"
"null","<div style=""font-size:60px;"">+</div>","null","html-keyboard-response","414","385503","0.0-6.0-0.204","SAST","2","f","rechts","18","","fixation","","","",""
"1010","img/30_120.png","74","image-keyboard-response","415","386513","0.0-6.0-1.204","SAST","2","f","rechts","18","","","object","j","30","true"
"null","<div style=""font-size:60px;"">+</div>","null","html-keyboard-response","416","386815","0.0-6.0-0.205","SAST","2","f","rechts","18","","fixation","","","",""
"792","img/0_330.png","70","image-keyboard-response","417","387609","0.0-6.0-1.205","SAST","2","f","rechts","18","","","object","f","0","true"
"null","<div style=""font-size:60px;"">+</div>","null","html-keyboard-response","418","388060","0.0-6.0-0.206","SAST","2","f","rechts","18","","fixation","","","",""
"2728","img/90_210.png","74","image-keyboard-response","419","390790","0.0-6.0-1.206","SAST","2","f","rechts","18","","","object","f","90","false"
"null","<div style=""font-size:60px;"">+</div>","null","html-keyboard-response","420","391141","0.0-6.0-0.207","SAST","2","f","rechts","18","","fixation","","","",""
"1245","img/0_270.png","70","image-keyboard-response","421","392387","0.0-6.0-1.207","SAST","2","f","rechts","18","","","object","f","0","true"
"10745","<p>Du hast in 61% der Versuche korrekt entschieden.</p><p>Deine durchschnittliche Reaktionszeit war  1092ms.</p><p>Dr&uuml;cke eine beliebige Taste, um die Session zu beenden. Vielen Dank!</p>","74","html-keyboard-response","422","403134","0.0-7.0","SAST","2","f","rechts","18","","","","","",""
