"rt","stimulus","key_press","trial_type","trial_index","time_elapsed","internal_node_id","subject","session","sex","handedness","age","responses","test_part","condition","correct_response","angle","correct"
"1008","<p>Mental Rotation Experiment.</p> <p>Dr&uuml;cke eine beliebige Taste, um anzufangen.</p>","71","html-keyboard-response","0","1009","0.0-0.0","SAST","4","f","links","18","","","","","",""
"3977","","","survey-text","1","4987","0.0-1.0","SAST","4","f","links","18","{""Q0"":""SAST""}","","","","",""
"2992","","","survey-text","2","7980","0.0-2.0","SAST","4","f","links","18","{""Q0"":""4""}","","","","",""
"3867","","","survey-multi-choice","3","11850","0.0-3.0","SAST","4","f","links","18","{""Q0"":""f"",""Q1"":""links""}","","","","",""
"3153","","","survey-text","4","15003","0.0-4.0","SAST","4","f","links","18","{""Q0"":""18""}","","","","",""
"31356","<p>Stell dir vor, dass du vor einem runden Tisch stehst, auf dem sich ein blauer Ball am Tischrand befindet. Entlang des Tischrands ist jeweils ein verschieden langer Pfeil. Nun bleibst du an deinem Platz vor dem Tisch und rotierst den Tisch entlang des Pfeils (gleiche Richtung und Länge). </p> <img src='img/30_180.png'></img> <br><p> Nachdem du diese (vorgestellte) Rotation durchgef&uuml;hrt hast, schau in Richtung der Tischmitte, und entscheide dann, ob der Ball links oder rechts von dir liegt.</p> <p>Dr&uuml;cke die <strong>'f'</strong>-Taste f&uuml;r links, die <strong>'j'</strong>-Taste f&uuml;r rechts.</p><br><p> Das Bild wird jeweils 1 Sekunde lang pr&auml;sentiert. Du hast 3 Sekunden Zeit eine Entscheidung zu treffen.</p>","74","html-keyboard-response","5","46361","0.0-5.0","SAST","4","f","links","18","","","","","",""
"null","<div style=""font-size:60px;"">+</div>","null","html-keyboard-response","6","47864","0.0-6.0-0.0","SAST","4","f","links","18","","fixation","","","",""
"1620","img/90_150.png","74","image-keyboard-response","7","49485","0.0-6.0-1.0","SAST","4","f","links","18","","","object","j","90","true"
"null","<div style=""font-size:60px;"">+</div>","null","html-keyboard-response","8","49837","0.0-6.0-0.1","SAST","4","f","links","18","","fixation","","","",""
"null","img/90_240.png","null","image-keyboard-response","9","52839","0.0-6.0-1.1","SAST","4","f","links","18","","","object","f","90","false"
"null","<div style=""font-size:60px;"">+</div>","null","html-keyboard-response","10","53341","0.0-6.0-0.2","SAST","4","f","links","18","","fixation","","","",""
"1106","img/90_120.png","74","image-keyboard-response","11","54449","0.0-6.0-1.2","SAST","4","f","links","18","","","object","j","90","true"
"null","<div style=""font-size:60px;"">+</div>","null","html-keyboard-response","12","54901","0.0-6.0-0.3","SAST","4","f","links","18","","fixation","","","",""
"994","img/120_30.png","74","image-keyboard-response","13","55895","0.0-6.0-1.3","SAST","4","f","links","18","","","object","f","120","false"
"null","<div style=""font-size:60px;"">+</div>","null","html-keyboard-response","14","56197","0.0-6.0-0.4","SAST","4","f","links","18","","fixation","","","",""
"1464","img/30_90.png","74","image-keyboard-response","15","57662","0.0-6.0-1.4","SAST","4","f","links","18","","","object","j","30","true"
"null","<div style=""font-size:60px;"">+</div>","null","html-keyboard-response","16","58114","0.0-6.0-0.5","SAST","4","f","links","18","","fixation","","","",""
"1571","img/60_270.png","70","image-keyboard-response","17","59686","0.0-6.0-1.5","SAST","4","f","links","18","","","object","f","60","true"
"null","<div style=""font-size:60px;"">+</div>","null","html-keyboard-response","18","60188","0.0-6.0-0.6","SAST","4","f","links","18","","fixation","","","",""
"null","img/30_240.png","null","image-keyboard-response","19","63190","0.0-6.0-1.6","SAST","4","f","links","18","","","object","f","30","false"
"null","<div style=""font-size:60px;"">+</div>","null","html-keyboard-response","20","63492","0.0-6.0-0.7","SAST","4","f","links","18","","fixation","","","",""
"2312","img/60_90.png","74","image-keyboard-response","21","65805","0.0-6.0-1.7","SAST","4","f","links","18","","","object","j","60","true"
"null","<div style=""font-size:60px;"">+</div>","null","html-keyboard-response","22","66107","0.0-6.0-0.8","SAST","4","f","links","18","","fixation","","","",""
"null","img/60_30.png","null","image-keyboard-response","23","69109","0.0-6.0-1.8","SAST","4","f","links","18","","","object","f","60","false"
"null","<div style=""font-size:60px;"">+</div>","null","html-keyboard-response","24","69410","0.0-6.0-0.9","SAST","4","f","links","18","","fixation","","","",""
"2222","img/120_150.png","74","image-keyboard-response","25","71633","0.0-6.0-1.9","SAST","4","f","links","18","","","object","j","120","true"
"null","<div style=""font-size:60px;"">+</div>","null","html-keyboard-response","26","72084","0.0-6.0-0.10","SAST","4","f","links","18","","fixation","","","",""
"null","img/90_300.png","null","image-keyboard-response","27","75087","0.0-6.0-1.10","SAST","4","f","links","18","","","object","j","90","false"
"null","<div style=""font-size:60px;"">+</div>","null","html-keyboard-response","28","75489","0.0-6.0-0.11","SAST","4","f","links","18","","fixation","","","",""
"1393","img/150_90.png","74","image-keyboard-response","29","76883","0.0-6.0-1.11","SAST","4","f","links","18","","","object","f","150","false"
"null","<div style=""font-size:60px;"">+</div>","null","html-keyboard-response","30","77385","0.0-6.0-0.12","SAST","4","f","links","18","","fixation","","","",""
"897","img/0_90.png","74","image-keyboard-response","31","78283","0.0-6.0-1.12","SAST","4","f","links","18","","","object","j","0","true"
"null","<div style=""font-size:60px;"">+</div>","null","html-keyboard-response","32","78734","0.0-6.0-0.13","SAST","4","f","links","18","","fixation","","","",""
"null","img/L90_180.png","null","image-keyboard-response","33","81736","0.0-6.0-1.13","SAST","4","f","links","18","","","object","j","90","false"
"null","<div style=""font-size:60px;"">+</div>","null","html-keyboard-response","34","82088","0.0-6.0-0.14","SAST","4","f","links","18","","fixation","","","",""
"590","img/150_120.png","74","image-keyboard-response","35","82679","0.0-6.0-1.14","SAST","4","f","links","18","","","object","f","150","false"
"null","<div style=""font-size:60px;"">+</div>","null","html-keyboard-response","36","83081","0.0-6.0-0.15","SAST","4","f","links","18","","fixation","","","",""
"705","img/0_30.png","74","image-keyboard-response","37","83787","0.0-6.0-1.15","SAST","4","f","links","18","","","object","j","0","true"
"null","<div style=""font-size:60px;"">+</div>","null","html-keyboard-response","38","84239","0.0-6.0-0.16","SAST","4","f","links","18","","fixation","","","",""
"1003","img/60_210.png","70","image-keyboard-response","39","85243","0.0-6.0-1.16","SAST","4","f","links","18","","","object","f","60","true"
"null","<div style=""font-size:60px;"">+</div>","null","html-keyboard-response","40","85544","0.0-6.0-0.17","SAST","4","f","links","18","","fixation","","","",""
"1066","img/150_60.png","74","image-keyboard-response","41","86611","0.0-6.0-1.17","SAST","4","f","links","18","","","object","f","150","false"
"null","<div style=""font-size:60px;"">+</div>","null","html-keyboard-response","42","87112","0.0-6.0-0.18","SAST","4","f","links","18","","fixation","","","",""
"2255","img/120_270.png","70","image-keyboard-response","43","89368","0.0-6.0-1.18","SAST","4","f","links","18","","","object","j","120","false"
"null","<div style=""font-size:60px;"">+</div>","null","html-keyboard-response","44","89720","0.0-6.0-0.19","SAST","4","f","links","18","","fixation","","","",""
"1283","img/L120_180.png","74","image-keyboard-response","45","91003","0.0-6.0-1.19","SAST","4","f","links","18","","","object","j","120","true"
"null","<div style=""font-size:60px;"">+</div>","null","html-keyboard-response","46","91405","0.0-6.0-0.20","SAST","4","f","links","18","","fixation","","","",""
"null","img/120_210.png","null","image-keyboard-response","47","94408","0.0-6.0-1.20","SAST","4","f","links","18","","","object","f","120","false"
"null","<div style=""font-size:60px;"">+</div>","null","html-keyboard-response","48","94759","0.0-6.0-0.21","SAST","4","f","links","18","","fixation","","","",""
"786","img/0_270.png","70","image-keyboard-response","49","95546","0.0-6.0-1.21","SAST","4","f","links","18","","","object","f","0","true"
"null","<div style=""font-size:60px;"">+</div>","null","html-keyboard-response","50","95897","0.0-6.0-0.22","SAST","4","f","links","18","","fixation","","","",""
"1448","img/90_210.png","70","image-keyboard-response","51","97347","0.0-6.0-1.22","SAST","4","f","links","18","","","object","f","90","true"
"null","<div style=""font-size:60px;"">+</div>","null","html-keyboard-response","52","97798","0.0-6.0-0.23","SAST","4","f","links","18","","fixation","","","",""
"1215","img/30_300.png","70","image-keyboard-response","53","99014","0.0-6.0-1.23","SAST","4","f","links","18","","","object","f","30","true"
"null","<div style=""font-size:60px;"">+</div>","null","html-keyboard-response","54","99516","0.0-6.0-0.24","SAST","4","f","links","18","","fixation","","","",""
"706","img/0_120.png","74","image-keyboard-response","55","100224","0.0-6.0-1.24","SAST","4","f","links","18","","","object","j","0","true"
"null","<div style=""font-size:60px;"">+</div>","null","html-keyboard-response","56","100525","0.0-6.0-0.25","SAST","4","f","links","18","","fixation","","","",""
"650","img/0_150.png","74","image-keyboard-response","57","101177","0.0-6.0-1.25","SAST","4","f","links","18","","","object","j","0","true"
"null","<div style=""font-size:60px;"">+</div>","null","html-keyboard-response","58","101578","0.0-6.0-0.26","SAST","4","f","links","18","","fixation","","","",""
"1959","img/60_330.png","70","image-keyboard-response","59","103538","0.0-6.0-1.26","SAST","4","f","links","18","","","object","j","60","false"
"null","<div style=""font-size:60px;"">+</div>","null","html-keyboard-response","60","104040","0.0-6.0-0.27","SAST","4","f","links","18","","fixation","","","",""
"1645","img/90_180.png","70","image-keyboard-response","61","105687","0.0-6.0-1.27","SAST","4","f","links","18","","","object","f","90","true"
"null","<div style=""font-size:60px;"">+</div>","null","html-keyboard-response","62","105988","0.0-6.0-0.28","SAST","4","f","links","18","","fixation","","","",""
"719","img/0_60.png","74","image-keyboard-response","63","106709","0.0-6.0-1.28","SAST","4","f","links","18","","","object","j","0","true"
"null","<div style=""font-size:60px;"">+</div>","null","html-keyboard-response","64","107210","0.0-6.0-0.29","SAST","4","f","links","18","","fixation","","","",""
"940","img/L60_180.png","74","image-keyboard-response","65","108151","0.0-6.0-1.29","SAST","4","f","links","18","","","object","j","60","true"
"null","<div style=""font-size:60px;"">+</div>","null","html-keyboard-response","66","108503","0.0-6.0-0.30","SAST","4","f","links","18","","fixation","","","",""
"1293","img/L30_180.png","74","image-keyboard-response","67","109797","0.0-6.0-1.30","SAST","4","f","links","18","","","object","j","30","true"
"null","<div style=""font-size:60px;"">+</div>","null","html-keyboard-response","68","110249","0.0-6.0-0.31","SAST","4","f","links","18","","fixation","","","",""
"1989","img/120_90.png","70","image-keyboard-response","69","112239","0.0-6.0-1.31","SAST","4","f","links","18","","","object","f","120","true"
"null","<div style=""font-size:60px;"">+</div>","null","html-keyboard-response","70","112591","0.0-6.0-0.32","SAST","4","f","links","18","","fixation","","","",""
"1846","img/120_180.png","74","image-keyboard-response","71","114438","0.0-6.0-1.32","SAST","4","f","links","18","","","object","f","120","false"
"null","<div style=""font-size:60px;"">+</div>","null","html-keyboard-response","72","114940","0.0-6.0-0.33","SAST","4","f","links","18","","fixation","","","",""
"null","img/120_330.png","null","image-keyboard-response","73","117942","0.0-6.0-1.33","SAST","4","f","links","18","","","object","j","120","false"
"null","<div style=""font-size:60px;"">+</div>","null","html-keyboard-response","74","118394","0.0-6.0-0.34","SAST","4","f","links","18","","fixation","","","",""
"724","img/90_330.png","70","image-keyboard-response","75","119119","0.0-6.0-1.34","SAST","4","f","links","18","","","object","j","90","false"
"null","<div style=""font-size:60px;"">+</div>","null","html-keyboard-response","76","119621","0.0-6.0-0.35","SAST","4","f","links","18","","fixation","","","",""
"1077","img/90_30.png","74","image-keyboard-response","77","120699","0.0-6.0-1.35","SAST","4","f","links","18","","","object","f","90","false"
"null","<div style=""font-size:60px;"">+</div>","null","html-keyboard-response","78","121201","0.0-6.0-0.36","SAST","4","f","links","18","","fixation","","","",""
"2178","img/60_180.png","70","image-keyboard-response","79","123380","0.0-6.0-1.36","SAST","4","f","links","18","","","object","f","60","true"
"null","<div style=""font-size:60px;"">+</div>","null","html-keyboard-response","80","123730","0.0-6.0-0.37","SAST","4","f","links","18","","fixation","","","",""
"736","img/0_210.png","70","image-keyboard-response","81","124467","0.0-6.0-1.37","SAST","4","f","links","18","","","object","f","0","true"
"null","<div style=""font-size:60px;"">+</div>","null","html-keyboard-response","82","124969","0.0-6.0-0.38","SAST","4","f","links","18","","fixation","","","",""
"778","img/0_330.png","70","image-keyboard-response","83","125747","0.0-6.0-1.38","SAST","4","f","links","18","","","object","f","0","true"
"null","<div style=""font-size:60px;"">+</div>","null","html-keyboard-response","84","126099","0.0-6.0-0.39","SAST","4","f","links","18","","fixation","","","",""
"1806","img/150_270.png","74","image-keyboard-response","85","127905","0.0-6.0-1.39","SAST","4","f","links","18","","","object","j","150","true"
"null","<div style=""font-size:60px;"">+</div>","null","html-keyboard-response","86","128307","0.0-6.0-0.40","SAST","4","f","links","18","","fixation","","","",""
"2018","img/150_240.png","70","image-keyboard-response","87","130326","0.0-6.0-1.40","SAST","4","f","links","18","","","object","j","150","false"
"null","<div style=""font-size:60px;"">+</div>","null","html-keyboard-response","88","130628","0.0-6.0-0.41","SAST","4","f","links","18","","fixation","","","",""
"1367","img/30_120.png","74","image-keyboard-response","89","131996","0.0-6.0-1.41","SAST","4","f","links","18","","","object","j","30","true"
"null","<div style=""font-size:60px;"">+</div>","null","html-keyboard-response","90","132448","0.0-6.0-0.42","SAST","4","f","links","18","","fixation","","","",""
"2908","img/L150_180.png","74","image-keyboard-response","91","135357","0.0-6.0-1.42","SAST","4","f","links","18","","","object","j","150","true"
"null","<div style=""font-size:60px;"">+</div>","null","html-keyboard-response","92","135809","0.0-6.0-0.43","SAST","4","f","links","18","","fixation","","","",""
"2083","img/30_270.png","70","image-keyboard-response","93","137894","0.0-6.0-1.43","SAST","4","f","links","18","","","object","f","30","true"
"null","<div style=""font-size:60px;"">+</div>","null","html-keyboard-response","94","138345","0.0-6.0-0.44","SAST","4","f","links","18","","fixation","","","",""
"null","img/90_60.png","null","image-keyboard-response","95","141347","0.0-6.0-1.44","SAST","4","f","links","18","","","object","f","90","false"
"null","<div style=""font-size:60px;"">+</div>","null","html-keyboard-response","96","141799","0.0-6.0-0.45","SAST","4","f","links","18","","fixation","","","",""
"383","img/30_180.png","74","image-keyboard-response","97","142184","0.0-6.0-1.45","SAST","4","f","links","18","","","object","f","30","false"
"null","<div style=""font-size:60px;"">+</div>","null","html-keyboard-response","98","142535","0.0-6.0-0.46","SAST","4","f","links","18","","fixation","","","",""
"null","img/60_150.png","null","image-keyboard-response","99","145538","0.0-6.0-1.46","SAST","4","f","links","18","","","object","j","60","false"
"null","<div style=""font-size:60px;"">+</div>","null","html-keyboard-response","100","145839","0.0-6.0-0.47","SAST","4","f","links","18","","fixation","","","",""
"778","img/0_240.png","70","image-keyboard-response","101","146619","0.0-6.0-1.47","SAST","4","f","links","18","","","object","f","0","true"
"null","<div style=""font-size:60px;"">+</div>","null","html-keyboard-response","102","147020","0.0-6.0-0.48","SAST","4","f","links","18","","fixation","","","",""
"2078","img/150_300.png","74","image-keyboard-response","103","149099","0.0-6.0-1.48","SAST","4","f","links","18","","","object","j","150","true"
"null","<div style=""font-size:60px;"">+</div>","null","html-keyboard-response","104","149551","0.0-6.0-0.49","SAST","4","f","links","18","","fixation","","","",""
"2142","img/30_60.png","74","image-keyboard-response","105","151694","0.0-6.0-1.49","SAST","4","f","links","18","","","object","j","30","true"
"null","<div style=""font-size:60px;"">+</div>","null","html-keyboard-response","106","152096","0.0-6.0-0.50","SAST","4","f","links","18","","fixation","","","",""
"924","img/0_300.png","70","image-keyboard-response","107","153021","0.0-6.0-1.50","SAST","4","f","links","18","","","object","f","0","true"
"null","<div style=""font-size:60px;"">+</div>","null","html-keyboard-response","108","153373","0.0-6.0-0.51","SAST","4","f","links","18","","fixation","","","",""
"1206","img/150_180.png","70","image-keyboard-response","109","154580","0.0-6.0-1.51","SAST","4","f","links","18","","","object","f","150","true"
"null","<div style=""font-size:60px;"">+</div>","null","html-keyboard-response","110","154982","0.0-6.0-0.52","SAST","4","f","links","18","","fixation","","","",""
"735","img/0_270.png","70","image-keyboard-response","111","155717","0.0-6.0-1.52","SAST","4","f","links","18","","","object","f","0","true"
"null","<div style=""font-size:60px;"">+</div>","null","html-keyboard-response","112","156169","0.0-6.0-0.53","SAST","4","f","links","18","","fixation","","","",""
"834","img/60_90.png","74","image-keyboard-response","113","157003","0.0-6.0-1.53","SAST","4","f","links","18","","","object","j","60","true"
"null","<div style=""font-size:60px;"">+</div>","null","html-keyboard-response","114","157505","0.0-6.0-0.54","SAST","4","f","links","18","","fixation","","","",""
"745","img/0_210.png","70","image-keyboard-response","115","158250","0.0-6.0-1.54","SAST","4","f","links","18","","","object","f","0","true"
"null","<div style=""font-size:60px;"">+</div>","null","html-keyboard-response","116","158702","0.0-6.0-0.55","SAST","4","f","links","18","","fixation","","","",""
"2403","img/60_180.png","70","image-keyboard-response","117","161105","0.0-6.0-1.55","SAST","4","f","links","18","","","object","f","60","true"
"null","<div style=""font-size:60px;"">+</div>","null","html-keyboard-response","118","161456","0.0-6.0-0.56","SAST","4","f","links","18","","fixation","","","",""
"null","img/120_210.png","null","image-keyboard-response","119","164458","0.0-6.0-1.56","SAST","4","f","links","18","","","object","f","120","false"
"null","<div style=""font-size:60px;"">+</div>","null","html-keyboard-response","120","164960","0.0-6.0-0.57","SAST","4","f","links","18","","fixation","","","",""
"1090","img/L60_180.png","74","image-keyboard-response","121","166051","0.0-6.0-1.57","SAST","4","f","links","18","","","object","j","60","true"
"null","<div style=""font-size:60px;"">+</div>","null","html-keyboard-response","122","166403","0.0-6.0-0.58","SAST","4","f","links","18","","fixation","","","",""
"2330","img/120_30.png","70","image-keyboard-response","123","168733","0.0-6.0-1.58","SAST","4","f","links","18","","","object","f","120","true"
"null","<div style=""font-size:60px;"">+</div>","null","html-keyboard-response","124","169235","0.0-6.0-0.59","SAST","4","f","links","18","","fixation","","","",""
"880","img/0_300.png","70","image-keyboard-response","125","170115","0.0-6.0-1.59","SAST","4","f","links","18","","","object","f","0","true"
"null","<div style=""font-size:60px;"">+</div>","null","html-keyboard-response","126","170466","0.0-6.0-0.60","SAST","4","f","links","18","","fixation","","","",""
"null","img/30_240.png","null","image-keyboard-response","127","173468","0.0-6.0-1.60","SAST","4","f","links","18","","","object","f","30","false"
"null","<div style=""font-size:60px;"">+</div>","null","html-keyboard-response","128","173870","0.0-6.0-0.61","SAST","4","f","links","18","","fixation","","","",""
"1091","img/120_180.png","70","image-keyboard-response","129","174963","0.0-6.0-1.61","SAST","4","f","links","18","","","object","f","120","true"
"null","<div style=""font-size:60px;"">+</div>","null","html-keyboard-response","130","175464","0.0-6.0-0.62","SAST","4","f","links","18","","fixation","","","",""
"null","img/150_270.png","null","image-keyboard-response","131","178467","0.0-6.0-1.62","SAST","4","f","links","18","","","object","j","150","false"
"null","<div style=""font-size:60px;"">+</div>","null","html-keyboard-response","132","178768","0.0-6.0-0.63","SAST","4","f","links","18","","fixation","","","",""
"751","img/0_60.png","74","image-keyboard-response","133","179520","0.0-6.0-1.63","SAST","4","f","links","18","","","object","j","0","true"
"null","<div style=""font-size:60px;"">+</div>","null","html-keyboard-response","134","180022","0.0-6.0-0.64","SAST","4","f","links","18","","fixation","","","",""
"2440","img/60_150.png","74","image-keyboard-response","135","182463","0.0-6.0-1.64","SAST","4","f","links","18","","","object","j","60","true"
"null","<div style=""font-size:60px;"">+</div>","null","html-keyboard-response","136","182915","0.0-6.0-0.65","SAST","4","f","links","18","","fixation","","","",""
"803","img/0_120.png","74","image-keyboard-response","137","183718","0.0-6.0-1.65","SAST","4","f","links","18","","","object","j","0","true"
"null","<div style=""font-size:60px;"">+</div>","null","html-keyboard-response","138","184070","0.0-6.0-0.66","SAST","4","f","links","18","","fixation","","","",""
"654","img/0_90.png","74","image-keyboard-response","139","184724","0.0-6.0-1.66","SAST","4","f","links","18","","","object","j","0","true"
"null","<div style=""font-size:60px;"">+</div>","null","html-keyboard-response","140","185076","0.0-6.0-0.67","SAST","4","f","links","18","","fixation","","","",""
"921","img/0_240.png","70","image-keyboard-response","141","185997","0.0-6.0-1.67","SAST","4","f","links","18","","","object","f","0","true"
"null","<div style=""font-size:60px;"">+</div>","null","html-keyboard-response","142","186449","0.0-6.0-0.68","SAST","4","f","links","18","","fixation","","","",""
"2465","img/150_300.png","74","image-keyboard-response","143","188914","0.0-6.0-1.68","SAST","4","f","links","18","","","object","j","150","true"
"null","<div style=""font-size:60px;"">+</div>","null","html-keyboard-response","144","189215","0.0-6.0-0.69","SAST","4","f","links","18","","fixation","","","",""
"null","img/150_180.png","null","image-keyboard-response","145","192217","0.0-6.0-1.69","SAST","4","f","links","18","","","object","f","150","false"
"null","<div style=""font-size:60px;"">+</div>","null","html-keyboard-response","146","192669","0.0-6.0-0.70","SAST","4","f","links","18","","fixation","","","",""
"72","img/0_330.png","74","image-keyboard-response","147","192742","0.0-6.0-1.70","SAST","4","f","links","18","","","object","f","0","false"
"null","<div style=""font-size:60px;"">+</div>","null","html-keyboard-response","148","193093","0.0-6.0-0.71","SAST","4","f","links","18","","fixation","","","",""
"773","img/30_120.png","74","image-keyboard-response","149","193867","0.0-6.0-1.71","SAST","4","f","links","18","","","object","j","30","true"
"null","<div style=""font-size:60px;"">+</div>","null","html-keyboard-response","150","194169","0.0-6.0-0.72","SAST","4","f","links","18","","fixation","","","",""
"1759","img/90_30.png","74","image-keyboard-response","151","195929","0.0-6.0-1.72","SAST","4","f","links","18","","","object","f","90","false"
"null","<div style=""font-size:60px;"">+</div>","null","html-keyboard-response","152","196331","0.0-6.0-0.73","SAST","4","f","links","18","","fixation","","","",""
"2118","img/30_90.png","74","image-keyboard-response","153","198450","0.0-6.0-1.73","SAST","4","f","links","18","","","object","j","30","true"
"null","<div style=""font-size:60px;"">+</div>","null","html-keyboard-response","154","198952","0.0-6.0-0.74","SAST","4","f","links","18","","fixation","","","",""
"874","img/90_120.png","74","image-keyboard-response","155","199826","0.0-6.0-1.74","SAST","4","f","links","18","","","object","j","90","true"
"null","<div style=""font-size:60px;"">+</div>","null","html-keyboard-response","156","200228","0.0-6.0-0.75","SAST","4","f","links","18","","fixation","","","",""
"2184","img/90_240.png","70","image-keyboard-response","157","202413","0.0-6.0-1.75","SAST","4","f","links","18","","","object","f","90","true"
"null","<div style=""font-size:60px;"">+</div>","null","html-keyboard-response","158","202765","0.0-6.0-0.76","SAST","4","f","links","18","","fixation","","","",""
"1199","img/90_60.png","70","image-keyboard-response","159","203964","0.0-6.0-1.76","SAST","4","f","links","18","","","object","f","90","true"
"null","<div style=""font-size:60px;"">+</div>","null","html-keyboard-response","160","204416","0.0-6.0-0.77","SAST","4","f","links","18","","fixation","","","",""
"null","img/30_300.png","null","image-keyboard-response","161","207418","0.0-6.0-1.77","SAST","4","f","links","18","","","object","f","30","false"
"null","<div style=""font-size:60px;"">+</div>","null","html-keyboard-response","162","207870","0.0-6.0-0.78","SAST","4","f","links","18","","fixation","","","",""
"763","img/150_90.png","74","image-keyboard-response","163","208633","0.0-6.0-1.78","SAST","4","f","links","18","","","object","f","150","false"
"null","<div style=""font-size:60px;"">+</div>","null","html-keyboard-response","164","208985","0.0-6.0-0.79","SAST","4","f","links","18","","fixation","","","",""
"2145","img/90_300.png","70","image-keyboard-response","165","211131","0.0-6.0-1.79","SAST","4","f","links","18","","","object","j","90","false"
"null","<div style=""font-size:60px;"">+</div>","null","html-keyboard-response","166","211583","0.0-6.0-0.80","SAST","4","f","links","18","","fixation","","","",""
"2466","img/150_120.png","74","image-keyboard-response","167","214050","0.0-6.0-1.80","SAST","4","f","links","18","","","object","f","150","false"
"null","<div style=""font-size:60px;"">+</div>","null","html-keyboard-response","168","214452","0.0-6.0-0.81","SAST","4","f","links","18","","fixation","","","",""
"2654","img/150_240.png","70","image-keyboard-response","169","217106","0.0-6.0-1.81","SAST","4","f","links","18","","","object","j","150","false"
"null","<div style=""font-size:60px;"">+</div>","null","html-keyboard-response","170","217608","0.0-6.0-0.82","SAST","4","f","links","18","","fixation","","","",""
"1340","img/90_210.png","70","image-keyboard-response","171","218948","0.0-6.0-1.82","SAST","4","f","links","18","","","object","f","90","true"
"null","<div style=""font-size:60px;"">+</div>","null","html-keyboard-response","172","219350","0.0-6.0-0.83","SAST","4","f","links","18","","fixation","","","",""
"1316","img/30_270.png","74","image-keyboard-response","173","220666","0.0-6.0-1.83","SAST","4","f","links","18","","","object","f","30","false"
"null","<div style=""font-size:60px;"">+</div>","null","html-keyboard-response","174","221068","0.0-6.0-0.84","SAST","4","f","links","18","","fixation","","","",""
"816","img/0_150.png","74","image-keyboard-response","175","221884","0.0-6.0-1.84","SAST","4","f","links","18","","","object","j","0","true"
"null","<div style=""font-size:60px;"">+</div>","null","html-keyboard-response","176","222185","0.0-6.0-0.85","SAST","4","f","links","18","","fixation","","","",""
"1553","img/120_90.png","74","image-keyboard-response","177","223738","0.0-6.0-1.85","SAST","4","f","links","18","","","object","f","120","false"
"null","<div style=""font-size:60px;"">+</div>","null","html-keyboard-response","178","224090","0.0-6.0-0.86","SAST","4","f","links","18","","fixation","","","",""
"1186","img/90_150.png","74","image-keyboard-response","179","225276","0.0-6.0-1.86","SAST","4","f","links","18","","","object","j","90","true"
"null","<div style=""font-size:60px;"">+</div>","null","html-keyboard-response","180","225677","0.0-6.0-0.87","SAST","4","f","links","18","","fixation","","","",""
"2579","img/120_330.png","70","image-keyboard-response","181","228257","0.0-6.0-1.87","SAST","4","f","links","18","","","object","j","120","false"
"null","<div style=""font-size:60px;"">+</div>","null","html-keyboard-response","182","228708","0.0-6.0-0.88","SAST","4","f","links","18","","fixation","","","",""
"1221","img/60_330.png","70","image-keyboard-response","183","229930","0.0-6.0-1.88","SAST","4","f","links","18","","","object","j","60","false"
"null","<div style=""font-size:60px;"">+</div>","null","html-keyboard-response","184","230431","0.0-6.0-0.89","SAST","4","f","links","18","","fixation","","","",""
"1671","img/60_210.png","70","image-keyboard-response","185","232103","0.0-6.0-1.89","SAST","4","f","links","18","","","object","f","60","true"
"null","<div style=""font-size:60px;"">+</div>","null","html-keyboard-response","186","232554","0.0-6.0-0.90","SAST","4","f","links","18","","fixation","","","",""
"2525","img/L90_180.png","74","image-keyboard-response","187","235080","0.0-6.0-1.90","SAST","4","f","links","18","","","object","j","90","true"
"null","<div style=""font-size:60px;"">+</div>","null","html-keyboard-response","188","235382","0.0-6.0-0.91","SAST","4","f","links","18","","fixation","","","",""
"2088","img/90_180.png","70","image-keyboard-response","189","237471","0.0-6.0-1.91","SAST","4","f","links","18","","","object","f","90","true"
"null","<div style=""font-size:60px;"">+</div>","null","html-keyboard-response","190","237772","0.0-6.0-0.92","SAST","4","f","links","18","","fixation","","","",""
"1970","img/90_330.png","70","image-keyboard-response","191","239744","0.0-6.0-1.92","SAST","4","f","links","18","","","object","j","90","false"
"null","<div style=""font-size:60px;"">+</div>","null","html-keyboard-response","192","240244","0.0-6.0-0.93","SAST","4","f","links","18","","fixation","","","",""
"2709","img/120_150.png","74","image-keyboard-response","193","242954","0.0-6.0-1.93","SAST","4","f","links","18","","","object","j","120","true"
"null","<div style=""font-size:60px;"">+</div>","null","html-keyboard-response","194","243255","0.0-6.0-0.94","SAST","4","f","links","18","","fixation","","","",""
"1067","img/30_180.png","70","image-keyboard-response","195","244323","0.0-6.0-1.94","SAST","4","f","links","18","","","object","f","30","true"
"null","<div style=""font-size:60px;"">+</div>","null","html-keyboard-response","196","244775","0.0-6.0-0.95","SAST","4","f","links","18","","fixation","","","",""
"782","img/120_270.png","70","image-keyboard-response","197","245557","0.0-6.0-1.95","SAST","4","f","links","18","","","object","j","120","false"
"null","<div style=""font-size:60px;"">+</div>","null","html-keyboard-response","198","245909","0.0-6.0-0.96","SAST","4","f","links","18","","fixation","","","",""
"918","img/150_60.png","74","image-keyboard-response","199","246829","0.0-6.0-1.96","SAST","4","f","links","18","","","object","f","150","false"
"null","<div style=""font-size:60px;"">+</div>","null","html-keyboard-response","200","247130","0.0-6.0-0.97","SAST","4","f","links","18","","fixation","","","",""
"850","img/60_30.png","74","image-keyboard-response","201","247981","0.0-6.0-1.97","SAST","4","f","links","18","","","object","f","60","false"
"null","<div style=""font-size:60px;"">+</div>","null","html-keyboard-response","202","248333","0.0-6.0-0.98","SAST","4","f","links","18","","fixation","","","",""
"1046","img/L30_180.png","74","image-keyboard-response","203","249380","0.0-6.0-1.98","SAST","4","f","links","18","","","object","j","30","true"
"null","<div style=""font-size:60px;"">+</div>","null","html-keyboard-response","204","249832","0.0-6.0-0.99","SAST","4","f","links","18","","fixation","","","",""
"1823","img/L120_180.png","70","image-keyboard-response","205","251655","0.0-6.0-1.99","SAST","4","f","links","18","","","object","j","120","false"
"null","<div style=""font-size:60px;"">+</div>","null","html-keyboard-response","206","252107","0.0-6.0-0.100","SAST","4","f","links","18","","fixation","","","",""
"2152","img/30_60.png","74","image-keyboard-response","207","254260","0.0-6.0-1.100","SAST","4","f","links","18","","","object","j","30","true"
"null","<div style=""font-size:60px;"">+</div>","null","html-keyboard-response","208","254562","0.0-6.0-0.101","SAST","4","f","links","18","","fixation","","","",""
"2102","img/60_270.png","70","image-keyboard-response","209","256665","0.0-6.0-1.101","SAST","4","f","links","18","","","object","f","60","true"
"null","<div style=""font-size:60px;"">+</div>","null","html-keyboard-response","210","257067","0.0-6.0-0.102","SAST","4","f","links","18","","fixation","","","",""
"816","img/0_30.png","74","image-keyboard-response","211","257884","0.0-6.0-1.102","SAST","4","f","links","18","","","object","j","0","true"
"null","<div style=""font-size:60px;"">+</div>","null","html-keyboard-response","212","258285","0.0-6.0-0.103","SAST","4","f","links","18","","fixation","","","",""
"1075","img/L150_180.png","74","image-keyboard-response","213","259361","0.0-6.0-1.103","SAST","4","f","links","18","","","object","j","150","true"
"null","<div style=""font-size:60px;"">+</div>","null","html-keyboard-response","214","259713","0.0-6.0-0.104","SAST","4","f","links","18","","fixation","","","",""
"872","img/90_150.png","74","image-keyboard-response","215","260586","0.0-6.0-1.104","SAST","4","f","links","18","","","object","j","90","true"
"null","<div style=""font-size:60px;"">+</div>","null","html-keyboard-response","216","261038","0.0-6.0-0.105","SAST","4","f","links","18","","fixation","","","",""
"668","img/60_90.png","74","image-keyboard-response","217","261708","0.0-6.0-1.105","SAST","4","f","links","18","","","object","j","60","true"
"null","<div style=""font-size:60px;"">+</div>","null","html-keyboard-response","218","262059","0.0-6.0-0.106","SAST","4","f","links","18","","fixation","","","",""
"974","img/120_90.png","74","image-keyboard-response","219","263034","0.0-6.0-1.106","SAST","4","f","links","18","","","object","f","120","false"
"null","<div style=""font-size:60px;"">+</div>","null","html-keyboard-response","220","263536","0.0-6.0-0.107","SAST","4","f","links","18","","fixation","","","",""
"2628","img/150_240.png","70","image-keyboard-response","221","266165","0.0-6.0-1.107","SAST","4","f","links","18","","","object","j","150","false"
"null","<div style=""font-size:60px;"">+</div>","null","html-keyboard-response","222","266567","0.0-6.0-0.108","SAST","4","f","links","18","","fixation","","","",""
"1076","img/90_120.png","74","image-keyboard-response","223","267644","0.0-6.0-1.108","SAST","4","f","links","18","","","object","j","90","true"
"null","<div style=""font-size:60px;"">+</div>","null","html-keyboard-response","224","267945","0.0-6.0-0.109","SAST","4","f","links","18","","fixation","","","",""
"1265","img/0_240.png","70","image-keyboard-response","225","269211","0.0-6.0-1.109","SAST","4","f","links","18","","","object","f","0","true"
"null","<div style=""font-size:60px;"">+</div>","null","html-keyboard-response","226","269663","0.0-6.0-0.110","SAST","4","f","links","18","","fixation","","","",""
"1196","img/120_270.png","70","image-keyboard-response","227","270860","0.0-6.0-1.110","SAST","4","f","links","18","","","object","j","120","false"
"null","<div style=""font-size:60px;"">+</div>","null","html-keyboard-response","228","271312","0.0-6.0-0.111","SAST","4","f","links","18","","fixation","","","",""
"842","img/60_180.png","70","image-keyboard-response","229","272154","0.0-6.0-1.111","SAST","4","f","links","18","","","object","f","60","true"
"null","<div style=""font-size:60px;"">+</div>","null","html-keyboard-response","230","272506","0.0-6.0-0.112","SAST","4","f","links","18","","fixation","","","",""
"933","img/60_270.png","70","image-keyboard-response","231","273439","0.0-6.0-1.112","SAST","4","f","links","18","","","object","f","60","true"
"null","<div style=""font-size:60px;"">+</div>","null","html-keyboard-response","232","273741","0.0-6.0-0.113","SAST","4","f","links","18","","fixation","","","",""
"1654","img/150_120.png","74","image-keyboard-response","233","275395","0.0-6.0-1.113","SAST","4","f","links","18","","","object","f","150","false"
"null","<div style=""font-size:60px;"">+</div>","null","html-keyboard-response","234","275797","0.0-6.0-0.114","SAST","4","f","links","18","","fixation","","","",""
"558","img/30_120.png","74","image-keyboard-response","235","276356","0.0-6.0-1.114","SAST","4","f","links","18","","","object","j","30","true"
"null","<div style=""font-size:60px;"">+</div>","null","html-keyboard-response","236","276858","0.0-6.0-0.115","SAST","4","f","links","18","","fixation","","","",""
"662","img/60_150.png","74","image-keyboard-response","237","277522","0.0-6.0-1.115","SAST","4","f","links","18","","","object","j","60","true"
"null","<div style=""font-size:60px;"">+</div>","null","html-keyboard-response","238","277923","0.0-6.0-0.116","SAST","4","f","links","18","","fixation","","","",""
"724","img/90_30.png","74","image-keyboard-response","239","278649","0.0-6.0-1.116","SAST","4","f","links","18","","","object","f","90","false"
"null","<div style=""font-size:60px;"">+</div>","null","html-keyboard-response","240","279100","0.0-6.0-0.117","SAST","4","f","links","18","","fixation","","","",""
"1266","img/90_300.png","70","image-keyboard-response","241","280367","0.0-6.0-1.117","SAST","4","f","links","18","","","object","j","90","false"
"null","<div style=""font-size:60px;"">+</div>","null","html-keyboard-response","242","280669","0.0-6.0-0.118","SAST","4","f","links","18","","fixation","","","",""
"1535","img/L90_180.png","74","image-keyboard-response","243","282205","0.0-6.0-1.118","SAST","4","f","links","18","","","object","j","90","true"
"null","<div style=""font-size:60px;"">+</div>","null","html-keyboard-response","244","282506","0.0-6.0-0.119","SAST","4","f","links","18","","fixation","","","",""
"2289","img/30_270.png","70","image-keyboard-response","245","284796","0.0-6.0-1.119","SAST","4","f","links","18","","","object","f","30","true"
"null","<div style=""font-size:60px;"">+</div>","null","html-keyboard-response","246","285298","0.0-6.0-0.120","SAST","4","f","links","18","","fixation","","","",""
"759","img/0_270.png","70","image-keyboard-response","247","286057","0.0-6.0-1.120","SAST","4","f","links","18","","","object","f","0","true"
"null","<div style=""font-size:60px;"">+</div>","null","html-keyboard-response","248","286509","0.0-6.0-0.121","SAST","4","f","links","18","","fixation","","","",""
"2526","img/90_330.png","74","image-keyboard-response","249","289035","0.0-6.0-1.121","SAST","4","f","links","18","","","object","j","90","true"
"null","<div style=""font-size:60px;"">+</div>","null","html-keyboard-response","250","289537","0.0-6.0-0.122","SAST","4","f","links","18","","fixation","","","",""
"757","img/0_120.png","74","image-keyboard-response","251","290295","0.0-6.0-1.122","SAST","4","f","links","18","","","object","j","0","true"
"null","<div style=""font-size:60px;"">+</div>","null","html-keyboard-response","252","290697","0.0-6.0-0.123","SAST","4","f","links","18","","fixation","","","",""
"2616","img/90_240.png","70","image-keyboard-response","253","293313","0.0-6.0-1.123","SAST","4","f","links","18","","","object","f","90","true"
"null","<div style=""font-size:60px;"">+</div>","null","html-keyboard-response","254","293815","0.0-6.0-0.124","SAST","4","f","links","18","","fixation","","","",""
"1672","img/60_30.png","74","image-keyboard-response","255","295487","0.0-6.0-1.124","SAST","4","f","links","18","","","object","f","60","false"
"null","<div style=""font-size:60px;"">+</div>","null","html-keyboard-response","256","295888","0.0-6.0-0.125","SAST","4","f","links","18","","fixation","","","",""
"1431","img/0_150.png","74","image-keyboard-response","257","297320","0.0-6.0-1.125","SAST","4","f","links","18","","","object","j","0","true"
"null","<div style=""font-size:60px;"">+</div>","null","html-keyboard-response","258","297772","0.0-6.0-0.126","SAST","4","f","links","18","","fixation","","","",""
"1107","img/0_300.png","70","image-keyboard-response","259","298880","0.0-6.0-1.126","SAST","4","f","links","18","","","object","f","0","true"
"null","<div style=""font-size:60px;"">+</div>","null","html-keyboard-response","260","299182","0.0-6.0-0.127","SAST","4","f","links","18","","fixation","","","",""
"null","img/150_270.png","null","image-keyboard-response","261","302184","0.0-6.0-1.127","SAST","4","f","links","18","","","object","j","150","false"
"null","<div style=""font-size:60px;"">+</div>","null","html-keyboard-response","262","302485","0.0-6.0-0.128","SAST","4","f","links","18","","fixation","","","",""
"337","img/120_330.png","74","image-keyboard-response","263","302823","0.0-6.0-1.128","SAST","4","f","links","18","","","object","j","120","true"
"null","<div style=""font-size:60px;"">+</div>","null","html-keyboard-response","264","303175","0.0-6.0-0.129","SAST","4","f","links","18","","fixation","","","",""
"1228","img/L120_180.png","74","image-keyboard-response","265","304404","0.0-6.0-1.129","SAST","4","f","links","18","","","object","j","120","true"
"null","<div style=""font-size:60px;"">+</div>","null","html-keyboard-response","266","304905","0.0-6.0-0.130","SAST","4","f","links","18","","fixation","","","",""
"2838","img/30_300.png","70","image-keyboard-response","267","307744","0.0-6.0-1.130","SAST","4","f","links","18","","","object","f","30","true"
"null","<div style=""font-size:60px;"">+</div>","null","html-keyboard-response","268","308046","0.0-6.0-0.131","SAST","4","f","links","18","","fixation","","","",""
"2388","img/30_90.png","74","image-keyboard-response","269","310435","0.0-6.0-1.131","SAST","4","f","links","18","","","object","j","30","true"
"null","<div style=""font-size:60px;"">+</div>","null","html-keyboard-response","270","310886","0.0-6.0-0.132","SAST","4","f","links","18","","fixation","","","",""
"2356","img/120_210.png","74","image-keyboard-response","271","313243","0.0-6.0-1.132","SAST","4","f","links","18","","","object","f","120","false"
"null","<div style=""font-size:60px;"">+</div>","null","html-keyboard-response","272","313595","0.0-6.0-0.133","SAST","4","f","links","18","","fixation","","","",""
"1185","img/60_330.png","70","image-keyboard-response","273","314781","0.0-6.0-1.133","SAST","4","f","links","18","","","object","j","60","false"
"null","<div style=""font-size:60px;"">+</div>","null","html-keyboard-response","274","315283","0.0-6.0-0.134","SAST","4","f","links","18","","fixation","","","",""
"918","img/30_240.png","74","image-keyboard-response","275","316202","0.0-6.0-1.134","SAST","4","f","links","18","","","object","f","30","false"
"null","<div style=""font-size:60px;"">+</div>","null","html-keyboard-response","276","316604","0.0-6.0-0.135","SAST","4","f","links","18","","fixation","","","",""
"1136","img/30_60.png","74","image-keyboard-response","277","317741","0.0-6.0-1.135","SAST","4","f","links","18","","","object","j","30","true"
"null","<div style=""font-size:60px;"">+</div>","null","html-keyboard-response","278","318143","0.0-6.0-0.136","SAST","4","f","links","18","","fixation","","","",""
"777","img/90_60.png","74","image-keyboard-response","279","318921","0.0-6.0-1.136","SAST","4","f","links","18","","","object","f","90","false"
"null","<div style=""font-size:60px;"">+</div>","null","html-keyboard-response","280","319373","0.0-6.0-0.137","SAST","4","f","links","18","","fixation","","","",""
"938","img/L30_180.png","74","image-keyboard-response","281","320312","0.0-6.0-1.137","SAST","4","f","links","18","","","object","j","30","true"
"null","<div style=""font-size:60px;"">+</div>","null","html-keyboard-response","282","320614","0.0-6.0-0.138","SAST","4","f","links","18","","fixation","","","",""
"2083","img/60_210.png","70","image-keyboard-response","283","322697","0.0-6.0-1.138","SAST","4","f","links","18","","","object","f","60","true"
"null","<div style=""font-size:60px;"">+</div>","null","html-keyboard-response","284","323149","0.0-6.0-0.139","SAST","4","f","links","18","","fixation","","","",""
"2172","img/150_180.png","74","image-keyboard-response","285","325322","0.0-6.0-1.139","SAST","4","f","links","18","","","object","f","150","false"
"null","<div style=""font-size:60px;"">+</div>","null","html-keyboard-response","286","325824","0.0-6.0-0.140","SAST","4","f","links","18","","fixation","","","",""
"null","img/150_300.png","null","image-keyboard-response","287","328826","0.0-6.0-1.140","SAST","4","f","links","18","","","object","j","150","false"
"null","<div style=""font-size:60px;"">+</div>","null","html-keyboard-response","288","329128","0.0-6.0-0.141","SAST","4","f","links","18","","fixation","","","",""
"848","img/0_60.png","74","image-keyboard-response","289","329977","0.0-6.0-1.141","SAST","4","f","links","18","","","object","j","0","true"
"null","<div style=""font-size:60px;"">+</div>","null","html-keyboard-response","290","330379","0.0-6.0-0.142","SAST","4","f","links","18","","fixation","","","",""
"null","img/90_180.png","null","image-keyboard-response","291","333381","0.0-6.0-1.142","SAST","4","f","links","18","","","object","f","90","false"
"null","<div style=""font-size:60px;"">+</div>","null","html-keyboard-response","292","333884","0.0-6.0-0.143","SAST","4","f","links","18","","fixation","","","",""
"2113","img/30_180.png","70","image-keyboard-response","293","335998","0.0-6.0-1.143","SAST","4","f","links","18","","","object","f","30","true"
"null","<div style=""font-size:60px;"">+</div>","null","html-keyboard-response","294","336500","0.0-6.0-0.144","SAST","4","f","links","18","","fixation","","","",""
"null","img/L60_180.png","null","image-keyboard-response","295","339502","0.0-6.0-1.144","SAST","4","f","links","18","","","object","j","60","false"
"null","<div style=""font-size:60px;"">+</div>","null","html-keyboard-response","296","339954","0.0-6.0-0.145","SAST","4","f","links","18","","fixation","","","",""
"184","img/120_180.png","74","image-keyboard-response","297","340138","0.0-6.0-1.145","SAST","4","f","links","18","","","object","f","120","false"
"null","<div style=""font-size:60px;"">+</div>","null","html-keyboard-response","298","340440","0.0-6.0-0.146","SAST","4","f","links","18","","fixation","","","",""
"772","img/0_90.png","74","image-keyboard-response","299","341212","0.0-6.0-1.146","SAST","4","f","links","18","","","object","j","0","true"
"null","<div style=""font-size:60px;"">+</div>","null","html-keyboard-response","300","341613","0.0-6.0-0.147","SAST","4","f","links","18","","fixation","","","",""
"1613","img/120_30.png","70","image-keyboard-response","301","343227","0.0-6.0-1.147","SAST","4","f","links","18","","","object","f","120","true"
"null","<div style=""font-size:60px;"">+</div>","null","html-keyboard-response","302","343679","0.0-6.0-0.148","SAST","4","f","links","18","","fixation","","","",""
"1403","img/90_210.png","70","image-keyboard-response","303","345083","0.0-6.0-1.148","SAST","4","f","links","18","","","object","f","90","true"
"null","<div style=""font-size:60px;"">+</div>","null","html-keyboard-response","304","345384","0.0-6.0-0.149","SAST","4","f","links","18","","fixation","","","",""
"1147","img/0_30.png","74","image-keyboard-response","305","346532","0.0-6.0-1.149","SAST","4","f","links","18","","","object","j","0","true"
"null","<div style=""font-size:60px;"">+</div>","null","html-keyboard-response","306","346983","0.0-6.0-0.150","SAST","4","f","links","18","","fixation","","","",""
"2534","img/150_90.png","70","image-keyboard-response","307","349519","0.0-6.0-1.150","SAST","4","f","links","18","","","object","f","150","true"
"null","<div style=""font-size:60px;"">+</div>","null","html-keyboard-response","308","349970","0.0-6.0-0.151","SAST","4","f","links","18","","fixation","","","",""
"891","img/0_330.png","70","image-keyboard-response","309","350862","0.0-6.0-1.151","SAST","4","f","links","18","","","object","f","0","true"
"null","<div style=""font-size:60px;"">+</div>","null","html-keyboard-response","310","351264","0.0-6.0-0.152","SAST","4","f","links","18","","fixation","","","",""
"1398","img/0_210.png","70","image-keyboard-response","311","352664","0.0-6.0-1.152","SAST","4","f","links","18","","","object","f","0","true"
"null","<div style=""font-size:60px;"">+</div>","null","html-keyboard-response","312","353065","0.0-6.0-0.153","SAST","4","f","links","18","","fixation","","","",""
"2096","img/120_150.png","74","image-keyboard-response","313","355163","0.0-6.0-1.153","SAST","4","f","links","18","","","object","j","120","true"
"null","<div style=""font-size:60px;"">+</div>","null","html-keyboard-response","314","355663","0.0-6.0-0.154","SAST","4","f","links","18","","fixation","","","",""
"1505","img/L150_180.png","74","image-keyboard-response","315","357169","0.0-6.0-1.154","SAST","4","f","links","18","","","object","j","150","true"
"null","<div style=""font-size:60px;"">+</div>","null","html-keyboard-response","316","357571","0.0-6.0-0.155","SAST","4","f","links","18","","fixation","","","",""
"2315","img/150_60.png","70","image-keyboard-response","317","359887","0.0-6.0-1.155","SAST","4","f","links","18","","","object","f","150","true"
"null","<div style=""font-size:60px;"">+</div>","null","html-keyboard-response","318","360339","0.0-6.0-0.156","SAST","4","f","links","18","","fixation","","","",""
"null","img/90_120.png","null","image-keyboard-response","319","363342","0.0-6.0-1.156","SAST","4","f","links","18","","","object","j","90","false"
"null","<div style=""font-size:60px;"">+</div>","null","html-keyboard-response","320","363844","0.0-6.0-0.157","SAST","4","f","links","18","","fixation","","","",""
"null","img/60_30.png","null","image-keyboard-response","321","366846","0.0-6.0-1.157","SAST","4","f","links","18","","","object","f","60","false"
"null","<div style=""font-size:60px;"">+</div>","null","html-keyboard-response","322","367197","0.0-6.0-0.158","SAST","4","f","links","18","","fixation","","","",""
"704","img/0_150.png","74","image-keyboard-response","323","367902","0.0-6.0-1.158","SAST","4","f","links","18","","","object","j","0","true"
"null","<div style=""font-size:60px;"">+</div>","null","html-keyboard-response","324","368303","0.0-6.0-0.159","SAST","4","f","links","18","","fixation","","","",""
"2026","img/L30_180.png","74","image-keyboard-response","325","370330","0.0-6.0-1.159","SAST","4","f","links","18","","","object","j","30","true"
"null","<div style=""font-size:60px;"">+</div>","null","html-keyboard-response","326","370632","0.0-6.0-0.160","SAST","4","f","links","18","","fixation","","","",""
"2423","img/150_120.png","70","image-keyboard-response","327","373056","0.0-6.0-1.160","SAST","4","f","links","18","","","object","f","150","true"
"null","<div style=""font-size:60px;"">+</div>","null","html-keyboard-response","328","373458","0.0-6.0-0.161","SAST","4","f","links","18","","fixation","","","",""
"1804","img/120_90.png","74","image-keyboard-response","329","375263","0.0-6.0-1.161","SAST","4","f","links","18","","","object","f","120","false"
"null","<div style=""font-size:60px;"">+</div>","null","html-keyboard-response","330","375665","0.0-6.0-0.162","SAST","4","f","links","18","","fixation","","","",""
"1158","img/30_120.png","74","image-keyboard-response","331","376824","0.0-6.0-1.162","SAST","4","f","links","18","","","object","j","30","true"
"null","<div style=""font-size:60px;"">+</div>","null","html-keyboard-response","332","377325","0.0-6.0-0.163","SAST","4","f","links","18","","fixation","","","",""
"1623","img/60_270.png","70","image-keyboard-response","333","378949","0.0-6.0-1.163","SAST","4","f","links","18","","","object","f","60","true"
"null","<div style=""font-size:60px;"">+</div>","null","html-keyboard-response","334","379401","0.0-6.0-0.164","SAST","4","f","links","18","","fixation","","","",""
"861","img/60_180.png","70","image-keyboard-response","335","380263","0.0-6.0-1.164","SAST","4","f","links","18","","","object","f","60","true"
"null","<div style=""font-size:60px;"">+</div>","null","html-keyboard-response","336","380615","0.0-6.0-0.165","SAST","4","f","links","18","","fixation","","","",""
"2049","img/L60_180.png","74","image-keyboard-response","337","382665","0.0-6.0-1.165","SAST","4","f","links","18","","","object","j","60","true"
"null","<div style=""font-size:60px;"">+</div>","null","html-keyboard-response","338","383167","0.0-6.0-0.166","SAST","4","f","links","18","","fixation","","","",""
"2859","img/120_180.png","70","image-keyboard-response","339","386027","0.0-6.0-1.166","SAST","4","f","links","18","","","object","f","120","true"
"null","<div style=""font-size:60px;"">+</div>","null","html-keyboard-response","340","386379","0.0-6.0-0.167","SAST","4","f","links","18","","fixation","","","",""
"1727","img/90_30.png","74","image-keyboard-response","341","388106","0.0-6.0-1.167","SAST","4","f","links","18","","","object","f","90","false"
"null","<div style=""font-size:60px;"">+</div>","null","html-keyboard-response","342","388608","0.0-6.0-0.168","SAST","4","f","links","18","","fixation","","","",""
"1855","img/90_300.png","70","image-keyboard-response","343","390463","0.0-6.0-1.168","SAST","4","f","links","18","","","object","j","90","false"
"null","<div style=""font-size:60px;"">+</div>","null","html-keyboard-response","344","390915","0.0-6.0-0.169","SAST","4","f","links","18","","fixation","","","",""
"851","img/0_240.png","70","image-keyboard-response","345","391767","0.0-6.0-1.169","SAST","4","f","links","18","","","object","f","0","true"
"null","<div style=""font-size:60px;"">+</div>","null","html-keyboard-response","346","392069","0.0-6.0-0.170","SAST","4","f","links","18","","fixation","","","",""
"null","img/90_60.png","null","image-keyboard-response","347","395071","0.0-6.0-1.170","SAST","4","f","links","18","","","object","f","90","false"
"null","<div style=""font-size:60px;"">+</div>","null","html-keyboard-response","348","395521","0.0-6.0-0.171","SAST","4","f","links","18","","fixation","","","",""
"497","img/120_30.png","74","image-keyboard-response","349","396019","0.0-6.0-1.171","SAST","4","f","links","18","","","object","f","120","false"
"null","<div style=""font-size:60px;"">+</div>","null","html-keyboard-response","350","396420","0.0-6.0-0.172","SAST","4","f","links","18","","fixation","","","",""
"811","img/30_300.png","70","image-keyboard-response","351","397232","0.0-6.0-1.172","SAST","4","f","links","18","","","object","f","30","true"
"null","<div style=""font-size:60px;"">+</div>","null","html-keyboard-response","352","397583","0.0-6.0-0.173","SAST","4","f","links","18","","fixation","","","",""
"1898","img/120_270.png","74","image-keyboard-response","353","399483","0.0-6.0-1.173","SAST","4","f","links","18","","","object","j","120","true"
"null","<div style=""font-size:60px;"">+</div>","null","html-keyboard-response","354","399834","0.0-6.0-0.174","SAST","4","f","links","18","","fixation","","","",""
"2142","img/150_240.png","70","image-keyboard-response","355","401977","0.0-6.0-1.174","SAST","4","f","links","18","","","object","j","150","false"
"null","<div style=""font-size:60px;"">+</div>","null","html-keyboard-response","356","402278","0.0-6.0-0.175","SAST","4","f","links","18","","fixation","","","",""
"1616","img/60_90.png","74","image-keyboard-response","357","403895","0.0-6.0-1.175","SAST","4","f","links","18","","","object","j","60","true"
"null","<div style=""font-size:60px;"">+</div>","null","html-keyboard-response","358","404197","0.0-6.0-0.176","SAST","4","f","links","18","","fixation","","","",""
"1160","img/90_180.png","74","image-keyboard-response","359","405359","0.0-6.0-1.176","SAST","4","f","links","18","","","object","f","90","false"
"null","<div style=""font-size:60px;"">+</div>","null","html-keyboard-response","360","405660","0.0-6.0-0.177","SAST","4","f","links","18","","fixation","","","",""
"947","img/0_90.png","74","image-keyboard-response","361","406609","0.0-6.0-1.177","SAST","4","f","links","18","","","object","j","0","true"
"null","<div style=""font-size:60px;"">+</div>","null","html-keyboard-response","362","406910","0.0-6.0-0.178","SAST","4","f","links","18","","fixation","","","",""
"1316","img/0_270.png","70","image-keyboard-response","363","408229","0.0-6.0-1.178","SAST","4","f","links","18","","","object","f","0","true"
"null","<div style=""font-size:60px;"">+</div>","null","html-keyboard-response","364","408579","0.0-6.0-0.179","SAST","4","f","links","18","","fixation","","","",""
"2247","img/30_240.png","70","image-keyboard-response","365","410828","0.0-6.0-1.179","SAST","4","f","links","18","","","object","f","30","true"
"null","<div style=""font-size:60px;"">+</div>","null","html-keyboard-response","366","411180","0.0-6.0-0.180","SAST","4","f","links","18","","fixation","","","",""
"null","img/120_330.png","null","image-keyboard-response","367","414183","0.0-6.0-1.180","SAST","4","f","links","18","","","object","j","120","false"
"null","<div style=""font-size:60px;"">+</div>","null","html-keyboard-response","368","414484","0.0-6.0-0.181","SAST","4","f","links","18","","fixation","","","",""
"815","img/0_30.png","74","image-keyboard-response","369","415300","0.0-6.0-1.181","SAST","4","f","links","18","","","object","j","0","true"
"null","<div style=""font-size:60px;"">+</div>","null","html-keyboard-response","370","415602","0.0-6.0-0.182","SAST","4","f","links","18","","fixation","","","",""
"1577","img/60_210.png","70","image-keyboard-response","371","417180","0.0-6.0-1.182","SAST","4","f","links","18","","","object","f","60","true"
"null","<div style=""font-size:60px;"">+</div>","null","html-keyboard-response","372","417531","0.0-6.0-0.183","SAST","4","f","links","18","","fixation","","","",""
"null","img/120_150.png","null","image-keyboard-response","373","420534","0.0-6.0-1.183","SAST","4","f","links","18","","","object","j","120","false"
"null","<div style=""font-size:60px;"">+</div>","null","html-keyboard-response","374","420886","0.0-6.0-0.184","SAST","4","f","links","18","","fixation","","","",""
"null","img/L150_180.png","null","image-keyboard-response","375","423888","0.0-6.0-1.184","SAST","4","f","links","18","","","object","j","150","false"
"null","<div style=""font-size:60px;"">+</div>","null","html-keyboard-response","376","424240","0.0-6.0-0.185","SAST","4","f","links","18","","fixation","","","",""
"945","img/0_210.png","70","image-keyboard-response","377","425185","0.0-6.0-1.185","SAST","4","f","links","18","","","object","f","0","true"
"null","<div style=""font-size:60px;"">+</div>","null","html-keyboard-response","378","425687","0.0-6.0-0.186","SAST","4","f","links","18","","fixation","","","",""
"686","img/150_60.png","74","image-keyboard-response","379","426373","0.0-6.0-1.186","SAST","4","f","links","18","","","object","f","150","false"
"null","<div style=""font-size:60px;"">+</div>","null","html-keyboard-response","380","426674","0.0-6.0-0.187","SAST","4","f","links","18","","fixation","","","",""
"1769","img/90_240.png","70","image-keyboard-response","381","428444","0.0-6.0-1.187","SAST","4","f","links","18","","","object","f","90","true"
"null","<div style=""font-size:60px;"">+</div>","null","html-keyboard-response","382","428945","0.0-6.0-0.188","SAST","4","f","links","18","","fixation","","","",""
"1063","img/90_330.png","70","image-keyboard-response","383","430009","0.0-6.0-1.188","SAST","4","f","links","18","","","object","j","90","false"
"null","<div style=""font-size:60px;"">+</div>","null","html-keyboard-response","384","430311","0.0-6.0-0.189","SAST","4","f","links","18","","fixation","","","",""
"1106","img/90_210.png","70","image-keyboard-response","385","431418","0.0-6.0-1.189","SAST","4","f","links","18","","","object","f","90","true"
"null","<div style=""font-size:60px;"">+</div>","null","html-keyboard-response","386","431769","0.0-6.0-0.190","SAST","4","f","links","18","","fixation","","","",""
"null","img/150_180.png","null","image-keyboard-response","387","434771","0.0-6.0-1.190","SAST","4","f","links","18","","","object","f","150","false"
"null","<div style=""font-size:60px;"">+</div>","null","html-keyboard-response","388","435123","0.0-6.0-0.191","SAST","4","f","links","18","","fixation","","","",""
"225","img/0_330.png","74","image-keyboard-response","389","435348","0.0-6.0-1.191","SAST","4","f","links","18","","","object","f","0","false"
"null","<div style=""font-size:60px;"">+</div>","null","html-keyboard-response","390","435850","0.0-6.0-0.192","SAST","4","f","links","18","","fixation","","","",""
"656","img/0_300.png","70","image-keyboard-response","391","436507","0.0-6.0-1.192","SAST","4","f","links","18","","","object","f","0","true"
"null","<div style=""font-size:60px;"">+</div>","null","html-keyboard-response","392","436958","0.0-6.0-0.193","SAST","4","f","links","18","","fixation","","","",""
"1365","img/L90_180.png","74","image-keyboard-response","393","438324","0.0-6.0-1.193","SAST","4","f","links","18","","","object","j","90","true"
"null","<div style=""font-size:60px;"">+</div>","null","html-keyboard-response","394","438826","0.0-6.0-0.194","SAST","4","f","links","18","","fixation","","","",""
"629","img/0_60.png","74","image-keyboard-response","395","439456","0.0-6.0-1.194","SAST","4","f","links","18","","","object","j","0","true"
"null","<div style=""font-size:60px;"">+</div>","null","html-keyboard-response","396","439857","0.0-6.0-0.195","SAST","4","f","links","18","","fixation","","","",""
"2341","img/L120_180.png","74","image-keyboard-response","397","442199","0.0-6.0-1.195","SAST","4","f","links","18","","","object","j","120","true"
"null","<div style=""font-size:60px;"">+</div>","null","html-keyboard-response","398","442601","0.0-6.0-0.196","SAST","4","f","links","18","","fixation","","","",""
"1373","img/30_60.png","74","image-keyboard-response","399","443976","0.0-6.0-1.196","SAST","4","f","links","18","","","object","j","30","true"
"null","<div style=""font-size:60px;"">+</div>","null","html-keyboard-response","400","444477","0.0-6.0-0.197","SAST","4","f","links","18","","fixation","","","",""
"854","img/90_150.png","74","image-keyboard-response","401","445332","0.0-6.0-1.197","SAST","4","f","links","18","","","object","j","90","true"
"null","<div style=""font-size:60px;"">+</div>","null","html-keyboard-response","402","445834","0.0-6.0-0.198","SAST","4","f","links","18","","fixation","","","",""
"1327","img/30_90.png","74","image-keyboard-response","403","447162","0.0-6.0-1.198","SAST","4","f","links","18","","","object","j","30","true"
"null","<div style=""font-size:60px;"">+</div>","null","html-keyboard-response","404","447564","0.0-6.0-0.199","SAST","4","f","links","18","","fixation","","","",""
"2054","img/30_270.png","70","image-keyboard-response","405","449618","0.0-6.0-1.199","SAST","4","f","links","18","","","object","f","30","true"
"null","<div style=""font-size:60px;"">+</div>","null","html-keyboard-response","406","450120","0.0-6.0-0.200","SAST","4","f","links","18","","fixation","","","",""
"1705","img/150_90.png","74","image-keyboard-response","407","451827","0.0-6.0-1.200","SAST","4","f","links","18","","","object","f","150","false"
"null","<div style=""font-size:60px;"">+</div>","null","html-keyboard-response","408","452228","0.0-6.0-0.201","SAST","4","f","links","18","","fixation","","","",""
"1512","img/30_180.png","70","image-keyboard-response","409","453741","0.0-6.0-1.201","SAST","4","f","links","18","","","object","f","30","true"
"null","<div style=""font-size:60px;"">+</div>","null","html-keyboard-response","410","454243","0.0-6.0-0.202","SAST","4","f","links","18","","fixation","","","",""
"697","img/0_120.png","74","image-keyboard-response","411","454941","0.0-6.0-1.202","SAST","4","f","links","18","","","object","j","0","true"
"null","<div style=""font-size:60px;"">+</div>","null","html-keyboard-response","412","455443","0.0-6.0-0.203","SAST","4","f","links","18","","fixation","","","",""
"1368","img/150_270.png","70","image-keyboard-response","413","456813","0.0-6.0-1.203","SAST","4","f","links","18","","","object","j","150","false"
"null","<div style=""font-size:60px;"">+</div>","null","html-keyboard-response","414","457164","0.0-6.0-0.204","SAST","4","f","links","18","","fixation","","","",""
"null","img/150_300.png","null","image-keyboard-response","415","460167","0.0-6.0-1.204","SAST","4","f","links","18","","","object","j","150","false"
"null","<div style=""font-size:60px;"">+</div>","null","html-keyboard-response","416","460519","0.0-6.0-0.205","SAST","4","f","links","18","","fixation","","","",""
"1318","img/120_210.png","70","image-keyboard-response","417","461837","0.0-6.0-1.205","SAST","4","f","links","18","","","object","f","120","true"
"null","<div style=""font-size:60px;"">+</div>","null","html-keyboard-response","418","462139","0.0-6.0-0.206","SAST","4","f","links","18","","fixation","","","",""
"2259","img/60_150.png","74","image-keyboard-response","419","464399","0.0-6.0-1.206","SAST","4","f","links","18","","","object","j","60","true"
"null","<div style=""font-size:60px;"">+</div>","null","html-keyboard-response","420","464901","0.0-6.0-0.207","SAST","4","f","links","18","","fixation","","","",""
"null","img/60_330.png","null","image-keyboard-response","421","467903","0.0-6.0-1.207","SAST","4","f","links","18","","","object","j","60","false"
"315","<p>Du hast in 61% der Versuche korrekt entschieden.</p><p>Deine durchschnittliche Reaktionszeit war  1419ms.</p><p>Dr&uuml;cke eine beliebige Taste, um die Session zu beenden. Vielen Dank!</p>","70","html-keyboard-response","422","468221","0.0-7.0","SAST","4","f","links","18","","","","","",""
