"rt","stimulus","key_press","trial_type","trial_index","time_elapsed","internal_node_id","subject","session","sex","handedness","age","responses","test_part","condition","correct_response","angle","correct"
"1754","<p>Mental Rotation Experiment.</p> <p>Dr&uuml;cke eine beliebige Taste, um anzufangen.</p>","72","html-keyboard-response","0","1758","0.0-0.0","SAST","1","f","links","18","","","","","",""
"10638","","","survey-text","1","12398","0.0-1.0","SAST","1","f","links","18","{""Q0"":""SAST""}","","","","",""
"22520","","","survey-text","2","34919","0.0-2.0","SAST","1","f","links","18","{""Q0"":""1""}","","","","",""
"5757","","","survey-multi-choice","3","40678","0.0-3.0","SAST","1","f","links","18","{""Q0"":""f"",""Q1"":""links""}","","","","",""
"3941","","","survey-text","4","44620","0.0-4.0","SAST","1","f","links","18","{""Q0"":""18""}","","","","",""
"7262","<p> Stell dir vor, dass du vor einem runden Tisch stehst, auf dem sich ein blauer Ball am Tischrand befindet. Entlang des Tischrands ist jeweils ein verschieden langer Pfeil. Nun bewegst du dich entlang dieses Pfeils bis an seine Spitze. Wenn du am Ende des Pfeils angekommen bist, schau zur Tischmitte. </p> <img src='img/90_180.png'></img> <br> <p>Entscheide dann, ob der Ball von deiner neuen (vorgestellten) Position links oder rechts von dir liegt.</p> <p>Dr&uuml;cke die <strong>'f'</strong>-Taste f&uuml;r links, die <strong>'j'</strong>-Taste f&uuml;r rechts.</p> <br><p> Das Bild wird jeweils 1 Sekunde lang pr&auml;sentiert. Du hast 3 Sekunden Zeit eine Entscheidung zu treffen.</p>","74","html-keyboard-response","5","51884","0.0-5.0","SAST","1","f","links","18","","","","","",""
"null","<div style=""font-size:60px;"">+</div>","null","html-keyboard-response","6","53338","0.0-6.0-0.0","SAST","1","f","links","18","","fixation","","","",""
"713","img/60_180.png","70","image-keyboard-response","7","54052","0.0-6.0-1.0","SAST","1","f","links","18","","","self","j","60","false"
"null","<div style=""font-size:60px;"">+</div>","null","html-keyboard-response","8","54504","0.0-6.0-0.1","SAST","1","f","links","18","","fixation","","","",""
"930","img/L30_180.png","74","image-keyboard-response","9","55435","0.0-6.0-1.1","SAST","1","f","links","18","","","self","f","30","false"
"null","<div style=""font-size:60px;"">+</div>","null","html-keyboard-response","10","55787","0.0-6.0-0.2","SAST","1","f","links","18","","fixation","","","",""
"1010","img/90_120.png","70","image-keyboard-response","11","56798","0.0-6.0-1.2","SAST","1","f","links","18","","","self","f","90","true"
"null","<div style=""font-size:60px;"">+</div>","null","html-keyboard-response","12","57100","0.0-6.0-0.3","SAST","1","f","links","18","","fixation","","","",""
"889","img/30_90.png","74","image-keyboard-response","13","57990","0.0-6.0-1.3","SAST","1","f","links","18","","","self","j","30","true"
"null","<div style=""font-size:60px;"">+</div>","null","html-keyboard-response","14","58392","0.0-6.0-0.4","SAST","1","f","links","18","","fixation","","","",""
"982","img/90_240.png","70","image-keyboard-response","15","59376","0.0-6.0-1.4","SAST","1","f","links","18","","","self","j","90","false"
"null","<div style=""font-size:60px;"">+</div>","null","html-keyboard-response","16","59827","0.0-6.0-0.5","SAST","1","f","links","18","","fixation","","","",""
"1254","img/0_60.png","74","image-keyboard-response","17","61083","0.0-6.0-1.5","SAST","1","f","links","18","","","self","j","0","true"
"null","<div style=""font-size:60px;"">+</div>","null","html-keyboard-response","18","61584","0.0-6.0-0.6","SAST","1","f","links","18","","fixation","","","",""
"709","img/60_270.png","70","image-keyboard-response","19","62295","0.0-6.0-1.6","SAST","1","f","links","18","","","self","f","60","true"
"null","<div style=""font-size:60px;"">+</div>","null","html-keyboard-response","20","62796","0.0-6.0-0.7","SAST","1","f","links","18","","fixation","","","",""
"842","img/30_120.png","74","image-keyboard-response","21","63639","0.0-6.0-1.7","SAST","1","f","links","18","","","self","j","30","true"
"null","<div style=""font-size:60px;"">+</div>","null","html-keyboard-response","22","63941","0.0-6.0-0.8","SAST","1","f","links","18","","fixation","","","",""
"835","img/150_270.png","74","image-keyboard-response","23","64777","0.0-6.0-1.8","SAST","1","f","links","18","","","self","j","150","true"
"null","<div style=""font-size:60px;"">+</div>","null","html-keyboard-response","24","65279","0.0-6.0-0.9","SAST","1","f","links","18","","fixation","","","",""
"1173","img/150_90.png","70","image-keyboard-response","25","66453","0.0-6.0-1.9","SAST","1","f","links","18","","","self","f","150","true"
"null","<div style=""font-size:60px;"">+</div>","null","html-keyboard-response","26","66855","0.0-6.0-0.10","SAST","1","f","links","18","","fixation","","","",""
"1130","img/30_60.png","74","image-keyboard-response","27","67986","0.0-6.0-1.10","SAST","1","f","links","18","","","self","j","30","true"
"null","<div style=""font-size:60px;"">+</div>","null","html-keyboard-response","28","68388","0.0-6.0-0.11","SAST","1","f","links","18","","fixation","","","",""
"1044","img/150_240.png","74","image-keyboard-response","29","69433","0.0-6.0-1.11","SAST","1","f","links","18","","","self","j","150","true"
"null","<div style=""font-size:60px;"">+</div>","null","html-keyboard-response","30","69885","0.0-6.0-0.12","SAST","1","f","links","18","","fixation","","","",""
"953","img/120_90.png","70","image-keyboard-response","31","70839","0.0-6.0-1.12","SAST","1","f","links","18","","","self","f","120","true"
"null","<div style=""font-size:60px;"">+</div>","null","html-keyboard-response","32","71291","0.0-6.0-0.13","SAST","1","f","links","18","","fixation","","","",""
"960","img/60_30.png","74","image-keyboard-response","33","72252","0.0-6.0-1.13","SAST","1","f","links","18","","","self","j","60","true"
"null","<div style=""font-size:60px;"">+</div>","null","html-keyboard-response","34","72604","0.0-6.0-0.14","SAST","1","f","links","18","","fixation","","","",""
"1227","img/0_30.png","70","image-keyboard-response","35","73832","0.0-6.0-1.14","SAST","1","f","links","18","","","self","j","0","false"
"null","<div style=""font-size:60px;"">+</div>","null","html-keyboard-response","36","74184","0.0-6.0-0.15","SAST","1","f","links","18","","fixation","","","",""
"806","img/30_180.png","70","image-keyboard-response","37","74991","0.0-6.0-1.15","SAST","1","f","links","18","","","self","j","30","false"
"null","<div style=""font-size:60px;"">+</div>","null","html-keyboard-response","38","75343","0.0-6.0-0.16","SAST","1","f","links","18","","fixation","","","",""
"744","img/120_210.png","70","image-keyboard-response","39","76088","0.0-6.0-1.16","SAST","1","f","links","18","","","self","j","120","false"
"null","<div style=""font-size:60px;"">+</div>","null","html-keyboard-response","40","76390","0.0-6.0-0.17","SAST","1","f","links","18","","fixation","","","",""
"829","img/150_180.png","70","image-keyboard-response","41","77220","0.0-6.0-1.17","SAST","1","f","links","18","","","self","j","150","false"
"null","<div style=""font-size:60px;"">+</div>","null","html-keyboard-response","42","77572","0.0-6.0-0.18","SAST","1","f","links","18","","fixation","","","",""
"585","img/120_150.png","74","image-keyboard-response","43","78158","0.0-6.0-1.18","SAST","1","f","links","18","","","self","f","120","false"
"null","<div style=""font-size:60px;"">+</div>","null","html-keyboard-response","44","78610","0.0-6.0-0.19","SAST","1","f","links","18","","fixation","","","",""
"718","img/60_210.png","70","image-keyboard-response","45","79329","0.0-6.0-1.19","SAST","1","f","links","18","","","self","j","60","false"
"null","<div style=""font-size:60px;"">+</div>","null","html-keyboard-response","46","79681","0.0-6.0-0.20","SAST","1","f","links","18","","fixation","","","",""
"860","img/90_210.png","74","image-keyboard-response","47","80542","0.0-6.0-1.20","SAST","1","f","links","18","","","self","j","90","true"
"null","<div style=""font-size:60px;"">+</div>","null","html-keyboard-response","48","81044","0.0-6.0-0.21","SAST","1","f","links","18","","fixation","","","",""
"893","img/0_300.png","70","image-keyboard-response","49","81940","0.0-6.0-1.21","SAST","1","f","links","18","","","self","f","0","true"
"null","<div style=""font-size:60px;"">+</div>","null","html-keyboard-response","50","82391","0.0-6.0-0.22","SAST","1","f","links","18","","fixation","","","",""
"639","img/L120_180.png","74","image-keyboard-response","51","83033","0.0-6.0-1.22","SAST","1","f","links","18","","","self","f","120","false"
"null","<div style=""font-size:60px;"">+</div>","null","html-keyboard-response","52","83334","0.0-6.0-0.23","SAST","1","f","links","18","","fixation","","","",""
"664","img/30_270.png","70","image-keyboard-response","53","83999","0.0-6.0-1.23","SAST","1","f","links","18","","","self","f","30","true"
"null","<div style=""font-size:60px;"">+</div>","null","html-keyboard-response","54","84351","0.0-6.0-0.24","SAST","1","f","links","18","","fixation","","","",""
"687","img/90_180.png","70","image-keyboard-response","55","85040","0.0-6.0-1.24","SAST","1","f","links","18","","","self","j","90","false"
"null","<div style=""font-size:60px;"">+</div>","null","html-keyboard-response","56","85541","0.0-6.0-0.25","SAST","1","f","links","18","","fixation","","","",""
"649","img/60_150.png","74","image-keyboard-response","57","86191","0.0-6.0-1.25","SAST","1","f","links","18","","","self","f","60","false"
"null","<div style=""font-size:60px;"">+</div>","null","html-keyboard-response","58","86593","0.0-6.0-0.26","SAST","1","f","links","18","","fixation","","","",""
"760","img/90_330.png","70","image-keyboard-response","59","87354","0.0-6.0-1.26","SAST","1","f","links","18","","","self","f","90","true"
"null","<div style=""font-size:60px;"">+</div>","null","html-keyboard-response","60","87856","0.0-6.0-0.27","SAST","1","f","links","18","","fixation","","","",""
"569","img/120_180.png","70","image-keyboard-response","61","88427","0.0-6.0-1.27","SAST","1","f","links","18","","","self","j","120","false"
"null","<div style=""font-size:60px;"">+</div>","null","html-keyboard-response","62","88878","0.0-6.0-0.28","SAST","1","f","links","18","","fixation","","","",""
"601","img/30_300.png","70","image-keyboard-response","63","89481","0.0-6.0-1.28","SAST","1","f","links","18","","","self","f","30","true"
"null","<div style=""font-size:60px;"">+</div>","null","html-keyboard-response","64","89832","0.0-6.0-0.29","SAST","1","f","links","18","","fixation","","","",""
"589","img/120_330.png","70","image-keyboard-response","65","90422","0.0-6.0-1.29","SAST","1","f","links","18","","","self","f","120","true"
"null","<div style=""font-size:60px;"">+</div>","null","html-keyboard-response","66","90724","0.0-6.0-0.30","SAST","1","f","links","18","","fixation","","","",""
"722","img/120_270.png","70","image-keyboard-response","67","91447","0.0-6.0-1.30","SAST","1","f","links","18","","","self","j","120","false"
"null","<div style=""font-size:60px;"">+</div>","null","html-keyboard-response","68","91749","0.0-6.0-0.31","SAST","1","f","links","18","","fixation","","","",""
"741","img/0_120.png","74","image-keyboard-response","69","92492","0.0-6.0-1.31","SAST","1","f","links","18","","","self","j","0","true"
"null","<div style=""font-size:60px;"">+</div>","null","html-keyboard-response","70","92993","0.0-6.0-0.32","SAST","1","f","links","18","","fixation","","","",""
"833","img/0_270.png","70","image-keyboard-response","71","93828","0.0-6.0-1.32","SAST","1","f","links","18","","","self","f","0","true"
"null","<div style=""font-size:60px;"">+</div>","null","html-keyboard-response","72","94179","0.0-6.0-0.33","SAST","1","f","links","18","","fixation","","","",""
"965","img/90_30.png","74","image-keyboard-response","73","95146","0.0-6.0-1.33","SAST","1","f","links","18","","","self","j","90","true"
"null","<div style=""font-size:60px;"">+</div>","null","html-keyboard-response","74","95647","0.0-6.0-0.34","SAST","1","f","links","18","","fixation","","","",""
"1005","img/90_300.png","74","image-keyboard-response","75","96655","0.0-6.0-1.34","SAST","1","f","links","18","","","self","f","90","false"
"null","<div style=""font-size:60px;"">+</div>","null","html-keyboard-response","76","97106","0.0-6.0-0.35","SAST","1","f","links","18","","fixation","","","",""
"808","img/L60_180.png","74","image-keyboard-response","77","97917","0.0-6.0-1.35","SAST","1","f","links","18","","","self","f","60","false"
"null","<div style=""font-size:60px;"">+</div>","null","html-keyboard-response","78","98318","0.0-6.0-0.36","SAST","1","f","links","18","","fixation","","","",""
"803","img/L90_180.png","70","image-keyboard-response","79","99124","0.0-6.0-1.36","SAST","1","f","links","18","","","self","f","90","true"
"null","<div style=""font-size:60px;"">+</div>","null","html-keyboard-response","80","99625","0.0-6.0-0.37","SAST","1","f","links","18","","fixation","","","",""
"615","img/90_150.png","74","image-keyboard-response","81","100241","0.0-6.0-1.37","SAST","1","f","links","18","","","self","f","90","false"
"null","<div style=""font-size:60px;"">+</div>","null","html-keyboard-response","82","100693","0.0-6.0-0.38","SAST","1","f","links","18","","fixation","","","",""
"772","img/0_240.png","70","image-keyboard-response","83","101467","0.0-6.0-1.38","SAST","1","f","links","18","","","self","f","0","true"
"null","<div style=""font-size:60px;"">+</div>","null","html-keyboard-response","84","101869","0.0-6.0-0.39","SAST","1","f","links","18","","fixation","","","",""
"832","img/150_120.png","74","image-keyboard-response","85","102702","0.0-6.0-1.39","SAST","1","f","links","18","","","self","f","150","false"
"null","<div style=""font-size:60px;"">+</div>","null","html-keyboard-response","86","103154","0.0-6.0-0.40","SAST","1","f","links","18","","fixation","","","",""
"1169","img/120_30.png","74","image-keyboard-response","87","104324","0.0-6.0-1.40","SAST","1","f","links","18","","","self","j","120","true"
"null","<div style=""font-size:60px;"">+</div>","null","html-keyboard-response","88","104776","0.0-6.0-0.41","SAST","1","f","links","18","","fixation","","","",""
"654","img/60_330.png","70","image-keyboard-response","89","105431","0.0-6.0-1.41","SAST","1","f","links","18","","","self","f","60","true"
"null","<div style=""font-size:60px;"">+</div>","null","html-keyboard-response","90","105733","0.0-6.0-0.42","SAST","1","f","links","18","","fixation","","","",""
"567","img/30_240.png","70","image-keyboard-response","91","106301","0.0-6.0-1.42","SAST","1","f","links","18","","","self","f","30","true"
"null","<div style=""font-size:60px;"">+</div>","null","html-keyboard-response","92","106803","0.0-6.0-0.43","SAST","1","f","links","18","","fixation","","","",""
"566","img/90_60.png","74","image-keyboard-response","93","107370","0.0-6.0-1.43","SAST","1","f","links","18","","","self","j","90","true"
"null","<div style=""font-size:60px;"">+</div>","null","html-keyboard-response","94","107672","0.0-6.0-0.44","SAST","1","f","links","18","","fixation","","","",""
"1090","img/0_150.png","74","image-keyboard-response","95","108763","0.0-6.0-1.44","SAST","1","f","links","18","","","self","j","0","true"
"null","<div style=""font-size:60px;"">+</div>","null","html-keyboard-response","96","109165","0.0-6.0-0.45","SAST","1","f","links","18","","fixation","","","",""
"645","img/60_90.png","74","image-keyboard-response","97","109811","0.0-6.0-1.45","SAST","1","f","links","18","","","self","j","60","true"
"null","<div style=""font-size:60px;"">+</div>","null","html-keyboard-response","98","110213","0.0-6.0-0.46","SAST","1","f","links","18","","fixation","","","",""
"705","img/0_210.png","70","image-keyboard-response","99","110919","0.0-6.0-1.46","SAST","1","f","links","18","","","self","f","0","true"
"null","<div style=""font-size:60px;"">+</div>","null","html-keyboard-response","100","111221","0.0-6.0-0.47","SAST","1","f","links","18","","fixation","","","",""
"840","img/L150_180.png","74","image-keyboard-response","101","112062","0.0-6.0-1.47","SAST","1","f","links","18","","","self","f","150","false"
"null","<div style=""font-size:60px;"">+</div>","null","html-keyboard-response","102","112364","0.0-6.0-0.48","SAST","1","f","links","18","","fixation","","","",""
"966","img/0_90.png","70","image-keyboard-response","103","113331","0.0-6.0-1.48","SAST","1","f","links","18","","","self","j","0","false"
"null","<div style=""font-size:60px;"">+</div>","null","html-keyboard-response","104","113783","0.0-6.0-0.49","SAST","1","f","links","18","","fixation","","","",""
"667","img/0_330.png","70","image-keyboard-response","105","114451","0.0-6.0-1.49","SAST","1","f","links","18","","","self","f","0","true"
"null","<div style=""font-size:60px;"">+</div>","null","html-keyboard-response","106","114853","0.0-6.0-0.50","SAST","1","f","links","18","","fixation","","","",""
"1069","img/150_60.png","74","image-keyboard-response","107","115923","0.0-6.0-1.50","SAST","1","f","links","18","","","self","f","150","false"
"null","<div style=""font-size:60px;"">+</div>","null","html-keyboard-response","108","116373","0.0-6.0-0.51","SAST","1","f","links","18","","fixation","","","",""
"791","img/150_300.png","70","image-keyboard-response","109","117165","0.0-6.0-1.51","SAST","1","f","links","18","","","self","j","150","false"
"null","<div style=""font-size:60px;"">+</div>","null","html-keyboard-response","110","117617","0.0-6.0-0.52","SAST","1","f","links","18","","fixation","","","",""
"612","img/120_330.png","70","image-keyboard-response","111","118230","0.0-6.0-1.52","SAST","1","f","links","18","","","self","f","120","true"
"null","<div style=""font-size:60px;"">+</div>","null","html-keyboard-response","112","118532","0.0-6.0-0.53","SAST","1","f","links","18","","fixation","","","",""
"621","img/90_210.png","70","image-keyboard-response","113","119154","0.0-6.0-1.53","SAST","1","f","links","18","","","self","j","90","false"
"null","<div style=""font-size:60px;"">+</div>","null","html-keyboard-response","114","119556","0.0-6.0-0.54","SAST","1","f","links","18","","fixation","","","",""
"770","img/L120_180.png","74","image-keyboard-response","115","120327","0.0-6.0-1.54","SAST","1","f","links","18","","","self","f","120","false"
"null","<div style=""font-size:60px;"">+</div>","null","html-keyboard-response","116","120629","0.0-6.0-0.55","SAST","1","f","links","18","","fixation","","","",""
"776","img/150_300.png","70","image-keyboard-response","117","121406","0.0-6.0-1.55","SAST","1","f","links","18","","","self","j","150","false"
"null","<div style=""font-size:60px;"">+</div>","null","html-keyboard-response","118","121807","0.0-6.0-0.56","SAST","1","f","links","18","","fixation","","","",""
"808","img/150_180.png","74","image-keyboard-response","119","122615","0.0-6.0-1.56","SAST","1","f","links","18","","","self","j","150","true"
"null","<div style=""font-size:60px;"">+</div>","null","html-keyboard-response","120","122967","0.0-6.0-0.57","SAST","1","f","links","18","","fixation","","","",""
"730","img/120_270.png","70","image-keyboard-response","121","123698","0.0-6.0-1.57","SAST","1","f","links","18","","","self","j","120","false"
"null","<div style=""font-size:60px;"">+</div>","null","html-keyboard-response","122","124200","0.0-6.0-0.58","SAST","1","f","links","18","","fixation","","","",""
"883","img/0_210.png","70","image-keyboard-response","123","125084","0.0-6.0-1.58","SAST","1","f","links","18","","","self","f","0","true"
"null","<div style=""font-size:60px;"">+</div>","null","html-keyboard-response","124","125436","0.0-6.0-0.59","SAST","1","f","links","18","","fixation","","","",""
"797","img/150_120.png","74","image-keyboard-response","125","126233","0.0-6.0-1.59","SAST","1","f","links","18","","","self","f","150","false"
"null","<div style=""font-size:60px;"">+</div>","null","html-keyboard-response","126","126535","0.0-6.0-0.60","SAST","1","f","links","18","","fixation","","","",""
"831","img/0_30.png","74","image-keyboard-response","127","127366","0.0-6.0-1.60","SAST","1","f","links","18","","","self","j","0","true"
"null","<div style=""font-size:60px;"">+</div>","null","html-keyboard-response","128","127767","0.0-6.0-0.61","SAST","1","f","links","18","","fixation","","","",""
"739","img/L150_180.png","70","image-keyboard-response","129","128507","0.0-6.0-1.61","SAST","1","f","links","18","","","self","f","150","true"
"null","<div style=""font-size:60px;"">+</div>","null","html-keyboard-response","130","128909","0.0-6.0-0.62","SAST","1","f","links","18","","fixation","","","",""
"815","img/L90_180.png","74","image-keyboard-response","131","129724","0.0-6.0-1.62","SAST","1","f","links","18","","","self","f","90","false"
"null","<div style=""font-size:60px;"">+</div>","null","html-keyboard-response","132","130126","0.0-6.0-0.63","SAST","1","f","links","18","","fixation","","","",""
"726","img/0_300.png","70","image-keyboard-response","133","130852","0.0-6.0-1.63","SAST","1","f","links","18","","","self","f","0","true"
"null","<div style=""font-size:60px;"">+</div>","null","html-keyboard-response","134","131154","0.0-6.0-0.64","SAST","1","f","links","18","","fixation","","","",""
"859","img/60_90.png","74","image-keyboard-response","135","132014","0.0-6.0-1.64","SAST","1","f","links","18","","","self","j","60","true"
"null","<div style=""font-size:60px;"">+</div>","null","html-keyboard-response","136","132416","0.0-6.0-0.65","SAST","1","f","links","18","","fixation","","","",""
"856","img/90_150.png","74","image-keyboard-response","137","133272","0.0-6.0-1.65","SAST","1","f","links","18","","","self","f","90","false"
"null","<div style=""font-size:60px;"">+</div>","null","html-keyboard-response","138","133723","0.0-6.0-0.66","SAST","1","f","links","18","","fixation","","","",""
"739","img/0_60.png","70","image-keyboard-response","139","134463","0.0-6.0-1.66","SAST","1","f","links","18","","","self","j","0","false"
"null","<div style=""font-size:60px;"">+</div>","null","html-keyboard-response","140","134964","0.0-6.0-0.67","SAST","1","f","links","18","","fixation","","","",""
"891","img/0_240.png","70","image-keyboard-response","141","135857","0.0-6.0-1.67","SAST","1","f","links","18","","","self","f","0","true"
"null","<div style=""font-size:60px;"">+</div>","null","html-keyboard-response","142","136359","0.0-6.0-0.68","SAST","1","f","links","18","","fixation","","","",""
"953","img/150_60.png","74","image-keyboard-response","143","137312","0.0-6.0-1.68","SAST","1","f","links","18","","","self","f","150","false"
"null","<div style=""font-size:60px;"">+</div>","null","html-keyboard-response","144","137664","0.0-6.0-0.69","SAST","1","f","links","18","","fixation","","","",""
"1134","img/150_240.png","70","image-keyboard-response","145","138800","0.0-6.0-1.69","SAST","1","f","links","18","","","self","j","150","false"
"null","<div style=""font-size:60px;"">+</div>","null","html-keyboard-response","146","139251","0.0-6.0-0.70","SAST","1","f","links","18","","fixation","","","",""
"682","img/90_120.png","74","image-keyboard-response","147","139934","0.0-6.0-1.70","SAST","1","f","links","18","","","self","f","90","false"
"null","<div style=""font-size:60px;"">+</div>","null","html-keyboard-response","148","140335","0.0-6.0-0.71","SAST","1","f","links","18","","fixation","","","",""
"769","img/30_120.png","74","image-keyboard-response","149","141105","0.0-6.0-1.71","SAST","1","f","links","18","","","self","j","30","true"
"null","<div style=""font-size:60px;"">+</div>","null","html-keyboard-response","150","141607","0.0-6.0-0.72","SAST","1","f","links","18","","fixation","","","",""
"722","img/90_300.png","70","image-keyboard-response","151","142329","0.0-6.0-1.72","SAST","1","f","links","18","","","self","f","90","true"
"null","<div style=""font-size:60px;"">+</div>","null","html-keyboard-response","152","142681","0.0-6.0-0.73","SAST","1","f","links","18","","fixation","","","",""
"687","img/120_90.png","74","image-keyboard-response","153","143368","0.0-6.0-1.73","SAST","1","f","links","18","","","self","f","120","false"
"null","<div style=""font-size:60px;"">+</div>","null","html-keyboard-response","154","143720","0.0-6.0-0.74","SAST","1","f","links","18","","fixation","","","",""
"592","img/90_180.png","70","image-keyboard-response","155","144312","0.0-6.0-1.74","SAST","1","f","links","18","","","self","j","90","false"
"null","<div style=""font-size:60px;"">+</div>","null","html-keyboard-response","156","144764","0.0-6.0-0.75","SAST","1","f","links","18","","fixation","","","",""
"642","img/60_30.png","74","image-keyboard-response","157","145407","0.0-6.0-1.75","SAST","1","f","links","18","","","self","j","60","true"
"null","<div style=""font-size:60px;"">+</div>","null","html-keyboard-response","158","145858","0.0-6.0-0.76","SAST","1","f","links","18","","fixation","","","",""
"699","img/30_90.png","74","image-keyboard-response","159","146558","0.0-6.0-1.76","SAST","1","f","links","18","","","self","j","30","true"
"null","<div style=""font-size:60px;"">+</div>","null","html-keyboard-response","160","146910","0.0-6.0-0.77","SAST","1","f","links","18","","fixation","","","",""
"700","img/0_120.png","70","image-keyboard-response","161","147612","0.0-6.0-1.77","SAST","1","f","links","18","","","self","j","0","false"
"null","<div style=""font-size:60px;"">+</div>","null","html-keyboard-response","162","148113","0.0-6.0-0.78","SAST","1","f","links","18","","fixation","","","",""
"653","img/90_60.png","74","image-keyboard-response","163","148768","0.0-6.0-1.78","SAST","1","f","links","18","","","self","j","90","true"
"null","<div style=""font-size:60px;"">+</div>","null","html-keyboard-response","164","149119","0.0-6.0-0.79","SAST","1","f","links","18","","fixation","","","",""
"892","img/150_90.png","74","image-keyboard-response","165","150012","0.0-6.0-1.79","SAST","1","f","links","18","","","self","f","150","false"
"null","<div style=""font-size:60px;"">+</div>","null","html-keyboard-response","166","150414","0.0-6.0-0.80","SAST","1","f","links","18","","fixation","","","",""
"823","img/0_270.png","70","image-keyboard-response","167","151239","0.0-6.0-1.80","SAST","1","f","links","18","","","self","f","0","true"
"null","<div style=""font-size:60px;"">+</div>","null","html-keyboard-response","168","151540","0.0-6.0-0.81","SAST","1","f","links","18","","fixation","","","",""
"707","img/0_150.png","74","image-keyboard-response","169","152248","0.0-6.0-1.81","SAST","1","f","links","18","","","self","j","0","true"
"null","<div style=""font-size:60px;"">+</div>","null","html-keyboard-response","170","152750","0.0-6.0-0.82","SAST","1","f","links","18","","fixation","","","",""
"620","img/L60_180.png","74","image-keyboard-response","171","153370","0.0-6.0-1.82","SAST","1","f","links","18","","","self","f","60","false"
"null","<div style=""font-size:60px;"">+</div>","null","html-keyboard-response","172","153822","0.0-6.0-0.83","SAST","1","f","links","18","","fixation","","","",""
"910","img/30_180.png","70","image-keyboard-response","173","154733","0.0-6.0-1.83","SAST","1","f","links","18","","","self","j","30","false"
"null","<div style=""font-size:60px;"">+</div>","null","html-keyboard-response","174","155035","0.0-6.0-0.84","SAST","1","f","links","18","","fixation","","","",""
"933","img/60_270.png","74","image-keyboard-response","175","155969","0.0-6.0-1.84","SAST","1","f","links","18","","","self","f","60","false"
"null","<div style=""font-size:60px;"">+</div>","null","html-keyboard-response","176","156371","0.0-6.0-0.85","SAST","1","f","links","18","","fixation","","","",""
"831","img/90_240.png","70","image-keyboard-response","177","157204","0.0-6.0-1.85","SAST","1","f","links","18","","","self","j","90","false"
"null","<div style=""font-size:60px;"">+</div>","null","html-keyboard-response","178","157555","0.0-6.0-0.86","SAST","1","f","links","18","","fixation","","","",""
"927","img/30_240.png","70","image-keyboard-response","179","158483","0.0-6.0-1.86","SAST","1","f","links","18","","","self","f","30","true"
"null","<div style=""font-size:60px;"">+</div>","null","html-keyboard-response","180","158935","0.0-6.0-0.87","SAST","1","f","links","18","","fixation","","","",""
"1224","img/60_330.png","70","image-keyboard-response","181","160160","0.0-6.0-1.87","SAST","1","f","links","18","","","self","f","60","true"
"null","<div style=""font-size:60px;"">+</div>","null","html-keyboard-response","182","160662","0.0-6.0-0.88","SAST","1","f","links","18","","fixation","","","",""
"1187","img/60_210.png","70","image-keyboard-response","183","161850","0.0-6.0-1.88","SAST","1","f","links","18","","","self","j","60","false"
"null","<div style=""font-size:60px;"">+</div>","null","html-keyboard-response","184","162252","0.0-6.0-0.89","SAST","1","f","links","18","","fixation","","","",""
"930","img/150_270.png","70","image-keyboard-response","185","163182","0.0-6.0-1.89","SAST","1","f","links","18","","","self","j","150","false"
"null","<div style=""font-size:60px;"">+</div>","null","html-keyboard-response","186","163584","0.0-6.0-0.90","SAST","1","f","links","18","","fixation","","","",""
"872","img/L30_180.png","74","image-keyboard-response","187","164457","0.0-6.0-1.90","SAST","1","f","links","18","","","self","f","30","false"
"null","<div style=""font-size:60px;"">+</div>","null","html-keyboard-response","188","164809","0.0-6.0-0.91","SAST","1","f","links","18","","fixation","","","",""
"868","img/0_330.png","70","image-keyboard-response","189","165678","0.0-6.0-1.91","SAST","1","f","links","18","","","self","f","0","true"
"null","<div style=""font-size:60px;"">+</div>","null","html-keyboard-response","190","166180","0.0-6.0-0.92","SAST","1","f","links","18","","fixation","","","",""
"902","img/30_270.png","70","image-keyboard-response","191","167083","0.0-6.0-1.92","SAST","1","f","links","18","","","self","f","30","true"
"null","<div style=""font-size:60px;"">+</div>","null","html-keyboard-response","192","167485","0.0-6.0-0.93","SAST","1","f","links","18","","fixation","","","",""
"694","img/120_150.png","74","image-keyboard-response","193","168180","0.0-6.0-1.93","SAST","1","f","links","18","","","self","f","120","false"
"null","<div style=""font-size:60px;"">+</div>","null","html-keyboard-response","194","168532","0.0-6.0-0.94","SAST","1","f","links","18","","fixation","","","",""
"717","img/60_150.png","74","image-keyboard-response","195","169250","0.0-6.0-1.94","SAST","1","f","links","18","","","self","f","60","false"
"null","<div style=""font-size:60px;"">+</div>","null","html-keyboard-response","196","169700","0.0-6.0-0.95","SAST","1","f","links","18","","fixation","","","",""
"746","img/120_180.png","70","image-keyboard-response","197","170447","0.0-6.0-1.95","SAST","1","f","links","18","","","self","j","120","false"
"null","<div style=""font-size:60px;"">+</div>","null","html-keyboard-response","198","170849","0.0-6.0-0.96","SAST","1","f","links","18","","fixation","","","",""
"784","img/30_60.png","74","image-keyboard-response","199","171633","0.0-6.0-1.96","SAST","1","f","links","18","","","self","j","30","true"
"null","<div style=""font-size:60px;"">+</div>","null","html-keyboard-response","200","171935","0.0-6.0-0.97","SAST","1","f","links","18","","fixation","","","",""
"1201","img/0_90.png","74","image-keyboard-response","201","173137","0.0-6.0-1.97","SAST","1","f","links","18","","","self","j","0","true"
"null","<div style=""font-size:60px;"">+</div>","null","html-keyboard-response","202","173488","0.0-6.0-0.98","SAST","1","f","links","18","","fixation","","","",""
"970","img/120_210.png","70","image-keyboard-response","203","174459","0.0-6.0-1.98","SAST","1","f","links","18","","","self","j","120","false"
"null","<div style=""font-size:60px;"">+</div>","null","html-keyboard-response","204","174909","0.0-6.0-0.99","SAST","1","f","links","18","","fixation","","","",""
"760","img/90_330.png","70","image-keyboard-response","205","175670","0.0-6.0-1.99","SAST","1","f","links","18","","","self","f","90","true"
"null","<div style=""font-size:60px;"">+</div>","null","html-keyboard-response","206","175972","0.0-6.0-0.100","SAST","1","f","links","18","","fixation","","","",""
"699","img/30_300.png","70","image-keyboard-response","207","176671","0.0-6.0-1.100","SAST","1","f","links","18","","","self","f","30","true"
"null","<div style=""font-size:60px;"">+</div>","null","html-keyboard-response","208","177023","0.0-6.0-0.101","SAST","1","f","links","18","","fixation","","","",""
"761","img/60_180.png","70","image-keyboard-response","209","177784","0.0-6.0-1.101","SAST","1","f","links","18","","","self","j","60","false"
"null","<div style=""font-size:60px;"">+</div>","null","html-keyboard-response","210","178286","0.0-6.0-0.102","SAST","1","f","links","18","","fixation","","","",""
"812","img/120_30.png","74","image-keyboard-response","211","179098","0.0-6.0-1.102","SAST","1","f","links","18","","","self","j","120","true"
"null","<div style=""font-size:60px;"">+</div>","null","html-keyboard-response","212","179549","0.0-6.0-0.103","SAST","1","f","links","18","","fixation","","","",""
"978","img/90_30.png","74","image-keyboard-response","213","180528","0.0-6.0-1.103","SAST","1","f","links","18","","","self","j","90","true"
"null","<div style=""font-size:60px;"">+</div>","null","html-keyboard-response","214","180930","0.0-6.0-0.104","SAST","1","f","links","18","","fixation","","","",""
"956","img/30_240.png","70","image-keyboard-response","215","181887","0.0-6.0-1.104","SAST","1","f","links","18","","","self","f","30","true"
"null","<div style=""font-size:60px;"">+</div>","null","html-keyboard-response","216","182189","0.0-6.0-0.105","SAST","1","f","links","18","","fixation","","","",""
"756","img/90_60.png","74","image-keyboard-response","217","182945","0.0-6.0-1.105","SAST","1","f","links","18","","","self","j","90","true"
"null","<div style=""font-size:60px;"">+</div>","null","html-keyboard-response","218","183297","0.0-6.0-0.106","SAST","1","f","links","18","","fixation","","","",""
"986","img/0_120.png","74","image-keyboard-response","219","184284","0.0-6.0-1.106","SAST","1","f","links","18","","","self","j","0","true"
"null","<div style=""font-size:60px;"">+</div>","null","html-keyboard-response","220","184585","0.0-6.0-0.107","SAST","1","f","links","18","","fixation","","","",""
"1269","img/30_60.png","74","image-keyboard-response","221","185855","0.0-6.0-1.107","SAST","1","f","links","18","","","self","j","30","true"
"null","<div style=""font-size:60px;"">+</div>","null","html-keyboard-response","222","186356","0.0-6.0-0.108","SAST","1","f","links","18","","fixation","","","",""
"771","img/150_240.png","70","image-keyboard-response","223","187127","0.0-6.0-1.108","SAST","1","f","links","18","","","self","j","150","false"
"null","<div style=""font-size:60px;"">+</div>","null","html-keyboard-response","224","187479","0.0-6.0-0.109","SAST","1","f","links","18","","fixation","","","",""
"912","img/90_210.png","70","image-keyboard-response","225","188391","0.0-6.0-1.109","SAST","1","f","links","18","","","self","j","90","false"
"null","<div style=""font-size:60px;"">+</div>","null","html-keyboard-response","226","188793","0.0-6.0-0.110","SAST","1","f","links","18","","fixation","","","",""
"875","img/30_180.png","70","image-keyboard-response","227","189669","0.0-6.0-1.110","SAST","1","f","links","18","","","self","j","30","false"
"null","<div style=""font-size:60px;"">+</div>","null","html-keyboard-response","228","190120","0.0-6.0-0.111","SAST","1","f","links","18","","fixation","","","",""
"916","img/120_330.png","70","image-keyboard-response","229","191037","0.0-6.0-1.111","SAST","1","f","links","18","","","self","f","120","true"
"null","<div style=""font-size:60px;"">+</div>","null","html-keyboard-response","230","191338","0.0-6.0-0.112","SAST","1","f","links","18","","fixation","","","",""
"855","img/0_30.png","74","image-keyboard-response","231","192194","0.0-6.0-1.112","SAST","1","f","links","18","","","self","j","0","true"
"null","<div style=""font-size:60px;"">+</div>","null","html-keyboard-response","232","192595","0.0-6.0-0.113","SAST","1","f","links","18","","fixation","","","",""
"913","img/150_300.png","70","image-keyboard-response","233","193510","0.0-6.0-1.113","SAST","1","f","links","18","","","self","j","150","false"
"null","<div style=""font-size:60px;"">+</div>","null","html-keyboard-response","234","194011","0.0-6.0-0.114","SAST","1","f","links","18","","fixation","","","",""
"719","img/150_180.png","70","image-keyboard-response","235","194732","0.0-6.0-1.114","SAST","1","f","links","18","","","self","j","150","false"
"null","<div style=""font-size:60px;"">+</div>","null","html-keyboard-response","236","195083","0.0-6.0-0.115","SAST","1","f","links","18","","fixation","","","",""
"630","img/90_300.png","70","image-keyboard-response","237","195715","0.0-6.0-1.115","SAST","1","f","links","18","","","self","f","90","true"
"null","<div style=""font-size:60px;"">+</div>","null","html-keyboard-response","238","196166","0.0-6.0-0.116","SAST","1","f","links","18","","fixation","","","",""
"656","img/60_210.png","70","image-keyboard-response","239","196824","0.0-6.0-1.116","SAST","1","f","links","18","","","self","j","60","false"
"null","<div style=""font-size:60px;"">+</div>","null","html-keyboard-response","240","197125","0.0-6.0-0.117","SAST","1","f","links","18","","fixation","","","",""
"731","img/0_330.png","74","image-keyboard-response","241","197858","0.0-6.0-1.117","SAST","1","f","links","18","","","self","f","0","false"
"null","<div style=""font-size:60px;"">+</div>","null","html-keyboard-response","242","198309","0.0-6.0-0.118","SAST","1","f","links","18","","fixation","","","",""
"826","img/150_120.png","74","image-keyboard-response","243","199136","0.0-6.0-1.118","SAST","1","f","links","18","","","self","f","150","false"
"null","<div style=""font-size:60px;"">+</div>","null","html-keyboard-response","244","199437","0.0-6.0-0.119","SAST","1","f","links","18","","fixation","","","",""
"766","img/120_180.png","70","image-keyboard-response","245","200205","0.0-6.0-1.119","SAST","1","f","links","18","","","self","j","120","false"
"null","<div style=""font-size:60px;"">+</div>","null","html-keyboard-response","246","200506","0.0-6.0-0.120","SAST","1","f","links","18","","fixation","","","",""
"764","img/150_60.png","74","image-keyboard-response","247","201270","0.0-6.0-1.120","SAST","1","f","links","18","","","self","f","150","false"
"null","<div style=""font-size:60px;"">+</div>","null","html-keyboard-response","248","201722","0.0-6.0-0.121","SAST","1","f","links","18","","fixation","","","",""
"1196","img/30_120.png","74","image-keyboard-response","249","202920","0.0-6.0-1.121","SAST","1","f","links","18","","","self","j","30","true"
"null","<div style=""font-size:60px;"">+</div>","null","html-keyboard-response","250","203321","0.0-6.0-0.122","SAST","1","f","links","18","","fixation","","","",""
"1269","img/30_270.png","70","image-keyboard-response","251","204591","0.0-6.0-1.122","SAST","1","f","links","18","","","self","f","30","true"
"null","<div style=""font-size:60px;"">+</div>","null","html-keyboard-response","252","204993","0.0-6.0-0.123","SAST","1","f","links","18","","fixation","","","",""
"805","img/0_300.png","70","image-keyboard-response","253","205799","0.0-6.0-1.123","SAST","1","f","links","18","","","self","f","0","true"
"null","<div style=""font-size:60px;"">+</div>","null","html-keyboard-response","254","206251","0.0-6.0-0.124","SAST","1","f","links","18","","fixation","","","",""
"691","img/0_150.png","74","image-keyboard-response","255","206943","0.0-6.0-1.124","SAST","1","f","links","18","","","self","j","0","true"
"null","<div style=""font-size:60px;"">+</div>","null","html-keyboard-response","256","207295","0.0-6.0-0.125","SAST","1","f","links","18","","fixation","","","",""
"875","img/90_180.png","70","image-keyboard-response","257","208171","0.0-6.0-1.125","SAST","1","f","links","18","","","self","j","90","false"
"null","<div style=""font-size:60px;"">+</div>","null","html-keyboard-response","258","208673","0.0-6.0-0.126","SAST","1","f","links","18","","fixation","","","",""
"617","img/0_90.png","74","image-keyboard-response","259","209291","0.0-6.0-1.126","SAST","1","f","links","18","","","self","j","0","true"
"null","<div style=""font-size:60px;"">+</div>","null","html-keyboard-response","260","209742","0.0-6.0-0.127","SAST","1","f","links","18","","fixation","","","",""
"727","img/90_150.png","74","image-keyboard-response","261","210470","0.0-6.0-1.127","SAST","1","f","links","18","","","self","f","90","false"
"null","<div style=""font-size:60px;"">+</div>","null","html-keyboard-response","262","210872","0.0-6.0-0.128","SAST","1","f","links","18","","fixation","","","",""
"727","img/60_90.png","74","image-keyboard-response","263","211600","0.0-6.0-1.128","SAST","1","f","links","18","","","self","j","60","true"
"null","<div style=""font-size:60px;"">+</div>","null","html-keyboard-response","264","212102","0.0-6.0-0.129","SAST","1","f","links","18","","fixation","","","",""
"662","img/0_60.png","74","image-keyboard-response","265","212765","0.0-6.0-1.129","SAST","1","f","links","18","","","self","j","0","true"
"null","<div style=""font-size:60px;"">+</div>","null","html-keyboard-response","266","213167","0.0-6.0-0.130","SAST","1","f","links","18","","fixation","","","",""
"672","img/60_30.png","74","image-keyboard-response","267","213840","0.0-6.0-1.130","SAST","1","f","links","18","","","self","j","60","true"
"null","<div style=""font-size:60px;"">+</div>","null","html-keyboard-response","268","214342","0.0-6.0-0.131","SAST","1","f","links","18","","fixation","","","",""
"913","img/30_90.png","74","image-keyboard-response","269","215256","0.0-6.0-1.131","SAST","1","f","links","18","","","self","j","30","true"
"null","<div style=""font-size:60px;"">+</div>","null","html-keyboard-response","270","215608","0.0-6.0-0.132","SAST","1","f","links","18","","fixation","","","",""
"1106","img/L150_180.png","70","image-keyboard-response","271","216715","0.0-6.0-1.132","SAST","1","f","links","18","","","self","f","150","true"
"null","<div style=""font-size:60px;"">+</div>","null","html-keyboard-response","272","217017","0.0-6.0-0.133","SAST","1","f","links","18","","fixation","","","",""
"821","img/90_30.png","74","image-keyboard-response","273","217839","0.0-6.0-1.133","SAST","1","f","links","18","","","self","j","90","true"
"null","<div style=""font-size:60px;"">+</div>","null","html-keyboard-response","274","218241","0.0-6.0-0.134","SAST","1","f","links","18","","fixation","","","",""
"843","img/90_330.png","70","image-keyboard-response","275","219085","0.0-6.0-1.134","SAST","1","f","links","18","","","self","f","90","true"
"null","<div style=""font-size:60px;"">+</div>","null","html-keyboard-response","276","219487","0.0-6.0-0.135","SAST","1","f","links","18","","fixation","","","",""
"894","img/L120_180.png","74","image-keyboard-response","277","220382","0.0-6.0-1.135","SAST","1","f","links","18","","","self","f","120","false"
"null","<div style=""font-size:60px;"">+</div>","null","html-keyboard-response","278","220683","0.0-6.0-0.136","SAST","1","f","links","18","","fixation","","","",""
"917","img/0_210.png","70","image-keyboard-response","279","221600","0.0-6.0-1.136","SAST","1","f","links","18","","","self","f","0","true"
"null","<div style=""font-size:60px;"">+</div>","null","html-keyboard-response","280","222002","0.0-6.0-0.137","SAST","1","f","links","18","","fixation","","","",""
"811","img/120_210.png","70","image-keyboard-response","281","222814","0.0-6.0-1.137","SAST","1","f","links","18","","","self","j","120","false"
"null","<div style=""font-size:60px;"">+</div>","null","html-keyboard-response","282","223166","0.0-6.0-0.138","SAST","1","f","links","18","","fixation","","","",""
"894","img/120_270.png","74","image-keyboard-response","283","224060","0.0-6.0-1.138","SAST","1","f","links","18","","","self","j","120","true"
"null","<div style=""font-size:60px;"">+</div>","null","html-keyboard-response","284","224512","0.0-6.0-0.139","SAST","1","f","links","18","","fixation","","","",""
"767","img/90_120.png","70","image-keyboard-response","285","225280","0.0-6.0-1.139","SAST","1","f","links","18","","","self","f","90","true"
"null","<div style=""font-size:60px;"">+</div>","null","html-keyboard-response","286","225682","0.0-6.0-0.140","SAST","1","f","links","18","","fixation","","","",""
"872","img/L90_180.png","74","image-keyboard-response","287","226555","0.0-6.0-1.140","SAST","1","f","links","18","","","self","f","90","false"
"null","<div style=""font-size:60px;"">+</div>","null","html-keyboard-response","288","227057","0.0-6.0-0.141","SAST","1","f","links","18","","fixation","","","",""
"849","img/150_270.png","70","image-keyboard-response","289","227907","0.0-6.0-1.141","SAST","1","f","links","18","","","self","j","150","false"
"null","<div style=""font-size:60px;"">+</div>","null","html-keyboard-response","290","228359","0.0-6.0-0.142","SAST","1","f","links","18","","fixation","","","",""
"935","img/60_330.png","74","image-keyboard-response","291","229295","0.0-6.0-1.142","SAST","1","f","links","18","","","self","f","60","false"
"null","<div style=""font-size:60px;"">+</div>","null","html-keyboard-response","292","229796","0.0-6.0-0.143","SAST","1","f","links","18","","fixation","","","",""
"749","img/L30_180.png","74","image-keyboard-response","293","230546","0.0-6.0-1.143","SAST","1","f","links","18","","","self","f","30","false"
"null","<div style=""font-size:60px;"">+</div>","null","html-keyboard-response","294","230948","0.0-6.0-0.144","SAST","1","f","links","18","","fixation","","","",""
"806","img/30_300.png","74","image-keyboard-response","295","231755","0.0-6.0-1.144","SAST","1","f","links","18","","","self","f","30","false"
"null","<div style=""font-size:60px;"">+</div>","null","html-keyboard-response","296","232107","0.0-6.0-0.145","SAST","1","f","links","18","","fixation","","","",""
"868","img/L60_180.png","74","image-keyboard-response","297","232975","0.0-6.0-1.145","SAST","1","f","links","18","","","self","f","60","false"
"null","<div style=""font-size:60px;"">+</div>","null","html-keyboard-response","298","233376","0.0-6.0-0.146","SAST","1","f","links","18","","fixation","","","",""
"891","img/120_30.png","74","image-keyboard-response","299","234268","0.0-6.0-1.146","SAST","1","f","links","18","","","self","j","120","true"
"null","<div style=""font-size:60px;"">+</div>","null","html-keyboard-response","300","234670","0.0-6.0-0.147","SAST","1","f","links","18","","fixation","","","",""
"911","img/60_270.png","70","image-keyboard-response","301","235582","0.0-6.0-1.147","SAST","1","f","links","18","","","self","f","60","true"
"null","<div style=""font-size:60px;"">+</div>","null","html-keyboard-response","302","236083","0.0-6.0-0.148","SAST","1","f","links","18","","fixation","","","",""
"766","img/90_240.png","70","image-keyboard-response","303","236850","0.0-6.0-1.148","SAST","1","f","links","18","","","self","j","90","false"
"null","<div style=""font-size:60px;"">+</div>","null","html-keyboard-response","304","237252","0.0-6.0-0.149","SAST","1","f","links","18","","fixation","","","",""
"869","img/60_150.png","74","image-keyboard-response","305","238121","0.0-6.0-1.149","SAST","1","f","links","18","","","self","f","60","false"
"null","<div style=""font-size:60px;"">+</div>","null","html-keyboard-response","306","238623","0.0-6.0-0.150","SAST","1","f","links","18","","fixation","","","",""
"956","img/60_180.png","74","image-keyboard-response","307","239580","0.0-6.0-1.150","SAST","1","f","links","18","","","self","j","60","true"
"null","<div style=""font-size:60px;"">+</div>","null","html-keyboard-response","308","240081","0.0-6.0-0.151","SAST","1","f","links","18","","fixation","","","",""
"759","img/120_150.png","74","image-keyboard-response","309","240842","0.0-6.0-1.151","SAST","1","f","links","18","","","self","f","120","false"
"null","<div style=""font-size:60px;"">+</div>","null","html-keyboard-response","310","241193","0.0-6.0-0.152","SAST","1","f","links","18","","fixation","","","",""
"846","img/0_240.png","70","image-keyboard-response","311","242040","0.0-6.0-1.152","SAST","1","f","links","18","","","self","f","0","true"
"null","<div style=""font-size:60px;"">+</div>","null","html-keyboard-response","312","242542","0.0-6.0-0.153","SAST","1","f","links","18","","fixation","","","",""
"915","img/120_90.png","74","image-keyboard-response","313","243457","0.0-6.0-1.153","SAST","1","f","links","18","","","self","f","120","false"
"null","<div style=""font-size:60px;"">+</div>","null","html-keyboard-response","314","243859","0.0-6.0-0.154","SAST","1","f","links","18","","fixation","","","",""
"802","img/150_90.png","74","image-keyboard-response","315","244661","0.0-6.0-1.154","SAST","1","f","links","18","","","self","f","150","false"
"null","<div style=""font-size:60px;"">+</div>","null","html-keyboard-response","316","245162","0.0-6.0-0.155","SAST","1","f","links","18","","fixation","","","",""
"731","img/0_270.png","70","image-keyboard-response","317","245894","0.0-6.0-1.155","SAST","1","f","links","18","","","self","f","0","true"
"null","<div style=""font-size:60px;"">+</div>","null","html-keyboard-response","318","246196","0.0-6.0-0.156","SAST","1","f","links","18","","fixation","","","",""
"819","img/90_60.png","74","image-keyboard-response","319","247016","0.0-6.0-1.156","SAST","1","f","links","18","","","self","j","90","true"
"null","<div style=""font-size:60px;"">+</div>","null","html-keyboard-response","320","247518","0.0-6.0-0.157","SAST","1","f","links","18","","fixation","","","",""
"924","img/150_270.png","70","image-keyboard-response","321","248444","0.0-6.0-1.157","SAST","1","f","links","18","","","self","j","150","false"
"null","<div style=""font-size:60px;"">+</div>","null","html-keyboard-response","322","248946","0.0-6.0-0.158","SAST","1","f","links","18","","fixation","","","",""
"850","img/0_330.png","70","image-keyboard-response","323","249797","0.0-6.0-1.158","SAST","1","f","links","18","","","self","f","0","true"
"null","<div style=""font-size:60px;"">+</div>","null","html-keyboard-response","324","250248","0.0-6.0-0.159","SAST","1","f","links","18","","fixation","","","",""
"809","img/0_270.png","70","image-keyboard-response","325","251059","0.0-6.0-1.159","SAST","1","f","links","18","","","self","f","0","true"
"null","<div style=""font-size:60px;"">+</div>","null","html-keyboard-response","326","251510","0.0-6.0-0.160","SAST","1","f","links","18","","fixation","","","",""
"676","img/60_330.png","70","image-keyboard-response","327","252188","0.0-6.0-1.160","SAST","1","f","links","18","","","self","f","60","true"
"null","<div style=""font-size:60px;"">+</div>","null","html-keyboard-response","328","252540","0.0-6.0-0.161","SAST","1","f","links","18","","fixation","","","",""
"949","img/120_210.png","70","image-keyboard-response","329","253489","0.0-6.0-1.161","SAST","1","f","links","18","","","self","j","120","false"
"null","<div style=""font-size:60px;"">+</div>","null","html-keyboard-response","330","253991","0.0-6.0-0.162","SAST","1","f","links","18","","fixation","","","",""
"594","img/60_30.png","74","image-keyboard-response","331","254587","0.0-6.0-1.162","SAST","1","f","links","18","","","self","j","60","true"
"null","<div style=""font-size:60px;"">+</div>","null","html-keyboard-response","332","255088","0.0-6.0-0.163","SAST","1","f","links","18","","fixation","","","",""
"931","img/30_60.png","74","image-keyboard-response","333","256021","0.0-6.0-1.163","SAST","1","f","links","18","","","self","j","30","true"
"null","<div style=""font-size:60px;"">+</div>","null","html-keyboard-response","334","256422","0.0-6.0-0.164","SAST","1","f","links","18","","fixation","","","",""
"836","img/90_120.png","74","image-keyboard-response","335","257259","0.0-6.0-1.164","SAST","1","f","links","18","","","self","f","90","false"
"null","<div style=""font-size:60px;"">+</div>","null","html-keyboard-response","336","257661","0.0-6.0-0.165","SAST","1","f","links","18","","fixation","","","",""
"1083","img/90_150.png","74","image-keyboard-response","337","258745","0.0-6.0-1.165","SAST","1","f","links","18","","","self","f","90","false"
"null","<div style=""font-size:60px;"">+</div>","null","html-keyboard-response","338","259147","0.0-6.0-0.166","SAST","1","f","links","18","","fixation","","","",""
"875","img/120_270.png","70","image-keyboard-response","339","260023","0.0-6.0-1.166","SAST","1","f","links","18","","","self","j","120","false"
"null","<div style=""font-size:60px;"">+</div>","null","html-keyboard-response","340","260325","0.0-6.0-0.167","SAST","1","f","links","18","","fixation","","","",""
"932","img/60_90.png","74","image-keyboard-response","341","261258","0.0-6.0-1.167","SAST","1","f","links","18","","","self","j","60","true"
"null","<div style=""font-size:60px;"">+</div>","null","html-keyboard-response","342","261710","0.0-6.0-0.168","SAST","1","f","links","18","","fixation","","","",""
"853","img/60_210.png","70","image-keyboard-response","343","262564","0.0-6.0-1.168","SAST","1","f","links","18","","","self","j","60","false"
"null","<div style=""font-size:60px;"">+</div>","null","html-keyboard-response","344","262966","0.0-6.0-0.169","SAST","1","f","links","18","","fixation","","","",""
"686","img/120_30.png","74","image-keyboard-response","345","263653","0.0-6.0-1.169","SAST","1","f","links","18","","","self","j","120","true"
"null","<div style=""font-size:60px;"">+</div>","null","html-keyboard-response","346","264055","0.0-6.0-0.170","SAST","1","f","links","18","","fixation","","","",""
"687","img/30_180.png","70","image-keyboard-response","347","264743","0.0-6.0-1.170","SAST","1","f","links","18","","","self","j","30","false"
"null","<div style=""font-size:60px;"">+</div>","null","html-keyboard-response","348","265095","0.0-6.0-0.171","SAST","1","f","links","18","","fixation","","","",""
"695","img/90_210.png","74","image-keyboard-response","349","265791","0.0-6.0-1.171","SAST","1","f","links","18","","","self","j","90","true"
"null","<div style=""font-size:60px;"">+</div>","null","html-keyboard-response","350","266093","0.0-6.0-0.172","SAST","1","f","links","18","","fixation","","","",""
"921","img/L150_180.png","70","image-keyboard-response","351","267014","0.0-6.0-1.172","SAST","1","f","links","18","","","self","f","150","true"
"null","<div style=""font-size:60px;"">+</div>","null","html-keyboard-response","352","267366","0.0-6.0-0.173","SAST","1","f","links","18","","fixation","","","",""
"644","img/90_330.png","74","image-keyboard-response","353","268011","0.0-6.0-1.173","SAST","1","f","links","18","","","self","f","90","false"
"null","<div style=""font-size:60px;"">+</div>","null","html-keyboard-response","354","268413","0.0-6.0-0.174","SAST","1","f","links","18","","fixation","","","",""
"891","img/30_270.png","70","image-keyboard-response","355","269305","0.0-6.0-1.174","SAST","1","f","links","18","","","self","f","30","true"
"null","<div style=""font-size:60px;"">+</div>","null","html-keyboard-response","356","269657","0.0-6.0-0.175","SAST","1","f","links","18","","fixation","","","",""
"876","img/0_60.png","74","image-keyboard-response","357","270533","0.0-6.0-1.175","SAST","1","f","links","18","","","self","j","0","true"
"null","<div style=""font-size:60px;"">+</div>","null","html-keyboard-response","358","271035","0.0-6.0-0.176","SAST","1","f","links","18","","fixation","","","",""
"814","img/90_300.png","70","image-keyboard-response","359","271850","0.0-6.0-1.176","SAST","1","f","links","18","","","self","f","90","true"
"null","<div style=""font-size:60px;"">+</div>","null","html-keyboard-response","360","272352","0.0-6.0-0.177","SAST","1","f","links","18","","fixation","","","",""
"818","img/0_120.png","74","image-keyboard-response","361","273171","0.0-6.0-1.177","SAST","1","f","links","18","","","self","j","0","true"
"null","<div style=""font-size:60px;"">+</div>","null","html-keyboard-response","362","273573","0.0-6.0-0.178","SAST","1","f","links","18","","fixation","","","",""
"741","img/0_210.png","70","image-keyboard-response","363","274315","0.0-6.0-1.178","SAST","1","f","links","18","","","self","f","0","true"
"null","<div style=""font-size:60px;"">+</div>","null","html-keyboard-response","364","274817","0.0-6.0-0.179","SAST","1","f","links","18","","fixation","","","",""
"837","img/150_180.png","74","image-keyboard-response","365","275654","0.0-6.0-1.179","SAST","1","f","links","18","","","self","j","150","true"
"null","<div style=""font-size:60px;"">+</div>","null","html-keyboard-response","366","276106","0.0-6.0-0.180","SAST","1","f","links","18","","fixation","","","",""
"829","img/90_180.png","70","image-keyboard-response","367","276935","0.0-6.0-1.180","SAST","1","f","links","18","","","self","j","90","false"
"null","<div style=""font-size:60px;"">+</div>","null","html-keyboard-response","368","277387","0.0-6.0-0.181","SAST","1","f","links","18","","fixation","","","",""
"838","img/120_150.png","74","image-keyboard-response","369","278226","0.0-6.0-1.181","SAST","1","f","links","18","","","self","f","120","false"
"null","<div style=""font-size:60px;"">+</div>","null","html-keyboard-response","370","278728","0.0-6.0-0.182","SAST","1","f","links","18","","fixation","","","",""
"753","img/0_300.png","70","image-keyboard-response","371","279482","0.0-6.0-1.182","SAST","1","f","links","18","","","self","f","0","true"
"null","<div style=""font-size:60px;"">+</div>","null","html-keyboard-response","372","279934","0.0-6.0-0.183","SAST","1","f","links","18","","fixation","","","",""
"802","img/120_180.png","70","image-keyboard-response","373","280736","0.0-6.0-1.183","SAST","1","f","links","18","","","self","j","120","false"
"null","<div style=""font-size:60px;"">+</div>","null","html-keyboard-response","374","281187","0.0-6.0-0.184","SAST","1","f","links","18","","fixation","","","",""
"739","img/L90_180.png","74","image-keyboard-response","375","281927","0.0-6.0-1.184","SAST","1","f","links","18","","","self","f","90","false"
"null","<div style=""font-size:60px;"">+</div>","null","html-keyboard-response","376","282279","0.0-6.0-0.185","SAST","1","f","links","18","","fixation","","","",""
"877","img/60_270.png","70","image-keyboard-response","377","283156","0.0-6.0-1.185","SAST","1","f","links","18","","","self","f","60","true"
"null","<div style=""font-size:60px;"">+</div>","null","html-keyboard-response","378","283508","0.0-6.0-0.186","SAST","1","f","links","18","","fixation","","","",""
"1261","img/30_90.png","74","image-keyboard-response","379","284769","0.0-6.0-1.186","SAST","1","f","links","18","","","self","j","30","true"
"null","<div style=""font-size:60px;"">+</div>","null","html-keyboard-response","380","285120","0.0-6.0-0.187","SAST","1","f","links","18","","fixation","","","",""
"937","img/150_300.png","74","image-keyboard-response","381","286058","0.0-6.0-1.187","SAST","1","f","links","18","","","self","j","150","true"
"null","<div style=""font-size:60px;"">+</div>","null","html-keyboard-response","382","286359","0.0-6.0-0.188","SAST","1","f","links","18","","fixation","","","",""
"782","img/0_90.png","74","image-keyboard-response","383","287142","0.0-6.0-1.188","SAST","1","f","links","18","","","self","j","0","true"
"null","<div style=""font-size:60px;"">+</div>","null","html-keyboard-response","384","287594","0.0-6.0-0.189","SAST","1","f","links","18","","fixation","","","",""
"748","img/150_60.png","74","image-keyboard-response","385","288342","0.0-6.0-1.189","SAST","1","f","links","18","","","self","f","150","false"
"null","<div style=""font-size:60px;"">+</div>","null","html-keyboard-response","386","288744","0.0-6.0-0.190","SAST","1","f","links","18","","fixation","","","",""
"677","img/0_240.png","70","image-keyboard-response","387","289421","0.0-6.0-1.190","SAST","1","f","links","18","","","self","f","0","true"
"null","<div style=""font-size:60px;"">+</div>","null","html-keyboard-response","388","289873","0.0-6.0-0.191","SAST","1","f","links","18","","fixation","","","",""
"627","img/90_30.png","74","image-keyboard-response","389","290500","0.0-6.0-1.191","SAST","1","f","links","18","","","self","j","90","true"
"null","<div style=""font-size:60px;"">+</div>","null","html-keyboard-response","390","290901","0.0-6.0-0.192","SAST","1","f","links","18","","fixation","","","",""
"771","img/0_150.png","74","image-keyboard-response","391","291673","0.0-6.0-1.192","SAST","1","f","links","18","","","self","j","0","true"
"null","<div style=""font-size:60px;"">+</div>","null","html-keyboard-response","392","292075","0.0-6.0-0.193","SAST","1","f","links","18","","fixation","","","",""
"1010","img/30_120.png","74","image-keyboard-response","393","293087","0.0-6.0-1.193","SAST","1","f","links","18","","","self","j","30","true"
"null","<div style=""font-size:60px;"">+</div>","null","html-keyboard-response","394","293538","0.0-6.0-0.194","SAST","1","f","links","18","","fixation","","","",""
"759","img/120_330.png","70","image-keyboard-response","395","294298","0.0-6.0-1.194","SAST","1","f","links","18","","","self","f","120","true"
"null","<div style=""font-size:60px;"">+</div>","null","html-keyboard-response","396","294650","0.0-6.0-0.195","SAST","1","f","links","18","","fixation","","","",""
"713","img/L60_180.png","74","image-keyboard-response","397","295363","0.0-6.0-1.195","SAST","1","f","links","18","","","self","f","60","false"
"null","<div style=""font-size:60px;"">+</div>","null","html-keyboard-response","398","295815","0.0-6.0-0.196","SAST","1","f","links","18","","fixation","","","",""
"824","img/60_150.png","74","image-keyboard-response","399","296640","0.0-6.0-1.196","SAST","1","f","links","18","","","self","f","60","false"
"null","<div style=""font-size:60px;"">+</div>","null","html-keyboard-response","400","297042","0.0-6.0-0.197","SAST","1","f","links","18","","fixation","","","",""
"1144","img/150_90.png","70","image-keyboard-response","401","298188","0.0-6.0-1.197","SAST","1","f","links","18","","","self","f","150","true"
"null","<div style=""font-size:60px;"">+</div>","null","html-keyboard-response","402","298639","0.0-6.0-0.198","SAST","1","f","links","18","","fixation","","","",""
"950","img/150_240.png","74","image-keyboard-response","403","299591","0.0-6.0-1.198","SAST","1","f","links","18","","","self","j","150","true"
"null","<div style=""font-size:60px;"">+</div>","null","html-keyboard-response","404","299992","0.0-6.0-0.199","SAST","1","f","links","18","","fixation","","","",""
"791","img/30_300.png","70","image-keyboard-response","405","300784","0.0-6.0-1.199","SAST","1","f","links","18","","","self","f","30","true"
"null","<div style=""font-size:60px;"">+</div>","null","html-keyboard-response","406","301236","0.0-6.0-0.200","SAST","1","f","links","18","","fixation","","","",""
"695","img/60_180.png","70","image-keyboard-response","407","301932","0.0-6.0-1.200","SAST","1","f","links","18","","","self","j","60","false"
"null","<div style=""font-size:60px;"">+</div>","null","html-keyboard-response","408","302233","0.0-6.0-0.201","SAST","1","f","links","18","","fixation","","","",""
"922","img/L120_180.png","74","image-keyboard-response","409","303156","0.0-6.0-1.201","SAST","1","f","links","18","","","self","f","120","false"
"null","<div style=""font-size:60px;"">+</div>","null","html-keyboard-response","410","303558","0.0-6.0-0.202","SAST","1","f","links","18","","fixation","","","",""
"629","img/90_240.png","70","image-keyboard-response","411","304189","0.0-6.0-1.202","SAST","1","f","links","18","","","self","j","90","false"
"null","<div style=""font-size:60px;"">+</div>","null","html-keyboard-response","412","304690","0.0-6.0-0.203","SAST","1","f","links","18","","fixation","","","",""
"725","img/0_30.png","74","image-keyboard-response","413","305416","0.0-6.0-1.203","SAST","1","f","links","18","","","self","j","0","true"
"null","<div style=""font-size:60px;"">+</div>","null","html-keyboard-response","414","305718","0.0-6.0-0.204","SAST","1","f","links","18","","fixation","","","",""
"870","img/L30_180.png","74","image-keyboard-response","415","306589","0.0-6.0-1.204","SAST","1","f","links","18","","","self","f","30","false"
"null","<div style=""font-size:60px;"">+</div>","null","html-keyboard-response","416","306891","0.0-6.0-0.205","SAST","1","f","links","18","","fixation","","","",""
"930","img/30_240.png","70","image-keyboard-response","417","307822","0.0-6.0-1.205","SAST","1","f","links","18","","","self","f","30","true"
"null","<div style=""font-size:60px;"">+</div>","null","html-keyboard-response","418","308324","0.0-6.0-0.206","SAST","1","f","links","18","","fixation","","","",""
"963","img/120_90.png","74","image-keyboard-response","419","309288","0.0-6.0-1.206","SAST","1","f","links","18","","","self","f","120","false"
"null","<div style=""font-size:60px;"">+</div>","null","html-keyboard-response","420","309740","0.0-6.0-0.207","SAST","1","f","links","18","","fixation","","","",""
"1109","img/150_120.png","74","image-keyboard-response","421","310850","0.0-6.0-1.207","SAST","1","f","links","18","","","self","f","150","false"
"14227","<p>Du hast in 53% der Versuche korrekt entschieden.</p><p>Deine durchschnittliche Reaktionszeit war  844ms.</p><p>Dr&uuml;cke eine beliebige Taste, um die Session zu beenden. Vielen Dank!</p>","72","html-keyboard-response","422","325079","0.0-7.0","SAST","1","f","links","18","","","","","",""
