"rt","stimulus","key_press","trial_type","trial_index","time_elapsed","internal_node_id","subject","session","sex","handedness","age","responses","test_part","condition","correct_response","angle","correct"
"2630","<p>Mental Rotation Experiment.</p> <p>Dr&uuml;cke eine beliebige Taste, um anzufangen.</p>","72","html-keyboard-response","0","2634","0.0-0.0","SAST","4","f","links","18","","","","","",""
"40768","","","survey-text","1","43404","0.0-1.0","SAST","4","f","links","18","{""Q0"":""SAST""}","","","","",""
"2237","","","survey-text","2","45644","0.0-2.0","SAST","4","f","links","18","{""Q0"":""4""}","","","","",""
"2987","","","survey-multi-choice","3","48634","0.0-3.0","SAST","4","f","links","18","{""Q0"":""f"",""Q1"":""links""}","","","","",""
"7647","","","survey-text","4","56281","0.0-4.0","SAST","4","f","links","18","{""Q0"":""18""}","","","","",""
"41816","<p> Stell dir vor, dass du vor einem runden Tisch stehst, auf dem sich ein blauer Ball am Tischrand befindet. Entlang des Tischrands ist jeweils ein verschieden langer Pfeil. Nun bewegst du dich entlang dieses Pfeils bis an seine Spitze. Wenn du am Ende des Pfeils angekommen bist, schau zur Tischmitte. </p> <img src='img/90_180.png'></img> <br> <p>Entscheide dann, ob der Ball von deiner neuen (vorgestellten) Position links oder rechts von dir liegt.</p> <p>Dr&uuml;cke die <strong>'f'</strong>-Taste f&uuml;r links, die <strong>'j'</strong>-Taste f&uuml;r rechts.</p> <br><p> Das Bild wird jeweils 1 Sekunde lang pr&auml;sentiert. Du hast 3 Sekunden Zeit eine Entscheidung zu treffen.</p>","74","html-keyboard-response","5","98101","0.0-5.0","SAST","4","f","links","18","","","","","",""
"null","<div style=""font-size:60px;"">+</div>","null","html-keyboard-response","6","99555","0.0-6.0-0.0","SAST","4","f","links","18","","fixation","","","",""
"910","img/0_30.png","74","image-keyboard-response","7","100466","0.0-6.0-1.0","SAST","4","f","links","18","","","self","j","0","true"
"null","<div style=""font-size:60px;"">+</div>","null","html-keyboard-response","8","100868","0.0-6.0-0.1","SAST","4","f","links","18","","fixation","","","",""
"1187","img/120_90.png","74","image-keyboard-response","9","102057","0.0-6.0-1.1","SAST","4","f","links","18","","","self","f","120","false"
"null","<div style=""font-size:60px;"">+</div>","null","html-keyboard-response","10","102559","0.0-6.0-0.2","SAST","4","f","links","18","","fixation","","","",""
"805","img/90_240.png","70","image-keyboard-response","11","103366","0.0-6.0-1.2","SAST","4","f","links","18","","","self","j","90","false"
"null","<div style=""font-size:60px;"">+</div>","null","html-keyboard-response","12","103817","0.0-6.0-0.3","SAST","4","f","links","18","","fixation","","","",""
"754","img/0_210.png","70","image-keyboard-response","13","104573","0.0-6.0-1.3","SAST","4","f","links","18","","","self","f","0","true"
"null","<div style=""font-size:60px;"">+</div>","null","html-keyboard-response","14","104974","0.0-6.0-0.4","SAST","4","f","links","18","","fixation","","","",""
"847","img/0_330.png","70","image-keyboard-response","15","105823","0.0-6.0-1.4","SAST","4","f","links","18","","","self","f","0","true"
"null","<div style=""font-size:60px;"">+</div>","null","html-keyboard-response","16","106274","0.0-6.0-0.5","SAST","4","f","links","18","","fixation","","","",""
"1072","img/120_180.png","70","image-keyboard-response","17","107349","0.0-6.0-1.5","SAST","4","f","links","18","","","self","j","120","false"
"null","<div style=""font-size:60px;"">+</div>","null","html-keyboard-response","18","107800","0.0-6.0-0.6","SAST","4","f","links","18","","fixation","","","",""
"781","img/90_330.png","70","image-keyboard-response","19","108582","0.0-6.0-1.6","SAST","4","f","links","18","","","self","f","90","true"
"null","<div style=""font-size:60px;"">+</div>","null","html-keyboard-response","20","109034","0.0-6.0-0.7","SAST","4","f","links","18","","fixation","","","",""
"950","img/60_270.png","74","image-keyboard-response","21","109985","0.0-6.0-1.7","SAST","4","f","links","18","","","self","f","60","false"
"null","<div style=""font-size:60px;"">+</div>","null","html-keyboard-response","22","110437","0.0-6.0-0.8","SAST","4","f","links","18","","fixation","","","",""
"857","img/L30_180.png","74","image-keyboard-response","23","111295","0.0-6.0-1.8","SAST","4","f","links","18","","","self","f","30","false"
"null","<div style=""font-size:60px;"">+</div>","null","html-keyboard-response","24","111797","0.0-6.0-0.9","SAST","4","f","links","18","","fixation","","","",""
"923","img/150_120.png","74","image-keyboard-response","25","112721","0.0-6.0-1.9","SAST","4","f","links","18","","","self","f","150","false"
"null","<div style=""font-size:60px;"">+</div>","null","html-keyboard-response","26","113223","0.0-6.0-0.10","SAST","4","f","links","18","","fixation","","","",""
"790","img/60_150.png","74","image-keyboard-response","27","114014","0.0-6.0-1.10","SAST","4","f","links","18","","","self","f","60","false"
"null","<div style=""font-size:60px;"">+</div>","null","html-keyboard-response","28","114416","0.0-6.0-0.11","SAST","4","f","links","18","","fixation","","","",""
"731","img/L120_180.png","74","image-keyboard-response","29","115148","0.0-6.0-1.11","SAST","4","f","links","18","","","self","f","120","false"
"null","<div style=""font-size:60px;"">+</div>","null","html-keyboard-response","30","115550","0.0-6.0-0.12","SAST","4","f","links","18","","fixation","","","",""
"864","img/0_90.png","74","image-keyboard-response","31","116415","0.0-6.0-1.12","SAST","4","f","links","18","","","self","j","0","true"
"null","<div style=""font-size:60px;"">+</div>","null","html-keyboard-response","32","116817","0.0-6.0-0.13","SAST","4","f","links","18","","fixation","","","",""
"1231","img/120_210.png","70","image-keyboard-response","33","118049","0.0-6.0-1.13","SAST","4","f","links","18","","","self","j","120","false"
"null","<div style=""font-size:60px;"">+</div>","null","html-keyboard-response","34","118551","0.0-6.0-0.14","SAST","4","f","links","18","","fixation","","","",""
"706","img/30_240.png","70","image-keyboard-response","35","119258","0.0-6.0-1.14","SAST","4","f","links","18","","","self","f","30","true"
"null","<div style=""font-size:60px;"">+</div>","null","html-keyboard-response","36","119660","0.0-6.0-0.15","SAST","4","f","links","18","","fixation","","","",""
"722","img/0_150.png","74","image-keyboard-response","37","120383","0.0-6.0-1.15","SAST","4","f","links","18","","","self","j","0","true"
"null","<div style=""font-size:60px;"">+</div>","null","html-keyboard-response","38","120834","0.0-6.0-0.16","SAST","4","f","links","18","","fixation","","","",""
"773","img/0_270.png","70","image-keyboard-response","39","121609","0.0-6.0-1.16","SAST","4","f","links","18","","","self","f","0","true"
"null","<div style=""font-size:60px;"">+</div>","null","html-keyboard-response","40","122011","0.0-6.0-0.17","SAST","4","f","links","18","","fixation","","","",""
"721","img/90_60.png","74","image-keyboard-response","41","122733","0.0-6.0-1.17","SAST","4","f","links","18","","","self","j","90","true"
"null","<div style=""font-size:60px;"">+</div>","null","html-keyboard-response","42","123135","0.0-6.0-0.18","SAST","4","f","links","18","","fixation","","","",""
"937","img/90_150.png","74","image-keyboard-response","43","124073","0.0-6.0-1.18","SAST","4","f","links","18","","","self","f","90","false"
"null","<div style=""font-size:60px;"">+</div>","null","html-keyboard-response","44","124475","0.0-6.0-0.19","SAST","4","f","links","18","","fixation","","","",""
"1086","img/150_180.png","70","image-keyboard-response","45","125562","0.0-6.0-1.19","SAST","4","f","links","18","","","self","j","150","false"
"null","<div style=""font-size:60px;"">+</div>","null","html-keyboard-response","46","125964","0.0-6.0-0.20","SAST","4","f","links","18","","fixation","","","",""
"815","img/60_210.png","70","image-keyboard-response","47","126780","0.0-6.0-1.20","SAST","4","f","links","18","","","self","j","60","false"
"null","<div style=""font-size:60px;"">+</div>","null","html-keyboard-response","48","127082","0.0-6.0-0.21","SAST","4","f","links","18","","fixation","","","",""
"686","img/120_30.png","74","image-keyboard-response","49","127769","0.0-6.0-1.21","SAST","4","f","links","18","","","self","j","120","true"
"null","<div style=""font-size:60px;"">+</div>","null","html-keyboard-response","50","128171","0.0-6.0-0.22","SAST","4","f","links","18","","fixation","","","",""
"725","img/90_180.png","70","image-keyboard-response","51","128897","0.0-6.0-1.22","SAST","4","f","links","18","","","self","j","90","false"
"null","<div style=""font-size:60px;"">+</div>","null","html-keyboard-response","52","129199","0.0-6.0-0.23","SAST","4","f","links","18","","fixation","","","",""
"786","img/60_330.png","74","image-keyboard-response","53","129986","0.0-6.0-1.23","SAST","4","f","links","18","","","self","f","60","false"
"null","<div style=""font-size:60px;"">+</div>","null","html-keyboard-response","54","130388","0.0-6.0-0.24","SAST","4","f","links","18","","fixation","","","",""
"1010","img/30_90.png","70","image-keyboard-response","55","131399","0.0-6.0-1.24","SAST","4","f","links","18","","","self","j","30","false"
"null","<div style=""font-size:60px;"">+</div>","null","html-keyboard-response","56","131851","0.0-6.0-0.25","SAST","4","f","links","18","","fixation","","","",""
"863","img/120_150.png","74","image-keyboard-response","57","132715","0.0-6.0-1.25","SAST","4","f","links","18","","","self","f","120","false"
"null","<div style=""font-size:60px;"">+</div>","null","html-keyboard-response","58","133067","0.0-6.0-0.26","SAST","4","f","links","18","","fixation","","","",""
"740","img/90_210.png","70","image-keyboard-response","59","133808","0.0-6.0-1.26","SAST","4","f","links","18","","","self","j","90","false"
"null","<div style=""font-size:60px;"">+</div>","null","html-keyboard-response","60","134210","0.0-6.0-0.27","SAST","4","f","links","18","","fixation","","","",""
"760","img/30_270.png","70","image-keyboard-response","61","134971","0.0-6.0-1.27","SAST","4","f","links","18","","","self","f","30","true"
"null","<div style=""font-size:60px;"">+</div>","null","html-keyboard-response","62","135273","0.0-6.0-0.28","SAST","4","f","links","18","","fixation","","","",""
"926","img/L90_180.png","74","image-keyboard-response","63","136202","0.0-6.0-1.28","SAST","4","f","links","18","","","self","f","90","false"
"null","<div style=""font-size:60px;"">+</div>","null","html-keyboard-response","64","136654","0.0-6.0-0.29","SAST","4","f","links","18","","fixation","","","",""
"857","img/150_300.png","70","image-keyboard-response","65","137512","0.0-6.0-1.29","SAST","4","f","links","18","","","self","j","150","false"
"null","<div style=""font-size:60px;"">+</div>","null","html-keyboard-response","66","137814","0.0-6.0-0.30","SAST","4","f","links","18","","fixation","","","",""
"814","img/0_300.png","70","image-keyboard-response","67","138629","0.0-6.0-1.30","SAST","4","f","links","18","","","self","f","0","true"
"null","<div style=""font-size:60px;"">+</div>","null","html-keyboard-response","68","139081","0.0-6.0-0.31","SAST","4","f","links","18","","fixation","","","",""
"783","img/L150_180.png","74","image-keyboard-response","69","139865","0.0-6.0-1.31","SAST","4","f","links","18","","","self","f","150","false"
"null","<div style=""font-size:60px;"">+</div>","null","html-keyboard-response","70","140317","0.0-6.0-0.32","SAST","4","f","links","18","","fixation","","","",""
"725","img/30_120.png","74","image-keyboard-response","71","141043","0.0-6.0-1.32","SAST","4","f","links","18","","","self","j","30","true"
"null","<div style=""font-size:60px;"">+</div>","null","html-keyboard-response","72","141395","0.0-6.0-0.33","SAST","4","f","links","18","","fixation","","","",""
"704","img/0_240.png","70","image-keyboard-response","73","142101","0.0-6.0-1.33","SAST","4","f","links","18","","","self","f","0","true"
"null","<div style=""font-size:60px;"">+</div>","null","html-keyboard-response","74","142402","0.0-6.0-0.34","SAST","4","f","links","18","","fixation","","","",""
"708","img/0_60.png","74","image-keyboard-response","75","143113","0.0-6.0-1.34","SAST","4","f","links","18","","","self","j","0","true"
"null","<div style=""font-size:60px;"">+</div>","null","html-keyboard-response","76","143414","0.0-6.0-0.35","SAST","4","f","links","18","","fixation","","","",""
"875","img/90_300.png","70","image-keyboard-response","77","144291","0.0-6.0-1.35","SAST","4","f","links","18","","","self","f","90","true"
"null","<div style=""font-size:60px;"">+</div>","null","html-keyboard-response","78","144592","0.0-6.0-0.36","SAST","4","f","links","18","","fixation","","","",""
"1064","img/120_330.png","70","image-keyboard-response","79","145657","0.0-6.0-1.36","SAST","4","f","links","18","","","self","f","120","true"
"null","<div style=""font-size:60px;"">+</div>","null","html-keyboard-response","80","146009","0.0-6.0-0.37","SAST","4","f","links","18","","fixation","","","",""
"909","img/60_30.png","74","image-keyboard-response","81","146919","0.0-6.0-1.37","SAST","4","f","links","18","","","self","j","60","true"
"null","<div style=""font-size:60px;"">+</div>","null","html-keyboard-response","82","147273","0.0-6.0-0.38","SAST","4","f","links","18","","fixation","","","",""
"840","img/60_180.png","74","image-keyboard-response","83","148114","0.0-6.0-1.38","SAST","4","f","links","18","","","self","j","60","true"
"null","<div style=""font-size:60px;"">+</div>","null","html-keyboard-response","84","148466","0.0-6.0-0.39","SAST","4","f","links","18","","fixation","","","",""
"881","img/150_60.png","70","image-keyboard-response","85","149348","0.0-6.0-1.39","SAST","4","f","links","18","","","self","f","150","true"
"null","<div style=""font-size:60px;"">+</div>","null","html-keyboard-response","86","149750","0.0-6.0-0.40","SAST","4","f","links","18","","fixation","","","",""
"627","img/0_120.png","74","image-keyboard-response","87","150378","0.0-6.0-1.40","SAST","4","f","links","18","","","self","j","0","true"
"null","<div style=""font-size:60px;"">+</div>","null","html-keyboard-response","88","150880","0.0-6.0-0.41","SAST","4","f","links","18","","fixation","","","",""
"562","img/90_30.png","74","image-keyboard-response","89","151444","0.0-6.0-1.41","SAST","4","f","links","18","","","self","j","90","true"
"null","<div style=""font-size:60px;"">+</div>","null","html-keyboard-response","90","151845","0.0-6.0-0.42","SAST","4","f","links","18","","fixation","","","",""
"932","img/150_90.png","74","image-keyboard-response","91","152780","0.0-6.0-1.42","SAST","4","f","links","18","","","self","f","150","false"
"null","<div style=""font-size:60px;"">+</div>","null","html-keyboard-response","92","153231","0.0-6.0-0.43","SAST","4","f","links","18","","fixation","","","",""
"1003","img/30_60.png","70","image-keyboard-response","93","154236","0.0-6.0-1.43","SAST","4","f","links","18","","","self","j","30","false"
"null","<div style=""font-size:60px;"">+</div>","null","html-keyboard-response","94","154638","0.0-6.0-0.44","SAST","4","f","links","18","","fixation","","","",""
"891","img/L60_180.png","70","image-keyboard-response","95","155530","0.0-6.0-1.44","SAST","4","f","links","18","","","self","f","60","true"
"null","<div style=""font-size:60px;"">+</div>","null","html-keyboard-response","96","155832","0.0-6.0-0.45","SAST","4","f","links","18","","fixation","","","",""
"882","img/30_180.png","74","image-keyboard-response","97","156715","0.0-6.0-1.45","SAST","4","f","links","18","","","self","j","30","true"
"null","<div style=""font-size:60px;"">+</div>","null","html-keyboard-response","98","157217","0.0-6.0-0.46","SAST","4","f","links","18","","fixation","","","",""
"927","img/60_90.png","74","image-keyboard-response","99","158145","0.0-6.0-1.46","SAST","4","f","links","18","","","self","j","60","true"
"null","<div style=""font-size:60px;"">+</div>","null","html-keyboard-response","100","158547","0.0-6.0-0.47","SAST","4","f","links","18","","fixation","","","",""
"1282","img/150_240.png","70","image-keyboard-response","101","159830","0.0-6.0-1.47","SAST","4","f","links","18","","","self","j","150","false"
"null","<div style=""font-size:60px;"">+</div>","null","html-keyboard-response","102","160132","0.0-6.0-0.48","SAST","4","f","links","18","","fixation","","","",""
"800","img/90_120.png","70","image-keyboard-response","103","160933","0.0-6.0-1.48","SAST","4","f","links","18","","","self","f","90","true"
"null","<div style=""font-size:60px;"">+</div>","null","html-keyboard-response","104","161385","0.0-6.0-0.49","SAST","4","f","links","18","","fixation","","","",""
"963","img/150_270.png","70","image-keyboard-response","105","162350","0.0-6.0-1.49","SAST","4","f","links","18","","","self","j","150","false"
"null","<div style=""font-size:60px;"">+</div>","null","html-keyboard-response","106","162752","0.0-6.0-0.50","SAST","4","f","links","18","","fixation","","","",""
"733","img/120_270.png","70","image-keyboard-response","107","163487","0.0-6.0-1.50","SAST","4","f","links","18","","","self","j","120","false"
"null","<div style=""font-size:60px;"">+</div>","null","html-keyboard-response","108","163889","0.0-6.0-0.51","SAST","4","f","links","18","","fixation","","","",""
"839","img/30_300.png","70","image-keyboard-response","109","164729","0.0-6.0-1.51","SAST","4","f","links","18","","","self","f","30","true"
"null","<div style=""font-size:60px;"">+</div>","null","html-keyboard-response","110","165031","0.0-6.0-0.52","SAST","4","f","links","18","","fixation","","","",""
"774","img/0_240.png","70","image-keyboard-response","111","165806","0.0-6.0-1.52","SAST","4","f","links","18","","","self","f","0","true"
"null","<div style=""font-size:60px;"">+</div>","null","html-keyboard-response","112","166308","0.0-6.0-0.53","SAST","4","f","links","18","","fixation","","","",""
"711","img/120_90.png","74","image-keyboard-response","113","167020","0.0-6.0-1.53","SAST","4","f","links","18","","","self","f","120","false"
"null","<div style=""font-size:60px;"">+</div>","null","html-keyboard-response","114","167472","0.0-6.0-0.54","SAST","4","f","links","18","","fixation","","","",""
"946","img/0_300.png","70","image-keyboard-response","115","168419","0.0-6.0-1.54","SAST","4","f","links","18","","","self","f","0","true"
"null","<div style=""font-size:60px;"">+</div>","null","html-keyboard-response","116","168871","0.0-6.0-0.55","SAST","4","f","links","18","","fixation","","","",""
"849","img/150_180.png","70","image-keyboard-response","117","169721","0.0-6.0-1.55","SAST","4","f","links","18","","","self","j","150","false"
"null","<div style=""font-size:60px;"">+</div>","null","html-keyboard-response","118","170123","0.0-6.0-0.56","SAST","4","f","links","18","","fixation","","","",""
"774","img/60_150.png","74","image-keyboard-response","119","170897","0.0-6.0-1.56","SAST","4","f","links","18","","","self","f","60","false"
"null","<div style=""font-size:60px;"">+</div>","null","html-keyboard-response","120","171200","0.0-6.0-0.57","SAST","4","f","links","18","","fixation","","","",""
"868","img/150_270.png","70","image-keyboard-response","121","172068","0.0-6.0-1.57","SAST","4","f","links","18","","","self","j","150","false"
"null","<div style=""font-size:60px;"">+</div>","null","html-keyboard-response","122","172520","0.0-6.0-0.58","SAST","4","f","links","18","","fixation","","","",""
"853","img/150_120.png","74","image-keyboard-response","123","173374","0.0-6.0-1.58","SAST","4","f","links","18","","","self","f","150","false"
"null","<div style=""font-size:60px;"">+</div>","null","html-keyboard-response","124","173776","0.0-6.0-0.59","SAST","4","f","links","18","","fixation","","","",""
"1074","img/30_90.png","74","image-keyboard-response","125","174851","0.0-6.0-1.59","SAST","4","f","links","18","","","self","j","30","true"
"null","<div style=""font-size:60px;"">+</div>","null","html-keyboard-response","126","175303","0.0-6.0-0.60","SAST","4","f","links","18","","fixation","","","",""
"1143","img/150_90.png","70","image-keyboard-response","127","176447","0.0-6.0-1.60","SAST","4","f","links","18","","","self","f","150","true"
"null","<div style=""font-size:60px;"">+</div>","null","html-keyboard-response","128","176749","0.0-6.0-0.61","SAST","4","f","links","18","","fixation","","","",""
"1114","img/60_90.png","74","image-keyboard-response","129","177864","0.0-6.0-1.61","SAST","4","f","links","18","","","self","j","60","true"
"null","<div style=""font-size:60px;"">+</div>","null","html-keyboard-response","130","178366","0.0-6.0-0.62","SAST","4","f","links","18","","fixation","","","",""
"1186","img/90_210.png","74","image-keyboard-response","131","179553","0.0-6.0-1.62","SAST","4","f","links","18","","","self","j","90","true"
"null","<div style=""font-size:60px;"">+</div>","null","html-keyboard-response","132","179955","0.0-6.0-0.63","SAST","4","f","links","18","","fixation","","","",""
"1186","img/0_210.png","74","image-keyboard-response","133","181142","0.0-6.0-1.63","SAST","4","f","links","18","","","self","f","0","false"
"null","<div style=""font-size:60px;"">+</div>","null","html-keyboard-response","134","181493","0.0-6.0-0.64","SAST","4","f","links","18","","fixation","","","",""
"960","img/60_210.png","70","image-keyboard-response","135","182454","0.0-6.0-1.64","SAST","4","f","links","18","","","self","j","60","false"
"null","<div style=""font-size:60px;"">+</div>","null","html-keyboard-response","136","182956","0.0-6.0-0.65","SAST","4","f","links","18","","fixation","","","",""
"1070","img/150_300.png","70","image-keyboard-response","137","184026","0.0-6.0-1.65","SAST","4","f","links","18","","","self","j","150","false"
"null","<div style=""font-size:60px;"">+</div>","null","html-keyboard-response","138","184428","0.0-6.0-0.66","SAST","4","f","links","18","","fixation","","","",""
"849","img/60_330.png","70","image-keyboard-response","139","185278","0.0-6.0-1.66","SAST","4","f","links","18","","","self","f","60","true"
"null","<div style=""font-size:60px;"">+</div>","null","html-keyboard-response","140","185632","0.0-6.0-0.67","SAST","4","f","links","18","","fixation","","","",""
"986","img/90_120.png","74","image-keyboard-response","141","186618","0.0-6.0-1.67","SAST","4","f","links","18","","","self","f","90","false"
"null","<div style=""font-size:60px;"">+</div>","null","html-keyboard-response","142","186970","0.0-6.0-0.68","SAST","4","f","links","18","","fixation","","","",""
"830","img/90_150.png","74","image-keyboard-response","143","187801","0.0-6.0-1.68","SAST","4","f","links","18","","","self","f","90","false"
"null","<div style=""font-size:60px;"">+</div>","null","html-keyboard-response","144","188253","0.0-6.0-0.69","SAST","4","f","links","18","","fixation","","","",""
"939","img/60_270.png","70","image-keyboard-response","145","189193","0.0-6.0-1.69","SAST","4","f","links","18","","","self","f","60","true"
"null","<div style=""font-size:60px;"">+</div>","null","html-keyboard-response","146","189494","0.0-6.0-0.70","SAST","4","f","links","18","","fixation","","","",""
"723","img/0_270.png","70","image-keyboard-response","147","190218","0.0-6.0-1.70","SAST","4","f","links","18","","","self","f","0","true"
"null","<div style=""font-size:60px;"">+</div>","null","html-keyboard-response","148","190519","0.0-6.0-0.71","SAST","4","f","links","18","","fixation","","","",""
"1065","img/150_240.png","70","image-keyboard-response","149","191585","0.0-6.0-1.71","SAST","4","f","links","18","","","self","j","150","false"
"null","<div style=""font-size:60px;"">+</div>","null","html-keyboard-response","150","191986","0.0-6.0-0.72","SAST","4","f","links","18","","fixation","","","",""
"992","img/90_300.png","70","image-keyboard-response","151","192979","0.0-6.0-1.72","SAST","4","f","links","18","","","self","f","90","true"
"null","<div style=""font-size:60px;"">+</div>","null","html-keyboard-response","152","193432","0.0-6.0-0.73","SAST","4","f","links","18","","fixation","","","",""
"951","img/90_330.png","74","image-keyboard-response","153","194383","0.0-6.0-1.73","SAST","4","f","links","18","","","self","f","90","false"
"null","<div style=""font-size:60px;"">+</div>","null","html-keyboard-response","154","194685","0.0-6.0-0.74","SAST","4","f","links","18","","fixation","","","",""
"1055","img/30_270.png","70","image-keyboard-response","155","195741","0.0-6.0-1.74","SAST","4","f","links","18","","","self","f","30","true"
"null","<div style=""font-size:60px;"">+</div>","null","html-keyboard-response","156","196143","0.0-6.0-0.75","SAST","4","f","links","18","","fixation","","","",""
"865","img/L60_180.png","74","image-keyboard-response","157","197008","0.0-6.0-1.75","SAST","4","f","links","18","","","self","f","60","false"
"null","<div style=""font-size:60px;"">+</div>","null","html-keyboard-response","158","197309","0.0-6.0-0.76","SAST","4","f","links","18","","fixation","","","",""
"1109","img/120_330.png","70","image-keyboard-response","159","198419","0.0-6.0-1.76","SAST","4","f","links","18","","","self","f","120","true"
"null","<div style=""font-size:60px;"">+</div>","null","html-keyboard-response","160","198771","0.0-6.0-0.77","SAST","4","f","links","18","","fixation","","","",""
"839","img/0_90.png","74","image-keyboard-response","161","199611","0.0-6.0-1.77","SAST","4","f","links","18","","","self","j","0","true"
"null","<div style=""font-size:60px;"">+</div>","null","html-keyboard-response","162","199963","0.0-6.0-0.78","SAST","4","f","links","18","","fixation","","","",""
"1127","img/L120_180.png","74","image-keyboard-response","163","201092","0.0-6.0-1.78","SAST","4","f","links","18","","","self","f","120","false"
"null","<div style=""font-size:60px;"">+</div>","null","html-keyboard-response","164","201493","0.0-6.0-0.79","SAST","4","f","links","18","","fixation","","","",""
"1081","img/150_60.png","74","image-keyboard-response","165","202575","0.0-6.0-1.79","SAST","4","f","links","18","","","self","f","150","false"
"null","<div style=""font-size:60px;"">+</div>","null","html-keyboard-response","166","202927","0.0-6.0-0.80","SAST","4","f","links","18","","fixation","","","",""
"950","img/90_60.png","74","image-keyboard-response","167","203877","0.0-6.0-1.80","SAST","4","f","links","18","","","self","j","90","true"
"null","<div style=""font-size:60px;"">+</div>","null","html-keyboard-response","168","204229","0.0-6.0-0.81","SAST","4","f","links","18","","fixation","","","",""
"1149","img/L30_180.png","74","image-keyboard-response","169","205378","0.0-6.0-1.81","SAST","4","f","links","18","","","self","f","30","false"
"null","<div style=""font-size:60px;"">+</div>","null","html-keyboard-response","170","205729","0.0-6.0-0.82","SAST","4","f","links","18","","fixation","","","",""
"1093","img/L150_180.png","74","image-keyboard-response","171","206823","0.0-6.0-1.82","SAST","4","f","links","18","","","self","f","150","false"
"null","<div style=""font-size:60px;"">+</div>","null","html-keyboard-response","172","207175","0.0-6.0-0.83","SAST","4","f","links","18","","fixation","","","",""
"755","img/0_60.png","74","image-keyboard-response","173","207932","0.0-6.0-1.83","SAST","4","f","links","18","","","self","j","0","true"
"null","<div style=""font-size:60px;"">+</div>","null","html-keyboard-response","174","208234","0.0-6.0-0.84","SAST","4","f","links","18","","fixation","","","",""
"1072","img/90_180.png","70","image-keyboard-response","175","209307","0.0-6.0-1.84","SAST","4","f","links","18","","","self","j","90","false"
"null","<div style=""font-size:60px;"">+</div>","null","html-keyboard-response","176","209758","0.0-6.0-0.85","SAST","4","f","links","18","","fixation","","","",""
"937","img/0_120.png","74","image-keyboard-response","177","210696","0.0-6.0-1.85","SAST","4","f","links","18","","","self","j","0","true"
"null","<div style=""font-size:60px;"">+</div>","null","html-keyboard-response","178","210998","0.0-6.0-0.86","SAST","4","f","links","18","","fixation","","","",""
"940","img/0_330.png","70","image-keyboard-response","179","211938","0.0-6.0-1.86","SAST","4","f","links","18","","","self","f","0","true"
"null","<div style=""font-size:60px;"">+</div>","null","html-keyboard-response","180","212389","0.0-6.0-0.87","SAST","4","f","links","18","","fixation","","","",""
"953","img/90_240.png","70","image-keyboard-response","181","213344","0.0-6.0-1.87","SAST","4","f","links","18","","","self","j","90","false"
"null","<div style=""font-size:60px;"">+</div>","null","html-keyboard-response","182","213695","0.0-6.0-0.88","SAST","4","f","links","18","","fixation","","","",""
"825","img/30_240.png","70","image-keyboard-response","183","214521","0.0-6.0-1.88","SAST","4","f","links","18","","","self","f","30","true"
"null","<div style=""font-size:60px;"">+</div>","null","html-keyboard-response","184","215022","0.0-6.0-0.89","SAST","4","f","links","18","","fixation","","","",""
"817","img/30_180.png","70","image-keyboard-response","185","215840","0.0-6.0-1.89","SAST","4","f","links","18","","","self","j","30","false"
"null","<div style=""font-size:60px;"">+</div>","null","html-keyboard-response","186","216141","0.0-6.0-0.90","SAST","4","f","links","18","","fixation","","","",""
"1064","img/120_180.png","70","image-keyboard-response","187","217206","0.0-6.0-1.90","SAST","4","f","links","18","","","self","j","120","false"
"null","<div style=""font-size:60px;"">+</div>","null","html-keyboard-response","188","217558","0.0-6.0-0.91","SAST","4","f","links","18","","fixation","","","",""
"753","img/30_120.png","74","image-keyboard-response","189","218313","0.0-6.0-1.91","SAST","4","f","links","18","","","self","j","30","true"
"null","<div style=""font-size:60px;"">+</div>","null","html-keyboard-response","190","218665","0.0-6.0-0.92","SAST","4","f","links","18","","fixation","","","",""
"923","img/30_300.png","74","image-keyboard-response","191","219590","0.0-6.0-1.92","SAST","4","f","links","18","","","self","f","30","false"
"null","<div style=""font-size:60px;"">+</div>","null","html-keyboard-response","192","220091","0.0-6.0-0.93","SAST","4","f","links","18","","fixation","","","",""
"811","img/0_30.png","74","image-keyboard-response","193","220903","0.0-6.0-1.93","SAST","4","f","links","18","","","self","j","0","true"
"null","<div style=""font-size:60px;"">+</div>","null","html-keyboard-response","194","221204","0.0-6.0-0.94","SAST","4","f","links","18","","fixation","","","",""
"1110","img/0_150.png","74","image-keyboard-response","195","222316","0.0-6.0-1.94","SAST","4","f","links","18","","","self","j","0","true"
"null","<div style=""font-size:60px;"">+</div>","null","html-keyboard-response","196","222617","0.0-6.0-0.95","SAST","4","f","links","18","","fixation","","","",""
"1195","img/120_270.png","70","image-keyboard-response","197","223813","0.0-6.0-1.95","SAST","4","f","links","18","","","self","j","120","false"
"null","<div style=""font-size:60px;"">+</div>","null","html-keyboard-response","198","224315","0.0-6.0-0.96","SAST","4","f","links","18","","fixation","","","",""
"836","img/L90_180.png","74","image-keyboard-response","199","225152","0.0-6.0-1.96","SAST","4","f","links","18","","","self","f","90","false"
"null","<div style=""font-size:60px;"">+</div>","null","html-keyboard-response","200","225604","0.0-6.0-0.97","SAST","4","f","links","18","","fixation","","","",""
"681","img/60_30.png","74","image-keyboard-response","201","226287","0.0-6.0-1.97","SAST","4","f","links","18","","","self","j","60","true"
"null","<div style=""font-size:60px;"">+</div>","null","html-keyboard-response","202","226638","0.0-6.0-0.98","SAST","4","f","links","18","","fixation","","","",""
"737","img/60_180.png","70","image-keyboard-response","203","227379","0.0-6.0-1.98","SAST","4","f","links","18","","","self","j","60","false"
"null","<div style=""font-size:60px;"">+</div>","null","html-keyboard-response","204","227781","0.0-6.0-0.99","SAST","4","f","links","18","","fixation","","","",""
"707","img/120_150.png","74","image-keyboard-response","205","228490","0.0-6.0-1.99","SAST","4","f","links","18","","","self","f","120","false"
"null","<div style=""font-size:60px;"">+</div>","null","html-keyboard-response","206","228941","0.0-6.0-0.100","SAST","4","f","links","18","","fixation","","","",""
"855","img/120_30.png","74","image-keyboard-response","207","229797","0.0-6.0-1.100","SAST","4","f","links","18","","","self","j","120","true"
"null","<div style=""font-size:60px;"">+</div>","null","html-keyboard-response","208","230149","0.0-6.0-0.101","SAST","4","f","links","18","","fixation","","","",""
"869","img/30_60.png","74","image-keyboard-response","209","231020","0.0-6.0-1.101","SAST","4","f","links","18","","","self","j","30","true"
"null","<div style=""font-size:60px;"">+</div>","null","html-keyboard-response","210","231371","0.0-6.0-0.102","SAST","4","f","links","18","","fixation","","","",""
"819","img/120_210.png","70","image-keyboard-response","211","232192","0.0-6.0-1.102","SAST","4","f","links","18","","","self","j","120","false"
"null","<div style=""font-size:60px;"">+</div>","null","html-keyboard-response","212","232544","0.0-6.0-0.103","SAST","4","f","links","18","","fixation","","","",""
"752","img/90_30.png","74","image-keyboard-response","213","233297","0.0-6.0-1.103","SAST","4","f","links","18","","","self","j","90","true"
"null","<div style=""font-size:60px;"">+</div>","null","html-keyboard-response","214","233599","0.0-6.0-0.104","SAST","4","f","links","18","","fixation","","","",""
"861","img/60_330.png","74","image-keyboard-response","215","234462","0.0-6.0-1.104","SAST","4","f","links","18","","","self","f","60","false"
"null","<div style=""font-size:60px;"">+</div>","null","html-keyboard-response","216","234863","0.0-6.0-0.105","SAST","4","f","links","18","","fixation","","","",""
"1289","img/120_270.png","74","image-keyboard-response","217","236153","0.0-6.0-1.105","SAST","4","f","links","18","","","self","j","120","true"
"null","<div style=""font-size:60px;"">+</div>","null","html-keyboard-response","218","236505","0.0-6.0-0.106","SAST","4","f","links","18","","fixation","","","",""
"807","img/90_180.png","74","image-keyboard-response","219","237313","0.0-6.0-1.106","SAST","4","f","links","18","","","self","j","90","true"
"null","<div style=""font-size:60px;"">+</div>","null","html-keyboard-response","220","237715","0.0-6.0-0.107","SAST","4","f","links","18","","fixation","","","",""
"919","img/60_30.png","74","image-keyboard-response","221","238635","0.0-6.0-1.107","SAST","4","f","links","18","","","self","j","60","true"
"null","<div style=""font-size:60px;"">+</div>","null","html-keyboard-response","222","239087","0.0-6.0-0.108","SAST","4","f","links","18","","fixation","","","",""
"801","img/0_150.png","74","image-keyboard-response","223","239889","0.0-6.0-1.108","SAST","4","f","links","18","","","self","j","0","true"
"null","<div style=""font-size:60px;"">+</div>","null","html-keyboard-response","224","240341","0.0-6.0-0.109","SAST","4","f","links","18","","fixation","","","",""
"977","img/150_270.png","70","image-keyboard-response","225","241319","0.0-6.0-1.109","SAST","4","f","links","18","","","self","j","150","false"
"null","<div style=""font-size:60px;"">+</div>","null","html-keyboard-response","226","241671","0.0-6.0-0.110","SAST","4","f","links","18","","fixation","","","",""
"839","img/90_210.png","70","image-keyboard-response","227","242511","0.0-6.0-1.110","SAST","4","f","links","18","","","self","j","90","false"
"null","<div style=""font-size:60px;"">+</div>","null","html-keyboard-response","228","242813","0.0-6.0-0.111","SAST","4","f","links","18","","fixation","","","",""
"717","img/0_300.png","74","image-keyboard-response","229","243533","0.0-6.0-1.111","SAST","4","f","links","18","","","self","f","0","false"
"null","<div style=""font-size:60px;"">+</div>","null","html-keyboard-response","230","243985","0.0-6.0-0.112","SAST","4","f","links","18","","fixation","","","",""
"664","img/120_90.png","74","image-keyboard-response","231","244650","0.0-6.0-1.112","SAST","4","f","links","18","","","self","f","120","false"
"null","<div style=""font-size:60px;"">+</div>","null","html-keyboard-response","232","245102","0.0-6.0-0.113","SAST","4","f","links","18","","fixation","","","",""
"772","img/60_210.png","70","image-keyboard-response","233","245875","0.0-6.0-1.113","SAST","4","f","links","18","","","self","j","60","false"
"null","<div style=""font-size:60px;"">+</div>","null","html-keyboard-response","234","246327","0.0-6.0-0.114","SAST","4","f","links","18","","fixation","","","",""
"793","img/0_240.png","70","image-keyboard-response","235","247121","0.0-6.0-1.114","SAST","4","f","links","18","","","self","f","0","true"
"null","<div style=""font-size:60px;"">+</div>","null","html-keyboard-response","236","247423","0.0-6.0-0.115","SAST","4","f","links","18","","fixation","","","",""
"778","img/150_60.png","74","image-keyboard-response","237","248201","0.0-6.0-1.115","SAST","4","f","links","18","","","self","f","150","false"
"null","<div style=""font-size:60px;"">+</div>","null","html-keyboard-response","238","248603","0.0-6.0-0.116","SAST","4","f","links","18","","fixation","","","",""
"1235","img/150_90.png","74","image-keyboard-response","239","249839","0.0-6.0-1.116","SAST","4","f","links","18","","","self","f","150","false"
"null","<div style=""font-size:60px;"">+</div>","null","html-keyboard-response","240","250191","0.0-6.0-0.117","SAST","4","f","links","18","","fixation","","","",""
"888","img/90_330.png","70","image-keyboard-response","241","251079","0.0-6.0-1.117","SAST","4","f","links","18","","","self","f","90","true"
"null","<div style=""font-size:60px;"">+</div>","null","html-keyboard-response","242","251431","0.0-6.0-0.118","SAST","4","f","links","18","","fixation","","","",""
"1122","img/90_240.png","70","image-keyboard-response","243","252553","0.0-6.0-1.118","SAST","4","f","links","18","","","self","j","90","false"
"null","<div style=""font-size:60px;"">+</div>","null","html-keyboard-response","244","252906","0.0-6.0-0.119","SAST","4","f","links","18","","fixation","","","",""
"898","img/90_150.png","74","image-keyboard-response","245","253805","0.0-6.0-1.119","SAST","4","f","links","18","","","self","f","90","false"
"null","<div style=""font-size:60px;"">+</div>","null","html-keyboard-response","246","254157","0.0-6.0-0.120","SAST","4","f","links","18","","fixation","","","",""
"1133","img/90_30.png","70","image-keyboard-response","247","255290","0.0-6.0-1.120","SAST","4","f","links","18","","","self","j","90","false"
"null","<div style=""font-size:60px;"">+</div>","null","html-keyboard-response","248","255592","0.0-6.0-0.121","SAST","4","f","links","18","","fixation","","","",""
"794","img/30_240.png","70","image-keyboard-response","249","256386","0.0-6.0-1.121","SAST","4","f","links","18","","","self","f","30","true"
"null","<div style=""font-size:60px;"">+</div>","null","html-keyboard-response","250","256738","0.0-6.0-0.122","SAST","4","f","links","18","","fixation","","","",""
"975","img/L120_180.png","74","image-keyboard-response","251","257714","0.0-6.0-1.122","SAST","4","f","links","18","","","self","f","120","false"
"null","<div style=""font-size:60px;"">+</div>","null","html-keyboard-response","252","258217","0.0-6.0-0.123","SAST","4","f","links","18","","fixation","","","",""
"1056","img/60_150.png","74","image-keyboard-response","253","259275","0.0-6.0-1.123","SAST","4","f","links","18","","","self","f","60","false"
"null","<div style=""font-size:60px;"">+</div>","null","html-keyboard-response","254","259776","0.0-6.0-0.124","SAST","4","f","links","18","","fixation","","","",""
"1172","img/60_90.png","74","image-keyboard-response","255","260949","0.0-6.0-1.124","SAST","4","f","links","18","","","self","j","60","true"
"null","<div style=""font-size:60px;"">+</div>","null","html-keyboard-response","256","261350","0.0-6.0-0.125","SAST","4","f","links","18","","fixation","","","",""
"1113","img/30_120.png","74","image-keyboard-response","257","262465","0.0-6.0-1.125","SAST","4","f","links","18","","","self","j","30","true"
"null","<div style=""font-size:60px;"">+</div>","null","html-keyboard-response","258","262916","0.0-6.0-0.126","SAST","4","f","links","18","","fixation","","","",""
"1277","img/90_60.png","74","image-keyboard-response","259","264195","0.0-6.0-1.126","SAST","4","f","links","18","","","self","j","90","true"
"null","<div style=""font-size:60px;"">+</div>","null","html-keyboard-response","260","264496","0.0-6.0-0.127","SAST","4","f","links","18","","fixation","","","",""
"934","img/120_180.png","70","image-keyboard-response","261","265432","0.0-6.0-1.127","SAST","4","f","links","18","","","self","j","120","false"
"null","<div style=""font-size:60px;"">+</div>","null","html-keyboard-response","262","265933","0.0-6.0-0.128","SAST","4","f","links","18","","fixation","","","",""
"703","img/120_150.png","74","image-keyboard-response","263","266637","0.0-6.0-1.128","SAST","4","f","links","18","","","self","f","120","false"
"null","<div style=""font-size:60px;"">+</div>","null","html-keyboard-response","264","266988","0.0-6.0-0.129","SAST","4","f","links","18","","fixation","","","",""
"715","img/30_300.png","70","image-keyboard-response","265","267705","0.0-6.0-1.129","SAST","4","f","links","18","","","self","f","30","true"
"null","<div style=""font-size:60px;"">+</div>","null","html-keyboard-response","266","268107","0.0-6.0-0.130","SAST","4","f","links","18","","fixation","","","",""
"556","img/120_210.png","70","image-keyboard-response","267","268664","0.0-6.0-1.130","SAST","4","f","links","18","","","self","j","120","false"
"null","<div style=""font-size:60px;"">+</div>","null","html-keyboard-response","268","269166","0.0-6.0-0.131","SAST","4","f","links","18","","fixation","","","",""
"651","img/L90_180.png","74","image-keyboard-response","269","269818","0.0-6.0-1.131","SAST","4","f","links","18","","","self","f","90","false"
"null","<div style=""font-size:60px;"">+</div>","null","html-keyboard-response","270","270269","0.0-6.0-0.132","SAST","4","f","links","18","","fixation","","","",""
"749","img/150_300.png","70","image-keyboard-response","271","271020","0.0-6.0-1.132","SAST","4","f","links","18","","","self","j","150","false"
"null","<div style=""font-size:60px;"">+</div>","null","html-keyboard-response","272","271321","0.0-6.0-0.133","SAST","4","f","links","18","","fixation","","","",""
"1094","img/L150_180.png","74","image-keyboard-response","273","272416","0.0-6.0-1.133","SAST","4","f","links","18","","","self","f","150","false"
"null","<div style=""font-size:60px;"">+</div>","null","html-keyboard-response","274","272718","0.0-6.0-0.134","SAST","4","f","links","18","","fixation","","","",""
"1161","img/120_330.png","70","image-keyboard-response","275","273880","0.0-6.0-1.134","SAST","4","f","links","18","","","self","f","120","true"
"null","<div style=""font-size:60px;"">+</div>","null","html-keyboard-response","276","274331","0.0-6.0-0.135","SAST","4","f","links","18","","fixation","","","",""
"768","img/0_30.png","74","image-keyboard-response","277","275102","0.0-6.0-1.135","SAST","4","f","links","18","","","self","j","0","true"
"null","<div style=""font-size:60px;"">+</div>","null","html-keyboard-response","278","275454","0.0-6.0-0.136","SAST","4","f","links","18","","fixation","","","",""
"1110","img/150_180.png","70","image-keyboard-response","279","276566","0.0-6.0-1.136","SAST","4","f","links","18","","","self","j","150","false"
"null","<div style=""font-size:60px;"">+</div>","null","html-keyboard-response","280","277067","0.0-6.0-0.137","SAST","4","f","links","18","","fixation","","","",""
"948","img/60_270.png","74","image-keyboard-response","281","278017","0.0-6.0-1.137","SAST","4","f","links","18","","","self","f","60","false"
"null","<div style=""font-size:60px;"">+</div>","null","html-keyboard-response","282","278468","0.0-6.0-0.138","SAST","4","f","links","18","","fixation","","","",""
"774","img/0_90.png","74","image-keyboard-response","283","279243","0.0-6.0-1.138","SAST","4","f","links","18","","","self","j","0","true"
"null","<div style=""font-size:60px;"">+</div>","null","html-keyboard-response","284","279595","0.0-6.0-0.139","SAST","4","f","links","18","","fixation","","","",""
"905","img/0_270.png","70","image-keyboard-response","285","280502","0.0-6.0-1.139","SAST","4","f","links","18","","","self","f","0","true"
"null","<div style=""font-size:60px;"">+</div>","null","html-keyboard-response","286","280904","0.0-6.0-0.140","SAST","4","f","links","18","","fixation","","","",""
"928","img/90_300.png","70","image-keyboard-response","287","281833","0.0-6.0-1.140","SAST","4","f","links","18","","","self","f","90","true"
"null","<div style=""font-size:60px;"">+</div>","null","html-keyboard-response","288","282135","0.0-6.0-0.141","SAST","4","f","links","18","","fixation","","","",""
"784","img/150_240.png","70","image-keyboard-response","289","282920","0.0-6.0-1.141","SAST","4","f","links","18","","","self","j","150","false"
"null","<div style=""font-size:60px;"">+</div>","null","html-keyboard-response","290","283372","0.0-6.0-0.142","SAST","4","f","links","18","","fixation","","","",""
"874","img/90_120.png","74","image-keyboard-response","291","284247","0.0-6.0-1.142","SAST","4","f","links","18","","","self","f","90","false"
"null","<div style=""font-size:60px;"">+</div>","null","html-keyboard-response","292","284699","0.0-6.0-0.143","SAST","4","f","links","18","","fixation","","","",""
"1067","img/0_120.png","74","image-keyboard-response","293","285769","0.0-6.0-1.143","SAST","4","f","links","18","","","self","j","0","true"
"null","<div style=""font-size:60px;"">+</div>","null","html-keyboard-response","294","286270","0.0-6.0-0.144","SAST","4","f","links","18","","fixation","","","",""
"705","img/30_60.png","74","image-keyboard-response","295","286976","0.0-6.0-1.144","SAST","4","f","links","18","","","self","j","30","true"
"null","<div style=""font-size:60px;"">+</div>","null","html-keyboard-response","296","287378","0.0-6.0-0.145","SAST","4","f","links","18","","fixation","","","",""
"831","img/0_330.png","70","image-keyboard-response","297","288210","0.0-6.0-1.145","SAST","4","f","links","18","","","self","f","0","true"
"null","<div style=""font-size:60px;"">+</div>","null","html-keyboard-response","298","288662","0.0-6.0-0.146","SAST","4","f","links","18","","fixation","","","",""
"970","img/60_180.png","70","image-keyboard-response","299","289633","0.0-6.0-1.146","SAST","4","f","links","18","","","self","j","60","false"
"null","<div style=""font-size:60px;"">+</div>","null","html-keyboard-response","300","289935","0.0-6.0-0.147","SAST","4","f","links","18","","fixation","","","",""
"1066","img/0_210.png","70","image-keyboard-response","301","291005","0.0-6.0-1.147","SAST","4","f","links","18","","","self","f","0","true"
"null","<div style=""font-size:60px;"">+</div>","null","html-keyboard-response","302","291457","0.0-6.0-0.148","SAST","4","f","links","18","","fixation","","","",""
"661","img/0_60.png","74","image-keyboard-response","303","292119","0.0-6.0-1.148","SAST","4","f","links","18","","","self","j","0","true"
"null","<div style=""font-size:60px;"">+</div>","null","html-keyboard-response","304","292421","0.0-6.0-0.149","SAST","4","f","links","18","","fixation","","","",""
"982","img/120_30.png","74","image-keyboard-response","305","293404","0.0-6.0-1.149","SAST","4","f","links","18","","","self","j","120","true"
"null","<div style=""font-size:60px;"">+</div>","null","html-keyboard-response","306","293706","0.0-6.0-0.150","SAST","4","f","links","18","","fixation","","","",""
"917","img/30_180.png","70","image-keyboard-response","307","294623","0.0-6.0-1.150","SAST","4","f","links","18","","","self","j","30","false"
"null","<div style=""font-size:60px;"">+</div>","null","html-keyboard-response","308","295075","0.0-6.0-0.151","SAST","4","f","links","18","","fixation","","","",""
"951","img/150_120.png","74","image-keyboard-response","309","296027","0.0-6.0-1.151","SAST","4","f","links","18","","","self","f","150","false"
"null","<div style=""font-size:60px;"">+</div>","null","html-keyboard-response","310","296429","0.0-6.0-0.152","SAST","4","f","links","18","","fixation","","","",""
"1068","img/L60_180.png","74","image-keyboard-response","311","297498","0.0-6.0-1.152","SAST","4","f","links","18","","","self","f","60","false"
"null","<div style=""font-size:60px;"">+</div>","null","html-keyboard-response","312","297950","0.0-6.0-0.153","SAST","4","f","links","18","","fixation","","","",""
"961","img/30_90.png","74","image-keyboard-response","313","298912","0.0-6.0-1.153","SAST","4","f","links","18","","","self","j","30","true"
"null","<div style=""font-size:60px;"">+</div>","null","html-keyboard-response","314","299264","0.0-6.0-0.154","SAST","4","f","links","18","","fixation","","","",""
"1298","img/L30_180.png","74","image-keyboard-response","315","300562","0.0-6.0-1.154","SAST","4","f","links","18","","","self","f","30","false"
"null","<div style=""font-size:60px;"">+</div>","null","html-keyboard-response","316","301065","0.0-6.0-0.155","SAST","4","f","links","18","","fixation","","","",""
"1109","img/30_270.png","70","image-keyboard-response","317","302175","0.0-6.0-1.155","SAST","4","f","links","18","","","self","f","30","true"
"null","<div style=""font-size:60px;"">+</div>","null","html-keyboard-response","318","302677","0.0-6.0-0.156","SAST","4","f","links","18","","fixation","","","",""
"1339","img/150_90.png","74","image-keyboard-response","319","304017","0.0-6.0-1.156","SAST","4","f","links","18","","","self","f","150","false"
"null","<div style=""font-size:60px;"">+</div>","null","html-keyboard-response","320","304519","0.0-6.0-0.157","SAST","4","f","links","18","","fixation","","","",""
"958","img/90_120.png","74","image-keyboard-response","321","305477","0.0-6.0-1.157","SAST","4","f","links","18","","","self","f","90","false"
"null","<div style=""font-size:60px;"">+</div>","null","html-keyboard-response","322","305779","0.0-6.0-0.158","SAST","4","f","links","18","","fixation","","","",""
"1338","img/120_210.png","70","image-keyboard-response","323","307117","0.0-6.0-1.158","SAST","4","f","links","18","","","self","j","120","false"
"null","<div style=""font-size:60px;"">+</div>","null","html-keyboard-response","324","307620","0.0-6.0-0.159","SAST","4","f","links","18","","fixation","","","",""
"1192","img/60_210.png","74","image-keyboard-response","325","308813","0.0-6.0-1.159","SAST","4","f","links","18","","","self","j","60","true"
"null","<div style=""font-size:60px;"">+</div>","null","html-keyboard-response","326","309164","0.0-6.0-0.160","SAST","4","f","links","18","","fixation","","","",""
"1291","img/90_180.png","70","image-keyboard-response","327","310456","0.0-6.0-1.160","SAST","4","f","links","18","","","self","j","90","false"
"null","<div style=""font-size:60px;"">+</div>","null","html-keyboard-response","328","310907","0.0-6.0-0.161","SAST","4","f","links","18","","fixation","","","",""
"1006","img/90_330.png","70","image-keyboard-response","329","311915","0.0-6.0-1.161","SAST","4","f","links","18","","","self","f","90","true"
"null","<div style=""font-size:60px;"">+</div>","null","html-keyboard-response","330","312416","0.0-6.0-0.162","SAST","4","f","links","18","","fixation","","","",""
"1386","img/120_270.png","74","image-keyboard-response","331","313803","0.0-6.0-1.162","SAST","4","f","links","18","","","self","j","120","true"
"null","<div style=""font-size:60px;"">+</div>","null","html-keyboard-response","332","314105","0.0-6.0-0.163","SAST","4","f","links","18","","fixation","","","",""
"993","img/0_300.png","70","image-keyboard-response","333","315100","0.0-6.0-1.163","SAST","4","f","links","18","","","self","f","0","true"
"null","<div style=""font-size:60px;"">+</div>","null","html-keyboard-response","334","315552","0.0-6.0-0.164","SAST","4","f","links","18","","fixation","","","",""
"1079","img/60_150.png","74","image-keyboard-response","335","316633","0.0-6.0-1.164","SAST","4","f","links","18","","","self","f","60","false"
"null","<div style=""font-size:60px;"">+</div>","null","html-keyboard-response","336","317134","0.0-6.0-0.165","SAST","4","f","links","18","","fixation","","","",""
"1335","img/120_330.png","70","image-keyboard-response","337","318471","0.0-6.0-1.165","SAST","4","f","links","18","","","self","f","120","true"
"null","<div style=""font-size:60px;"">+</div>","null","html-keyboard-response","338","318922","0.0-6.0-0.166","SAST","4","f","links","18","","fixation","","","",""
"694","img/60_30.png","74","image-keyboard-response","339","319618","0.0-6.0-1.166","SAST","4","f","links","18","","","self","j","60","true"
"null","<div style=""font-size:60px;"">+</div>","null","html-keyboard-response","340","320021","0.0-6.0-0.167","SAST","4","f","links","18","","fixation","","","",""
"844","img/90_300.png","70","image-keyboard-response","341","320866","0.0-6.0-1.167","SAST","4","f","links","18","","","self","f","90","true"
"null","<div style=""font-size:60px;"">+</div>","null","html-keyboard-response","342","321217","0.0-6.0-0.168","SAST","4","f","links","18","","fixation","","","",""
"754","img/60_90.png","74","image-keyboard-response","343","321972","0.0-6.0-1.168","SAST","4","f","links","18","","","self","j","60","true"
"null","<div style=""font-size:60px;"">+</div>","null","html-keyboard-response","344","322274","0.0-6.0-0.169","SAST","4","f","links","18","","fixation","","","",""
"889","img/L150_180.png","74","image-keyboard-response","345","323165","0.0-6.0-1.169","SAST","4","f","links","18","","","self","f","150","false"
"null","<div style=""font-size:60px;"">+</div>","null","html-keyboard-response","346","323516","0.0-6.0-0.170","SAST","4","f","links","18","","fixation","","","",""
"703","img/90_60.png","74","image-keyboard-response","347","324221","0.0-6.0-1.170","SAST","4","f","links","18","","","self","j","90","true"
"null","<div style=""font-size:60px;"">+</div>","null","html-keyboard-response","348","324671","0.0-6.0-0.171","SAST","4","f","links","18","","fixation","","","",""
"968","img/120_180.png","70","image-keyboard-response","349","325641","0.0-6.0-1.171","SAST","4","f","links","18","","","self","j","120","false"
"null","<div style=""font-size:60px;"">+</div>","null","html-keyboard-response","350","326092","0.0-6.0-0.172","SAST","4","f","links","18","","fixation","","","",""
"711","img/120_90.png","74","image-keyboard-response","351","326806","0.0-6.0-1.172","SAST","4","f","links","18","","","self","f","120","false"
"null","<div style=""font-size:60px;"">+</div>","null","html-keyboard-response","352","327258","0.0-6.0-0.173","SAST","4","f","links","18","","fixation","","","",""
"713","img/0_120.png","74","image-keyboard-response","353","327972","0.0-6.0-1.173","SAST","4","f","links","18","","","self","j","0","true"
"null","<div style=""font-size:60px;"">+</div>","null","html-keyboard-response","354","328473","0.0-6.0-0.174","SAST","4","f","links","18","","fixation","","","",""
"705","img/0_270.png","70","image-keyboard-response","355","329180","0.0-6.0-1.174","SAST","4","f","links","18","","","self","f","0","true"
"null","<div style=""font-size:60px;"">+</div>","null","html-keyboard-response","356","329681","0.0-6.0-0.175","SAST","4","f","links","18","","fixation","","","",""
"735","img/0_330.png","70","image-keyboard-response","357","330418","0.0-6.0-1.175","SAST","4","f","links","18","","","self","f","0","true"
"null","<div style=""font-size:60px;"">+</div>","null","html-keyboard-response","358","330719","0.0-6.0-0.176","SAST","4","f","links","18","","fixation","","","",""
"790","img/L30_180.png","74","image-keyboard-response","359","331510","0.0-6.0-1.176","SAST","4","f","links","18","","","self","f","30","false"
"null","<div style=""font-size:60px;"">+</div>","null","html-keyboard-response","360","331863","0.0-6.0-0.177","SAST","4","f","links","18","","fixation","","","",""
"669","img/30_180.png","70","image-keyboard-response","361","332532","0.0-6.0-1.177","SAST","4","f","links","18","","","self","j","30","false"
"null","<div style=""font-size:60px;"">+</div>","null","html-keyboard-response","362","332934","0.0-6.0-0.178","SAST","4","f","links","18","","fixation","","","",""
"671","img/30_300.png","70","image-keyboard-response","363","333606","0.0-6.0-1.178","SAST","4","f","links","18","","","self","f","30","true"
"null","<div style=""font-size:60px;"">+</div>","null","html-keyboard-response","364","334058","0.0-6.0-0.179","SAST","4","f","links","18","","fixation","","","",""
"919","img/90_150.png","74","image-keyboard-response","365","334978","0.0-6.0-1.179","SAST","4","f","links","18","","","self","f","90","false"
"null","<div style=""font-size:60px;"">+</div>","null","html-keyboard-response","366","335330","0.0-6.0-0.180","SAST","4","f","links","18","","fixation","","","",""
"1086","img/150_270.png","70","image-keyboard-response","367","336417","0.0-6.0-1.180","SAST","4","f","links","18","","","self","j","150","false"
"null","<div style=""font-size:60px;"">+</div>","null","html-keyboard-response","368","336719","0.0-6.0-0.181","SAST","4","f","links","18","","fixation","","","",""
"716","img/0_30.png","74","image-keyboard-response","369","337436","0.0-6.0-1.181","SAST","4","f","links","18","","","self","j","0","true"
"null","<div style=""font-size:60px;"">+</div>","null","html-keyboard-response","370","337738","0.0-6.0-0.182","SAST","4","f","links","18","","fixation","","","",""
"722","img/90_210.png","70","image-keyboard-response","371","338462","0.0-6.0-1.182","SAST","4","f","links","18","","","self","j","90","false"
"null","<div style=""font-size:60px;"">+</div>","null","html-keyboard-response","372","338814","0.0-6.0-0.183","SAST","4","f","links","18","","fixation","","","",""
"708","img/0_90.png","74","image-keyboard-response","373","339524","0.0-6.0-1.183","SAST","4","f","links","18","","","self","j","0","true"
"null","<div style=""font-size:60px;"">+</div>","null","html-keyboard-response","374","339875","0.0-6.0-0.184","SAST","4","f","links","18","","fixation","","","",""
"1174","img/90_30.png","74","image-keyboard-response","375","341050","0.0-6.0-1.184","SAST","4","f","links","18","","","self","j","90","true"
"null","<div style=""font-size:60px;"">+</div>","null","html-keyboard-response","376","341402","0.0-6.0-0.185","SAST","4","f","links","18","","fixation","","","",""
"843","img/0_240.png","70","image-keyboard-response","377","342246","0.0-6.0-1.185","SAST","4","f","links","18","","","self","f","0","true"
"null","<div style=""font-size:60px;"">+</div>","null","html-keyboard-response","378","342698","0.0-6.0-0.186","SAST","4","f","links","18","","fixation","","","",""
"870","img/0_150.png","74","image-keyboard-response","379","343569","0.0-6.0-1.186","SAST","4","f","links","18","","","self","j","0","true"
"null","<div style=""font-size:60px;"">+</div>","null","html-keyboard-response","380","344021","0.0-6.0-0.187","SAST","4","f","links","18","","fixation","","","",""
"970","img/30_240.png","70","image-keyboard-response","381","344992","0.0-6.0-1.187","SAST","4","f","links","18","","","self","f","30","true"
"null","<div style=""font-size:60px;"">+</div>","null","html-keyboard-response","382","345395","0.0-6.0-0.188","SAST","4","f","links","18","","fixation","","","",""
"919","img/30_60.png","74","image-keyboard-response","383","346315","0.0-6.0-1.188","SAST","4","f","links","18","","","self","j","30","true"
"null","<div style=""font-size:60px;"">+</div>","null","html-keyboard-response","384","346666","0.0-6.0-0.189","SAST","4","f","links","18","","fixation","","","",""
"870","img/60_180.png","70","image-keyboard-response","385","347537","0.0-6.0-1.189","SAST","4","f","links","18","","","self","j","60","false"
"null","<div style=""font-size:60px;"">+</div>","null","html-keyboard-response","386","347839","0.0-6.0-0.190","SAST","4","f","links","18","","fixation","","","",""
"1106","img/120_150.png","74","image-keyboard-response","387","348946","0.0-6.0-1.190","SAST","4","f","links","18","","","self","f","120","false"
"null","<div style=""font-size:60px;"">+</div>","null","html-keyboard-response","388","349349","0.0-6.0-0.191","SAST","4","f","links","18","","fixation","","","",""
"1172","img/150_120.png","74","image-keyboard-response","389","350522","0.0-6.0-1.191","SAST","4","f","links","18","","","self","f","150","false"
"null","<div style=""font-size:60px;"">+</div>","null","html-keyboard-response","390","351024","0.0-6.0-0.192","SAST","4","f","links","18","","fixation","","","",""
"944","img/30_90.png","74","image-keyboard-response","391","351969","0.0-6.0-1.192","SAST","4","f","links","18","","","self","j","30","true"
"null","<div style=""font-size:60px;"">+</div>","null","html-keyboard-response","392","352421","0.0-6.0-0.193","SAST","4","f","links","18","","fixation","","","",""
"1144","img/150_60.png","74","image-keyboard-response","393","353566","0.0-6.0-1.193","SAST","4","f","links","18","","","self","f","150","false"
"null","<div style=""font-size:60px;"">+</div>","null","html-keyboard-response","394","353918","0.0-6.0-0.194","SAST","4","f","links","18","","fixation","","","",""
"1112","img/30_270.png","70","image-keyboard-response","395","355031","0.0-6.0-1.194","SAST","4","f","links","18","","","self","f","30","true"
"null","<div style=""font-size:60px;"">+</div>","null","html-keyboard-response","396","355483","0.0-6.0-0.195","SAST","4","f","links","18","","fixation","","","",""
"1003","img/150_180.png","74","image-keyboard-response","397","356487","0.0-6.0-1.195","SAST","4","f","links","18","","","self","j","150","true"
"null","<div style=""font-size:60px;"">+</div>","null","html-keyboard-response","398","356889","0.0-6.0-0.196","SAST","4","f","links","18","","fixation","","","",""
"803","img/L90_180.png","74","image-keyboard-response","399","357693","0.0-6.0-1.196","SAST","4","f","links","18","","","self","f","90","false"
"null","<div style=""font-size:60px;"">+</div>","null","html-keyboard-response","400","358045","0.0-6.0-0.197","SAST","4","f","links","18","","fixation","","","",""
"1075","img/90_240.png","70","image-keyboard-response","401","359122","0.0-6.0-1.197","SAST","4","f","links","18","","","self","j","90","false"
"null","<div style=""font-size:60px;"">+</div>","null","html-keyboard-response","402","359424","0.0-6.0-0.198","SAST","4","f","links","18","","fixation","","","",""
"952","img/0_210.png","70","image-keyboard-response","403","360378","0.0-6.0-1.198","SAST","4","f","links","18","","","self","f","0","true"
"null","<div style=""font-size:60px;"">+</div>","null","html-keyboard-response","404","360830","0.0-6.0-0.199","SAST","4","f","links","18","","fixation","","","",""
"1080","img/120_30.png","74","image-keyboard-response","405","361911","0.0-6.0-1.199","SAST","4","f","links","18","","","self","j","120","true"
"null","<div style=""font-size:60px;"">+</div>","null","html-keyboard-response","406","362262","0.0-6.0-0.200","SAST","4","f","links","18","","fixation","","","",""
"null","img/150_240.png","null","image-keyboard-response","407","365265","0.0-6.0-1.200","SAST","4","f","links","18","","","self","j","150","false"
"null","<div style=""font-size:60px;"">+</div>","null","html-keyboard-response","408","365716","0.0-6.0-0.201","SAST","4","f","links","18","","fixation","","","",""
"426","img/L60_180.png","74","image-keyboard-response","409","366144","0.0-6.0-1.201","SAST","4","f","links","18","","","self","f","60","false"
"null","<div style=""font-size:60px;"">+</div>","null","html-keyboard-response","410","366496","0.0-6.0-0.202","SAST","4","f","links","18","","fixation","","","",""
"1120","img/0_60.png","70","image-keyboard-response","411","367616","0.0-6.0-1.202","SAST","4","f","links","18","","","self","j","0","false"
"null","<div style=""font-size:60px;"">+</div>","null","html-keyboard-response","412","368068","0.0-6.0-0.203","SAST","4","f","links","18","","fixation","","","",""
"1090","img/30_120.png","74","image-keyboard-response","413","369159","0.0-6.0-1.203","SAST","4","f","links","18","","","self","j","30","true"
"null","<div style=""font-size:60px;"">+</div>","null","html-keyboard-response","414","369661","0.0-6.0-0.204","SAST","4","f","links","18","","fixation","","","",""
"905","img/L120_180.png","74","image-keyboard-response","415","370567","0.0-6.0-1.204","SAST","4","f","links","18","","","self","f","120","false"
"null","<div style=""font-size:60px;"">+</div>","null","html-keyboard-response","416","370969","0.0-6.0-0.205","SAST","4","f","links","18","","fixation","","","",""
"1082","img/60_330.png","70","image-keyboard-response","417","372052","0.0-6.0-1.205","SAST","4","f","links","18","","","self","f","60","true"
"null","<div style=""font-size:60px;"">+</div>","null","html-keyboard-response","418","372505","0.0-6.0-0.206","SAST","4","f","links","18","","fixation","","","",""
"1115","img/60_270.png","74","image-keyboard-response","419","373621","0.0-6.0-1.206","SAST","4","f","links","18","","","self","f","60","false"
"null","<div style=""font-size:60px;"">+</div>","null","html-keyboard-response","420","373923","0.0-6.0-0.207","SAST","4","f","links","18","","fixation","","","",""
"1125","img/150_300.png","74","image-keyboard-response","421","375049","0.0-6.0-1.207","SAST","4","f","links","18","","","self","j","150","true"
"17728","<p>Du hast in 49% der Versuche korrekt entschieden.</p><p>Deine durchschnittliche Reaktionszeit war  898ms.</p><p>Dr&uuml;cke eine beliebige Taste, um die Session zu beenden. Vielen Dank!</p>","74","html-keyboard-response","422","392781","0.0-7.0","SAST","4","f","links","18","","","","","",""
