"rt","stimulus","key_press","trial_type","trial_index","time_elapsed","internal_node_id","subject","session","sex","handedness","age","responses","test_part","condition","correct_response","angle","correct"
"1070","<p>Mental Rotation Experiment.</p> <p>Dr&uuml;cke eine beliebige Taste, um anzufangen.</p>","71","html-keyboard-response","0","1075","0.0-0.0","SAST","2","f","links","18","","","","","",""
"6745","","","survey-text","1","7821","0.0-1.0","SAST","2","f","links","18","{""Q0"":""SAST""}","","","","",""
"10870","","","survey-text","2","18691","0.0-2.0","SAST","2","f","links","18","{""Q0"":""2""}","","","","",""
"2726","","","survey-multi-choice","3","21420","0.0-3.0","SAST","2","f","links","18","{""Q0"":""f"",""Q1"":""links""}","","","","",""
"3737","","","survey-text","4","25158","0.0-4.0","SAST","2","f","links","18","{""Q0"":""18""}","","","","",""
"23031","<p> Stell dir vor, dass du vor einem runden Tisch stehst, auf dem sich ein blauer Ball am Tischrand befindet. Entlang des Tischrands ist jeweils ein verschieden langer Pfeil. Nun bewegst du dich entlang dieses Pfeils bis an seine Spitze. Wenn du am Ende des Pfeils angekommen bist, schau zur Tischmitte. </p> <img src='img/90_180.png'></img> <br> <p>Entscheide dann, ob der Ball von deiner neuen (vorgestellten) Position links oder rechts von dir liegt.</p> <p>Dr&uuml;cke die <strong>'f'</strong>-Taste f&uuml;r links, die <strong>'j'</strong>-Taste f&uuml;r rechts.</p> <br><p> Das Bild wird jeweils 1 Sekunde lang pr&auml;sentiert. Du hast 3 Sekunden Zeit eine Entscheidung zu treffen.</p>","70","html-keyboard-response","5","48192","0.0-5.0","SAST","2","f","links","18","","","","","",""
"null","<div style=""font-size:60px;"">+</div>","null","html-keyboard-response","6","49645","0.0-6.0-0.0","SAST","2","f","links","18","","fixation","","","",""
"1177","img/150_60.png","74","image-keyboard-response","7","50823","0.0-6.0-1.0","SAST","2","f","links","18","","","self","f","150","false"
"null","<div style=""font-size:60px;"">+</div>","null","html-keyboard-response","8","51175","0.0-6.0-0.1","SAST","2","f","links","18","","fixation","","","",""
"802","img/150_240.png","74","image-keyboard-response","9","51978","0.0-6.0-1.1","SAST","2","f","links","18","","","self","j","150","true"
"null","<div style=""font-size:60px;"">+</div>","null","html-keyboard-response","10","52330","0.0-6.0-0.2","SAST","2","f","links","18","","fixation","","","",""
"786","img/120_30.png","74","image-keyboard-response","11","53117","0.0-6.0-1.2","SAST","2","f","links","18","","","self","j","120","true"
"null","<div style=""font-size:60px;"">+</div>","null","html-keyboard-response","12","53619","0.0-6.0-0.3","SAST","2","f","links","18","","fixation","","","",""
"721","img/0_90.png","74","image-keyboard-response","13","54341","0.0-6.0-1.3","SAST","2","f","links","18","","","self","j","0","true"
"null","<div style=""font-size:60px;"">+</div>","null","html-keyboard-response","14","54793","0.0-6.0-0.4","SAST","2","f","links","18","","fixation","","","",""
"761","img/90_210.png","70","image-keyboard-response","15","55555","0.0-6.0-1.4","SAST","2","f","links","18","","","self","j","90","false"
"null","<div style=""font-size:60px;"">+</div>","null","html-keyboard-response","16","56056","0.0-6.0-0.5","SAST","2","f","links","18","","fixation","","","",""
"876","img/120_180.png","70","image-keyboard-response","17","56934","0.0-6.0-1.5","SAST","2","f","links","18","","","self","j","120","false"
"null","<div style=""font-size:60px;"">+</div>","null","html-keyboard-response","18","57436","0.0-6.0-0.6","SAST","2","f","links","18","","fixation","","","",""
"704","img/30_180.png","70","image-keyboard-response","19","58141","0.0-6.0-1.6","SAST","2","f","links","18","","","self","j","30","false"
"null","<div style=""font-size:60px;"">+</div>","null","html-keyboard-response","20","58592","0.0-6.0-0.7","SAST","2","f","links","18","","fixation","","","",""
"608","img/90_30.png","74","image-keyboard-response","21","59201","0.0-6.0-1.7","SAST","2","f","links","18","","","self","j","90","true"
"null","<div style=""font-size:60px;"">+</div>","null","html-keyboard-response","22","59603","0.0-6.0-0.8","SAST","2","f","links","18","","fixation","","","",""
"679","img/30_120.png","74","image-keyboard-response","23","60283","0.0-6.0-1.8","SAST","2","f","links","18","","","self","j","30","true"
"null","<div style=""font-size:60px;"">+</div>","null","html-keyboard-response","24","60635","0.0-6.0-0.9","SAST","2","f","links","18","","fixation","","","",""
"752","img/0_120.png","74","image-keyboard-response","25","61388","0.0-6.0-1.9","SAST","2","f","links","18","","","self","j","0","true"
"null","<div style=""font-size:60px;"">+</div>","null","html-keyboard-response","26","61789","0.0-6.0-0.10","SAST","2","f","links","18","","fixation","","","",""
"618","img/0_330.png","70","image-keyboard-response","27","62408","0.0-6.0-1.10","SAST","2","f","links","18","","","self","f","0","true"
"null","<div style=""font-size:60px;"">+</div>","null","html-keyboard-response","28","62758","0.0-6.0-0.11","SAST","2","f","links","18","","fixation","","","",""
"581","img/90_120.png","74","image-keyboard-response","29","63340","0.0-6.0-1.11","SAST","2","f","links","18","","","self","f","90","false"
"null","<div style=""font-size:60px;"">+</div>","null","html-keyboard-response","30","63842","0.0-6.0-0.12","SAST","2","f","links","18","","fixation","","","",""
"698","img/L120_180.png","74","image-keyboard-response","31","64541","0.0-6.0-1.12","SAST","2","f","links","18","","","self","f","120","false"
"null","<div style=""font-size:60px;"">+</div>","null","html-keyboard-response","32","64843","0.0-6.0-0.13","SAST","2","f","links","18","","fixation","","","",""
"702","img/0_210.png","70","image-keyboard-response","33","65546","0.0-6.0-1.13","SAST","2","f","links","18","","","self","f","0","true"
"null","<div style=""font-size:60px;"">+</div>","null","html-keyboard-response","34","65947","0.0-6.0-0.14","SAST","2","f","links","18","","fixation","","","",""
"607","img/90_330.png","70","image-keyboard-response","35","66556","0.0-6.0-1.14","SAST","2","f","links","18","","","self","f","90","true"
"null","<div style=""font-size:60px;"">+</div>","null","html-keyboard-response","36","66957","0.0-6.0-0.15","SAST","2","f","links","18","","fixation","","","",""
"583","img/0_300.png","70","image-keyboard-response","37","67542","0.0-6.0-1.15","SAST","2","f","links","18","","","self","f","0","true"
"null","<div style=""font-size:60px;"">+</div>","null","html-keyboard-response","38","67843","0.0-6.0-0.16","SAST","2","f","links","18","","fixation","","","",""
"625","img/120_150.png","74","image-keyboard-response","39","68470","0.0-6.0-1.16","SAST","2","f","links","18","","","self","f","120","false"
"null","<div style=""font-size:60px;"">+</div>","null","html-keyboard-response","40","68971","0.0-6.0-0.17","SAST","2","f","links","18","","fixation","","","",""
"543","img/90_240.png","70","image-keyboard-response","41","69516","0.0-6.0-1.17","SAST","2","f","links","18","","","self","j","90","false"
"null","<div style=""font-size:60px;"">+</div>","null","html-keyboard-response","42","69967","0.0-6.0-0.18","SAST","2","f","links","18","","fixation","","","",""
"655","img/60_330.png","70","image-keyboard-response","43","70623","0.0-6.0-1.18","SAST","2","f","links","18","","","self","f","60","true"
"null","<div style=""font-size:60px;"">+</div>","null","html-keyboard-response","44","70925","0.0-6.0-0.19","SAST","2","f","links","18","","fixation","","","",""
"649","img/150_120.png","74","image-keyboard-response","45","71576","0.0-6.0-1.19","SAST","2","f","links","18","","","self","f","150","false"
"null","<div style=""font-size:60px;"">+</div>","null","html-keyboard-response","46","72077","0.0-6.0-0.20","SAST","2","f","links","18","","fixation","","","",""
"691","img/120_330.png","70","image-keyboard-response","47","72770","0.0-6.0-1.20","SAST","2","f","links","18","","","self","f","120","true"
"null","<div style=""font-size:60px;"">+</div>","null","html-keyboard-response","48","73271","0.0-6.0-0.21","SAST","2","f","links","18","","fixation","","","",""
"788","img/150_300.png","70","image-keyboard-response","49","74060","0.0-6.0-1.21","SAST","2","f","links","18","","","self","j","150","false"
"null","<div style=""font-size:60px;"">+</div>","null","html-keyboard-response","50","74512","0.0-6.0-0.22","SAST","2","f","links","18","","fixation","","","",""
"702","img/150_270.png","70","image-keyboard-response","51","75215","0.0-6.0-1.22","SAST","2","f","links","18","","","self","j","150","false"
"null","<div style=""font-size:60px;"">+</div>","null","html-keyboard-response","52","75616","0.0-6.0-0.23","SAST","2","f","links","18","","fixation","","","",""
"781","img/90_300.png","70","image-keyboard-response","53","76399","0.0-6.0-1.23","SAST","2","f","links","18","","","self","f","90","true"
"null","<div style=""font-size:60px;"">+</div>","null","html-keyboard-response","54","76750","0.0-6.0-0.24","SAST","2","f","links","18","","fixation","","","",""
"742","img/60_180.png","70","image-keyboard-response","55","77495","0.0-6.0-1.24","SAST","2","f","links","18","","","self","j","60","false"
"null","<div style=""font-size:60px;"">+</div>","null","html-keyboard-response","56","77996","0.0-6.0-0.25","SAST","2","f","links","18","","fixation","","","",""
"559","img/90_150.png","74","image-keyboard-response","57","78557","0.0-6.0-1.25","SAST","2","f","links","18","","","self","f","90","false"
"null","<div style=""font-size:60px;"">+</div>","null","html-keyboard-response","58","79008","0.0-6.0-0.26","SAST","2","f","links","18","","fixation","","","",""
"573","img/60_270.png","70","image-keyboard-response","59","79582","0.0-6.0-1.26","SAST","2","f","links","18","","","self","f","60","true"
"null","<div style=""font-size:60px;"">+</div>","null","html-keyboard-response","60","79984","0.0-6.0-0.27","SAST","2","f","links","18","","fixation","","","",""
"621","img/L150_180.png","74","image-keyboard-response","61","80606","0.0-6.0-1.27","SAST","2","f","links","18","","","self","f","150","false"
"null","<div style=""font-size:60px;"">+</div>","null","html-keyboard-response","62","80958","0.0-6.0-0.28","SAST","2","f","links","18","","fixation","","","",""
"541","img/30_270.png","70","image-keyboard-response","63","81500","0.0-6.0-1.28","SAST","2","f","links","18","","","self","f","30","true"
"null","<div style=""font-size:60px;"">+</div>","null","html-keyboard-response","64","81851","0.0-6.0-0.29","SAST","2","f","links","18","","fixation","","","",""
"662","img/0_60.png","74","image-keyboard-response","65","82515","0.0-6.0-1.29","SAST","2","f","links","18","","","self","j","0","true"
"null","<div style=""font-size:60px;"">+</div>","null","html-keyboard-response","66","82816","0.0-6.0-0.30","SAST","2","f","links","18","","fixation","","","",""
"663","img/0_240.png","70","image-keyboard-response","67","83481","0.0-6.0-1.30","SAST","2","f","links","18","","","self","f","0","true"
"null","<div style=""font-size:60px;"">+</div>","null","html-keyboard-response","68","83882","0.0-6.0-0.31","SAST","2","f","links","18","","fixation","","","",""
"620","img/0_150.png","70","image-keyboard-response","69","84503","0.0-6.0-1.31","SAST","2","f","links","18","","","self","j","0","false"
"null","<div style=""font-size:60px;"">+</div>","null","html-keyboard-response","70","84904","0.0-6.0-0.32","SAST","2","f","links","18","","fixation","","","",""
"624","img/90_60.png","74","image-keyboard-response","71","85529","0.0-6.0-1.32","SAST","2","f","links","18","","","self","j","90","true"
"null","<div style=""font-size:60px;"">+</div>","null","html-keyboard-response","72","85981","0.0-6.0-0.33","SAST","2","f","links","18","","fixation","","","",""
"679","img/60_150.png","74","image-keyboard-response","73","86662","0.0-6.0-1.33","SAST","2","f","links","18","","","self","f","60","false"
"null","<div style=""font-size:60px;"">+</div>","null","html-keyboard-response","74","87013","0.0-6.0-0.34","SAST","2","f","links","18","","fixation","","","",""
"640","img/30_60.png","74","image-keyboard-response","75","87655","0.0-6.0-1.34","SAST","2","f","links","18","","","self","j","30","true"
"null","<div style=""font-size:60px;"">+</div>","null","html-keyboard-response","76","88057","0.0-6.0-0.35","SAST","2","f","links","18","","fixation","","","",""
"662","img/60_90.png","74","image-keyboard-response","77","88721","0.0-6.0-1.35","SAST","2","f","links","18","","","self","j","60","true"
"null","<div style=""font-size:60px;"">+</div>","null","html-keyboard-response","78","89122","0.0-6.0-0.36","SAST","2","f","links","18","","fixation","","","",""
"577","img/30_240.png","70","image-keyboard-response","79","89701","0.0-6.0-1.36","SAST","2","f","links","18","","","self","f","30","true"
"null","<div style=""font-size:60px;"">+</div>","null","html-keyboard-response","80","90203","0.0-6.0-0.37","SAST","2","f","links","18","","fixation","","","",""
"728","img/0_270.png","70","image-keyboard-response","81","90932","0.0-6.0-1.37","SAST","2","f","links","18","","","self","f","0","true"
"null","<div style=""font-size:60px;"">+</div>","null","html-keyboard-response","82","91334","0.0-6.0-0.38","SAST","2","f","links","18","","fixation","","","",""
"623","img/0_30.png","74","image-keyboard-response","83","91958","0.0-6.0-1.38","SAST","2","f","links","18","","","self","j","0","true"
"null","<div style=""font-size:60px;"">+</div>","null","html-keyboard-response","84","92460","0.0-6.0-0.39","SAST","2","f","links","18","","fixation","","","",""
"626","img/90_180.png","70","image-keyboard-response","85","93087","0.0-6.0-1.39","SAST","2","f","links","18","","","self","j","90","false"
"null","<div style=""font-size:60px;"">+</div>","null","html-keyboard-response","86","93589","0.0-6.0-0.40","SAST","2","f","links","18","","fixation","","","",""
"585","img/60_210.png","70","image-keyboard-response","87","94175","0.0-6.0-1.40","SAST","2","f","links","18","","","self","j","60","false"
"null","<div style=""font-size:60px;"">+</div>","null","html-keyboard-response","88","94527","0.0-6.0-0.41","SAST","2","f","links","18","","fixation","","","",""
"573","img/120_270.png","70","image-keyboard-response","89","95101","0.0-6.0-1.41","SAST","2","f","links","18","","","self","j","120","false"
"null","<div style=""font-size:60px;"">+</div>","null","html-keyboard-response","90","95603","0.0-6.0-0.42","SAST","2","f","links","18","","fixation","","","",""
"518","img/120_210.png","70","image-keyboard-response","91","96122","0.0-6.0-1.42","SAST","2","f","links","18","","","self","j","120","false"
"null","<div style=""font-size:60px;"">+</div>","null","html-keyboard-response","92","96574","0.0-6.0-0.43","SAST","2","f","links","18","","fixation","","","",""
"550","img/150_90.png","74","image-keyboard-response","93","97125","0.0-6.0-1.43","SAST","2","f","links","18","","","self","f","150","false"
"null","<div style=""font-size:60px;"">+</div>","null","html-keyboard-response","94","97627","0.0-6.0-0.44","SAST","2","f","links","18","","fixation","","","",""
"659","img/120_90.png","74","image-keyboard-response","95","98287","0.0-6.0-1.44","SAST","2","f","links","18","","","self","f","120","false"
"null","<div style=""font-size:60px;"">+</div>","null","html-keyboard-response","96","98789","0.0-6.0-0.45","SAST","2","f","links","18","","fixation","","","",""
"558","img/150_180.png","70","image-keyboard-response","97","99348","0.0-6.0-1.45","SAST","2","f","links","18","","","self","j","150","false"
"null","<div style=""font-size:60px;"">+</div>","null","html-keyboard-response","98","99800","0.0-6.0-0.46","SAST","2","f","links","18","","fixation","","","",""
"507","img/L90_180.png","74","image-keyboard-response","99","100308","0.0-6.0-1.46","SAST","2","f","links","18","","","self","f","90","false"
"null","<div style=""font-size:60px;"">+</div>","null","html-keyboard-response","100","100760","0.0-6.0-0.47","SAST","2","f","links","18","","fixation","","","",""
"686","img/L30_180.png","74","image-keyboard-response","101","101447","0.0-6.0-1.47","SAST","2","f","links","18","","","self","f","30","false"
"null","<div style=""font-size:60px;"">+</div>","null","html-keyboard-response","102","101749","0.0-6.0-0.48","SAST","2","f","links","18","","fixation","","","",""
"739","img/L60_180.png","74","image-keyboard-response","103","102489","0.0-6.0-1.48","SAST","2","f","links","18","","","self","f","60","false"
"null","<div style=""font-size:60px;"">+</div>","null","html-keyboard-response","104","102891","0.0-6.0-0.49","SAST","2","f","links","18","","fixation","","","",""
"595","img/30_90.png","74","image-keyboard-response","105","103487","0.0-6.0-1.49","SAST","2","f","links","18","","","self","j","30","true"
"null","<div style=""font-size:60px;"">+</div>","null","html-keyboard-response","106","103989","0.0-6.0-0.50","SAST","2","f","links","18","","fixation","","","",""
"695","img/60_30.png","74","image-keyboard-response","107","104685","0.0-6.0-1.50","SAST","2","f","links","18","","","self","j","60","true"
"null","<div style=""font-size:60px;"">+</div>","null","html-keyboard-response","108","105086","0.0-6.0-0.51","SAST","2","f","links","18","","fixation","","","",""
"621","img/30_300.png","70","image-keyboard-response","109","105708","0.0-6.0-1.51","SAST","2","f","links","18","","","self","f","30","true"
"null","<div style=""font-size:60px;"">+</div>","null","html-keyboard-response","110","106160","0.0-6.0-0.52","SAST","2","f","links","18","","fixation","","","",""
"575","img/0_60.png","74","image-keyboard-response","111","106736","0.0-6.0-1.52","SAST","2","f","links","18","","","self","j","0","true"
"null","<div style=""font-size:60px;"">+</div>","null","html-keyboard-response","112","107088","0.0-6.0-0.53","SAST","2","f","links","18","","fixation","","","",""
"664","img/0_150.png","74","image-keyboard-response","113","107752","0.0-6.0-1.53","SAST","2","f","links","18","","","self","j","0","true"
"null","<div style=""font-size:60px;"">+</div>","null","html-keyboard-response","114","108153","0.0-6.0-0.54","SAST","2","f","links","18","","fixation","","","",""
"738","img/90_60.png","74","image-keyboard-response","115","108892","0.0-6.0-1.54","SAST","2","f","links","18","","","self","j","90","true"
"null","<div style=""font-size:60px;"">+</div>","null","html-keyboard-response","116","109394","0.0-6.0-0.55","SAST","2","f","links","18","","fixation","","","",""
"588","img/90_120.png","74","image-keyboard-response","117","109982","0.0-6.0-1.55","SAST","2","f","links","18","","","self","f","90","false"
"null","<div style=""font-size:60px;"">+</div>","null","html-keyboard-response","118","110434","0.0-6.0-0.56","SAST","2","f","links","18","","fixation","","","",""
"549","img/60_330.png","70","image-keyboard-response","119","110983","0.0-6.0-1.56","SAST","2","f","links","18","","","self","f","60","true"
"null","<div style=""font-size:60px;"">+</div>","null","html-keyboard-response","120","111485","0.0-6.0-0.57","SAST","2","f","links","18","","fixation","","","",""
"756","img/120_270.png","70","image-keyboard-response","121","112241","0.0-6.0-1.57","SAST","2","f","links","18","","","self","j","120","false"
"null","<div style=""font-size:60px;"">+</div>","null","html-keyboard-response","122","112543","0.0-6.0-0.58","SAST","2","f","links","18","","fixation","","","",""
"670","img/120_150.png","74","image-keyboard-response","123","113214","0.0-6.0-1.58","SAST","2","f","links","18","","","self","f","120","false"
"null","<div style=""font-size:60px;"">+</div>","null","html-keyboard-response","124","113666","0.0-6.0-0.59","SAST","2","f","links","18","","fixation","","","",""
"801","img/60_90.png","74","image-keyboard-response","125","114469","0.0-6.0-1.59","SAST","2","f","links","18","","","self","j","60","true"
"null","<div style=""font-size:60px;"">+</div>","null","html-keyboard-response","126","114870","0.0-6.0-0.60","SAST","2","f","links","18","","fixation","","","",""
"640","img/0_240.png","70","image-keyboard-response","127","115512","0.0-6.0-1.60","SAST","2","f","links","18","","","self","f","0","true"
"null","<div style=""font-size:60px;"">+</div>","null","html-keyboard-response","128","115963","0.0-6.0-0.61","SAST","2","f","links","18","","fixation","","","",""
"798","img/150_270.png","70","image-keyboard-response","129","116763","0.0-6.0-1.61","SAST","2","f","links","18","","","self","j","150","false"
"null","<div style=""font-size:60px;"">+</div>","null","html-keyboard-response","130","117064","0.0-6.0-0.62","SAST","2","f","links","18","","fixation","","","",""
"739","img/150_300.png","70","image-keyboard-response","131","117805","0.0-6.0-1.62","SAST","2","f","links","18","","","self","j","150","false"
"null","<div style=""font-size:60px;"">+</div>","null","html-keyboard-response","132","118256","0.0-6.0-0.63","SAST","2","f","links","18","","fixation","","","",""
"532","img/90_150.png","74","image-keyboard-response","133","118789","0.0-6.0-1.63","SAST","2","f","links","18","","","self","f","90","false"
"null","<div style=""font-size:60px;"">+</div>","null","html-keyboard-response","134","119141","0.0-6.0-0.64","SAST","2","f","links","18","","fixation","","","",""
"615","img/30_90.png","74","image-keyboard-response","135","119757","0.0-6.0-1.64","SAST","2","f","links","18","","","self","j","30","true"
"null","<div style=""font-size:60px;"">+</div>","null","html-keyboard-response","136","120258","0.0-6.0-0.65","SAST","2","f","links","18","","fixation","","","",""
"588","img/0_30.png","74","image-keyboard-response","137","120848","0.0-6.0-1.65","SAST","2","f","links","18","","","self","j","0","true"
"null","<div style=""font-size:60px;"">+</div>","null","html-keyboard-response","138","121249","0.0-6.0-0.66","SAST","2","f","links","18","","fixation","","","",""
"612","img/30_180.png","70","image-keyboard-response","139","121863","0.0-6.0-1.66","SAST","2","f","links","18","","","self","j","30","false"
"null","<div style=""font-size:60px;"">+</div>","null","html-keyboard-response","140","122214","0.0-6.0-0.67","SAST","2","f","links","18","","fixation","","","",""
"658","img/30_300.png","70","image-keyboard-response","141","122874","0.0-6.0-1.67","SAST","2","f","links","18","","","self","f","30","true"
"null","<div style=""font-size:60px;"">+</div>","null","html-keyboard-response","142","123175","0.0-6.0-0.68","SAST","2","f","links","18","","fixation","","","",""
"645","img/150_60.png","74","image-keyboard-response","143","123821","0.0-6.0-1.68","SAST","2","f","links","18","","","self","f","150","false"
"null","<div style=""font-size:60px;"">+</div>","null","html-keyboard-response","144","124273","0.0-6.0-0.69","SAST","2","f","links","18","","fixation","","","",""
"767","img/90_240.png","70","image-keyboard-response","145","125042","0.0-6.0-1.69","SAST","2","f","links","18","","","self","j","90","false"
"null","<div style=""font-size:60px;"">+</div>","null","html-keyboard-response","146","125393","0.0-6.0-0.70","SAST","2","f","links","18","","fixation","","","",""
"525","img/150_90.png","74","image-keyboard-response","147","125920","0.0-6.0-1.70","SAST","2","f","links","18","","","self","f","150","false"
"null","<div style=""font-size:60px;"">+</div>","null","html-keyboard-response","148","126371","0.0-6.0-0.71","SAST","2","f","links","18","","fixation","","","",""
"717","img/90_30.png","74","image-keyboard-response","149","127090","0.0-6.0-1.71","SAST","2","f","links","18","","","self","j","90","true"
"null","<div style=""font-size:60px;"">+</div>","null","html-keyboard-response","150","127591","0.0-6.0-0.72","SAST","2","f","links","18","","fixation","","","",""
"543","img/120_180.png","70","image-keyboard-response","151","128135","0.0-6.0-1.72","SAST","2","f","links","18","","","self","j","120","false"
"null","<div style=""font-size:60px;"">+</div>","null","html-keyboard-response","152","128437","0.0-6.0-0.73","SAST","2","f","links","18","","fixation","","","",""
"1005","img/60_180.png","70","image-keyboard-response","153","129443","0.0-6.0-1.73","SAST","2","f","links","18","","","self","j","60","false"
"null","<div style=""font-size:60px;"">+</div>","null","html-keyboard-response","154","129845","0.0-6.0-0.74","SAST","2","f","links","18","","fixation","","","",""
"786","img/90_330.png","70","image-keyboard-response","155","130631","0.0-6.0-1.74","SAST","2","f","links","18","","","self","f","90","true"
"null","<div style=""font-size:60px;"">+</div>","null","html-keyboard-response","156","131083","0.0-6.0-0.75","SAST","2","f","links","18","","fixation","","","",""
"1141","img/30_240.png","74","image-keyboard-response","157","132225","0.0-6.0-1.75","SAST","2","f","links","18","","","self","f","30","false"
"null","<div style=""font-size:60px;"">+</div>","null","html-keyboard-response","158","132677","0.0-6.0-0.76","SAST","2","f","links","18","","fixation","","","",""
"650","img/0_120.png","74","image-keyboard-response","159","133329","0.0-6.0-1.76","SAST","2","f","links","18","","","self","j","0","true"
"null","<div style=""font-size:60px;"">+</div>","null","html-keyboard-response","160","133780","0.0-6.0-0.77","SAST","2","f","links","18","","fixation","","","",""
"758","img/150_120.png","74","image-keyboard-response","161","134540","0.0-6.0-1.77","SAST","2","f","links","18","","","self","f","150","false"
"null","<div style=""font-size:60px;"">+</div>","null","html-keyboard-response","162","134940","0.0-6.0-0.78","SAST","2","f","links","18","","fixation","","","",""
"698","img/0_330.png","70","image-keyboard-response","163","135639","0.0-6.0-1.78","SAST","2","f","links","18","","","self","f","0","true"
"null","<div style=""font-size:60px;"">+</div>","null","html-keyboard-response","164","135991","0.0-6.0-0.79","SAST","2","f","links","18","","fixation","","","",""
"658","img/L150_180.png","74","image-keyboard-response","165","136649","0.0-6.0-1.79","SAST","2","f","links","18","","","self","f","150","false"
"null","<div style=""font-size:60px;"">+</div>","null","html-keyboard-response","166","137101","0.0-6.0-0.80","SAST","2","f","links","18","","fixation","","","",""
"884","img/150_180.png","74","image-keyboard-response","167","137985","0.0-6.0-1.80","SAST","2","f","links","18","","","self","j","150","true"
"null","<div style=""font-size:60px;"">+</div>","null","html-keyboard-response","168","138437","0.0-6.0-0.81","SAST","2","f","links","18","","fixation","","","",""
"721","img/120_90.png","74","image-keyboard-response","169","139158","0.0-6.0-1.81","SAST","2","f","links","18","","","self","f","120","false"
"null","<div style=""font-size:60px;"">+</div>","null","html-keyboard-response","170","139660","0.0-6.0-0.82","SAST","2","f","links","18","","fixation","","","",""
"626","img/120_210.png","70","image-keyboard-response","171","140286","0.0-6.0-1.82","SAST","2","f","links","18","","","self","j","120","false"
"null","<div style=""font-size:60px;"">+</div>","null","html-keyboard-response","172","140738","0.0-6.0-0.83","SAST","2","f","links","18","","fixation","","","",""
"719","img/L30_180.png","74","image-keyboard-response","173","141457","0.0-6.0-1.83","SAST","2","f","links","18","","","self","f","30","false"
"null","<div style=""font-size:60px;"">+</div>","null","html-keyboard-response","174","141809","0.0-6.0-0.84","SAST","2","f","links","18","","fixation","","","",""
"554","img/0_270.png","70","image-keyboard-response","175","142363","0.0-6.0-1.84","SAST","2","f","links","18","","","self","f","0","true"
"null","<div style=""font-size:60px;"">+</div>","null","html-keyboard-response","176","142715","0.0-6.0-0.85","SAST","2","f","links","18","","fixation","","","",""
"767","img/0_210.png","70","image-keyboard-response","177","143483","0.0-6.0-1.85","SAST","2","f","links","18","","","self","f","0","true"
"null","<div style=""font-size:60px;"">+</div>","null","html-keyboard-response","178","143835","0.0-6.0-0.86","SAST","2","f","links","18","","fixation","","","",""
"736","img/150_240.png","74","image-keyboard-response","179","144572","0.0-6.0-1.86","SAST","2","f","links","18","","","self","j","150","true"
"null","<div style=""font-size:60px;"">+</div>","null","html-keyboard-response","180","145024","0.0-6.0-0.87","SAST","2","f","links","18","","fixation","","","",""
"1019","img/30_60.png","74","image-keyboard-response","181","146043","0.0-6.0-1.87","SAST","2","f","links","18","","","self","j","30","true"
"null","<div style=""font-size:60px;"">+</div>","null","html-keyboard-response","182","146395","0.0-6.0-0.88","SAST","2","f","links","18","","fixation","","","",""
"979","img/L90_180.png","74","image-keyboard-response","183","147375","0.0-6.0-1.88","SAST","2","f","links","18","","","self","f","90","false"
"null","<div style=""font-size:60px;"">+</div>","null","html-keyboard-response","184","147677","0.0-6.0-0.89","SAST","2","f","links","18","","fixation","","","",""
"830","img/30_120.png","74","image-keyboard-response","185","148507","0.0-6.0-1.89","SAST","2","f","links","18","","","self","j","30","true"
"null","<div style=""font-size:60px;"">+</div>","null","html-keyboard-response","186","148959","0.0-6.0-0.90","SAST","2","f","links","18","","fixation","","","",""
"683","img/90_210.png","70","image-keyboard-response","187","149642","0.0-6.0-1.90","SAST","2","f","links","18","","","self","j","90","false"
"null","<div style=""font-size:60px;"">+</div>","null","html-keyboard-response","188","149994","0.0-6.0-0.91","SAST","2","f","links","18","","fixation","","","",""
"1066","img/0_90.png","74","image-keyboard-response","189","151061","0.0-6.0-1.91","SAST","2","f","links","18","","","self","j","0","true"
"null","<div style=""font-size:60px;"">+</div>","null","html-keyboard-response","190","151513","0.0-6.0-0.92","SAST","2","f","links","18","","fixation","","","",""
"699","img/90_180.png","70","image-keyboard-response","191","152213","0.0-6.0-1.92","SAST","2","f","links","18","","","self","j","90","false"
"null","<div style=""font-size:60px;"">+</div>","null","html-keyboard-response","192","152665","0.0-6.0-0.93","SAST","2","f","links","18","","fixation","","","",""
"910","img/L60_180.png","74","image-keyboard-response","193","153575","0.0-6.0-1.93","SAST","2","f","links","18","","","self","f","60","false"
"null","<div style=""font-size:60px;"">+</div>","null","html-keyboard-response","194","153927","0.0-6.0-0.94","SAST","2","f","links","18","","fixation","","","",""
"1069","img/120_30.png","74","image-keyboard-response","195","154996","0.0-6.0-1.94","SAST","2","f","links","18","","","self","j","120","true"
"null","<div style=""font-size:60px;"">+</div>","null","html-keyboard-response","196","155448","0.0-6.0-0.95","SAST","2","f","links","18","","fixation","","","",""
"730","img/L120_180.png","74","image-keyboard-response","197","156179","0.0-6.0-1.95","SAST","2","f","links","18","","","self","f","120","false"
"null","<div style=""font-size:60px;"">+</div>","null","html-keyboard-response","198","156631","0.0-6.0-0.96","SAST","2","f","links","18","","fixation","","","",""
"637","img/120_330.png","70","image-keyboard-response","199","157269","0.0-6.0-1.96","SAST","2","f","links","18","","","self","f","120","true"
"null","<div style=""font-size:60px;"">+</div>","null","html-keyboard-response","200","157770","0.0-6.0-0.97","SAST","2","f","links","18","","fixation","","","",""
"565","img/60_270.png","70","image-keyboard-response","201","158336","0.0-6.0-1.97","SAST","2","f","links","18","","","self","f","60","true"
"null","<div style=""font-size:60px;"">+</div>","null","html-keyboard-response","202","158688","0.0-6.0-0.98","SAST","2","f","links","18","","fixation","","","",""
"807","img/0_300.png","70","image-keyboard-response","203","159495","0.0-6.0-1.98","SAST","2","f","links","18","","","self","f","0","true"
"null","<div style=""font-size:60px;"">+</div>","null","html-keyboard-response","204","159997","0.0-6.0-0.99","SAST","2","f","links","18","","fixation","","","",""
"843","img/60_210.png","70","image-keyboard-response","205","160840","0.0-6.0-1.99","SAST","2","f","links","18","","","self","j","60","false"
"null","<div style=""font-size:60px;"">+</div>","null","html-keyboard-response","206","161141","0.0-6.0-0.100","SAST","2","f","links","18","","fixation","","","",""
"752","img/60_30.png","74","image-keyboard-response","207","161894","0.0-6.0-1.100","SAST","2","f","links","18","","","self","j","60","true"
"null","<div style=""font-size:60px;"">+</div>","null","html-keyboard-response","208","162395","0.0-6.0-0.101","SAST","2","f","links","18","","fixation","","","",""
"647","img/60_150.png","74","image-keyboard-response","209","163043","0.0-6.0-1.101","SAST","2","f","links","18","","","self","f","60","false"
"null","<div style=""font-size:60px;"">+</div>","null","html-keyboard-response","210","163445","0.0-6.0-0.102","SAST","2","f","links","18","","fixation","","","",""
"688","img/90_300.png","70","image-keyboard-response","211","164133","0.0-6.0-1.102","SAST","2","f","links","18","","","self","f","90","true"
"null","<div style=""font-size:60px;"">+</div>","null","html-keyboard-response","212","164635","0.0-6.0-0.103","SAST","2","f","links","18","","fixation","","","",""
"961","img/30_270.png","70","image-keyboard-response","213","165596","0.0-6.0-1.103","SAST","2","f","links","18","","","self","f","30","true"
"null","<div style=""font-size:60px;"">+</div>","null","html-keyboard-response","214","166048","0.0-6.0-0.104","SAST","2","f","links","18","","fixation","","","",""
"911","img/L150_180.png","74","image-keyboard-response","215","166960","0.0-6.0-1.104","SAST","2","f","links","18","","","self","f","150","false"
"null","<div style=""font-size:60px;"">+</div>","null","html-keyboard-response","216","167312","0.0-6.0-0.105","SAST","2","f","links","18","","fixation","","","",""
"1070","img/120_150.png","74","image-keyboard-response","217","168382","0.0-6.0-1.105","SAST","2","f","links","18","","","self","f","120","false"
"null","<div style=""font-size:60px;"">+</div>","null","html-keyboard-response","218","168834","0.0-6.0-0.106","SAST","2","f","links","18","","fixation","","","",""
"675","img/90_180.png","70","image-keyboard-response","219","169509","0.0-6.0-1.106","SAST","2","f","links","18","","","self","j","90","false"
"null","<div style=""font-size:60px;"">+</div>","null","html-keyboard-response","220","169861","0.0-6.0-0.107","SAST","2","f","links","18","","fixation","","","",""
"681","img/L30_180.png","74","image-keyboard-response","221","170543","0.0-6.0-1.107","SAST","2","f","links","18","","","self","f","30","false"
"null","<div style=""font-size:60px;"">+</div>","null","html-keyboard-response","222","170894","0.0-6.0-0.108","SAST","2","f","links","18","","fixation","","","",""
"733","img/60_330.png","70","image-keyboard-response","223","171628","0.0-6.0-1.108","SAST","2","f","links","18","","","self","f","60","true"
"null","<div style=""font-size:60px;"">+</div>","null","html-keyboard-response","224","172029","0.0-6.0-0.109","SAST","2","f","links","18","","fixation","","","",""
"1190","img/90_60.png","74","image-keyboard-response","225","173221","0.0-6.0-1.109","SAST","2","f","links","18","","","self","j","90","true"
"null","<div style=""font-size:60px;"">+</div>","null","html-keyboard-response","226","173572","0.0-6.0-0.110","SAST","2","f","links","18","","fixation","","","",""
"855","img/90_30.png","74","image-keyboard-response","227","174429","0.0-6.0-1.110","SAST","2","f","links","18","","","self","j","90","true"
"null","<div style=""font-size:60px;"">+</div>","null","html-keyboard-response","228","174830","0.0-6.0-0.111","SAST","2","f","links","18","","fixation","","","",""
"1343","img/90_120.png","70","image-keyboard-response","229","176174","0.0-6.0-1.111","SAST","2","f","links","18","","","self","f","90","true"
"null","<div style=""font-size:60px;"">+</div>","null","html-keyboard-response","230","176676","0.0-6.0-0.112","SAST","2","f","links","18","","fixation","","","",""
"944","img/60_30.png","74","image-keyboard-response","231","177621","0.0-6.0-1.112","SAST","2","f","links","18","","","self","j","60","true"
"null","<div style=""font-size:60px;"">+</div>","null","html-keyboard-response","232","177973","0.0-6.0-0.113","SAST","2","f","links","18","","fixation","","","",""
"1338","img/30_270.png","74","image-keyboard-response","233","179313","0.0-6.0-1.113","SAST","2","f","links","18","","","self","f","30","false"
"null","<div style=""font-size:60px;"">+</div>","null","html-keyboard-response","234","179814","0.0-6.0-0.114","SAST","2","f","links","18","","fixation","","","",""
"910","img/150_180.png","70","image-keyboard-response","235","180726","0.0-6.0-1.114","SAST","2","f","links","18","","","self","j","150","false"
"null","<div style=""font-size:60px;"">+</div>","null","html-keyboard-response","236","181077","0.0-6.0-0.115","SAST","2","f","links","18","","fixation","","","",""
"595","img/L60_180.png","74","image-keyboard-response","237","181673","0.0-6.0-1.115","SAST","2","f","links","18","","","self","f","60","false"
"null","<div style=""font-size:60px;"">+</div>","null","html-keyboard-response","238","182125","0.0-6.0-0.116","SAST","2","f","links","18","","fixation","","","",""
"722","img/90_240.png","70","image-keyboard-response","239","182847","0.0-6.0-1.116","SAST","2","f","links","18","","","self","j","90","false"
"null","<div style=""font-size:60px;"">+</div>","null","html-keyboard-response","240","183149","0.0-6.0-0.117","SAST","2","f","links","18","","fixation","","","",""
"950","img/60_210.png","74","image-keyboard-response","241","184100","0.0-6.0-1.117","SAST","2","f","links","18","","","self","j","60","true"
"null","<div style=""font-size:60px;"">+</div>","null","html-keyboard-response","242","184552","0.0-6.0-0.118","SAST","2","f","links","18","","fixation","","","",""
"773","img/150_240.png","70","image-keyboard-response","243","185326","0.0-6.0-1.118","SAST","2","f","links","18","","","self","j","150","false"
"null","<div style=""font-size:60px;"">+</div>","null","html-keyboard-response","244","185678","0.0-6.0-0.119","SAST","2","f","links","18","","fixation","","","",""
"860","img/150_120.png","74","image-keyboard-response","245","186539","0.0-6.0-1.119","SAST","2","f","links","18","","","self","f","150","false"
"null","<div style=""font-size:60px;"">+</div>","null","html-keyboard-response","246","186841","0.0-6.0-0.120","SAST","2","f","links","18","","fixation","","","",""
"715","img/90_150.png","74","image-keyboard-response","247","187556","0.0-6.0-1.120","SAST","2","f","links","18","","","self","f","90","false"
"null","<div style=""font-size:60px;"">+</div>","null","html-keyboard-response","248","187958","0.0-6.0-0.121","SAST","2","f","links","18","","fixation","","","",""
"946","img/0_120.png","74","image-keyboard-response","249","188905","0.0-6.0-1.121","SAST","2","f","links","18","","","self","j","0","true"
"null","<div style=""font-size:60px;"">+</div>","null","html-keyboard-response","250","189207","0.0-6.0-0.122","SAST","2","f","links","18","","fixation","","","",""
"895","img/60_180.png","70","image-keyboard-response","251","190103","0.0-6.0-1.122","SAST","2","f","links","18","","","self","j","60","false"
"null","<div style=""font-size:60px;"">+</div>","null","html-keyboard-response","252","190405","0.0-6.0-0.123","SAST","2","f","links","18","","fixation","","","",""
"1178","img/120_330.png","70","image-keyboard-response","253","191584","0.0-6.0-1.123","SAST","2","f","links","18","","","self","f","120","true"
"null","<div style=""font-size:60px;"">+</div>","null","html-keyboard-response","254","192086","0.0-6.0-0.124","SAST","2","f","links","18","","fixation","","","",""
"936","img/L90_180.png","74","image-keyboard-response","255","193023","0.0-6.0-1.124","SAST","2","f","links","18","","","self","f","90","false"
"null","<div style=""font-size:60px;"">+</div>","null","html-keyboard-response","256","193525","0.0-6.0-0.125","SAST","2","f","links","18","","fixation","","","",""
"581","img/30_240.png","70","image-keyboard-response","257","194107","0.0-6.0-1.125","SAST","2","f","links","18","","","self","f","30","true"
"null","<div style=""font-size:60px;"">+</div>","null","html-keyboard-response","258","194508","0.0-6.0-0.126","SAST","2","f","links","18","","fixation","","","",""
"795","img/150_300.png","70","image-keyboard-response","259","195304","0.0-6.0-1.126","SAST","2","f","links","18","","","self","j","150","false"
"null","<div style=""font-size:60px;"">+</div>","null","html-keyboard-response","260","195606","0.0-6.0-0.127","SAST","2","f","links","18","","fixation","","","",""
"910","img/0_210.png","70","image-keyboard-response","261","196516","0.0-6.0-1.127","SAST","2","f","links","18","","","self","f","0","true"
"null","<div style=""font-size:60px;"">+</div>","null","html-keyboard-response","262","196868","0.0-6.0-0.128","SAST","2","f","links","18","","fixation","","","",""
"799","img/90_210.png","70","image-keyboard-response","263","197668","0.0-6.0-1.128","SAST","2","f","links","18","","","self","j","90","false"
"null","<div style=""font-size:60px;"">+</div>","null","html-keyboard-response","264","198170","0.0-6.0-0.129","SAST","2","f","links","18","","fixation","","","",""
"859","img/30_180.png","74","image-keyboard-response","265","199029","0.0-6.0-1.129","SAST","2","f","links","18","","","self","j","30","true"
"null","<div style=""font-size:60px;"">+</div>","null","html-keyboard-response","266","199331","0.0-6.0-0.130","SAST","2","f","links","18","","fixation","","","",""
"867","img/30_120.png","70","image-keyboard-response","267","200199","0.0-6.0-1.130","SAST","2","f","links","18","","","self","j","30","false"
"null","<div style=""font-size:60px;"">+</div>","null","html-keyboard-response","268","200701","0.0-6.0-0.131","SAST","2","f","links","18","","fixation","","","",""
"803","img/90_330.png","70","image-keyboard-response","269","201505","0.0-6.0-1.131","SAST","2","f","links","18","","","self","f","90","true"
"null","<div style=""font-size:60px;"">+</div>","null","html-keyboard-response","270","201957","0.0-6.0-0.132","SAST","2","f","links","18","","fixation","","","",""
"837","img/0_270.png","70","image-keyboard-response","271","202795","0.0-6.0-1.132","SAST","2","f","links","18","","","self","f","0","true"
"null","<div style=""font-size:60px;"">+</div>","null","html-keyboard-response","272","203296","0.0-6.0-0.133","SAST","2","f","links","18","","fixation","","","",""
"798","img/0_330.png","74","image-keyboard-response","273","204095","0.0-6.0-1.133","SAST","2","f","links","18","","","self","f","0","false"
"null","<div style=""font-size:60px;"">+</div>","null","html-keyboard-response","274","204397","0.0-6.0-0.134","SAST","2","f","links","18","","fixation","","","",""
"682","img/60_90.png","74","image-keyboard-response","275","205080","0.0-6.0-1.134","SAST","2","f","links","18","","","self","j","60","true"
"null","<div style=""font-size:60px;"">+</div>","null","html-keyboard-response","276","205482","0.0-6.0-0.135","SAST","2","f","links","18","","fixation","","","",""
"802","img/120_210.png","70","image-keyboard-response","277","206285","0.0-6.0-1.135","SAST","2","f","links","18","","","self","j","120","false"
"null","<div style=""font-size:60px;"">+</div>","null","html-keyboard-response","278","206687","0.0-6.0-0.136","SAST","2","f","links","18","","fixation","","","",""
"727","img/90_300.png","70","image-keyboard-response","279","207414","0.0-6.0-1.136","SAST","2","f","links","18","","","self","f","90","true"
"null","<div style=""font-size:60px;"">+</div>","null","html-keyboard-response","280","207815","0.0-6.0-0.137","SAST","2","f","links","18","","fixation","","","",""
"535","img/150_90.png","74","image-keyboard-response","281","208351","0.0-6.0-1.137","SAST","2","f","links","18","","","self","f","150","false"
"null","<div style=""font-size:60px;"">+</div>","null","html-keyboard-response","282","208803","0.0-6.0-0.138","SAST","2","f","links","18","","fixation","","","",""
"712","img/150_60.png","74","image-keyboard-response","283","209515","0.0-6.0-1.138","SAST","2","f","links","18","","","self","f","150","false"
"null","<div style=""font-size:60px;"">+</div>","null","html-keyboard-response","284","210017","0.0-6.0-0.139","SAST","2","f","links","18","","fixation","","","",""
"677","img/30_60.png","74","image-keyboard-response","285","210694","0.0-6.0-1.139","SAST","2","f","links","18","","","self","j","30","true"
"null","<div style=""font-size:60px;"">+</div>","null","html-keyboard-response","286","211195","0.0-6.0-0.140","SAST","2","f","links","18","","fixation","","","",""
"878","img/0_60.png","74","image-keyboard-response","287","212074","0.0-6.0-1.140","SAST","2","f","links","18","","","self","j","0","true"
"null","<div style=""font-size:60px;"">+</div>","null","html-keyboard-response","288","212375","0.0-6.0-0.141","SAST","2","f","links","18","","fixation","","","",""
"934","img/120_30.png","74","image-keyboard-response","289","213310","0.0-6.0-1.141","SAST","2","f","links","18","","","self","j","120","true"
"null","<div style=""font-size:60px;"">+</div>","null","html-keyboard-response","290","213612","0.0-6.0-0.142","SAST","2","f","links","18","","fixation","","","",""
"737","img/120_180.png","70","image-keyboard-response","291","214350","0.0-6.0-1.142","SAST","2","f","links","18","","","self","j","120","false"
"null","<div style=""font-size:60px;"">+</div>","null","html-keyboard-response","292","214752","0.0-6.0-0.143","SAST","2","f","links","18","","fixation","","","",""
"713","img/60_270.png","70","image-keyboard-response","293","215466","0.0-6.0-1.143","SAST","2","f","links","18","","","self","f","60","true"
"null","<div style=""font-size:60px;"">+</div>","null","html-keyboard-response","294","215968","0.0-6.0-0.144","SAST","2","f","links","18","","fixation","","","",""
"856","img/0_240.png","70","image-keyboard-response","295","216824","0.0-6.0-1.144","SAST","2","f","links","18","","","self","f","0","true"
"null","<div style=""font-size:60px;"">+</div>","null","html-keyboard-response","296","217276","0.0-6.0-0.145","SAST","2","f","links","18","","fixation","","","",""
"626","img/30_300.png","70","image-keyboard-response","297","217902","0.0-6.0-1.145","SAST","2","f","links","18","","","self","f","30","true"
"null","<div style=""font-size:60px;"">+</div>","null","html-keyboard-response","298","218354","0.0-6.0-0.146","SAST","2","f","links","18","","fixation","","","",""
"629","img/30_90.png","74","image-keyboard-response","299","218984","0.0-6.0-1.146","SAST","2","f","links","18","","","self","j","30","true"
"null","<div style=""font-size:60px;"">+</div>","null","html-keyboard-response","300","219435","0.0-6.0-0.147","SAST","2","f","links","18","","fixation","","","",""
"601","img/60_150.png","74","image-keyboard-response","301","220037","0.0-6.0-1.147","SAST","2","f","links","18","","","self","f","60","false"
"null","<div style=""font-size:60px;"">+</div>","null","html-keyboard-response","302","220438","0.0-6.0-0.148","SAST","2","f","links","18","","fixation","","","",""
"628","img/0_30.png","74","image-keyboard-response","303","221068","0.0-6.0-1.148","SAST","2","f","links","18","","","self","j","0","true"
"null","<div style=""font-size:60px;"">+</div>","null","html-keyboard-response","304","221369","0.0-6.0-0.149","SAST","2","f","links","18","","fixation","","","",""
"627","img/120_270.png","70","image-keyboard-response","305","221997","0.0-6.0-1.149","SAST","2","f","links","18","","","self","j","120","false"
"null","<div style=""font-size:60px;"">+</div>","null","html-keyboard-response","306","222299","0.0-6.0-0.150","SAST","2","f","links","18","","fixation","","","",""
"672","img/0_150.png","74","image-keyboard-response","307","222972","0.0-6.0-1.150","SAST","2","f","links","18","","","self","j","0","true"
"null","<div style=""font-size:60px;"">+</div>","null","html-keyboard-response","308","223374","0.0-6.0-0.151","SAST","2","f","links","18","","fixation","","","",""
"626","img/150_270.png","70","image-keyboard-response","309","224000","0.0-6.0-1.151","SAST","2","f","links","18","","","self","j","150","false"
"null","<div style=""font-size:60px;"">+</div>","null","html-keyboard-response","310","224402","0.0-6.0-0.152","SAST","2","f","links","18","","fixation","","","",""
"719","img/0_90.png","74","image-keyboard-response","311","225123","0.0-6.0-1.152","SAST","2","f","links","18","","","self","j","0","true"
"null","<div style=""font-size:60px;"">+</div>","null","html-keyboard-response","312","225474","0.0-6.0-0.153","SAST","2","f","links","18","","fixation","","","",""
"868","img/L120_180.png","74","image-keyboard-response","313","226343","0.0-6.0-1.153","SAST","2","f","links","18","","","self","f","120","false"
"null","<div style=""font-size:60px;"">+</div>","null","html-keyboard-response","314","226695","0.0-6.0-0.154","SAST","2","f","links","18","","fixation","","","",""
"647","img/120_90.png","74","image-keyboard-response","315","227343","0.0-6.0-1.154","SAST","2","f","links","18","","","self","f","120","false"
"null","<div style=""font-size:60px;"">+</div>","null","html-keyboard-response","316","227694","0.0-6.0-0.155","SAST","2","f","links","18","","fixation","","","",""
"704","img/0_300.png","70","image-keyboard-response","317","228399","0.0-6.0-1.155","SAST","2","f","links","18","","","self","f","0","true"
"null","<div style=""font-size:60px;"">+</div>","null","html-keyboard-response","318","228801","0.0-6.0-0.156","SAST","2","f","links","18","","fixation","","","",""
"792","img/0_330.png","70","image-keyboard-response","319","229595","0.0-6.0-1.156","SAST","2","f","links","18","","","self","f","0","true"
"null","<div style=""font-size:60px;"">+</div>","null","html-keyboard-response","320","229996","0.0-6.0-0.157","SAST","2","f","links","18","","fixation","","","",""
"872","img/60_330.png","74","image-keyboard-response","321","230870","0.0-6.0-1.157","SAST","2","f","links","18","","","self","f","60","false"
"null","<div style=""font-size:60px;"">+</div>","null","html-keyboard-response","322","231371","0.0-6.0-0.158","SAST","2","f","links","18","","fixation","","","",""
"1192","img/90_240.png","74","image-keyboard-response","323","232564","0.0-6.0-1.158","SAST","2","f","links","18","","","self","j","90","true"
"null","<div style=""font-size:60px;"">+</div>","null","html-keyboard-response","324","233016","0.0-6.0-0.159","SAST","2","f","links","18","","fixation","","","",""
"870","img/0_60.png","74","image-keyboard-response","325","233887","0.0-6.0-1.159","SAST","2","f","links","18","","","self","j","0","true"
"null","<div style=""font-size:60px;"">+</div>","null","html-keyboard-response","326","234338","0.0-6.0-0.160","SAST","2","f","links","18","","fixation","","","",""
"598","img/0_270.png","70","image-keyboard-response","327","234938","0.0-6.0-1.160","SAST","2","f","links","18","","","self","f","0","true"
"null","<div style=""font-size:60px;"">+</div>","null","html-keyboard-response","328","235239","0.0-6.0-0.161","SAST","2","f","links","18","","fixation","","","",""
"631","img/0_240.png","70","image-keyboard-response","329","235871","0.0-6.0-1.161","SAST","2","f","links","18","","","self","f","0","true"
"null","<div style=""font-size:60px;"">+</div>","null","html-keyboard-response","330","236273","0.0-6.0-0.162","SAST","2","f","links","18","","fixation","","","",""
"1266","img/L30_180.png","74","image-keyboard-response","331","237540","0.0-6.0-1.162","SAST","2","f","links","18","","","self","f","30","false"
"null","<div style=""font-size:60px;"">+</div>","null","html-keyboard-response","332","238042","0.0-6.0-0.163","SAST","2","f","links","18","","fixation","","","",""
"687","img/30_60.png","74","image-keyboard-response","333","238730","0.0-6.0-1.163","SAST","2","f","links","18","","","self","j","30","true"
"null","<div style=""font-size:60px;"">+</div>","null","html-keyboard-response","334","239082","0.0-6.0-0.164","SAST","2","f","links","18","","fixation","","","",""
"721","img/60_30.png","74","image-keyboard-response","335","239804","0.0-6.0-1.164","SAST","2","f","links","18","","","self","j","60","true"
"null","<div style=""font-size:60px;"">+</div>","null","html-keyboard-response","336","240206","0.0-6.0-0.165","SAST","2","f","links","18","","fixation","","","",""
"685","img/90_300.png","70","image-keyboard-response","337","240891","0.0-6.0-1.165","SAST","2","f","links","18","","","self","f","90","true"
"null","<div style=""font-size:60px;"">+</div>","null","html-keyboard-response","338","241392","0.0-6.0-0.166","SAST","2","f","links","18","","fixation","","","",""
"661","img/90_330.png","70","image-keyboard-response","339","242054","0.0-6.0-1.166","SAST","2","f","links","18","","","self","f","90","true"
"null","<div style=""font-size:60px;"">+</div>","null","html-keyboard-response","340","242506","0.0-6.0-0.167","SAST","2","f","links","18","","fixation","","","",""
"736","img/90_60.png","74","image-keyboard-response","341","243243","0.0-6.0-1.167","SAST","2","f","links","18","","","self","j","90","true"
"null","<div style=""font-size:60px;"">+</div>","null","html-keyboard-response","342","243544","0.0-6.0-0.168","SAST","2","f","links","18","","fixation","","","",""
"695","img/120_210.png","70","image-keyboard-response","343","244240","0.0-6.0-1.168","SAST","2","f","links","18","","","self","j","120","false"
"null","<div style=""font-size:60px;"">+</div>","null","html-keyboard-response","344","244642","0.0-6.0-0.169","SAST","2","f","links","18","","fixation","","","",""
"534","img/90_30.png","74","image-keyboard-response","345","245177","0.0-6.0-1.169","SAST","2","f","links","18","","","self","j","90","true"
"null","<div style=""font-size:60px;"">+</div>","null","html-keyboard-response","346","245479","0.0-6.0-0.170","SAST","2","f","links","18","","fixation","","","",""
"681","img/L150_180.png","74","image-keyboard-response","347","246161","0.0-6.0-1.170","SAST","2","f","links","18","","","self","f","150","false"
"null","<div style=""font-size:60px;"">+</div>","null","html-keyboard-response","348","246563","0.0-6.0-0.171","SAST","2","f","links","18","","fixation","","","",""
"736","img/0_90.png","74","image-keyboard-response","349","247299","0.0-6.0-1.171","SAST","2","f","links","18","","","self","j","0","true"
"null","<div style=""font-size:60px;"">+</div>","null","html-keyboard-response","350","247701","0.0-6.0-0.172","SAST","2","f","links","18","","fixation","","","",""
"842","img/30_270.png","70","image-keyboard-response","351","248544","0.0-6.0-1.172","SAST","2","f","links","18","","","self","f","30","true"
"null","<div style=""font-size:60px;"">+</div>","null","html-keyboard-response","352","248996","0.0-6.0-0.173","SAST","2","f","links","18","","fixation","","","",""
"615","img/120_150.png","74","image-keyboard-response","353","249612","0.0-6.0-1.173","SAST","2","f","links","18","","","self","f","120","false"
"null","<div style=""font-size:60px;"">+</div>","null","html-keyboard-response","354","250114","0.0-6.0-0.174","SAST","2","f","links","18","","fixation","","","",""
"1017","img/60_180.png","70","image-keyboard-response","355","251132","0.0-6.0-1.174","SAST","2","f","links","18","","","self","j","60","false"
"null","<div style=""font-size:60px;"">+</div>","null","html-keyboard-response","356","251634","0.0-6.0-0.175","SAST","2","f","links","18","","fixation","","","",""
"791","img/120_180.png","70","image-keyboard-response","357","252426","0.0-6.0-1.175","SAST","2","f","links","18","","","self","j","120","false"
"null","<div style=""font-size:60px;"">+</div>","null","html-keyboard-response","358","252828","0.0-6.0-0.176","SAST","2","f","links","18","","fixation","","","",""
"924","img/60_210.png","70","image-keyboard-response","359","253753","0.0-6.0-1.176","SAST","2","f","links","18","","","self","j","60","false"
"null","<div style=""font-size:60px;"">+</div>","null","html-keyboard-response","360","254105","0.0-6.0-0.177","SAST","2","f","links","18","","fixation","","","",""
"576","img/90_150.png","74","image-keyboard-response","361","254682","0.0-6.0-1.177","SAST","2","f","links","18","","","self","f","90","false"
"null","<div style=""font-size:60px;"">+</div>","null","html-keyboard-response","362","255084","0.0-6.0-0.178","SAST","2","f","links","18","","fixation","","","",""
"671","img/0_120.png","74","image-keyboard-response","363","255755","0.0-6.0-1.178","SAST","2","f","links","18","","","self","j","0","true"
"null","<div style=""font-size:60px;"">+</div>","null","html-keyboard-response","364","256207","0.0-6.0-0.179","SAST","2","f","links","18","","fixation","","","",""
"458","img/120_90.png","74","image-keyboard-response","365","256666","0.0-6.0-1.179","SAST","2","f","links","18","","","self","f","120","false"
"null","<div style=""font-size:60px;"">+</div>","null","html-keyboard-response","366","257018","0.0-6.0-0.180","SAST","2","f","links","18","","fixation","","","",""
"670","img/0_30.png","74","image-keyboard-response","367","257688","0.0-6.0-1.180","SAST","2","f","links","18","","","self","j","0","true"
"null","<div style=""font-size:60px;"">+</div>","null","html-keyboard-response","368","257990","0.0-6.0-0.181","SAST","2","f","links","18","","fixation","","","",""
"849","img/150_120.png","74","image-keyboard-response","369","258839","0.0-6.0-1.181","SAST","2","f","links","18","","","self","f","150","false"
"null","<div style=""font-size:60px;"">+</div>","null","html-keyboard-response","370","259291","0.0-6.0-0.182","SAST","2","f","links","18","","fixation","","","",""
"550","img/120_330.png","70","image-keyboard-response","371","259841","0.0-6.0-1.182","SAST","2","f","links","18","","","self","f","120","true"
"null","<div style=""font-size:60px;"">+</div>","null","html-keyboard-response","372","260293","0.0-6.0-0.183","SAST","2","f","links","18","","fixation","","","",""
"552","img/L60_180.png","74","image-keyboard-response","373","260845","0.0-6.0-1.183","SAST","2","f","links","18","","","self","f","60","false"
"null","<div style=""font-size:60px;"">+</div>","null","html-keyboard-response","374","261247","0.0-6.0-0.184","SAST","2","f","links","18","","fixation","","","",""
"677","img/0_210.png","70","image-keyboard-response","375","261924","0.0-6.0-1.184","SAST","2","f","links","18","","","self","f","0","true"
"null","<div style=""font-size:60px;"">+</div>","null","html-keyboard-response","376","262376","0.0-6.0-0.185","SAST","2","f","links","18","","fixation","","","",""
"727","img/L120_180.png","74","image-keyboard-response","377","263103","0.0-6.0-1.185","SAST","2","f","links","18","","","self","f","120","false"
"null","<div style=""font-size:60px;"">+</div>","null","html-keyboard-response","378","263555","0.0-6.0-0.186","SAST","2","f","links","18","","fixation","","","",""
"586","img/120_30.png","74","image-keyboard-response","379","264141","0.0-6.0-1.186","SAST","2","f","links","18","","","self","j","120","true"
"null","<div style=""font-size:60px;"">+</div>","null","html-keyboard-response","380","264543","0.0-6.0-0.187","SAST","2","f","links","18","","fixation","","","",""
"545","img/60_90.png","74","image-keyboard-response","381","265089","0.0-6.0-1.187","SAST","2","f","links","18","","","self","j","60","true"
"null","<div style=""font-size:60px;"">+</div>","null","html-keyboard-response","382","265491","0.0-6.0-0.188","SAST","2","f","links","18","","fixation","","","",""
"567","img/90_120.png","74","image-keyboard-response","383","266058","0.0-6.0-1.188","SAST","2","f","links","18","","","self","f","90","false"
"null","<div style=""font-size:60px;"">+</div>","null","html-keyboard-response","384","266410","0.0-6.0-0.189","SAST","2","f","links","18","","fixation","","","",""
"617","img/150_270.png","70","image-keyboard-response","385","267027","0.0-6.0-1.189","SAST","2","f","links","18","","","self","j","150","false"
"null","<div style=""font-size:60px;"">+</div>","null","html-keyboard-response","386","267528","0.0-6.0-0.190","SAST","2","f","links","18","","fixation","","","",""
"779","img/150_240.png","70","image-keyboard-response","387","268308","0.0-6.0-1.190","SAST","2","f","links","18","","","self","j","150","false"
"null","<div style=""font-size:60px;"">+</div>","null","html-keyboard-response","388","268660","0.0-6.0-0.191","SAST","2","f","links","18","","fixation","","","",""
"734","img/150_300.png","70","image-keyboard-response","389","269394","0.0-6.0-1.191","SAST","2","f","links","18","","","self","j","150","false"
"null","<div style=""font-size:60px;"">+</div>","null","html-keyboard-response","390","269696","0.0-6.0-0.192","SAST","2","f","links","18","","fixation","","","",""
"554","img/150_60.png","74","image-keyboard-response","391","270250","0.0-6.0-1.192","SAST","2","f","links","18","","","self","f","150","false"
"null","<div style=""font-size:60px;"">+</div>","null","html-keyboard-response","392","270551","0.0-6.0-0.193","SAST","2","f","links","18","","fixation","","","",""
"670","img/60_270.png","70","image-keyboard-response","393","271223","0.0-6.0-1.193","SAST","2","f","links","18","","","self","f","60","true"
"null","<div style=""font-size:60px;"">+</div>","null","html-keyboard-response","394","271574","0.0-6.0-0.194","SAST","2","f","links","18","","fixation","","","",""
"566","img/30_300.png","70","image-keyboard-response","395","272142","0.0-6.0-1.194","SAST","2","f","links","18","","","self","f","30","true"
"null","<div style=""font-size:60px;"">+</div>","null","html-keyboard-response","396","272643","0.0-6.0-0.195","SAST","2","f","links","18","","fixation","","","",""
"558","img/L90_180.png","74","image-keyboard-response","397","273202","0.0-6.0-1.195","SAST","2","f","links","18","","","self","f","90","false"
"null","<div style=""font-size:60px;"">+</div>","null","html-keyboard-response","398","273604","0.0-6.0-0.196","SAST","2","f","links","18","","fixation","","","",""
"715","img/0_150.png","74","image-keyboard-response","399","274321","0.0-6.0-1.196","SAST","2","f","links","18","","","self","j","0","true"
"null","<div style=""font-size:60px;"">+</div>","null","html-keyboard-response","400","274721","0.0-6.0-0.197","SAST","2","f","links","18","","fixation","","","",""
"655","img/120_270.png","70","image-keyboard-response","401","275378","0.0-6.0-1.197","SAST","2","f","links","18","","","self","j","120","false"
"null","<div style=""font-size:60px;"">+</div>","null","html-keyboard-response","402","275828","0.0-6.0-0.198","SAST","2","f","links","18","","fixation","","","",""
"464","img/150_90.png","74","image-keyboard-response","403","276293","0.0-6.0-1.198","SAST","2","f","links","18","","","self","f","150","false"
"null","<div style=""font-size:60px;"">+</div>","null","html-keyboard-response","404","276645","0.0-6.0-0.199","SAST","2","f","links","18","","fixation","","","",""
"867","img/30_120.png","74","image-keyboard-response","405","277514","0.0-6.0-1.199","SAST","2","f","links","18","","","self","j","30","true"
"null","<div style=""font-size:60px;"">+</div>","null","html-keyboard-response","406","277915","0.0-6.0-0.200","SAST","2","f","links","18","","fixation","","","",""
"617","img/30_240.png","70","image-keyboard-response","407","278534","0.0-6.0-1.200","SAST","2","f","links","18","","","self","f","30","true"
"null","<div style=""font-size:60px;"">+</div>","null","html-keyboard-response","408","278985","0.0-6.0-0.201","SAST","2","f","links","18","","fixation","","","",""
"502","img/30_90.png","74","image-keyboard-response","409","279489","0.0-6.0-1.201","SAST","2","f","links","18","","","self","j","30","true"
"null","<div style=""font-size:60px;"">+</div>","null","html-keyboard-response","410","279790","0.0-6.0-0.202","SAST","2","f","links","18","","fixation","","","",""
"672","img/150_180.png","70","image-keyboard-response","411","280464","0.0-6.0-1.202","SAST","2","f","links","18","","","self","j","150","false"
"null","<div style=""font-size:60px;"">+</div>","null","html-keyboard-response","412","280815","0.0-6.0-0.203","SAST","2","f","links","18","","fixation","","","",""
"719","img/0_300.png","74","image-keyboard-response","413","281535","0.0-6.0-1.203","SAST","2","f","links","18","","","self","f","0","false"
"null","<div style=""font-size:60px;"">+</div>","null","html-keyboard-response","414","281837","0.0-6.0-0.204","SAST","2","f","links","18","","fixation","","","",""
"864","img/30_180.png","74","image-keyboard-response","415","282702","0.0-6.0-1.204","SAST","2","f","links","18","","","self","j","30","true"
"null","<div style=""font-size:60px;"">+</div>","null","html-keyboard-response","416","283054","0.0-6.0-0.205","SAST","2","f","links","18","","fixation","","","",""
"658","img/90_210.png","70","image-keyboard-response","417","283713","0.0-6.0-1.205","SAST","2","f","links","18","","","self","j","90","false"
"null","<div style=""font-size:60px;"">+</div>","null","html-keyboard-response","418","284064","0.0-6.0-0.206","SAST","2","f","links","18","","fixation","","","",""
"497","img/60_150.png","74","image-keyboard-response","419","284563","0.0-6.0-1.206","SAST","2","f","links","18","","","self","f","60","false"
"null","<div style=""font-size:60px;"">+</div>","null","html-keyboard-response","420","285064","0.0-6.0-0.207","SAST","2","f","links","18","","fixation","","","",""
"633","img/90_180.png","70","image-keyboard-response","421","285699","0.0-6.0-1.207","SAST","2","f","links","18","","","self","j","90","false"
"11528","<p>Du hast in 49% der Versuche korrekt entschieden.</p><p>Deine durchschnittliche Reaktionszeit war  733ms.</p><p>Dr&uuml;cke eine beliebige Taste, um die Session zu beenden. Vielen Dank!</p>","74","html-keyboard-response","422","297229","0.0-7.0","SAST","2","f","links","18","","","","","",""
