"rt","stimulus","key_press","trial_type","trial_index","time_elapsed","internal_node_id","subject","session","sex","handedness","age","responses","test_part","condition","correct_response","angle","correct"
"5192","<p>Mental Rotation Experiment.</p> <p>Dr&uuml;cke eine beliebige Taste, um anzufangen.</p>","72","html-keyboard-response","0","5194","0.0-0.0","SAST","3","f","links","18","","","","","",""
"4683","","","survey-text","1","9877","0.0-1.0","SAST","3","f","links","18","{""Q0"":""SAST""}","","","","",""
"2402","","","survey-text","2","12279","0.0-2.0","SAST","3","f","links","18","{""Q0"":""3""}","","","","",""
"3755","","","survey-multi-choice","3","16037","0.0-3.0","SAST","3","f","links","18","{""Q0"":""f"",""Q1"":""links""}","","","","",""
"2595","","","survey-text","4","18632","0.0-4.0","SAST","3","f","links","18","{""Q0"":""18""}","","","","",""
"29902","<p> Stell dir vor, dass du vor einem runden Tisch stehst, auf dem sich ein blauer Ball am Tischrand befindet. Entlang des Tischrands ist jeweils ein verschieden langer Pfeil. Nun bewegst du dich entlang dieses Pfeils bis an seine Spitze. Wenn du am Ende des Pfeils angekommen bist, schau zur Tischmitte. </p> <img src='img/90_180.png'></img> <br> <p>Entscheide dann, ob der Ball von deiner neuen (vorgestellten) Position links oder rechts von dir liegt.</p> <p>Dr&uuml;cke die <strong>'f'</strong>-Taste f&uuml;r links, die <strong>'j'</strong>-Taste f&uuml;r rechts.</p> <br><p> Das Bild wird jeweils 1 Sekunde lang pr&auml;sentiert. Du hast 3 Sekunden Zeit eine Entscheidung zu treffen.</p>","74","html-keyboard-response","5","48535","0.0-5.0","SAST","3","f","links","18","","","","","",""
"null","<div style=""font-size:60px;"">+</div>","null","html-keyboard-response","6","49990","0.0-6.0-0.0","SAST","3","f","links","18","","fixation","","","",""
"776","img/120_180.png","70","image-keyboard-response","7","50769","0.0-6.0-1.0","SAST","3","f","links","18","","","self","j","120","false"
"null","<div style=""font-size:60px;"">+</div>","null","html-keyboard-response","8","51121","0.0-6.0-0.1","SAST","3","f","links","18","","fixation","","","",""
"929","img/60_180.png","70","image-keyboard-response","9","52052","0.0-6.0-1.1","SAST","3","f","links","18","","","self","j","60","false"
"null","<div style=""font-size:60px;"">+</div>","null","html-keyboard-response","10","52353","0.0-6.0-0.2","SAST","3","f","links","18","","fixation","","","",""
"1073","img/L120_180.png","74","image-keyboard-response","11","53427","0.0-6.0-1.2","SAST","3","f","links","18","","","self","f","120","false"
"null","<div style=""font-size:60px;"">+</div>","null","html-keyboard-response","12","53728","0.0-6.0-0.3","SAST","3","f","links","18","","fixation","","","",""
"678","img/30_240.png","70","image-keyboard-response","13","54408","0.0-6.0-1.3","SAST","3","f","links","18","","","self","f","30","true"
"null","<div style=""font-size:60px;"">+</div>","null","html-keyboard-response","14","54809","0.0-6.0-0.4","SAST","3","f","links","18","","fixation","","","",""
"1002","img/L150_180.png","74","image-keyboard-response","15","55813","0.0-6.0-1.4","SAST","3","f","links","18","","","self","f","150","false"
"null","<div style=""font-size:60px;"">+</div>","null","html-keyboard-response","16","56114","0.0-6.0-0.5","SAST","3","f","links","18","","fixation","","","",""
"1063","img/150_60.png","74","image-keyboard-response","17","57177","0.0-6.0-1.5","SAST","3","f","links","18","","","self","f","150","false"
"null","<div style=""font-size:60px;"">+</div>","null","html-keyboard-response","18","57629","0.0-6.0-0.6","SAST","3","f","links","18","","fixation","","","",""
"772","img/0_240.png","70","image-keyboard-response","19","58403","0.0-6.0-1.6","SAST","3","f","links","18","","","self","f","0","true"
"null","<div style=""font-size:60px;"">+</div>","null","html-keyboard-response","20","58704","0.0-6.0-0.7","SAST","3","f","links","18","","fixation","","","",""
"704","img/0_60.png","74","image-keyboard-response","21","59410","0.0-6.0-1.7","SAST","3","f","links","18","","","self","j","0","true"
"null","<div style=""font-size:60px;"">+</div>","null","html-keyboard-response","22","59711","0.0-6.0-0.8","SAST","3","f","links","18","","fixation","","","",""
"882","img/150_90.png","74","image-keyboard-response","23","60594","0.0-6.0-1.8","SAST","3","f","links","18","","","self","f","150","false"
"null","<div style=""font-size:60px;"">+</div>","null","html-keyboard-response","24","61096","0.0-6.0-0.9","SAST","3","f","links","18","","fixation","","","",""
"847","img/90_300.png","70","image-keyboard-response","25","61944","0.0-6.0-1.9","SAST","3","f","links","18","","","self","f","90","true"
"null","<div style=""font-size:60px;"">+</div>","null","html-keyboard-response","26","62296","0.0-6.0-0.10","SAST","3","f","links","18","","fixation","","","",""
"715","img/L90_180.png","74","image-keyboard-response","27","63012","0.0-6.0-1.10","SAST","3","f","links","18","","","self","f","90","false"
"null","<div style=""font-size:60px;"">+</div>","null","html-keyboard-response","28","63314","0.0-6.0-0.11","SAST","3","f","links","18","","fixation","","","",""
"959","img/150_180.png","70","image-keyboard-response","29","64274","0.0-6.0-1.11","SAST","3","f","links","18","","","self","j","150","false"
"null","<div style=""font-size:60px;"">+</div>","null","html-keyboard-response","30","64676","0.0-6.0-0.12","SAST","3","f","links","18","","fixation","","","",""
"746","img/30_270.png","70","image-keyboard-response","31","65423","0.0-6.0-1.12","SAST","3","f","links","18","","","self","f","30","true"
"null","<div style=""font-size:60px;"">+</div>","null","html-keyboard-response","32","65775","0.0-6.0-0.13","SAST","3","f","links","18","","fixation","","","",""
"775","img/90_150.png","74","image-keyboard-response","33","66551","0.0-6.0-1.13","SAST","3","f","links","18","","","self","f","90","false"
"null","<div style=""font-size:60px;"">+</div>","null","html-keyboard-response","34","66853","0.0-6.0-0.14","SAST","3","f","links","18","","fixation","","","",""
"906","img/120_150.png","74","image-keyboard-response","35","67760","0.0-6.0-1.14","SAST","3","f","links","18","","","self","f","120","false"
"null","<div style=""font-size:60px;"">+</div>","null","html-keyboard-response","36","68262","0.0-6.0-0.15","SAST","3","f","links","18","","fixation","","","",""
"988","img/30_180.png","70","image-keyboard-response","37","69251","0.0-6.0-1.15","SAST","3","f","links","18","","","self","j","30","false"
"null","<div style=""font-size:60px;"">+</div>","null","html-keyboard-response","38","69703","0.0-6.0-0.16","SAST","3","f","links","18","","fixation","","","",""
"875","img/L60_180.png","74","image-keyboard-response","39","70579","0.0-6.0-1.16","SAST","3","f","links","18","","","self","f","60","false"
"null","<div style=""font-size:60px;"">+</div>","null","html-keyboard-response","40","71031","0.0-6.0-0.17","SAST","3","f","links","18","","fixation","","","",""
"1098","img/120_270.png","70","image-keyboard-response","41","72130","0.0-6.0-1.17","SAST","3","f","links","18","","","self","j","120","false"
"null","<div style=""font-size:60px;"">+</div>","null","html-keyboard-response","42","72432","0.0-6.0-0.18","SAST","3","f","links","18","","fixation","","","",""
"1006","img/0_270.png","74","image-keyboard-response","43","73439","0.0-6.0-1.18","SAST","3","f","links","18","","","self","f","0","false"
"null","<div style=""font-size:60px;"">+</div>","null","html-keyboard-response","44","73841","0.0-6.0-0.19","SAST","3","f","links","18","","fixation","","","",""
"1061","img/0_210.png","70","image-keyboard-response","45","74902","0.0-6.0-1.19","SAST","3","f","links","18","","","self","f","0","true"
"null","<div style=""font-size:60px;"">+</div>","null","html-keyboard-response","46","75254","0.0-6.0-0.20","SAST","3","f","links","18","","fixation","","","",""
"958","img/90_330.png","70","image-keyboard-response","47","76213","0.0-6.0-1.20","SAST","3","f","links","18","","","self","f","90","true"
"null","<div style=""font-size:60px;"">+</div>","null","html-keyboard-response","48","76515","0.0-6.0-0.21","SAST","3","f","links","18","","fixation","","","",""
"1069","img/30_300.png","70","image-keyboard-response","49","77585","0.0-6.0-1.21","SAST","3","f","links","18","","","self","f","30","true"
"null","<div style=""font-size:60px;"">+</div>","null","html-keyboard-response","50","77887","0.0-6.0-0.22","SAST","3","f","links","18","","fixation","","","",""
"930","img/60_330.png","70","image-keyboard-response","51","78818","0.0-6.0-1.22","SAST","3","f","links","18","","","self","f","60","true"
"null","<div style=""font-size:60px;"">+</div>","null","html-keyboard-response","52","79219","0.0-6.0-0.23","SAST","3","f","links","18","","fixation","","","",""
"734","img/0_330.png","70","image-keyboard-response","53","79954","0.0-6.0-1.23","SAST","3","f","links","18","","","self","f","0","true"
"null","<div style=""font-size:60px;"">+</div>","null","html-keyboard-response","54","80356","0.0-6.0-0.24","SAST","3","f","links","18","","fixation","","","",""
"700","img/0_120.png","74","image-keyboard-response","55","81057","0.0-6.0-1.24","SAST","3","f","links","18","","","self","j","0","true"
"null","<div style=""font-size:60px;"">+</div>","null","html-keyboard-response","56","81409","0.0-6.0-0.25","SAST","3","f","links","18","","fixation","","","",""
"858","img/90_120.png","74","image-keyboard-response","57","82268","0.0-6.0-1.25","SAST","3","f","links","18","","","self","f","90","false"
"null","<div style=""font-size:60px;"">+</div>","null","html-keyboard-response","58","82720","0.0-6.0-0.26","SAST","3","f","links","18","","fixation","","","",""
"1092","img/30_120.png","74","image-keyboard-response","59","83812","0.0-6.0-1.26","SAST","3","f","links","18","","","self","j","30","true"
"null","<div style=""font-size:60px;"">+</div>","null","html-keyboard-response","60","84263","0.0-6.0-0.27","SAST","3","f","links","18","","fixation","","","",""
"900","img/120_330.png","70","image-keyboard-response","61","85164","0.0-6.0-1.27","SAST","3","f","links","18","","","self","f","120","true"
"null","<div style=""font-size:60px;"">+</div>","null","html-keyboard-response","62","85666","0.0-6.0-0.28","SAST","3","f","links","18","","fixation","","","",""
"1084","img/150_240.png","70","image-keyboard-response","63","86750","0.0-6.0-1.28","SAST","3","f","links","18","","","self","j","150","false"
"null","<div style=""font-size:60px;"">+</div>","null","html-keyboard-response","64","87102","0.0-6.0-0.29","SAST","3","f","links","18","","fixation","","","",""
"670","img/0_150.png","74","image-keyboard-response","65","87772","0.0-6.0-1.29","SAST","3","f","links","18","","","self","j","0","true"
"null","<div style=""font-size:60px;"">+</div>","null","html-keyboard-response","66","88124","0.0-6.0-0.30","SAST","3","f","links","18","","fixation","","","",""
"992","img/120_90.png","74","image-keyboard-response","67","89116","0.0-6.0-1.30","SAST","3","f","links","18","","","self","f","120","false"
"null","<div style=""font-size:60px;"">+</div>","null","html-keyboard-response","68","89517","0.0-6.0-0.31","SAST","3","f","links","18","","fixation","","","",""
"852","img/120_210.png","70","image-keyboard-response","69","90370","0.0-6.0-1.31","SAST","3","f","links","18","","","self","j","120","false"
"null","<div style=""font-size:60px;"">+</div>","null","html-keyboard-response","70","90872","0.0-6.0-0.32","SAST","3","f","links","18","","fixation","","","",""
"998","img/30_60.png","74","image-keyboard-response","71","91870","0.0-6.0-1.32","SAST","3","f","links","18","","","self","j","30","true"
"null","<div style=""font-size:60px;"">+</div>","null","html-keyboard-response","72","92322","0.0-6.0-0.33","SAST","3","f","links","18","","fixation","","","",""
"1242","img/60_270.png","70","image-keyboard-response","73","93566","0.0-6.0-1.33","SAST","3","f","links","18","","","self","f","60","true"
"null","<div style=""font-size:60px;"">+</div>","null","html-keyboard-response","74","93917","0.0-6.0-0.34","SAST","3","f","links","18","","fixation","","","",""
"962","img/0_90.png","74","image-keyboard-response","75","94880","0.0-6.0-1.34","SAST","3","f","links","18","","","self","j","0","true"
"null","<div style=""font-size:60px;"">+</div>","null","html-keyboard-response","76","95381","0.0-6.0-0.35","SAST","3","f","links","18","","fixation","","","",""
"1074","img/60_150.png","74","image-keyboard-response","77","96456","0.0-6.0-1.35","SAST","3","f","links","18","","","self","f","60","false"
"null","<div style=""font-size:60px;"">+</div>","null","html-keyboard-response","78","96808","0.0-6.0-0.36","SAST","3","f","links","18","","fixation","","","",""
"1064","img/90_30.png","74","image-keyboard-response","79","97873","0.0-6.0-1.36","SAST","3","f","links","18","","","self","j","90","true"
"null","<div style=""font-size:60px;"">+</div>","null","html-keyboard-response","80","98275","0.0-6.0-0.37","SAST","3","f","links","18","","fixation","","","",""
"894","img/60_30.png","74","image-keyboard-response","81","99171","0.0-6.0-1.37","SAST","3","f","links","18","","","self","j","60","true"
"null","<div style=""font-size:60px;"">+</div>","null","html-keyboard-response","82","99672","0.0-6.0-0.38","SAST","3","f","links","18","","fixation","","","",""
"969","img/0_300.png","70","image-keyboard-response","83","100643","0.0-6.0-1.38","SAST","3","f","links","18","","","self","f","0","true"
"null","<div style=""font-size:60px;"">+</div>","null","html-keyboard-response","84","100994","0.0-6.0-0.39","SAST","3","f","links","18","","fixation","","","",""
"1107","img/150_300.png","70","image-keyboard-response","85","102102","0.0-6.0-1.39","SAST","3","f","links","18","","","self","j","150","false"
"null","<div style=""font-size:60px;"">+</div>","null","html-keyboard-response","86","102404","0.0-6.0-0.40","SAST","3","f","links","18","","fixation","","","",""
"1254","img/150_120.png","74","image-keyboard-response","87","103659","0.0-6.0-1.40","SAST","3","f","links","18","","","self","f","150","false"
"null","<div style=""font-size:60px;"">+</div>","null","html-keyboard-response","88","104061","0.0-6.0-0.41","SAST","3","f","links","18","","fixation","","","",""
"896","img/60_210.png","70","image-keyboard-response","89","104959","0.0-6.0-1.41","SAST","3","f","links","18","","","self","j","60","false"
"null","<div style=""font-size:60px;"">+</div>","null","html-keyboard-response","90","105410","0.0-6.0-0.42","SAST","3","f","links","18","","fixation","","","",""
"794","img/30_90.png","74","image-keyboard-response","91","106206","0.0-6.0-1.42","SAST","3","f","links","18","","","self","j","30","true"
"null","<div style=""font-size:60px;"">+</div>","null","html-keyboard-response","92","106507","0.0-6.0-0.43","SAST","3","f","links","18","","fixation","","","",""
"828","img/90_210.png","70","image-keyboard-response","93","107337","0.0-6.0-1.43","SAST","3","f","links","18","","","self","j","90","false"
"null","<div style=""font-size:60px;"">+</div>","null","html-keyboard-response","94","107638","0.0-6.0-0.44","SAST","3","f","links","18","","fixation","","","",""
"921","img/L30_180.png","74","image-keyboard-response","95","108562","0.0-6.0-1.44","SAST","3","f","links","18","","","self","f","30","false"
"null","<div style=""font-size:60px;"">+</div>","null","html-keyboard-response","96","109013","0.0-6.0-0.45","SAST","3","f","links","18","","fixation","","","",""
"787","img/90_180.png","70","image-keyboard-response","97","109801","0.0-6.0-1.45","SAST","3","f","links","18","","","self","j","90","false"
"null","<div style=""font-size:60px;"">+</div>","null","html-keyboard-response","98","110102","0.0-6.0-0.46","SAST","3","f","links","18","","fixation","","","",""
"854","img/0_30.png","74","image-keyboard-response","99","110957","0.0-6.0-1.46","SAST","3","f","links","18","","","self","j","0","true"
"null","<div style=""font-size:60px;"">+</div>","null","html-keyboard-response","100","111359","0.0-6.0-0.47","SAST","3","f","links","18","","fixation","","","",""
"777","img/90_240.png","70","image-keyboard-response","101","112137","0.0-6.0-1.47","SAST","3","f","links","18","","","self","j","90","false"
"null","<div style=""font-size:60px;"">+</div>","null","html-keyboard-response","102","112639","0.0-6.0-0.48","SAST","3","f","links","18","","fixation","","","",""
"820","img/60_90.png","74","image-keyboard-response","103","113460","0.0-6.0-1.48","SAST","3","f","links","18","","","self","j","60","true"
"null","<div style=""font-size:60px;"">+</div>","null","html-keyboard-response","104","113762","0.0-6.0-0.49","SAST","3","f","links","18","","fixation","","","",""
"1064","img/150_270.png","70","image-keyboard-response","105","114827","0.0-6.0-1.49","SAST","3","f","links","18","","","self","j","150","false"
"null","<div style=""font-size:60px;"">+</div>","null","html-keyboard-response","106","115129","0.0-6.0-0.50","SAST","3","f","links","18","","fixation","","","",""
"932","img/120_30.png","74","image-keyboard-response","107","116062","0.0-6.0-1.50","SAST","3","f","links","18","","","self","j","120","true"
"null","<div style=""font-size:60px;"">+</div>","null","html-keyboard-response","108","116464","0.0-6.0-0.51","SAST","3","f","links","18","","fixation","","","",""
"907","img/90_60.png","74","image-keyboard-response","109","117372","0.0-6.0-1.51","SAST","3","f","links","18","","","self","j","90","true"
"null","<div style=""font-size:60px;"">+</div>","null","html-keyboard-response","110","117674","0.0-6.0-0.52","SAST","3","f","links","18","","fixation","","","",""
"865","img/60_270.png","70","image-keyboard-response","111","118540","0.0-6.0-1.52","SAST","3","f","links","18","","","self","f","60","true"
"null","<div style=""font-size:60px;"">+</div>","null","html-keyboard-response","112","118842","0.0-6.0-0.53","SAST","3","f","links","18","","fixation","","","",""
"907","img/30_60.png","74","image-keyboard-response","113","119749","0.0-6.0-1.53","SAST","3","f","links","18","","","self","j","30","true"
"null","<div style=""font-size:60px;"">+</div>","null","html-keyboard-response","114","120251","0.0-6.0-0.54","SAST","3","f","links","18","","fixation","","","",""
"1066","img/150_180.png","70","image-keyboard-response","115","121318","0.0-6.0-1.54","SAST","3","f","links","18","","","self","j","150","false"
"null","<div style=""font-size:60px;"">+</div>","null","html-keyboard-response","116","121820","0.0-6.0-0.55","SAST","3","f","links","18","","fixation","","","",""
"672","img/0_120.png","74","image-keyboard-response","117","122492","0.0-6.0-1.55","SAST","3","f","links","18","","","self","j","0","true"
"null","<div style=""font-size:60px;"">+</div>","null","html-keyboard-response","118","122993","0.0-6.0-0.56","SAST","3","f","links","18","","fixation","","","",""
"770","img/60_90.png","74","image-keyboard-response","119","123764","0.0-6.0-1.56","SAST","3","f","links","18","","","self","j","60","true"
"null","<div style=""font-size:60px;"">+</div>","null","html-keyboard-response","120","124266","0.0-6.0-0.57","SAST","3","f","links","18","","fixation","","","",""
"1075","img/L90_180.png","74","image-keyboard-response","121","125341","0.0-6.0-1.57","SAST","3","f","links","18","","","self","f","90","false"
"null","<div style=""font-size:60px;"">+</div>","null","html-keyboard-response","122","125742","0.0-6.0-0.58","SAST","3","f","links","18","","fixation","","","",""
"1091","img/150_90.png","70","image-keyboard-response","123","126834","0.0-6.0-1.58","SAST","3","f","links","18","","","self","f","150","true"
"null","<div style=""font-size:60px;"">+</div>","null","html-keyboard-response","124","127286","0.0-6.0-0.59","SAST","3","f","links","18","","fixation","","","",""
"649","img/90_60.png","74","image-keyboard-response","125","127935","0.0-6.0-1.59","SAST","3","f","links","18","","","self","j","90","true"
"null","<div style=""font-size:60px;"">+</div>","null","html-keyboard-response","126","128236","0.0-6.0-0.60","SAST","3","f","links","18","","fixation","","","",""
"1103","img/120_210.png","70","image-keyboard-response","127","129340","0.0-6.0-1.60","SAST","3","f","links","18","","","self","j","120","false"
"null","<div style=""font-size:60px;"">+</div>","null","html-keyboard-response","128","129792","0.0-6.0-0.61","SAST","3","f","links","18","","fixation","","","",""
"923","img/30_180.png","70","image-keyboard-response","129","130715","0.0-6.0-1.61","SAST","3","f","links","18","","","self","j","30","false"
"null","<div style=""font-size:60px;"">+</div>","null","html-keyboard-response","130","131117","0.0-6.0-0.62","SAST","3","f","links","18","","fixation","","","",""
"847","img/120_150.png","74","image-keyboard-response","131","131964","0.0-6.0-1.62","SAST","3","f","links","18","","","self","f","120","false"
"null","<div style=""font-size:60px;"">+</div>","null","html-keyboard-response","132","132316","0.0-6.0-0.63","SAST","3","f","links","18","","fixation","","","",""
"934","img/150_300.png","70","image-keyboard-response","133","133250","0.0-6.0-1.63","SAST","3","f","links","18","","","self","j","150","false"
"null","<div style=""font-size:60px;"">+</div>","null","html-keyboard-response","134","133552","0.0-6.0-0.64","SAST","3","f","links","18","","fixation","","","",""
"1211","img/60_30.png","74","image-keyboard-response","135","134763","0.0-6.0-1.64","SAST","3","f","links","18","","","self","j","60","true"
"null","<div style=""font-size:60px;"">+</div>","null","html-keyboard-response","136","135215","0.0-6.0-0.65","SAST","3","f","links","18","","fixation","","","",""
"766","img/0_240.png","70","image-keyboard-response","137","135981","0.0-6.0-1.65","SAST","3","f","links","18","","","self","f","0","true"
"null","<div style=""font-size:60px;"">+</div>","null","html-keyboard-response","138","136482","0.0-6.0-0.66","SAST","3","f","links","18","","fixation","","","",""
"976","img/L60_180.png","74","image-keyboard-response","139","137458","0.0-6.0-1.66","SAST","3","f","links","18","","","self","f","60","false"
"null","<div style=""font-size:60px;"">+</div>","null","html-keyboard-response","140","137910","0.0-6.0-0.67","SAST","3","f","links","18","","fixation","","","",""
"821","img/90_330.png","70","image-keyboard-response","141","138732","0.0-6.0-1.67","SAST","3","f","links","18","","","self","f","90","true"
"null","<div style=""font-size:60px;"">+</div>","null","html-keyboard-response","142","139133","0.0-6.0-0.68","SAST","3","f","links","18","","fixation","","","",""
"936","img/150_270.png","70","image-keyboard-response","143","140070","0.0-6.0-1.68","SAST","3","f","links","18","","","self","j","150","false"
"null","<div style=""font-size:60px;"">+</div>","null","html-keyboard-response","144","140471","0.0-6.0-0.69","SAST","3","f","links","18","","fixation","","","",""
"772","img/30_270.png","70","image-keyboard-response","145","141243","0.0-6.0-1.69","SAST","3","f","links","18","","","self","f","30","true"
"null","<div style=""font-size:60px;"">+</div>","null","html-keyboard-response","146","141595","0.0-6.0-0.70","SAST","3","f","links","18","","fixation","","","",""
"673","img/30_120.png","74","image-keyboard-response","147","142269","0.0-6.0-1.70","SAST","3","f","links","18","","","self","j","30","true"
"null","<div style=""font-size:60px;"">+</div>","null","html-keyboard-response","148","142620","0.0-6.0-0.71","SAST","3","f","links","18","","fixation","","","",""
"766","img/0_60.png","74","image-keyboard-response","149","143388","0.0-6.0-1.71","SAST","3","f","links","18","","","self","j","0","true"
"null","<div style=""font-size:60px;"">+</div>","null","html-keyboard-response","150","143839","0.0-6.0-0.72","SAST","3","f","links","18","","fixation","","","",""
"829","img/L150_180.png","74","image-keyboard-response","151","144669","0.0-6.0-1.72","SAST","3","f","links","18","","","self","f","150","false"
"null","<div style=""font-size:60px;"">+</div>","null","html-keyboard-response","152","145071","0.0-6.0-0.73","SAST","3","f","links","18","","fixation","","","",""
"932","img/60_150.png","74","image-keyboard-response","153","146003","0.0-6.0-1.73","SAST","3","f","links","18","","","self","f","60","false"
"null","<div style=""font-size:60px;"">+</div>","null","html-keyboard-response","154","146454","0.0-6.0-0.74","SAST","3","f","links","18","","fixation","","","",""
"1069","img/120_270.png","70","image-keyboard-response","155","147524","0.0-6.0-1.74","SAST","3","f","links","18","","","self","j","120","false"
"null","<div style=""font-size:60px;"">+</div>","null","html-keyboard-response","156","147825","0.0-6.0-0.75","SAST","3","f","links","18","","fixation","","","",""
"847","img/90_210.png","70","image-keyboard-response","157","148673","0.0-6.0-1.75","SAST","3","f","links","18","","","self","j","90","false"
"null","<div style=""font-size:60px;"">+</div>","null","html-keyboard-response","158","148974","0.0-6.0-0.76","SAST","3","f","links","18","","fixation","","","",""
"1084","img/60_210.png","70","image-keyboard-response","159","150060","0.0-6.0-1.76","SAST","3","f","links","18","","","self","j","60","false"
"null","<div style=""font-size:60px;"">+</div>","null","html-keyboard-response","160","150561","0.0-6.0-0.77","SAST","3","f","links","18","","fixation","","","",""
"768","img/90_240.png","70","image-keyboard-response","161","151331","0.0-6.0-1.77","SAST","3","f","links","18","","","self","j","90","false"
"null","<div style=""font-size:60px;"">+</div>","null","html-keyboard-response","162","151632","0.0-6.0-0.78","SAST","3","f","links","18","","fixation","","","",""
"948","img/150_240.png","70","image-keyboard-response","163","152582","0.0-6.0-1.78","SAST","3","f","links","18","","","self","j","150","false"
"null","<div style=""font-size:60px;"">+</div>","null","html-keyboard-response","164","153083","0.0-6.0-0.79","SAST","3","f","links","18","","fixation","","","",""
"823","img/0_270.png","70","image-keyboard-response","165","153907","0.0-6.0-1.79","SAST","3","f","links","18","","","self","f","0","true"
"null","<div style=""font-size:60px;"">+</div>","null","html-keyboard-response","166","154409","0.0-6.0-0.80","SAST","3","f","links","18","","fixation","","","",""
"942","img/90_120.png","74","image-keyboard-response","167","155353","0.0-6.0-1.80","SAST","3","f","links","18","","","self","f","90","false"
"null","<div style=""font-size:60px;"">+</div>","null","html-keyboard-response","168","155854","0.0-6.0-0.81","SAST","3","f","links","18","","fixation","","","",""
"986","img/60_180.png","70","image-keyboard-response","169","156842","0.0-6.0-1.81","SAST","3","f","links","18","","","self","j","60","false"
"null","<div style=""font-size:60px;"">+</div>","null","html-keyboard-response","170","157143","0.0-6.0-0.82","SAST","3","f","links","18","","fixation","","","",""
"929","img/L120_180.png","74","image-keyboard-response","171","158073","0.0-6.0-1.82","SAST","3","f","links","18","","","self","f","120","false"
"null","<div style=""font-size:60px;"">+</div>","null","html-keyboard-response","172","158425","0.0-6.0-0.83","SAST","3","f","links","18","","fixation","","","",""
"1132","img/0_300.png","74","image-keyboard-response","173","159558","0.0-6.0-1.83","SAST","3","f","links","18","","","self","f","0","false"
"null","<div style=""font-size:60px;"">+</div>","null","html-keyboard-response","174","159860","0.0-6.0-0.84","SAST","3","f","links","18","","fixation","","","",""
"985","img/90_300.png","70","image-keyboard-response","175","160846","0.0-6.0-1.84","SAST","3","f","links","18","","","self","f","90","true"
"null","<div style=""font-size:60px;"">+</div>","null","html-keyboard-response","176","161148","0.0-6.0-0.85","SAST","3","f","links","18","","fixation","","","",""
"1330","img/120_330.png","74","image-keyboard-response","177","162478","0.0-6.0-1.85","SAST","3","f","links","18","","","self","f","120","false"
"null","<div style=""font-size:60px;"">+</div>","null","html-keyboard-response","178","162880","0.0-6.0-0.86","SAST","3","f","links","18","","fixation","","","",""
"1178","img/150_60.png","70","image-keyboard-response","179","164059","0.0-6.0-1.86","SAST","3","f","links","18","","","self","f","150","true"
"null","<div style=""font-size:60px;"">+</div>","null","html-keyboard-response","180","164511","0.0-6.0-0.87","SAST","3","f","links","18","","fixation","","","",""
"null","img/30_300.png","null","image-keyboard-response","181","167513","0.0-6.0-1.87","SAST","3","f","links","18","","","self","f","30","false"
"null","<div style=""font-size:60px;"">+</div>","null","html-keyboard-response","182","167915","0.0-6.0-0.88","SAST","3","f","links","18","","fixation","","","",""
"940","img/30_90.png","74","image-keyboard-response","183","168857","0.0-6.0-1.88","SAST","3","f","links","18","","","self","j","30","true"
"null","<div style=""font-size:60px;"">+</div>","null","html-keyboard-response","184","169159","0.0-6.0-0.89","SAST","3","f","links","18","","fixation","","","",""
"960","img/150_120.png","74","image-keyboard-response","185","170119","0.0-6.0-1.89","SAST","3","f","links","18","","","self","f","150","false"
"null","<div style=""font-size:60px;"">+</div>","null","html-keyboard-response","186","170521","0.0-6.0-0.90","SAST","3","f","links","18","","fixation","","","",""
"1264","img/90_30.png","74","image-keyboard-response","187","171785","0.0-6.0-1.90","SAST","3","f","links","18","","","self","j","90","true"
"null","<div style=""font-size:60px;"">+</div>","null","html-keyboard-response","188","172287","0.0-6.0-0.91","SAST","3","f","links","18","","fixation","","","",""
"766","img/90_180.png","70","image-keyboard-response","189","173054","0.0-6.0-1.91","SAST","3","f","links","18","","","self","j","90","false"
"null","<div style=""font-size:60px;"">+</div>","null","html-keyboard-response","190","173406","0.0-6.0-0.92","SAST","3","f","links","18","","fixation","","","",""
"590","img/120_30.png","74","image-keyboard-response","191","173996","0.0-6.0-1.92","SAST","3","f","links","18","","","self","j","120","true"
"null","<div style=""font-size:60px;"">+</div>","null","html-keyboard-response","192","174347","0.0-6.0-0.93","SAST","3","f","links","18","","fixation","","","",""
"1071","img/60_330.png","70","image-keyboard-response","193","175419","0.0-6.0-1.93","SAST","3","f","links","18","","","self","f","60","true"
"null","<div style=""font-size:60px;"">+</div>","null","html-keyboard-response","194","175770","0.0-6.0-0.94","SAST","3","f","links","18","","fixation","","","",""
"1065","img/90_150.png","74","image-keyboard-response","195","176836","0.0-6.0-1.94","SAST","3","f","links","18","","","self","f","90","false"
"null","<div style=""font-size:60px;"">+</div>","null","html-keyboard-response","196","177187","0.0-6.0-0.95","SAST","3","f","links","18","","fixation","","","",""
"1372","img/30_240.png","70","image-keyboard-response","197","178561","0.0-6.0-1.95","SAST","3","f","links","18","","","self","f","30","true"
"null","<div style=""font-size:60px;"">+</div>","null","html-keyboard-response","198","179062","0.0-6.0-0.96","SAST","3","f","links","18","","fixation","","","",""
"929","img/0_150.png","74","image-keyboard-response","199","179992","0.0-6.0-1.96","SAST","3","f","links","18","","","self","j","0","true"
"null","<div style=""font-size:60px;"">+</div>","null","html-keyboard-response","200","180293","0.0-6.0-0.97","SAST","3","f","links","18","","fixation","","","",""
"1218","img/120_180.png","70","image-keyboard-response","201","181512","0.0-6.0-1.97","SAST","3","f","links","18","","","self","j","120","false"
"null","<div style=""font-size:60px;"">+</div>","null","html-keyboard-response","202","181864","0.0-6.0-0.98","SAST","3","f","links","18","","fixation","","","",""
"1214","img/0_210.png","74","image-keyboard-response","203","183080","0.0-6.0-1.98","SAST","3","f","links","18","","","self","f","0","false"
"null","<div style=""font-size:60px;"">+</div>","null","html-keyboard-response","204","183481","0.0-6.0-0.99","SAST","3","f","links","18","","fixation","","","",""
"1215","img/0_90.png","74","image-keyboard-response","205","184697","0.0-6.0-1.99","SAST","3","f","links","18","","","self","j","0","true"
"null","<div style=""font-size:60px;"">+</div>","null","html-keyboard-response","206","185149","0.0-6.0-0.100","SAST","3","f","links","18","","fixation","","","",""
"735","img/0_330.png","70","image-keyboard-response","207","185885","0.0-6.0-1.100","SAST","3","f","links","18","","","self","f","0","true"
"null","<div style=""font-size:60px;"">+</div>","null","html-keyboard-response","208","186187","0.0-6.0-0.101","SAST","3","f","links","18","","fixation","","","",""
"661","img/0_30.png","74","image-keyboard-response","209","186848","0.0-6.0-1.101","SAST","3","f","links","18","","","self","j","0","true"
"null","<div style=""font-size:60px;"">+</div>","null","html-keyboard-response","210","187350","0.0-6.0-0.102","SAST","3","f","links","18","","fixation","","","",""
"1089","img/120_90.png","74","image-keyboard-response","211","188440","0.0-6.0-1.102","SAST","3","f","links","18","","","self","f","120","false"
"null","<div style=""font-size:60px;"">+</div>","null","html-keyboard-response","212","188842","0.0-6.0-0.103","SAST","3","f","links","18","","fixation","","","",""
"1339","img/L30_180.png","74","image-keyboard-response","213","190182","0.0-6.0-1.103","SAST","3","f","links","18","","","self","f","30","false"
"null","<div style=""font-size:60px;"">+</div>","null","html-keyboard-response","214","190634","0.0-6.0-0.104","SAST","3","f","links","18","","fixation","","","",""
"1085","img/60_150.png","70","image-keyboard-response","215","191720","0.0-6.0-1.104","SAST","3","f","links","18","","","self","f","60","true"
"null","<div style=""font-size:60px;"">+</div>","null","html-keyboard-response","216","192172","0.0-6.0-0.105","SAST","3","f","links","18","","fixation","","","",""
"949","img/60_180.png","70","image-keyboard-response","217","193122","0.0-6.0-1.105","SAST","3","f","links","18","","","self","j","60","false"
"null","<div style=""font-size:60px;"">+</div>","null","html-keyboard-response","218","193524","0.0-6.0-0.106","SAST","3","f","links","18","","fixation","","","",""
"1291","img/150_240.png","74","image-keyboard-response","219","194816","0.0-6.0-1.106","SAST","3","f","links","18","","","self","j","150","true"
"null","<div style=""font-size:60px;"">+</div>","null","html-keyboard-response","220","195268","0.0-6.0-0.107","SAST","3","f","links","18","","fixation","","","",""
"893","img/90_30.png","74","image-keyboard-response","221","196162","0.0-6.0-1.107","SAST","3","f","links","18","","","self","j","90","true"
"null","<div style=""font-size:60px;"">+</div>","null","html-keyboard-response","222","196614","0.0-6.0-0.108","SAST","3","f","links","18","","fixation","","","",""
"1143","img/120_210.png","70","image-keyboard-response","223","197758","0.0-6.0-1.108","SAST","3","f","links","18","","","self","j","120","false"
"null","<div style=""font-size:60px;"">+</div>","null","html-keyboard-response","224","198110","0.0-6.0-0.109","SAST","3","f","links","18","","fixation","","","",""
"1296","img/0_270.png","74","image-keyboard-response","225","199406","0.0-6.0-1.109","SAST","3","f","links","18","","","self","f","0","false"
"null","<div style=""font-size:60px;"">+</div>","null","html-keyboard-response","226","199808","0.0-6.0-0.110","SAST","3","f","links","18","","fixation","","","",""
"1077","img/90_240.png","70","image-keyboard-response","227","200885","0.0-6.0-1.110","SAST","3","f","links","18","","","self","j","90","false"
"null","<div style=""font-size:60px;"">+</div>","null","html-keyboard-response","228","201237","0.0-6.0-0.111","SAST","3","f","links","18","","fixation","","","",""
"963","img/L90_180.png","74","image-keyboard-response","229","202200","0.0-6.0-1.111","SAST","3","f","links","18","","","self","f","90","false"
"null","<div style=""font-size:60px;"">+</div>","null","html-keyboard-response","230","202652","0.0-6.0-0.112","SAST","3","f","links","18","","fixation","","","",""
"969","img/0_90.png","74","image-keyboard-response","231","203622","0.0-6.0-1.112","SAST","3","f","links","18","","","self","j","0","true"
"null","<div style=""font-size:60px;"">+</div>","null","html-keyboard-response","232","204024","0.0-6.0-0.113","SAST","3","f","links","18","","fixation","","","",""
"951","img/120_330.png","70","image-keyboard-response","233","204975","0.0-6.0-1.113","SAST","3","f","links","18","","","self","f","120","true"
"null","<div style=""font-size:60px;"">+</div>","null","html-keyboard-response","234","205427","0.0-6.0-0.114","SAST","3","f","links","18","","fixation","","","",""
"1276","img/90_300.png","70","image-keyboard-response","235","206704","0.0-6.0-1.114","SAST","3","f","links","18","","","self","f","90","true"
"null","<div style=""font-size:60px;"">+</div>","null","html-keyboard-response","236","207156","0.0-6.0-0.115","SAST","3","f","links","18","","fixation","","","",""
"1065","img/L60_180.png","74","image-keyboard-response","237","208221","0.0-6.0-1.115","SAST","3","f","links","18","","","self","f","60","false"
"null","<div style=""font-size:60px;"">+</div>","null","html-keyboard-response","238","208673","0.0-6.0-0.116","SAST","3","f","links","18","","fixation","","","",""
"1069","img/30_300.png","74","image-keyboard-response","239","209744","0.0-6.0-1.116","SAST","3","f","links","18","","","self","f","30","false"
"null","<div style=""font-size:60px;"">+</div>","null","html-keyboard-response","240","210145","0.0-6.0-0.117","SAST","3","f","links","18","","fixation","","","",""
"1111","img/30_60.png","74","image-keyboard-response","241","211257","0.0-6.0-1.117","SAST","3","f","links","18","","","self","j","30","true"
"null","<div style=""font-size:60px;"">+</div>","null","html-keyboard-response","242","211609","0.0-6.0-0.118","SAST","3","f","links","18","","fixation","","","",""
"922","img/150_120.png","70","image-keyboard-response","243","212531","0.0-6.0-1.118","SAST","3","f","links","18","","","self","f","150","true"
"null","<div style=""font-size:60px;"">+</div>","null","html-keyboard-response","244","212833","0.0-6.0-0.119","SAST","3","f","links","18","","fixation","","","",""
"860","img/0_240.png","70","image-keyboard-response","245","213694","0.0-6.0-1.119","SAST","3","f","links","18","","","self","f","0","true"
"null","<div style=""font-size:60px;"">+</div>","null","html-keyboard-response","246","214146","0.0-6.0-0.120","SAST","3","f","links","18","","fixation","","","",""
"759","img/30_120.png","74","image-keyboard-response","247","214905","0.0-6.0-1.120","SAST","3","f","links","18","","","self","j","30","true"
"null","<div style=""font-size:60px;"">+</div>","null","html-keyboard-response","248","215206","0.0-6.0-0.121","SAST","3","f","links","18","","fixation","","","",""
"937","img/30_240.png","70","image-keyboard-response","249","216143","0.0-6.0-1.121","SAST","3","f","links","18","","","self","f","30","true"
"null","<div style=""font-size:60px;"">+</div>","null","html-keyboard-response","250","216545","0.0-6.0-0.122","SAST","3","f","links","18","","fixation","","","",""
"1347","img/90_180.png","70","image-keyboard-response","251","217892","0.0-6.0-1.122","SAST","3","f","links","18","","","self","j","90","false"
"null","<div style=""font-size:60px;"">+</div>","null","html-keyboard-response","252","218293","0.0-6.0-0.123","SAST","3","f","links","18","","fixation","","","",""
"817","img/0_60.png","74","image-keyboard-response","253","219112","0.0-6.0-1.123","SAST","3","f","links","18","","","self","j","0","true"
"null","<div style=""font-size:60px;"">+</div>","null","html-keyboard-response","254","219413","0.0-6.0-0.124","SAST","3","f","links","18","","fixation","","","",""
"1270","img/30_90.png","74","image-keyboard-response","255","220684","0.0-6.0-1.124","SAST","3","f","links","18","","","self","j","30","true"
"null","<div style=""font-size:60px;"">+</div>","null","html-keyboard-response","256","221185","0.0-6.0-0.125","SAST","3","f","links","18","","fixation","","","",""
"801","img/0_30.png","74","image-keyboard-response","257","221988","0.0-6.0-1.125","SAST","3","f","links","18","","","self","j","0","true"
"null","<div style=""font-size:60px;"">+</div>","null","html-keyboard-response","258","222489","0.0-6.0-0.126","SAST","3","f","links","18","","fixation","","","",""
"1058","img/150_60.png","74","image-keyboard-response","259","223548","0.0-6.0-1.126","SAST","3","f","links","18","","","self","f","150","false"
"null","<div style=""font-size:60px;"">+</div>","null","html-keyboard-response","260","223999","0.0-6.0-0.127","SAST","3","f","links","18","","fixation","","","",""
"1105","img/120_30.png","70","image-keyboard-response","261","225104","0.0-6.0-1.127","SAST","3","f","links","18","","","self","j","120","false"
"null","<div style=""font-size:60px;"">+</div>","null","html-keyboard-response","262","225605","0.0-6.0-0.128","SAST","3","f","links","18","","fixation","","","",""
"1231","img/60_330.png","74","image-keyboard-response","263","226836","0.0-6.0-1.128","SAST","3","f","links","18","","","self","f","60","false"
"null","<div style=""font-size:60px;"">+</div>","null","html-keyboard-response","264","227288","0.0-6.0-0.129","SAST","3","f","links","18","","fixation","","","",""
"1282","img/120_180.png","74","image-keyboard-response","265","228570","0.0-6.0-1.129","SAST","3","f","links","18","","","self","j","120","true"
"null","<div style=""font-size:60px;"">+</div>","null","html-keyboard-response","266","228872","0.0-6.0-0.130","SAST","3","f","links","18","","fixation","","","",""
"954","img/120_150.png","74","image-keyboard-response","267","229826","0.0-6.0-1.130","SAST","3","f","links","18","","","self","f","120","false"
"null","<div style=""font-size:60px;"">+</div>","null","html-keyboard-response","268","230178","0.0-6.0-0.131","SAST","3","f","links","18","","fixation","","","",""
"1102","img/0_330.png","70","image-keyboard-response","269","231282","0.0-6.0-1.131","SAST","3","f","links","18","","","self","f","0","true"
"null","<div style=""font-size:60px;"">+</div>","null","html-keyboard-response","270","231684","0.0-6.0-0.132","SAST","3","f","links","18","","fixation","","","",""
"841","img/150_300.png","74","image-keyboard-response","271","232525","0.0-6.0-1.132","SAST","3","f","links","18","","","self","j","150","true"
"null","<div style=""font-size:60px;"">+</div>","null","html-keyboard-response","272","233027","0.0-6.0-0.133","SAST","3","f","links","18","","fixation","","","",""
"837","img/150_270.png","70","image-keyboard-response","273","233866","0.0-6.0-1.133","SAST","3","f","links","18","","","self","j","150","false"
"null","<div style=""font-size:60px;"">+</div>","null","html-keyboard-response","274","234168","0.0-6.0-0.134","SAST","3","f","links","18","","fixation","","","",""
"889","img/30_180.png","70","image-keyboard-response","275","235058","0.0-6.0-1.134","SAST","3","f","links","18","","","self","j","30","false"
"null","<div style=""font-size:60px;"">+</div>","null","html-keyboard-response","276","235409","0.0-6.0-0.135","SAST","3","f","links","18","","fixation","","","",""
"983","img/60_90.png","74","image-keyboard-response","277","236394","0.0-6.0-1.135","SAST","3","f","links","18","","","self","j","60","true"
"null","<div style=""font-size:60px;"">+</div>","null","html-keyboard-response","278","236745","0.0-6.0-0.136","SAST","3","f","links","18","","fixation","","","",""
"1344","img/120_270.png","74","image-keyboard-response","279","238090","0.0-6.0-1.136","SAST","3","f","links","18","","","self","j","120","true"
"null","<div style=""font-size:60px;"">+</div>","null","html-keyboard-response","280","238492","0.0-6.0-0.137","SAST","3","f","links","18","","fixation","","","",""
"909","img/0_150.png","74","image-keyboard-response","281","239401","0.0-6.0-1.137","SAST","3","f","links","18","","","self","j","0","true"
"null","<div style=""font-size:60px;"">+</div>","null","html-keyboard-response","282","239703","0.0-6.0-0.138","SAST","3","f","links","18","","fixation","","","",""
"911","img/90_60.png","70","image-keyboard-response","283","240615","0.0-6.0-1.138","SAST","3","f","links","18","","","self","j","90","false"
"null","<div style=""font-size:60px;"">+</div>","null","html-keyboard-response","284","241067","0.0-6.0-0.139","SAST","3","f","links","18","","fixation","","","",""
"1107","img/120_90.png","74","image-keyboard-response","285","242175","0.0-6.0-1.139","SAST","3","f","links","18","","","self","f","120","false"
"null","<div style=""font-size:60px;"">+</div>","null","html-keyboard-response","286","242576","0.0-6.0-0.140","SAST","3","f","links","18","","fixation","","","",""
"1072","img/60_270.png","70","image-keyboard-response","287","243650","0.0-6.0-1.140","SAST","3","f","links","18","","","self","f","60","true"
"null","<div style=""font-size:60px;"">+</div>","null","html-keyboard-response","288","244151","0.0-6.0-0.141","SAST","3","f","links","18","","fixation","","","",""
"905","img/L30_180.png","74","image-keyboard-response","289","245057","0.0-6.0-1.141","SAST","3","f","links","18","","","self","f","30","false"
"null","<div style=""font-size:60px;"">+</div>","null","html-keyboard-response","290","245559","0.0-6.0-0.142","SAST","3","f","links","18","","fixation","","","",""
"956","img/90_330.png","70","image-keyboard-response","291","246516","0.0-6.0-1.142","SAST","3","f","links","18","","","self","f","90","true"
"null","<div style=""font-size:60px;"">+</div>","null","html-keyboard-response","292","246968","0.0-6.0-0.143","SAST","3","f","links","18","","fixation","","","",""
"899","img/60_30.png","74","image-keyboard-response","293","247868","0.0-6.0-1.143","SAST","3","f","links","18","","","self","j","60","true"
"null","<div style=""font-size:60px;"">+</div>","null","html-keyboard-response","294","248219","0.0-6.0-0.144","SAST","3","f","links","18","","fixation","","","",""
"960","img/0_300.png","74","image-keyboard-response","295","249180","0.0-6.0-1.144","SAST","3","f","links","18","","","self","f","0","false"
"null","<div style=""font-size:60px;"">+</div>","null","html-keyboard-response","296","249681","0.0-6.0-0.145","SAST","3","f","links","18","","fixation","","","",""
"865","img/L120_180.png","74","image-keyboard-response","297","250546","0.0-6.0-1.145","SAST","3","f","links","18","","","self","f","120","false"
"null","<div style=""font-size:60px;"">+</div>","null","html-keyboard-response","298","250898","0.0-6.0-0.146","SAST","3","f","links","18","","fixation","","","",""
"968","img/L150_180.png","70","image-keyboard-response","299","251867","0.0-6.0-1.146","SAST","3","f","links","18","","","self","f","150","true"
"null","<div style=""font-size:60px;"">+</div>","null","html-keyboard-response","300","252319","0.0-6.0-0.147","SAST","3","f","links","18","","fixation","","","",""
"998","img/60_210.png","74","image-keyboard-response","301","253317","0.0-6.0-1.147","SAST","3","f","links","18","","","self","j","60","true"
"null","<div style=""font-size:60px;"">+</div>","null","html-keyboard-response","302","253669","0.0-6.0-0.148","SAST","3","f","links","18","","fixation","","","",""
"1078","img/0_120.png","74","image-keyboard-response","303","254748","0.0-6.0-1.148","SAST","3","f","links","18","","","self","j","0","true"
"null","<div style=""font-size:60px;"">+</div>","null","html-keyboard-response","304","255249","0.0-6.0-0.149","SAST","3","f","links","18","","fixation","","","",""
"705","img/90_150.png","70","image-keyboard-response","305","255955","0.0-6.0-1.149","SAST","3","f","links","18","","","self","f","90","true"
"null","<div style=""font-size:60px;"">+</div>","null","html-keyboard-response","306","256457","0.0-6.0-0.150","SAST","3","f","links","18","","fixation","","","",""
"813","img/30_270.png","70","image-keyboard-response","307","257271","0.0-6.0-1.150","SAST","3","f","links","18","","","self","f","30","true"
"null","<div style=""font-size:60px;"">+</div>","null","html-keyboard-response","308","257673","0.0-6.0-0.151","SAST","3","f","links","18","","fixation","","","",""
"779","img/150_90.png","74","image-keyboard-response","309","258452","0.0-6.0-1.151","SAST","3","f","links","18","","","self","f","150","false"
"null","<div style=""font-size:60px;"">+</div>","null","html-keyboard-response","310","258754","0.0-6.0-0.152","SAST","3","f","links","18","","fixation","","","",""
"856","img/0_210.png","70","image-keyboard-response","311","259610","0.0-6.0-1.152","SAST","3","f","links","18","","","self","f","0","true"
"null","<div style=""font-size:60px;"">+</div>","null","html-keyboard-response","312","259912","0.0-6.0-0.153","SAST","3","f","links","18","","fixation","","","",""
"860","img/150_180.png","74","image-keyboard-response","313","260773","0.0-6.0-1.153","SAST","3","f","links","18","","","self","j","150","true"
"null","<div style=""font-size:60px;"">+</div>","null","html-keyboard-response","314","261275","0.0-6.0-0.154","SAST","3","f","links","18","","fixation","","","",""
"1258","img/90_120.png","74","image-keyboard-response","315","262533","0.0-6.0-1.154","SAST","3","f","links","18","","","self","f","90","false"
"null","<div style=""font-size:60px;"">+</div>","null","html-keyboard-response","316","262833","0.0-6.0-0.155","SAST","3","f","links","18","","fixation","","","",""
"994","img/90_210.png","70","image-keyboard-response","317","263828","0.0-6.0-1.155","SAST","3","f","links","18","","","self","j","90","false"
"null","<div style=""font-size:60px;"">+</div>","null","html-keyboard-response","318","264330","0.0-6.0-0.156","SAST","3","f","links","18","","fixation","","","",""
"867","img/0_150.png","74","image-keyboard-response","319","265197","0.0-6.0-1.156","SAST","3","f","links","18","","","self","j","0","true"
"null","<div style=""font-size:60px;"">+</div>","null","html-keyboard-response","320","265548","0.0-6.0-0.157","SAST","3","f","links","18","","fixation","","","",""
"1069","img/120_90.png","74","image-keyboard-response","321","266618","0.0-6.0-1.157","SAST","3","f","links","18","","","self","f","120","false"
"null","<div style=""font-size:60px;"">+</div>","null","html-keyboard-response","322","267120","0.0-6.0-0.158","SAST","3","f","links","18","","fixation","","","",""
"1132","img/30_180.png","70","image-keyboard-response","323","268252","0.0-6.0-1.158","SAST","3","f","links","18","","","self","j","30","false"
"null","<div style=""font-size:60px;"">+</div>","null","html-keyboard-response","324","268704","0.0-6.0-0.159","SAST","3","f","links","18","","fixation","","","",""
"913","img/60_330.png","70","image-keyboard-response","325","269617","0.0-6.0-1.159","SAST","3","f","links","18","","","self","f","60","true"
"null","<div style=""font-size:60px;"">+</div>","null","html-keyboard-response","326","270068","0.0-6.0-0.160","SAST","3","f","links","18","","fixation","","","",""
"1064","img/60_30.png","74","image-keyboard-response","327","271133","0.0-6.0-1.160","SAST","3","f","links","18","","","self","j","60","true"
"null","<div style=""font-size:60px;"">+</div>","null","html-keyboard-response","328","271485","0.0-6.0-0.161","SAST","3","f","links","18","","fixation","","","",""
"843","img/0_60.png","74","image-keyboard-response","329","272328","0.0-6.0-1.161","SAST","3","f","links","18","","","self","j","0","true"
"null","<div style=""font-size:60px;"">+</div>","null","html-keyboard-response","330","272729","0.0-6.0-0.162","SAST","3","f","links","18","","fixation","","","",""
"1093","img/150_90.png","74","image-keyboard-response","331","273824","0.0-6.0-1.162","SAST","3","f","links","18","","","self","f","150","false"
"null","<div style=""font-size:60px;"">+</div>","null","html-keyboard-response","332","274125","0.0-6.0-0.163","SAST","3","f","links","18","","fixation","","","",""
"1253","img/150_240.png","70","image-keyboard-response","333","275379","0.0-6.0-1.163","SAST","3","f","links","18","","","self","j","150","false"
"null","<div style=""font-size:60px;"">+</div>","null","html-keyboard-response","334","275881","0.0-6.0-0.164","SAST","3","f","links","18","","fixation","","","",""
"800","img/0_300.png","70","image-keyboard-response","335","276681","0.0-6.0-1.164","SAST","3","f","links","18","","","self","f","0","true"
"null","<div style=""font-size:60px;"">+</div>","null","html-keyboard-response","336","277183","0.0-6.0-0.165","SAST","3","f","links","18","","fixation","","","",""
"1075","img/120_210.png","70","image-keyboard-response","337","278258","0.0-6.0-1.165","SAST","3","f","links","18","","","self","j","120","false"
"null","<div style=""font-size:60px;"">+</div>","null","html-keyboard-response","338","278660","0.0-6.0-0.166","SAST","3","f","links","18","","fixation","","","",""
"1064","img/90_30.png","74","image-keyboard-response","339","279725","0.0-6.0-1.166","SAST","3","f","links","18","","","self","j","90","true"
"null","<div style=""font-size:60px;"">+</div>","null","html-keyboard-response","340","280226","0.0-6.0-0.167","SAST","3","f","links","18","","fixation","","","",""
"784","img/0_210.png","70","image-keyboard-response","341","281012","0.0-6.0-1.167","SAST","3","f","links","18","","","self","f","0","true"
"null","<div style=""font-size:60px;"">+</div>","null","html-keyboard-response","342","281463","0.0-6.0-0.168","SAST","3","f","links","18","","fixation","","","",""
"901","img/0_240.png","70","image-keyboard-response","343","282366","0.0-6.0-1.168","SAST","3","f","links","18","","","self","f","0","true"
"null","<div style=""font-size:60px;"">+</div>","null","html-keyboard-response","344","282767","0.0-6.0-0.169","SAST","3","f","links","18","","fixation","","","",""
"1076","img/90_120.png","74","image-keyboard-response","345","283844","0.0-6.0-1.169","SAST","3","f","links","18","","","self","f","90","false"
"null","<div style=""font-size:60px;"">+</div>","null","html-keyboard-response","346","284196","0.0-6.0-0.170","SAST","3","f","links","18","","fixation","","","",""
"1007","img/120_180.png","70","image-keyboard-response","347","285204","0.0-6.0-1.170","SAST","3","f","links","18","","","self","j","120","false"
"null","<div style=""font-size:60px;"">+</div>","null","html-keyboard-response","348","285704","0.0-6.0-0.171","SAST","3","f","links","18","","fixation","","","",""
"1311","img/90_210.png","70","image-keyboard-response","349","287016","0.0-6.0-1.171","SAST","3","f","links","18","","","self","j","90","false"
"null","<div style=""font-size:60px;"">+</div>","null","html-keyboard-response","350","287318","0.0-6.0-0.172","SAST","3","f","links","18","","fixation","","","",""
"988","img/30_120.png","74","image-keyboard-response","351","288307","0.0-6.0-1.172","SAST","3","f","links","18","","","self","j","30","true"
"null","<div style=""font-size:60px;"">+</div>","null","html-keyboard-response","352","288759","0.0-6.0-0.173","SAST","3","f","links","18","","fixation","","","",""
"758","img/30_90.png","74","image-keyboard-response","353","289518","0.0-6.0-1.173","SAST","3","f","links","18","","","self","j","30","true"
"null","<div style=""font-size:60px;"">+</div>","null","html-keyboard-response","354","290020","0.0-6.0-0.174","SAST","3","f","links","18","","fixation","","","",""
"864","img/L30_180.png","74","image-keyboard-response","355","290885","0.0-6.0-1.174","SAST","3","f","links","18","","","self","f","30","false"
"null","<div style=""font-size:60px;"">+</div>","null","html-keyboard-response","356","291387","0.0-6.0-0.175","SAST","3","f","links","18","","fixation","","","",""
"993","img/150_180.png","70","image-keyboard-response","357","292381","0.0-6.0-1.175","SAST","3","f","links","18","","","self","j","150","false"
"null","<div style=""font-size:60px;"">+</div>","null","html-keyboard-response","358","292783","0.0-6.0-0.176","SAST","3","f","links","18","","fixation","","","",""
"1283","img/150_120.png","74","image-keyboard-response","359","294067","0.0-6.0-1.176","SAST","3","f","links","18","","","self","f","150","false"
"null","<div style=""font-size:60px;"">+</div>","null","html-keyboard-response","360","294369","0.0-6.0-0.177","SAST","3","f","links","18","","fixation","","","",""
"840","img/L120_180.png","74","image-keyboard-response","361","295209","0.0-6.0-1.177","SAST","3","f","links","18","","","self","f","120","false"
"null","<div style=""font-size:60px;"">+</div>","null","html-keyboard-response","362","295661","0.0-6.0-0.178","SAST","3","f","links","18","","fixation","","","",""
"847","img/90_330.png","70","image-keyboard-response","363","296509","0.0-6.0-1.178","SAST","3","f","links","18","","","self","f","90","true"
"null","<div style=""font-size:60px;"">+</div>","null","html-keyboard-response","364","296961","0.0-6.0-0.179","SAST","3","f","links","18","","fixation","","","",""
"1086","img/30_270.png","74","image-keyboard-response","365","298047","0.0-6.0-1.179","SAST","3","f","links","18","","","self","f","30","false"
"null","<div style=""font-size:60px;"">+</div>","null","html-keyboard-response","366","298549","0.0-6.0-0.180","SAST","3","f","links","18","","fixation","","","",""
"927","img/30_60.png","74","image-keyboard-response","367","299476","0.0-6.0-1.180","SAST","3","f","links","18","","","self","j","30","true"
"null","<div style=""font-size:60px;"">+</div>","null","html-keyboard-response","368","299978","0.0-6.0-0.181","SAST","3","f","links","18","","fixation","","","",""
"1072","img/120_330.png","70","image-keyboard-response","369","301051","0.0-6.0-1.181","SAST","3","f","links","18","","","self","f","120","true"
"null","<div style=""font-size:60px;"">+</div>","null","html-keyboard-response","370","301403","0.0-6.0-0.182","SAST","3","f","links","18","","fixation","","","",""
"770","img/0_30.png","74","image-keyboard-response","371","302173","0.0-6.0-1.182","SAST","3","f","links","18","","","self","j","0","true"
"null","<div style=""font-size:60px;"">+</div>","null","html-keyboard-response","372","302475","0.0-6.0-0.183","SAST","3","f","links","18","","fixation","","","",""
"760","img/L60_180.png","70","image-keyboard-response","373","303235","0.0-6.0-1.183","SAST","3","f","links","18","","","self","f","60","true"
"null","<div style=""font-size:60px;"">+</div>","null","html-keyboard-response","374","303587","0.0-6.0-0.184","SAST","3","f","links","18","","fixation","","","",""
"null","img/60_180.png","null","image-keyboard-response","375","306589","0.0-6.0-1.184","SAST","3","f","links","18","","","self","j","60","false"
"null","<div style=""font-size:60px;"">+</div>","null","html-keyboard-response","376","306941","0.0-6.0-0.185","SAST","3","f","links","18","","fixation","","","",""
"817","img/60_270.png","70","image-keyboard-response","377","307759","0.0-6.0-1.185","SAST","3","f","links","18","","","self","f","60","true"
"null","<div style=""font-size:60px;"">+</div>","null","html-keyboard-response","378","308210","0.0-6.0-0.186","SAST","3","f","links","18","","fixation","","","",""
"1147","img/60_150.png","74","image-keyboard-response","379","309358","0.0-6.0-1.186","SAST","3","f","links","18","","","self","f","60","false"
"null","<div style=""font-size:60px;"">+</div>","null","html-keyboard-response","380","309810","0.0-6.0-0.187","SAST","3","f","links","18","","fixation","","","",""
"1317","img/60_90.png","70","image-keyboard-response","381","311127","0.0-6.0-1.187","SAST","3","f","links","18","","","self","j","60","false"
"null","<div style=""font-size:60px;"">+</div>","null","html-keyboard-response","382","311479","0.0-6.0-0.188","SAST","3","f","links","18","","fixation","","","",""
"1246","img/90_180.png","74","image-keyboard-response","383","312727","0.0-6.0-1.188","SAST","3","f","links","18","","","self","j","90","true"
"null","<div style=""font-size:60px;"">+</div>","null","html-keyboard-response","384","313128","0.0-6.0-0.189","SAST","3","f","links","18","","fixation","","","",""
"864","img/150_300.png","70","image-keyboard-response","385","313993","0.0-6.0-1.189","SAST","3","f","links","18","","","self","j","150","false"
"null","<div style=""font-size:60px;"">+</div>","null","html-keyboard-response","386","314295","0.0-6.0-0.190","SAST","3","f","links","18","","fixation","","","",""
"1002","img/120_270.png","70","image-keyboard-response","387","315298","0.0-6.0-1.190","SAST","3","f","links","18","","","self","j","120","false"
"null","<div style=""font-size:60px;"">+</div>","null","html-keyboard-response","388","315700","0.0-6.0-0.191","SAST","3","f","links","18","","fixation","","","",""
"1000","img/90_300.png","70","image-keyboard-response","389","316702","0.0-6.0-1.191","SAST","3","f","links","18","","","self","f","90","true"
"null","<div style=""font-size:60px;"">+</div>","null","html-keyboard-response","390","317203","0.0-6.0-0.192","SAST","3","f","links","18","","fixation","","","",""
"1071","img/0_270.png","74","image-keyboard-response","391","318275","0.0-6.0-1.192","SAST","3","f","links","18","","","self","f","0","false"
"null","<div style=""font-size:60px;"">+</div>","null","html-keyboard-response","392","318676","0.0-6.0-0.193","SAST","3","f","links","18","","fixation","","","",""
"1314","img/150_60.png","74","image-keyboard-response","393","319991","0.0-6.0-1.193","SAST","3","f","links","18","","","self","f","150","false"
"null","<div style=""font-size:60px;"">+</div>","null","html-keyboard-response","394","320393","0.0-6.0-0.194","SAST","3","f","links","18","","fixation","","","",""
"1176","img/L90_180.png","74","image-keyboard-response","395","321570","0.0-6.0-1.194","SAST","3","f","links","18","","","self","f","90","false"
"null","<div style=""font-size:60px;"">+</div>","null","html-keyboard-response","396","321872","0.0-6.0-0.195","SAST","3","f","links","18","","fixation","","","",""
"862","img/90_240.png","70","image-keyboard-response","397","322734","0.0-6.0-1.195","SAST","3","f","links","18","","","self","j","90","false"
"null","<div style=""font-size:60px;"">+</div>","null","html-keyboard-response","398","323086","0.0-6.0-0.196","SAST","3","f","links","18","","fixation","","","",""
"988","img/0_330.png","70","image-keyboard-response","399","324075","0.0-6.0-1.196","SAST","3","f","links","18","","","self","f","0","true"
"null","<div style=""font-size:60px;"">+</div>","null","html-keyboard-response","400","324377","0.0-6.0-0.197","SAST","3","f","links","18","","fixation","","","",""
"924","img/0_90.png","74","image-keyboard-response","401","325302","0.0-6.0-1.197","SAST","3","f","links","18","","","self","j","0","true"
"null","<div style=""font-size:60px;"">+</div>","null","html-keyboard-response","402","325704","0.0-6.0-0.198","SAST","3","f","links","18","","fixation","","","",""
"977","img/90_60.png","74","image-keyboard-response","403","326681","0.0-6.0-1.198","SAST","3","f","links","18","","","self","j","90","true"
"null","<div style=""font-size:60px;"">+</div>","null","html-keyboard-response","404","327033","0.0-6.0-0.199","SAST","3","f","links","18","","fixation","","","",""
"918","img/0_120.png","74","image-keyboard-response","405","327952","0.0-6.0-1.199","SAST","3","f","links","18","","","self","j","0","true"
"null","<div style=""font-size:60px;"">+</div>","null","html-keyboard-response","406","328404","0.0-6.0-0.200","SAST","3","f","links","18","","fixation","","","",""
"989","img/120_150.png","74","image-keyboard-response","407","329394","0.0-6.0-1.200","SAST","3","f","links","18","","","self","f","120","false"
"null","<div style=""font-size:60px;"">+</div>","null","html-keyboard-response","408","329746","0.0-6.0-0.201","SAST","3","f","links","18","","fixation","","","",""
"1178","img/90_150.png","74","image-keyboard-response","409","330925","0.0-6.0-1.201","SAST","3","f","links","18","","","self","f","90","false"
"null","<div style=""font-size:60px;"">+</div>","null","html-keyboard-response","410","331277","0.0-6.0-0.202","SAST","3","f","links","18","","fixation","","","",""
"1078","img/120_30.png","74","image-keyboard-response","411","332356","0.0-6.0-1.202","SAST","3","f","links","18","","","self","j","120","true"
"null","<div style=""font-size:60px;"">+</div>","null","html-keyboard-response","412","332657","0.0-6.0-0.203","SAST","3","f","links","18","","fixation","","","",""
"1065","img/L150_180.png","70","image-keyboard-response","413","333723","0.0-6.0-1.203","SAST","3","f","links","18","","","self","f","150","true"
"null","<div style=""font-size:60px;"">+</div>","null","html-keyboard-response","414","334025","0.0-6.0-0.204","SAST","3","f","links","18","","fixation","","","",""
"926","img/30_240.png","74","image-keyboard-response","415","334951","0.0-6.0-1.204","SAST","3","f","links","18","","","self","f","30","false"
"null","<div style=""font-size:60px;"">+</div>","null","html-keyboard-response","416","335353","0.0-6.0-0.205","SAST","3","f","links","18","","fixation","","","",""
"1133","img/30_300.png","70","image-keyboard-response","417","336487","0.0-6.0-1.205","SAST","3","f","links","18","","","self","f","30","true"
"null","<div style=""font-size:60px;"">+</div>","null","html-keyboard-response","418","336888","0.0-6.0-0.206","SAST","3","f","links","18","","fixation","","","",""
"791","img/150_270.png","70","image-keyboard-response","419","337680","0.0-6.0-1.206","SAST","3","f","links","18","","","self","j","150","false"
"null","<div style=""font-size:60px;"">+</div>","null","html-keyboard-response","420","338132","0.0-6.0-0.207","SAST","3","f","links","18","","fixation","","","",""
"958","img/60_210.png","70","image-keyboard-response","421","339090","0.0-6.0-1.207","SAST","3","f","links","18","","","self","j","60","false"
"11864","<p>Du hast in 49% der Versuche korrekt entschieden.</p><p>Deine durchschnittliche Reaktionszeit war  934ms.</p><p>Dr&uuml;cke eine beliebige Taste, um die Session zu beenden. Vielen Dank!</p>","74","html-keyboard-response","422","350955","0.0-7.0","SAST","3","f","links","18","","","","","",""
