"rt","stimulus","key_press","trial_type","trial_index","time_elapsed","internal_node_id","subject","session","sex","handedness","age","responses","test_part","condition","correct_response","angle","correct"
"19239","<p>Mental Rotation Experiment.</p> <p>Dr&uuml;cke eine beliebige Taste, um anzufangen.</p>","13","html-keyboard-response","0","19278","0.0-0.0","ZDER","1","m","rechts","52","","","","","",""
"20995","","","survey-text","1","40274","0.0-1.0","ZDER","1","m","rechts","52","{""Q0"":""ZDER""}","","","","",""
"2945","","","survey-text","2","43227","0.0-2.0","ZDER","1","m","rechts","52","{""Q0"":""1""}","","","","",""
"10889","","","survey-multi-choice","3","54126","0.0-3.0","ZDER","1","m","rechts","52","{""Q0"":""m"",""Q1"":""rechts""}","","","","",""
"5454","","","survey-text","4","59582","0.0-4.0","ZDER","1","m","rechts","52","{""Q0"":""52""}","","","","",""
"65146","<p>Stell dir vor, dass du vor einem runden Tisch stehst, auf dem sich ein blauer Ball am Tischrand befindet. Entlang des Tischrands ist jeweils ein verschieden langer Pfeil. Nun bleibst du an deinem Platz vor dem Tisch und rotierst den Tisch entlang des Pfeils (gleiche Richtung und Länge). </p> <img src='img/30_180.png'></img> <br><p> Nachdem du diese (vorgestellte) Rotation durchgef&uuml;hrt hast, schau in Richtung der Tischmitte, und entscheide dann, ob der Ball links oder rechts von dir liegt.</p> <p>Dr&uuml;cke die <strong>'f'</strong>-Taste f&uuml;r links, die <strong>'j'</strong>-Taste f&uuml;r rechts.</p><br><p> Das Bild wird jeweils 1 Sekunde lang pr&auml;sentiert. Du hast 3 Sekunden Zeit eine Entscheidung zu treffen.</p>","70","html-keyboard-response","5","124736","0.0-5.0","ZDER","1","m","rechts","52","","","","","",""
"null","<div style=""font-size:60px;"">+</div>","null","html-keyboard-response","6","126086","0.0-6.0-0.0","ZDER","1","m","rechts","52","","fixation","","","",""
"1844","img/90_300.png","74","image-keyboard-response","7","127951","0.0-6.0-1.0","ZDER","1","m","rechts","52","","","object","j","90","true"
"null","<div style=""font-size:60px;"">+</div>","null","html-keyboard-response","8","128305","0.0-6.0-0.1","ZDER","1","m","rechts","52","","fixation","","","",""
"1893","img/L60_180.png","74","image-keyboard-response","9","130215","0.0-6.0-1.1","ZDER","1","m","rechts","52","","","object","j","60","true"
"null","<div style=""font-size:60px;"">+</div>","null","html-keyboard-response","10","130679","0.0-6.0-0.2","ZDER","1","m","rechts","52","","fixation","","","",""
"1356","img/L90_180.png","74","image-keyboard-response","11","132054","0.0-6.0-1.2","ZDER","1","m","rechts","52","","","object","j","90","true"
"null","<div style=""font-size:60px;"">+</div>","null","html-keyboard-response","12","132407","0.0-6.0-0.3","ZDER","1","m","rechts","52","","fixation","","","",""
"null","img/90_330.png","null","image-keyboard-response","13","135439","0.0-6.0-1.3","ZDER","1","m","rechts","52","","","object","j","90","false"
"null","<div style=""font-size:60px;"">+</div>","null","html-keyboard-response","14","135859","0.0-6.0-0.4","ZDER","1","m","rechts","52","","fixation","","","",""
"1680","img/90_240.png","70","image-keyboard-response","15","137545","0.0-6.0-1.4","ZDER","1","m","rechts","52","","","object","f","90","true"
"null","<div style=""font-size:60px;"">+</div>","null","html-keyboard-response","16","137905","0.0-6.0-0.5","ZDER","1","m","rechts","52","","fixation","","","",""
"2450","img/60_90.png","70","image-keyboard-response","17","140361","0.0-6.0-1.5","ZDER","1","m","rechts","52","","","object","j","60","false"
"null","<div style=""font-size:60px;"">+</div>","null","html-keyboard-response","18","140842","0.0-6.0-0.6","ZDER","1","m","rechts","52","","fixation","","","",""
"1001","img/30_120.png","70","image-keyboard-response","19","141852","0.0-6.0-1.6","ZDER","1","m","rechts","52","","","object","j","30","false"
"null","<div style=""font-size:60px;"">+</div>","null","html-keyboard-response","20","142313","0.0-6.0-0.7","ZDER","1","m","rechts","52","","fixation","","","",""
"1445","img/0_120.png","74","image-keyboard-response","21","143776","0.0-6.0-1.7","ZDER","1","m","rechts","52","","","object","j","0","true"
"null","<div style=""font-size:60px;"">+</div>","null","html-keyboard-response","22","144087","0.0-6.0-0.8","ZDER","1","m","rechts","52","","fixation","","","",""
"2242","img/120_30.png","70","image-keyboard-response","23","146347","0.0-6.0-1.8","ZDER","1","m","rechts","52","","","object","f","120","true"
"null","<div style=""font-size:60px;"">+</div>","null","html-keyboard-response","24","146703","0.0-6.0-0.9","ZDER","1","m","rechts","52","","fixation","","","",""
"2664","img/30_60.png","70","image-keyboard-response","25","149385","0.0-6.0-1.9","ZDER","1","m","rechts","52","","","object","j","30","false"
"null","<div style=""font-size:60px;"">+</div>","null","html-keyboard-response","26","149849","0.0-6.0-0.10","ZDER","1","m","rechts","52","","fixation","","","",""
"2510","img/30_240.png","70","image-keyboard-response","27","152377","0.0-6.0-1.10","ZDER","1","m","rechts","52","","","object","f","30","true"
"null","<div style=""font-size:60px;"">+</div>","null","html-keyboard-response","28","152826","0.0-6.0-0.11","ZDER","1","m","rechts","52","","fixation","","","",""
"2157","img/30_300.png","70","image-keyboard-response","29","155002","0.0-6.0-1.11","ZDER","1","m","rechts","52","","","object","f","30","true"
"null","<div style=""font-size:60px;"">+</div>","null","html-keyboard-response","30","155421","0.0-6.0-0.12","ZDER","1","m","rechts","52","","fixation","","","",""
"1477","img/L120_180.png","74","image-keyboard-response","31","156915","0.0-6.0-1.12","ZDER","1","m","rechts","52","","","object","j","120","true"
"null","<div style=""font-size:60px;"">+</div>","null","html-keyboard-response","32","157373","0.0-6.0-0.13","ZDER","1","m","rechts","52","","fixation","","","",""
"1448","img/120_210.png","70","image-keyboard-response","33","158841","0.0-6.0-1.13","ZDER","1","m","rechts","52","","","object","f","120","true"
"null","<div style=""font-size:60px;"">+</div>","null","html-keyboard-response","34","159202","0.0-6.0-0.14","ZDER","1","m","rechts","52","","fixation","","","",""
"1205","img/0_90.png","74","image-keyboard-response","35","160427","0.0-6.0-1.14","ZDER","1","m","rechts","52","","","object","j","0","true"
"null","<div style=""font-size:60px;"">+</div>","null","html-keyboard-response","36","160779","0.0-6.0-0.15","ZDER","1","m","rechts","52","","fixation","","","",""
"null","img/60_30.png","null","image-keyboard-response","37","163810","0.0-6.0-1.15","ZDER","1","m","rechts","52","","","object","f","60","false"
"null","<div style=""font-size:60px;"">+</div>","null","html-keyboard-response","38","164324","0.0-6.0-0.16","ZDER","1","m","rechts","52","","fixation","","","",""
"1615","img/60_150.png","70","image-keyboard-response","39","165947","0.0-6.0-1.16","ZDER","1","m","rechts","52","","","object","j","60","false"
"null","<div style=""font-size:60px;"">+</div>","null","html-keyboard-response","40","166402","0.0-6.0-0.17","ZDER","1","m","rechts","52","","fixation","","","",""
"1341","img/0_60.png","74","image-keyboard-response","41","167763","0.0-6.0-1.17","ZDER","1","m","rechts","52","","","object","j","0","true"
"null","<div style=""font-size:60px;"">+</div>","null","html-keyboard-response","42","168078","0.0-6.0-0.18","ZDER","1","m","rechts","52","","fixation","","","",""
"2539","img/120_90.png","70","image-keyboard-response","43","170636","0.0-6.0-1.18","ZDER","1","m","rechts","52","","","object","f","120","true"
"null","<div style=""font-size:60px;"">+</div>","null","html-keyboard-response","44","171038","0.0-6.0-0.19","ZDER","1","m","rechts","52","","fixation","","","",""
"1714","img/120_270.png","74","image-keyboard-response","45","172770","0.0-6.0-1.19","ZDER","1","m","rechts","52","","","object","j","120","true"
"null","<div style=""font-size:60px;"">+</div>","null","html-keyboard-response","46","173080","0.0-6.0-0.20","ZDER","1","m","rechts","52","","fixation","","","",""
"1968","img/150_180.png","70","image-keyboard-response","47","175064","0.0-6.0-1.20","ZDER","1","m","rechts","52","","","object","f","150","true"
"null","<div style=""font-size:60px;"">+</div>","null","html-keyboard-response","48","175441","0.0-6.0-0.21","ZDER","1","m","rechts","52","","fixation","","","",""
"2338","img/150_90.png","70","image-keyboard-response","49","177797","0.0-6.0-1.21","ZDER","1","m","rechts","52","","","object","f","150","true"
"null","<div style=""font-size:60px;"">+</div>","null","html-keyboard-response","50","178262","0.0-6.0-0.22","ZDER","1","m","rechts","52","","fixation","","","",""
"1260","img/0_240.png","70","image-keyboard-response","51","179541","0.0-6.0-1.22","ZDER","1","m","rechts","52","","","object","f","0","true"
"null","<div style=""font-size:60px;"">+</div>","null","html-keyboard-response","52","180043","0.0-6.0-0.23","ZDER","1","m","rechts","52","","fixation","","","",""
"1708","img/150_300.png","74","image-keyboard-response","53","181770","0.0-6.0-1.23","ZDER","1","m","rechts","52","","","object","j","150","true"
"null","<div style=""font-size:60px;"">+</div>","null","html-keyboard-response","54","182122","0.0-6.0-0.24","ZDER","1","m","rechts","52","","fixation","","","",""
"1385","img/0_270.png","70","image-keyboard-response","55","183523","0.0-6.0-1.24","ZDER","1","m","rechts","52","","","object","f","0","true"
"null","<div style=""font-size:60px;"">+</div>","null","html-keyboard-response","56","183948","0.0-6.0-0.25","ZDER","1","m","rechts","52","","fixation","","","",""
"2302","img/60_330.png","74","image-keyboard-response","57","186257","0.0-6.0-1.25","ZDER","1","m","rechts","52","","","object","j","60","true"
"null","<div style=""font-size:60px;"">+</div>","null","html-keyboard-response","58","186723","0.0-6.0-0.26","ZDER","1","m","rechts","52","","fixation","","","",""
"1215","img/0_150.png","74","image-keyboard-response","59","187954","0.0-6.0-1.26","ZDER","1","m","rechts","52","","","object","j","0","true"
"null","<div style=""font-size:60px;"">+</div>","null","html-keyboard-response","60","188261","0.0-6.0-0.27","ZDER","1","m","rechts","52","","fixation","","","",""
"1444","img/90_180.png","70","image-keyboard-response","61","189723","0.0-6.0-1.27","ZDER","1","m","rechts","52","","","object","f","90","true"
"null","<div style=""font-size:60px;"">+</div>","null","html-keyboard-response","62","190229","0.0-6.0-0.28","ZDER","1","m","rechts","52","","fixation","","","",""
"1465","img/150_240.png","74","image-keyboard-response","63","191714","0.0-6.0-1.28","ZDER","1","m","rechts","52","","","object","j","150","true"
"null","<div style=""font-size:60px;"">+</div>","null","html-keyboard-response","64","192167","0.0-6.0-0.29","ZDER","1","m","rechts","52","","fixation","","","",""
"1194","img/150_270.png","74","image-keyboard-response","65","193379","0.0-6.0-1.29","ZDER","1","m","rechts","52","","","object","j","150","true"
"null","<div style=""font-size:60px;"">+</div>","null","html-keyboard-response","66","193840","0.0-6.0-0.30","ZDER","1","m","rechts","52","","fixation","","","",""
"1320","img/120_330.png","74","image-keyboard-response","67","195180","0.0-6.0-1.30","ZDER","1","m","rechts","52","","","object","j","120","true"
"null","<div style=""font-size:60px;"">+</div>","null","html-keyboard-response","68","195687","0.0-6.0-0.31","ZDER","1","m","rechts","52","","fixation","","","",""
"2730","img/90_120.png","70","image-keyboard-response","69","198435","0.0-6.0-1.31","ZDER","1","m","rechts","52","","","object","j","90","false"
"null","<div style=""font-size:60px;"">+</div>","null","html-keyboard-response","70","198791","0.0-6.0-0.32","ZDER","1","m","rechts","52","","fixation","","","",""
"1430","img/30_90.png","74","image-keyboard-response","71","200241","0.0-6.0-1.32","ZDER","1","m","rechts","52","","","object","j","30","true"
"null","<div style=""font-size:60px;"">+</div>","null","html-keyboard-response","72","200603","0.0-6.0-0.33","ZDER","1","m","rechts","52","","fixation","","","",""
"null","img/30_270.png","null","image-keyboard-response","73","203639","0.0-6.0-1.33","ZDER","1","m","rechts","52","","","object","f","30","false"
"null","<div style=""font-size:60px;"">+</div>","null","html-keyboard-response","74","204161","0.0-6.0-0.34","ZDER","1","m","rechts","52","","fixation","","","",""
"1959","img/L150_180.png","74","image-keyboard-response","75","206137","0.0-6.0-1.34","ZDER","1","m","rechts","52","","","object","j","150","true"
"null","<div style=""font-size:60px;"">+</div>","null","html-keyboard-response","76","206545","0.0-6.0-0.35","ZDER","1","m","rechts","52","","fixation","","","",""
"1406","img/150_120.png","70","image-keyboard-response","77","207968","0.0-6.0-1.35","ZDER","1","m","rechts","52","","","object","f","150","true"
"null","<div style=""font-size:60px;"">+</div>","null","html-keyboard-response","78","208345","0.0-6.0-0.36","ZDER","1","m","rechts","52","","fixation","","","",""
"1757","img/60_270.png","70","image-keyboard-response","79","210120","0.0-6.0-1.36","ZDER","1","m","rechts","52","","","object","f","60","true"
"null","<div style=""font-size:60px;"">+</div>","null","html-keyboard-response","80","210579","0.0-6.0-0.37","ZDER","1","m","rechts","52","","fixation","","","",""
"1151","img/0_330.png","70","image-keyboard-response","81","211750","0.0-6.0-1.37","ZDER","1","m","rechts","52","","","object","f","0","true"
"null","<div style=""font-size:60px;"">+</div>","null","html-keyboard-response","82","212063","0.0-6.0-0.38","ZDER","1","m","rechts","52","","fixation","","","",""
"2008","img/90_60.png","70","image-keyboard-response","83","214088","0.0-6.0-1.38","ZDER","1","m","rechts","52","","","object","f","90","true"
"null","<div style=""font-size:60px;"">+</div>","null","html-keyboard-response","84","214516","0.0-6.0-0.39","ZDER","1","m","rechts","52","","fixation","","","",""
"1456","img/60_210.png","70","image-keyboard-response","85","215990","0.0-6.0-1.39","ZDER","1","m","rechts","52","","","object","f","60","true"
"null","<div style=""font-size:60px;"">+</div>","null","html-keyboard-response","86","216298","0.0-6.0-0.40","ZDER","1","m","rechts","52","","fixation","","","",""
"1557","img/90_150.png","74","image-keyboard-response","87","217871","0.0-6.0-1.40","ZDER","1","m","rechts","52","","","object","j","90","true"
"null","<div style=""font-size:60px;"">+</div>","null","html-keyboard-response","88","218182","0.0-6.0-0.41","ZDER","1","m","rechts","52","","fixation","","","",""
"2388","img/120_150.png","74","image-keyboard-response","89","220587","0.0-6.0-1.41","ZDER","1","m","rechts","52","","","object","j","120","true"
"null","<div style=""font-size:60px;"">+</div>","null","html-keyboard-response","90","221051","0.0-6.0-0.42","ZDER","1","m","rechts","52","","fixation","","","",""
"1031","img/0_300.png","70","image-keyboard-response","91","222090","0.0-6.0-1.42","ZDER","1","m","rechts","52","","","object","f","0","true"
"null","<div style=""font-size:60px;"">+</div>","null","html-keyboard-response","92","222449","0.0-6.0-0.43","ZDER","1","m","rechts","52","","fixation","","","",""
"2385","img/90_210.png","70","image-keyboard-response","93","224852","0.0-6.0-1.43","ZDER","1","m","rechts","52","","","object","f","90","true"
"null","<div style=""font-size:60px;"">+</div>","null","html-keyboard-response","94","225363","0.0-6.0-0.44","ZDER","1","m","rechts","52","","fixation","","","",""
"2351","img/L30_180.png","74","image-keyboard-response","95","227731","0.0-6.0-1.44","ZDER","1","m","rechts","52","","","object","j","30","true"
"null","<div style=""font-size:60px;"">+</div>","null","html-keyboard-response","96","228148","0.0-6.0-0.45","ZDER","1","m","rechts","52","","fixation","","","",""
"1260","img/30_180.png","70","image-keyboard-response","97","229423","0.0-6.0-1.45","ZDER","1","m","rechts","52","","","object","f","30","true"
"null","<div style=""font-size:60px;"">+</div>","null","html-keyboard-response","98","229779","0.0-6.0-0.46","ZDER","1","m","rechts","52","","fixation","","","",""
"2996","img/150_60.png","70","image-keyboard-response","99","232793","0.0-6.0-1.46","ZDER","1","m","rechts","52","","","object","f","150","true"
"null","<div style=""font-size:60px;"">+</div>","null","html-keyboard-response","100","233247","0.0-6.0-0.47","ZDER","1","m","rechts","52","","fixation","","","",""
"1164","img/0_210.png","70","image-keyboard-response","101","234430","0.0-6.0-1.47","ZDER","1","m","rechts","52","","","object","f","0","true"
"null","<div style=""font-size:60px;"">+</div>","null","html-keyboard-response","102","234748","0.0-6.0-0.48","ZDER","1","m","rechts","52","","fixation","","","",""
"1621","img/60_180.png","70","image-keyboard-response","103","236389","0.0-6.0-1.48","ZDER","1","m","rechts","52","","","object","f","60","true"
"null","<div style=""font-size:60px;"">+</div>","null","html-keyboard-response","104","236694","0.0-6.0-0.49","ZDER","1","m","rechts","52","","fixation","","","",""
"2741","img/90_30.png","70","image-keyboard-response","105","239452","0.0-6.0-1.49","ZDER","1","m","rechts","52","","","object","f","90","true"
"null","<div style=""font-size:60px;"">+</div>","null","html-keyboard-response","106","239855","0.0-6.0-0.50","ZDER","1","m","rechts","52","","fixation","","","",""
"1475","img/120_180.png","70","image-keyboard-response","107","241347","0.0-6.0-1.50","ZDER","1","m","rechts","52","","","object","f","120","true"
"null","<div style=""font-size:60px;"">+</div>","null","html-keyboard-response","108","241777","0.0-6.0-0.51","ZDER","1","m","rechts","52","","fixation","","","",""
"995","img/0_30.png","74","image-keyboard-response","109","242789","0.0-6.0-1.51","ZDER","1","m","rechts","52","","","object","j","0","true"
"null","<div style=""font-size:60px;"">+</div>","null","html-keyboard-response","110","243307","0.0-6.0-0.52","ZDER","1","m","rechts","52","","fixation","","","",""
"2559","img/150_90.png","70","image-keyboard-response","111","245877","0.0-6.0-1.52","ZDER","1","m","rechts","52","","","object","f","150","true"
"null","<div style=""font-size:60px;"">+</div>","null","html-keyboard-response","112","246342","0.0-6.0-0.53","ZDER","1","m","rechts","52","","fixation","","","",""
"1263","img/30_180.png","70","image-keyboard-response","113","247616","0.0-6.0-1.53","ZDER","1","m","rechts","52","","","object","f","30","true"
"null","<div style=""font-size:60px;"">+</div>","null","html-keyboard-response","114","247936","0.0-6.0-0.54","ZDER","1","m","rechts","52","","fixation","","","",""
"1459","img/L30_180.png","74","image-keyboard-response","115","249405","0.0-6.0-1.54","ZDER","1","m","rechts","52","","","object","j","30","true"
"null","<div style=""font-size:60px;"">+</div>","null","html-keyboard-response","116","249764","0.0-6.0-0.55","ZDER","1","m","rechts","52","","fixation","","","",""
"2002","img/120_30.png","70","image-keyboard-response","117","251778","0.0-6.0-1.55","ZDER","1","m","rechts","52","","","object","f","120","true"
"null","<div style=""font-size:60px;"">+</div>","null","html-keyboard-response","118","252234","0.0-6.0-0.56","ZDER","1","m","rechts","52","","fixation","","","",""
"1380","img/90_60.png","70","image-keyboard-response","119","253624","0.0-6.0-1.56","ZDER","1","m","rechts","52","","","object","f","90","true"
"null","<div style=""font-size:60px;"">+</div>","null","html-keyboard-response","120","253983","0.0-6.0-0.57","ZDER","1","m","rechts","52","","fixation","","","",""
"1343","img/0_210.png","70","image-keyboard-response","121","255332","0.0-6.0-1.57","ZDER","1","m","rechts","52","","","object","f","0","true"
"null","<div style=""font-size:60px;"">+</div>","null","html-keyboard-response","122","255748","0.0-6.0-0.58","ZDER","1","m","rechts","52","","fixation","","","",""
"1195","img/0_330.png","70","image-keyboard-response","123","256953","0.0-6.0-1.58","ZDER","1","m","rechts","52","","","object","f","0","true"
"null","<div style=""font-size:60px;"">+</div>","null","html-keyboard-response","124","257373","0.0-6.0-0.59","ZDER","1","m","rechts","52","","fixation","","","",""
"1675","img/90_180.png","70","image-keyboard-response","125","259057","0.0-6.0-1.59","ZDER","1","m","rechts","52","","","object","f","90","true"
"null","<div style=""font-size:60px;"">+</div>","null","html-keyboard-response","126","259467","0.0-6.0-0.60","ZDER","1","m","rechts","52","","fixation","","","",""
"null","img/150_60.png","null","image-keyboard-response","127","262485","0.0-6.0-1.60","ZDER","1","m","rechts","52","","","object","f","150","false"
"null","<div style=""font-size:60px;"">+</div>","null","html-keyboard-response","128","262845","0.0-6.0-0.61","ZDER","1","m","rechts","52","","fixation","","","",""
"94","img/30_60.png","70","image-keyboard-response","129","262956","0.0-6.0-1.61","ZDER","1","m","rechts","52","","","object","j","30","false"
"null","<div style=""font-size:60px;"">+</div>","null","html-keyboard-response","130","263470","0.0-6.0-0.62","ZDER","1","m","rechts","52","","fixation","","","",""
"1515","img/60_210.png","70","image-keyboard-response","131","264995","0.0-6.0-1.62","ZDER","1","m","rechts","52","","","object","f","60","true"
"null","<div style=""font-size:60px;"">+</div>","null","html-keyboard-response","132","265318","0.0-6.0-0.63","ZDER","1","m","rechts","52","","fixation","","","",""
"1345","img/120_180.png","70","image-keyboard-response","133","266672","0.0-6.0-1.63","ZDER","1","m","rechts","52","","","object","f","120","true"
"null","<div style=""font-size:60px;"">+</div>","null","html-keyboard-response","134","267201","0.0-6.0-0.64","ZDER","1","m","rechts","52","","fixation","","","",""
"1628","img/0_240.png","70","image-keyboard-response","135","268845","0.0-6.0-1.64","ZDER","1","m","rechts","52","","","object","f","0","true"
"null","<div style=""font-size:60px;"">+</div>","null","html-keyboard-response","136","269154","0.0-6.0-0.65","ZDER","1","m","rechts","52","","fixation","","","",""
"1500","img/120_90.png","70","image-keyboard-response","137","270667","0.0-6.0-1.65","ZDER","1","m","rechts","52","","","object","f","120","true"
"null","<div style=""font-size:60px;"">+</div>","null","html-keyboard-response","138","270998","0.0-6.0-0.66","ZDER","1","m","rechts","52","","fixation","","","",""
"1576","img/150_240.png","74","image-keyboard-response","139","272580","0.0-6.0-1.66","ZDER","1","m","rechts","52","","","object","j","150","true"
"null","<div style=""font-size:60px;"">+</div>","null","html-keyboard-response","140","272888","0.0-6.0-0.67","ZDER","1","m","rechts","52","","fixation","","","",""
"1369","img/120_330.png","74","image-keyboard-response","141","274268","0.0-6.0-1.67","ZDER","1","m","rechts","52","","","object","j","120","true"
"null","<div style=""font-size:60px;"">+</div>","null","html-keyboard-response","142","274716","0.0-6.0-0.68","ZDER","1","m","rechts","52","","fixation","","","",""
"1173","img/60_180.png","70","image-keyboard-response","143","275899","0.0-6.0-1.68","ZDER","1","m","rechts","52","","","object","f","60","true"
"null","<div style=""font-size:60px;"">+</div>","null","html-keyboard-response","144","276216","0.0-6.0-0.69","ZDER","1","m","rechts","52","","fixation","","","",""
"1563","img/60_330.png","74","image-keyboard-response","145","277789","0.0-6.0-1.69","ZDER","1","m","rechts","52","","","object","j","60","true"
"null","<div style=""font-size:60px;"">+</div>","null","html-keyboard-response","146","278249","0.0-6.0-0.70","ZDER","1","m","rechts","52","","fixation","","","",""
"1499","img/120_150.png","70","image-keyboard-response","147","279757","0.0-6.0-1.70","ZDER","1","m","rechts","52","","","object","j","120","false"
"null","<div style=""font-size:60px;"">+</div>","null","html-keyboard-response","148","280124","0.0-6.0-0.71","ZDER","1","m","rechts","52","","fixation","","","",""
"1500","img/0_30.png","74","image-keyboard-response","149","281633","0.0-6.0-1.71","ZDER","1","m","rechts","52","","","object","j","0","true"
"null","<div style=""font-size:60px;"">+</div>","null","html-keyboard-response","150","282093","0.0-6.0-0.72","ZDER","1","m","rechts","52","","fixation","","","",""
"1265","img/0_120.png","74","image-keyboard-response","151","283369","0.0-6.0-1.72","ZDER","1","m","rechts","52","","","object","j","0","true"
"null","<div style=""font-size:60px;"">+</div>","null","html-keyboard-response","152","283843","0.0-6.0-0.73","ZDER","1","m","rechts","52","","fixation","","","",""
"1482","img/30_240.png","70","image-keyboard-response","153","285339","0.0-6.0-1.73","ZDER","1","m","rechts","52","","","object","f","30","true"
"null","<div style=""font-size:60px;"">+</div>","null","html-keyboard-response","154","285719","0.0-6.0-0.74","ZDER","1","m","rechts","52","","fixation","","","",""
"1420","img/60_270.png","70","image-keyboard-response","155","287149","0.0-6.0-1.74","ZDER","1","m","rechts","52","","","object","f","60","true"
"null","<div style=""font-size:60px;"">+</div>","null","html-keyboard-response","156","287501","0.0-6.0-0.75","ZDER","1","m","rechts","52","","fixation","","","",""
"1683","img/150_120.png","70","image-keyboard-response","157","289197","0.0-6.0-1.75","ZDER","1","m","rechts","52","","","object","f","150","true"
"null","<div style=""font-size:60px;"">+</div>","null","html-keyboard-response","158","289657","0.0-6.0-0.76","ZDER","1","m","rechts","52","","fixation","","","",""
"1078","img/30_120.png","70","image-keyboard-response","159","290749","0.0-6.0-1.76","ZDER","1","m","rechts","52","","","object","j","30","false"
"null","<div style=""font-size:60px;"">+</div>","null","html-keyboard-response","160","291110","0.0-6.0-0.77","ZDER","1","m","rechts","52","","fixation","","","",""
"1448","img/90_300.png","74","image-keyboard-response","161","292572","0.0-6.0-1.77","ZDER","1","m","rechts","52","","","object","j","90","true"
"null","<div style=""font-size:60px;"">+</div>","null","html-keyboard-response","162","292876","0.0-6.0-0.78","ZDER","1","m","rechts","52","","fixation","","","",""
"1732","img/90_240.png","70","image-keyboard-response","163","294621","0.0-6.0-1.78","ZDER","1","m","rechts","52","","","object","f","90","true"
"null","<div style=""font-size:60px;"">+</div>","null","html-keyboard-response","164","295023","0.0-6.0-0.79","ZDER","1","m","rechts","52","","fixation","","","",""
"2010","img/L120_180.png","74","image-keyboard-response","165","297039","0.0-6.0-1.79","ZDER","1","m","rechts","52","","","object","j","120","true"
"null","<div style=""font-size:60px;"">+</div>","null","html-keyboard-response","166","297492","0.0-6.0-0.80","ZDER","1","m","rechts","52","","fixation","","","",""
"1347","img/0_300.png","70","image-keyboard-response","167","298848","0.0-6.0-1.80","ZDER","1","m","rechts","52","","","object","f","0","true"
"null","<div style=""font-size:60px;"">+</div>","null","html-keyboard-response","168","299274","0.0-6.0-0.81","ZDER","1","m","rechts","52","","fixation","","","",""
"1249","img/0_90.png","74","image-keyboard-response","169","300537","0.0-6.0-1.81","ZDER","1","m","rechts","52","","","object","j","0","true"
"null","<div style=""font-size:60px;"">+</div>","null","html-keyboard-response","170","301054","0.0-6.0-0.82","ZDER","1","m","rechts","52","","fixation","","","",""
"1456","img/90_330.png","74","image-keyboard-response","171","302516","0.0-6.0-1.82","ZDER","1","m","rechts","52","","","object","j","90","true"
"null","<div style=""font-size:60px;"">+</div>","null","html-keyboard-response","172","302883","0.0-6.0-0.83","ZDER","1","m","rechts","52","","fixation","","","",""
"1115","img/60_90.png","74","image-keyboard-response","173","304011","0.0-6.0-1.83","ZDER","1","m","rechts","52","","","object","j","60","true"
"null","<div style=""font-size:60px;"">+</div>","null","html-keyboard-response","174","304524","0.0-6.0-0.84","ZDER","1","m","rechts","52","","fixation","","","",""
"1346","img/90_210.png","70","image-keyboard-response","175","305880","0.0-6.0-1.84","ZDER","1","m","rechts","52","","","object","f","90","true"
"null","<div style=""font-size:60px;"">+</div>","null","html-keyboard-response","176","306242","0.0-6.0-0.85","ZDER","1","m","rechts","52","","fixation","","","",""
"1065","img/0_150.png","74","image-keyboard-response","177","307321","0.0-6.0-1.85","ZDER","1","m","rechts","52","","","object","j","0","true"
"null","<div style=""font-size:60px;"">+</div>","null","html-keyboard-response","178","307744","0.0-6.0-0.86","ZDER","1","m","rechts","52","","fixation","","","",""
"1600","img/30_270.png","70","image-keyboard-response","179","309358","0.0-6.0-1.86","ZDER","1","m","rechts","52","","","object","f","30","true"
"null","<div style=""font-size:60px;"">+</div>","null","html-keyboard-response","180","309775","0.0-6.0-0.87","ZDER","1","m","rechts","52","","fixation","","","",""
"1428","img/90_150.png","74","image-keyboard-response","181","311213","0.0-6.0-1.87","ZDER","1","m","rechts","52","","","object","j","90","true"
"null","<div style=""font-size:60px;"">+</div>","null","html-keyboard-response","182","311635","0.0-6.0-0.88","ZDER","1","m","rechts","52","","fixation","","","",""
"1662","img/90_30.png","70","image-keyboard-response","183","313306","0.0-6.0-1.88","ZDER","1","m","rechts","52","","","object","f","90","true"
"null","<div style=""font-size:60px;"">+</div>","null","html-keyboard-response","184","313730","0.0-6.0-0.89","ZDER","1","m","rechts","52","","fixation","","","",""
"1059","img/0_270.png","70","image-keyboard-response","185","314803","0.0-6.0-1.89","ZDER","1","m","rechts","52","","","object","f","0","true"
"null","<div style=""font-size:60px;"">+</div>","null","html-keyboard-response","186","315213","0.0-6.0-0.90","ZDER","1","m","rechts","52","","fixation","","","",""
"1453","img/L90_180.png","74","image-keyboard-response","187","316681","0.0-6.0-1.90","ZDER","1","m","rechts","52","","","object","j","90","true"
"null","<div style=""font-size:60px;"">+</div>","null","html-keyboard-response","188","317010","0.0-6.0-0.91","ZDER","1","m","rechts","52","","fixation","","","",""
"1745","img/L150_180.png","74","image-keyboard-response","189","318763","0.0-6.0-1.91","ZDER","1","m","rechts","52","","","object","j","150","true"
"null","<div style=""font-size:60px;"">+</div>","null","html-keyboard-response","190","319169","0.0-6.0-0.92","ZDER","1","m","rechts","52","","fixation","","","",""
"1651","img/150_300.png","74","image-keyboard-response","191","320832","0.0-6.0-1.92","ZDER","1","m","rechts","52","","","object","j","150","true"
"null","<div style=""font-size:60px;"">+</div>","null","html-keyboard-response","192","321152","0.0-6.0-0.93","ZDER","1","m","rechts","52","","fixation","","","",""
"1343","img/120_270.png","74","image-keyboard-response","193","322508","0.0-6.0-1.93","ZDER","1","m","rechts","52","","","object","j","120","true"
"null","<div style=""font-size:60px;"">+</div>","null","html-keyboard-response","194","322890","0.0-6.0-0.94","ZDER","1","m","rechts","52","","fixation","","","",""
"1360","img/L60_180.png","74","image-keyboard-response","195","324263","0.0-6.0-1.94","ZDER","1","m","rechts","52","","","object","j","60","true"
"null","<div style=""font-size:60px;"">+</div>","null","html-keyboard-response","196","324578","0.0-6.0-0.95","ZDER","1","m","rechts","52","","fixation","","","",""
"1391","img/60_30.png","70","image-keyboard-response","197","325985","0.0-6.0-1.95","ZDER","1","m","rechts","52","","","object","f","60","true"
"null","<div style=""font-size:60px;"">+</div>","null","html-keyboard-response","198","326411","0.0-6.0-0.96","ZDER","1","m","rechts","52","","fixation","","","",""
"1606","img/150_270.png","74","image-keyboard-response","199","328031","0.0-6.0-1.96","ZDER","1","m","rechts","52","","","object","j","150","true"
"null","<div style=""font-size:60px;"">+</div>","null","html-keyboard-response","200","328548","0.0-6.0-0.97","ZDER","1","m","rechts","52","","fixation","","","",""
"1552","img/30_300.png","70","image-keyboard-response","201","330112","0.0-6.0-1.97","ZDER","1","m","rechts","52","","","object","f","30","true"
"null","<div style=""font-size:60px;"">+</div>","null","html-keyboard-response","202","330572","0.0-6.0-0.98","ZDER","1","m","rechts","52","","fixation","","","",""
"1181","img/60_150.png","74","image-keyboard-response","203","331767","0.0-6.0-1.98","ZDER","1","m","rechts","52","","","object","j","60","true"
"null","<div style=""font-size:60px;"">+</div>","null","html-keyboard-response","204","332229","0.0-6.0-0.99","ZDER","1","m","rechts","52","","fixation","","","",""
"1393","img/90_120.png","70","image-keyboard-response","205","333635","0.0-6.0-1.99","ZDER","1","m","rechts","52","","","object","j","90","false"
"null","<div style=""font-size:60px;"">+</div>","null","html-keyboard-response","206","334102","0.0-6.0-0.100","ZDER","1","m","rechts","52","","fixation","","","",""
"1416","img/150_180.png","70","image-keyboard-response","207","335523","0.0-6.0-1.100","ZDER","1","m","rechts","52","","","object","f","150","true"
"null","<div style=""font-size:60px;"">+</div>","null","html-keyboard-response","208","335883","0.0-6.0-0.101","ZDER","1","m","rechts","52","","fixation","","","",""
"1338","img/120_210.png","70","image-keyboard-response","209","337235","0.0-6.0-1.101","ZDER","1","m","rechts","52","","","object","f","120","true"
"null","<div style=""font-size:60px;"">+</div>","null","html-keyboard-response","210","337668","0.0-6.0-0.102","ZDER","1","m","rechts","52","","fixation","","","",""
"1219","img/0_60.png","74","image-keyboard-response","211","338900","0.0-6.0-1.102","ZDER","1","m","rechts","52","","","object","j","0","true"
"null","<div style=""font-size:60px;"">+</div>","null","html-keyboard-response","212","339402","0.0-6.0-0.103","ZDER","1","m","rechts","52","","fixation","","","",""
"734","img/30_90.png","74","image-keyboard-response","213","340148","0.0-6.0-1.103","ZDER","1","m","rechts","52","","","object","j","30","true"
"null","<div style=""font-size:60px;"">+</div>","null","html-keyboard-response","214","340573","0.0-6.0-0.104","ZDER","1","m","rechts","52","","fixation","","","",""
"1371","img/90_180.png","70","image-keyboard-response","215","341958","0.0-6.0-1.104","ZDER","1","m","rechts","52","","","object","f","90","true"
"null","<div style=""font-size:60px;"">+</div>","null","html-keyboard-response","216","342325","0.0-6.0-0.105","ZDER","1","m","rechts","52","","fixation","","","",""
"1087","img/90_210.png","70","image-keyboard-response","217","343423","0.0-6.0-1.105","ZDER","1","m","rechts","52","","","object","f","90","true"
"null","<div style=""font-size:60px;"">+</div>","null","html-keyboard-response","218","343934","0.0-6.0-0.106","ZDER","1","m","rechts","52","","fixation","","","",""
"1358","img/L90_180.png","74","image-keyboard-response","219","345302","0.0-6.0-1.106","ZDER","1","m","rechts","52","","","object","j","90","true"
"null","<div style=""font-size:60px;"">+</div>","null","html-keyboard-response","220","345669","0.0-6.0-0.107","ZDER","1","m","rechts","52","","fixation","","","",""
"1905","img/60_270.png","70","image-keyboard-response","221","347585","0.0-6.0-1.107","ZDER","1","m","rechts","52","","","object","f","60","true"
"null","<div style=""font-size:60px;"">+</div>","null","html-keyboard-response","222","347904","0.0-6.0-0.108","ZDER","1","m","rechts","52","","fixation","","","",""
"1073","img/0_210.png","70","image-keyboard-response","223","348991","0.0-6.0-1.108","ZDER","1","m","rechts","52","","","object","f","0","true"
"null","<div style=""font-size:60px;"">+</div>","null","html-keyboard-response","224","349295","0.0-6.0-0.109","ZDER","1","m","rechts","52","","fixation","","","",""
"1349","img/150_240.png","74","image-keyboard-response","225","350656","0.0-6.0-1.109","ZDER","1","m","rechts","52","","","object","j","150","true"
"null","<div style=""font-size:60px;"">+</div>","null","html-keyboard-response","226","350966","0.0-6.0-0.110","ZDER","1","m","rechts","52","","fixation","","","",""
"2028","img/60_330.png","74","image-keyboard-response","227","353007","0.0-6.0-1.110","ZDER","1","m","rechts","52","","","object","j","60","true"
"null","<div style=""font-size:60px;"">+</div>","null","html-keyboard-response","228","353422","0.0-6.0-0.111","ZDER","1","m","rechts","52","","fixation","","","",""
"1194","img/0_150.png","74","image-keyboard-response","229","354626","0.0-6.0-1.111","ZDER","1","m","rechts","52","","","object","j","0","true"
"null","<div style=""font-size:60px;"">+</div>","null","html-keyboard-response","230","355092","0.0-6.0-0.112","ZDER","1","m","rechts","52","","fixation","","","",""
"1039","img/0_270.png","74","image-keyboard-response","231","356135","0.0-6.0-1.112","ZDER","1","m","rechts","52","","","object","f","0","false"
"null","<div style=""font-size:60px;"">+</div>","null","html-keyboard-response","232","356439","0.0-6.0-0.113","ZDER","1","m","rechts","52","","fixation","","","",""
"1421","img/90_330.png","74","image-keyboard-response","233","357868","0.0-6.0-1.113","ZDER","1","m","rechts","52","","","object","j","90","true"
"null","<div style=""font-size:60px;"">+</div>","null","html-keyboard-response","234","358172","0.0-6.0-0.114","ZDER","1","m","rechts","52","","fixation","","","",""
"1583","img/L30_180.png","70","image-keyboard-response","235","359770","0.0-6.0-1.114","ZDER","1","m","rechts","52","","","object","j","30","false"
"null","<div style=""font-size:60px;"">+</div>","null","html-keyboard-response","236","360121","0.0-6.0-0.115","ZDER","1","m","rechts","52","","fixation","","","",""
"1499","img/60_210.png","70","image-keyboard-response","237","361625","0.0-6.0-1.115","ZDER","1","m","rechts","52","","","object","f","60","true"
"null","<div style=""font-size:60px;"">+</div>","null","html-keyboard-response","238","362043","0.0-6.0-0.116","ZDER","1","m","rechts","52","","fixation","","","",""
"1938","img/150_180.png","70","image-keyboard-response","239","363988","0.0-6.0-1.116","ZDER","1","m","rechts","52","","","object","f","150","true"
"null","<div style=""font-size:60px;"">+</div>","null","html-keyboard-response","240","364360","0.0-6.0-0.117","ZDER","1","m","rechts","52","","fixation","","","",""
"1293","img/0_120.png","74","image-keyboard-response","241","365663","0.0-6.0-1.117","ZDER","1","m","rechts","52","","","object","j","0","true"
"null","<div style=""font-size:60px;"">+</div>","null","html-keyboard-response","242","366142","0.0-6.0-0.118","ZDER","1","m","rechts","52","","fixation","","","",""
"1467","img/120_150.png","74","image-keyboard-response","243","367621","0.0-6.0-1.118","ZDER","1","m","rechts","52","","","object","j","120","true"
"null","<div style=""font-size:60px;"">+</div>","null","html-keyboard-response","244","368128","0.0-6.0-0.119","ZDER","1","m","rechts","52","","fixation","","","",""
"958","img/0_300.png","70","image-keyboard-response","245","369093","0.0-6.0-1.119","ZDER","1","m","rechts","52","","","object","f","0","true"
"null","<div style=""font-size:60px;"">+</div>","null","html-keyboard-response","246","369599","0.0-6.0-0.120","ZDER","1","m","rechts","52","","fixation","","","",""
"1221","img/30_90.png","74","image-keyboard-response","247","370828","0.0-6.0-1.120","ZDER","1","m","rechts","52","","","object","j","30","true"
"null","<div style=""font-size:60px;"">+</div>","null","html-keyboard-response","248","371160","0.0-6.0-0.121","ZDER","1","m","rechts","52","","fixation","","","",""
"1938","img/150_300.png","74","image-keyboard-response","249","373108","0.0-6.0-1.121","ZDER","1","m","rechts","52","","","object","j","150","true"
"null","<div style=""font-size:60px;"">+</div>","null","html-keyboard-response","250","373487","0.0-6.0-0.122","ZDER","1","m","rechts","52","","fixation","","","",""
"1189","img/0_60.png","74","image-keyboard-response","251","374687","0.0-6.0-1.122","ZDER","1","m","rechts","52","","","object","j","0","true"
"null","<div style=""font-size:60px;"">+</div>","null","html-keyboard-response","252","375003","0.0-6.0-0.123","ZDER","1","m","rechts","52","","fixation","","","",""
"1855","img/90_120.png","70","image-keyboard-response","253","376869","0.0-6.0-1.123","ZDER","1","m","rechts","52","","","object","j","90","false"
"null","<div style=""font-size:60px;"">+</div>","null","html-keyboard-response","254","377287","0.0-6.0-0.124","ZDER","1","m","rechts","52","","fixation","","","",""
"1390","img/120_180.png","70","image-keyboard-response","255","378691","0.0-6.0-1.124","ZDER","1","m","rechts","52","","","object","f","120","true"
"null","<div style=""font-size:60px;"">+</div>","null","html-keyboard-response","256","379005","0.0-6.0-0.125","ZDER","1","m","rechts","52","","fixation","","","",""
"1428","img/L120_180.png","74","image-keyboard-response","257","380447","0.0-6.0-1.125","ZDER","1","m","rechts","52","","","object","j","120","true"
"null","<div style=""font-size:60px;"">+</div>","null","html-keyboard-response","258","380754","0.0-6.0-0.126","ZDER","1","m","rechts","52","","fixation","","","",""
"1165","img/30_60.png","74","image-keyboard-response","259","381932","0.0-6.0-1.126","ZDER","1","m","rechts","52","","","object","j","30","true"
"null","<div style=""font-size:60px;"">+</div>","null","html-keyboard-response","260","382240","0.0-6.0-0.127","ZDER","1","m","rechts","52","","fixation","","","",""
"982","img/0_30.png","74","image-keyboard-response","261","383235","0.0-6.0-1.127","ZDER","1","m","rechts","52","","","object","j","0","true"
"null","<div style=""font-size:60px;"">+</div>","null","html-keyboard-response","262","383602","0.0-6.0-0.128","ZDER","1","m","rechts","52","","fixation","","","",""
"994","img/30_120.png","74","image-keyboard-response","263","384609","0.0-6.0-1.128","ZDER","1","m","rechts","52","","","object","j","30","true"
"null","<div style=""font-size:60px;"">+</div>","null","html-keyboard-response","264","384914","0.0-6.0-0.129","ZDER","1","m","rechts","52","","fixation","","","",""
"1336","img/120_90.png","70","image-keyboard-response","265","386263","0.0-6.0-1.129","ZDER","1","m","rechts","52","","","object","f","120","true"
"null","<div style=""font-size:60px;"">+</div>","null","html-keyboard-response","266","386616","0.0-6.0-0.130","ZDER","1","m","rechts","52","","fixation","","","",""
"1366","img/90_300.png","74","image-keyboard-response","267","387996","0.0-6.0-1.130","ZDER","1","m","rechts","52","","","object","j","90","true"
"null","<div style=""font-size:60px;"">+</div>","null","html-keyboard-response","268","388324","0.0-6.0-0.131","ZDER","1","m","rechts","52","","fixation","","","",""
"1449","img/90_30.png","70","image-keyboard-response","269","389786","0.0-6.0-1.131","ZDER","1","m","rechts","52","","","object","f","90","true"
"null","<div style=""font-size:60px;"">+</div>","null","html-keyboard-response","270","390246","0.0-6.0-0.132","ZDER","1","m","rechts","52","","fixation","","","",""
"1471","img/90_150.png","74","image-keyboard-response","271","391731","0.0-6.0-1.132","ZDER","1","m","rechts","52","","","object","j","90","true"
"null","<div style=""font-size:60px;"">+</div>","null","html-keyboard-response","272","392059","0.0-6.0-0.133","ZDER","1","m","rechts","52","","fixation","","","",""
"981","img/0_330.png","70","image-keyboard-response","273","393047","0.0-6.0-1.133","ZDER","1","m","rechts","52","","","object","f","0","true"
"null","<div style=""font-size:60px;"">+</div>","null","html-keyboard-response","274","393512","0.0-6.0-0.134","ZDER","1","m","rechts","52","","fixation","","","",""
"1353","img/150_90.png","70","image-keyboard-response","275","394879","0.0-6.0-1.134","ZDER","1","m","rechts","52","","","object","f","150","true"
"null","<div style=""font-size:60px;"">+</div>","null","html-keyboard-response","276","395185","0.0-6.0-0.135","ZDER","1","m","rechts","52","","fixation","","","",""
"1373","img/150_270.png","74","image-keyboard-response","277","396568","0.0-6.0-1.135","ZDER","1","m","rechts","52","","","object","j","150","true"
"null","<div style=""font-size:60px;"">+</div>","null","html-keyboard-response","278","397074","0.0-6.0-0.136","ZDER","1","m","rechts","52","","fixation","","","",""
"973","img/0_90.png","74","image-keyboard-response","279","398053","0.0-6.0-1.136","ZDER","1","m","rechts","52","","","object","j","0","true"
"null","<div style=""font-size:60px;"">+</div>","null","html-keyboard-response","280","398373","0.0-6.0-0.137","ZDER","1","m","rechts","52","","fixation","","","",""
"1459","img/30_300.png","70","image-keyboard-response","281","399843","0.0-6.0-1.137","ZDER","1","m","rechts","52","","","object","f","30","true"
"null","<div style=""font-size:60px;"">+</div>","null","html-keyboard-response","282","400310","0.0-6.0-0.138","ZDER","1","m","rechts","52","","fixation","","","",""
"1136","img/30_180.png","74","image-keyboard-response","283","401460","0.0-6.0-1.138","ZDER","1","m","rechts","52","","","object","f","30","false"
"null","<div style=""font-size:60px;"">+</div>","null","html-keyboard-response","284","401919","0.0-6.0-0.139","ZDER","1","m","rechts","52","","fixation","","","",""
"933","img/60_180.png","74","image-keyboard-response","285","402858","0.0-6.0-1.139","ZDER","1","m","rechts","52","","","object","f","60","false"
"null","<div style=""font-size:60px;"">+</div>","null","html-keyboard-response","286","403215","0.0-6.0-0.140","ZDER","1","m","rechts","52","","fixation","","","",""
"null","img/120_210.png","null","image-keyboard-response","287","406245","0.0-6.0-1.140","ZDER","1","m","rechts","52","","","object","f","120","false"
"null","<div style=""font-size:60px;"">+</div>","null","html-keyboard-response","288","406652","0.0-6.0-0.141","ZDER","1","m","rechts","52","","fixation","","","",""
"1265","img/120_330.png","74","image-keyboard-response","289","407931","0.0-6.0-1.141","ZDER","1","m","rechts","52","","","object","j","120","true"
"null","<div style=""font-size:60px;"">+</div>","null","html-keyboard-response","290","408406","0.0-6.0-0.142","ZDER","1","m","rechts","52","","fixation","","","",""
"1247","img/L60_180.png","74","image-keyboard-response","291","409664","0.0-6.0-1.142","ZDER","1","m","rechts","52","","","object","j","60","true"
"null","<div style=""font-size:60px;"">+</div>","null","html-keyboard-response","292","410124","0.0-6.0-0.143","ZDER","1","m","rechts","52","","fixation","","","",""
"1358","img/150_120.png","70","image-keyboard-response","293","411487","0.0-6.0-1.143","ZDER","1","m","rechts","52","","","object","f","150","true"
"null","<div style=""font-size:60px;"">+</div>","null","html-keyboard-response","294","411797","0.0-6.0-0.144","ZDER","1","m","rechts","52","","fixation","","","",""
"1293","img/90_240.png","70","image-keyboard-response","295","413104","0.0-6.0-1.144","ZDER","1","m","rechts","52","","","object","f","90","true"
"null","<div style=""font-size:60px;"">+</div>","null","html-keyboard-response","296","413627","0.0-6.0-0.145","ZDER","1","m","rechts","52","","fixation","","","",""
"968","img/30_270.png","70","image-keyboard-response","297","414614","0.0-6.0-1.145","ZDER","1","m","rechts","52","","","object","f","30","true"
"null","<div style=""font-size:60px;"">+</div>","null","html-keyboard-response","298","414986","0.0-6.0-0.146","ZDER","1","m","rechts","52","","fixation","","","",""
"1437","img/120_30.png","74","image-keyboard-response","299","416436","0.0-6.0-1.146","ZDER","1","m","rechts","52","","","object","f","120","false"
"null","<div style=""font-size:60px;"">+</div>","null","html-keyboard-response","300","416798","0.0-6.0-0.147","ZDER","1","m","rechts","52","","fixation","","","",""
"null","img/60_150.png","null","image-keyboard-response","301","419835","0.0-6.0-1.147","ZDER","1","m","rechts","52","","","object","j","60","false"
"null","<div style=""font-size:60px;"">+</div>","null","html-keyboard-response","302","420359","0.0-6.0-0.148","ZDER","1","m","rechts","52","","fixation","","","",""
"1551","img/60_30.png","70","image-keyboard-response","303","421925","0.0-6.0-1.148","ZDER","1","m","rechts","52","","","object","f","60","true"
"null","<div style=""font-size:60px;"">+</div>","null","html-keyboard-response","304","422388","0.0-6.0-0.149","ZDER","1","m","rechts","52","","fixation","","","",""
"1795","img/90_60.png","70","image-keyboard-response","305","424197","0.0-6.0-1.149","ZDER","1","m","rechts","52","","","object","f","90","true"
"null","<div style=""font-size:60px;"">+</div>","null","html-keyboard-response","306","424654","0.0-6.0-0.150","ZDER","1","m","rechts","52","","fixation","","","",""
"1701","img/150_60.png","70","image-keyboard-response","307","426368","0.0-6.0-1.150","ZDER","1","m","rechts","52","","","object","f","150","true"
"null","<div style=""font-size:60px;"">+</div>","null","html-keyboard-response","308","426873","0.0-6.0-0.151","ZDER","1","m","rechts","52","","fixation","","","",""
"1024","img/0_240.png","70","image-keyboard-response","309","427911","0.0-6.0-1.151","ZDER","1","m","rechts","52","","","object","f","0","true"
"null","<div style=""font-size:60px;"">+</div>","null","html-keyboard-response","310","428420","0.0-6.0-0.152","ZDER","1","m","rechts","52","","fixation","","","",""
"1750","img/L150_180.png","74","image-keyboard-response","311","430183","0.0-6.0-1.152","ZDER","1","m","rechts","52","","","object","j","150","true"
"null","<div style=""font-size:60px;"">+</div>","null","html-keyboard-response","312","430701","0.0-6.0-0.153","ZDER","1","m","rechts","52","","fixation","","","",""
"2172","img/60_90.png","74","image-keyboard-response","313","432887","0.0-6.0-1.153","ZDER","1","m","rechts","52","","","object","j","60","true"
"null","<div style=""font-size:60px;"">+</div>","null","html-keyboard-response","314","433399","0.0-6.0-0.154","ZDER","1","m","rechts","52","","fixation","","","",""
"1091","img/30_240.png","70","image-keyboard-response","315","434503","0.0-6.0-1.154","ZDER","1","m","rechts","52","","","object","f","30","true"
"null","<div style=""font-size:60px;"">+</div>","null","html-keyboard-response","316","434867","0.0-6.0-0.155","ZDER","1","m","rechts","52","","fixation","","","",""
"1816","img/120_270.png","74","image-keyboard-response","317","436697","0.0-6.0-1.155","ZDER","1","m","rechts","52","","","object","j","120","true"
"null","<div style=""font-size:60px;"">+</div>","null","html-keyboard-response","318","437101","0.0-6.0-0.156","ZDER","1","m","rechts","52","","fixation","","","",""
"1134","img/120_270.png","74","image-keyboard-response","319","438239","0.0-6.0-1.156","ZDER","1","m","rechts","52","","","object","j","120","true"
"null","<div style=""font-size:60px;"">+</div>","null","html-keyboard-response","320","438547","0.0-6.0-0.157","ZDER","1","m","rechts","52","","fixation","","","",""
"1506","img/120_150.png","74","image-keyboard-response","321","440062","0.0-6.0-1.157","ZDER","1","m","rechts","52","","","object","j","120","true"
"null","<div style=""font-size:60px;"">+</div>","null","html-keyboard-response","322","440577","0.0-6.0-0.158","ZDER","1","m","rechts","52","","fixation","","","",""
"1352","img/L120_180.png","74","image-keyboard-response","323","441940","0.0-6.0-1.158","ZDER","1","m","rechts","52","","","object","j","120","true"
"null","<div style=""font-size:60px;"">+</div>","null","html-keyboard-response","324","442405","0.0-6.0-0.159","ZDER","1","m","rechts","52","","fixation","","","",""
"1390","img/30_240.png","70","image-keyboard-response","325","443805","0.0-6.0-1.159","ZDER","1","m","rechts","52","","","object","f","30","true"
"null","<div style=""font-size:60px;"">+</div>","null","html-keyboard-response","326","444187","0.0-6.0-0.160","ZDER","1","m","rechts","52","","fixation","","","",""
"1344","img/30_270.png","70","image-keyboard-response","327","445540","0.0-6.0-1.160","ZDER","1","m","rechts","52","","","object","f","30","true"
"null","<div style=""font-size:60px;"">+</div>","null","html-keyboard-response","328","446046","0.0-6.0-0.161","ZDER","1","m","rechts","52","","fixation","","","",""
"1314","img/150_270.png","74","image-keyboard-response","329","447375","0.0-6.0-1.161","ZDER","1","m","rechts","52","","","object","j","150","true"
"null","<div style=""font-size:60px;"">+</div>","null","html-keyboard-response","330","447796","0.0-6.0-0.162","ZDER","1","m","rechts","52","","fixation","","","",""
"1364","img/30_300.png","70","image-keyboard-response","331","449172","0.0-6.0-1.162","ZDER","1","m","rechts","52","","","object","f","30","true"
"null","<div style=""font-size:60px;"">+</div>","null","html-keyboard-response","332","449626","0.0-6.0-0.163","ZDER","1","m","rechts","52","","fixation","","","",""
"1183","img/60_150.png","74","image-keyboard-response","333","450817","0.0-6.0-1.163","ZDER","1","m","rechts","52","","","object","j","60","true"
"null","<div style=""font-size:60px;"">+</div>","null","html-keyboard-response","334","451281","0.0-6.0-0.164","ZDER","1","m","rechts","52","","fixation","","","",""
"1325","img/90_150.png","74","image-keyboard-response","335","452617","0.0-6.0-1.164","ZDER","1","m","rechts","52","","","object","j","90","true"
"null","<div style=""font-size:60px;"">+</div>","null","html-keyboard-response","336","452985","0.0-6.0-0.165","ZDER","1","m","rechts","52","","fixation","","","",""
"1402","img/90_210.png","70","image-keyboard-response","337","454404","0.0-6.0-1.165","ZDER","1","m","rechts","52","","","object","f","90","true"
"null","<div style=""font-size:60px;"">+</div>","null","html-keyboard-response","338","454760","0.0-6.0-0.166","ZDER","1","m","rechts","52","","fixation","","","",""
"1094","img/L30_180.png","74","image-keyboard-response","339","455868","0.0-6.0-1.166","ZDER","1","m","rechts","52","","","object","j","30","true"
"null","<div style=""font-size:60px;"">+</div>","null","html-keyboard-response","340","456292","0.0-6.0-0.167","ZDER","1","m","rechts","52","","fixation","","","",""
"1230","img/0_90.png","74","image-keyboard-response","341","457531","0.0-6.0-1.167","ZDER","1","m","rechts","52","","","object","j","0","true"
"null","<div style=""font-size:60px;"">+</div>","null","html-keyboard-response","342","457938","0.0-6.0-0.168","ZDER","1","m","rechts","52","","fixation","","","",""
"1338","img/60_180.png","70","image-keyboard-response","343","459286","0.0-6.0-1.168","ZDER","1","m","rechts","52","","","object","f","60","true"
"null","<div style=""font-size:60px;"">+</div>","null","html-keyboard-response","344","459594","0.0-6.0-0.169","ZDER","1","m","rechts","52","","fixation","","","",""
"null","img/90_30.png","null","image-keyboard-response","345","462616","0.0-6.0-1.169","ZDER","1","m","rechts","52","","","object","f","90","false"
"null","<div style=""font-size:60px;"">+</div>","null","html-keyboard-response","346","462942","0.0-6.0-0.170","ZDER","1","m","rechts","52","","fixation","","","",""
"1714","img/150_120.png","70","image-keyboard-response","347","464666","0.0-6.0-1.170","ZDER","1","m","rechts","52","","","object","f","150","true"
"null","<div style=""font-size:60px;"">+</div>","null","html-keyboard-response","348","465175","0.0-6.0-0.171","ZDER","1","m","rechts","52","","fixation","","","",""
"2240","img/90_330.png","74","image-keyboard-response","349","467422","0.0-6.0-1.171","ZDER","1","m","rechts","52","","","object","j","90","true"
"null","<div style=""font-size:60px;"">+</div>","null","html-keyboard-response","350","467730","0.0-6.0-0.172","ZDER","1","m","rechts","52","","fixation","","","",""
"2155","img/90_120.png","74","image-keyboard-response","351","469898","0.0-6.0-1.172","ZDER","1","m","rechts","52","","","object","j","90","true"
"null","<div style=""font-size:60px;"">+</div>","null","html-keyboard-response","352","470206","0.0-6.0-0.173","ZDER","1","m","rechts","52","","fixation","","","",""
"1216","img/90_60.png","70","image-keyboard-response","353","471427","0.0-6.0-1.173","ZDER","1","m","rechts","52","","","object","f","90","true"
"null","<div style=""font-size:60px;"">+</div>","null","html-keyboard-response","354","471754","0.0-6.0-0.174","ZDER","1","m","rechts","52","","fixation","","","",""
"1349","img/60_30.png","70","image-keyboard-response","355","473113","0.0-6.0-1.174","ZDER","1","m","rechts","52","","","object","f","60","true"
"null","<div style=""font-size:60px;"">+</div>","null","html-keyboard-response","356","473467","0.0-6.0-0.175","ZDER","1","m","rechts","52","","fixation","","","",""
"1051","img/0_270.png","70","image-keyboard-response","357","474532","0.0-6.0-1.175","ZDER","1","m","rechts","52","","","object","f","0","true"
"null","<div style=""font-size:60px;"">+</div>","null","html-keyboard-response","358","474842","0.0-6.0-0.176","ZDER","1","m","rechts","52","","fixation","","","",""
"1526","img/L60_180.png","74","image-keyboard-response","359","476377","0.0-6.0-1.176","ZDER","1","m","rechts","52","","","object","j","60","true"
"null","<div style=""font-size:60px;"">+</div>","null","html-keyboard-response","360","476779","0.0-6.0-0.177","ZDER","1","m","rechts","52","","fixation","","","",""
"2311","img/60_270.png","70","image-keyboard-response","361","479104","0.0-6.0-1.177","ZDER","1","m","rechts","52","","","object","f","60","true"
"null","<div style=""font-size:60px;"">+</div>","null","html-keyboard-response","362","479583","0.0-6.0-0.178","ZDER","1","m","rechts","52","","fixation","","","",""
"1381","img/120_180.png","70","image-keyboard-response","363","480977","0.0-6.0-1.178","ZDER","1","m","rechts","52","","","object","f","120","true"
"null","<div style=""font-size:60px;"">+</div>","null","html-keyboard-response","364","481286","0.0-6.0-0.179","ZDER","1","m","rechts","52","","fixation","","","",""
"1333","img/0_300.png","70","image-keyboard-response","365","482632","0.0-6.0-1.179","ZDER","1","m","rechts","52","","","object","f","0","true"
"null","<div style=""font-size:60px;"">+</div>","null","html-keyboard-response","366","482951","0.0-6.0-0.180","ZDER","1","m","rechts","52","","fixation","","","",""
"1379","img/90_300.png","74","image-keyboard-response","367","484342","0.0-6.0-1.180","ZDER","1","m","rechts","52","","","object","j","90","true"
"null","<div style=""font-size:60px;"">+</div>","null","html-keyboard-response","368","484804","0.0-6.0-0.181","ZDER","1","m","rechts","52","","fixation","","","",""
"1171","img/30_180.png","70","image-keyboard-response","369","485985","0.0-6.0-1.181","ZDER","1","m","rechts","52","","","object","f","30","true"
"null","<div style=""font-size:60px;"">+</div>","null","html-keyboard-response","370","486288","0.0-6.0-0.182","ZDER","1","m","rechts","52","","fixation","","","",""
"1313","img/60_210.png","70","image-keyboard-response","371","487616","0.0-6.0-1.182","ZDER","1","m","rechts","52","","","object","f","60","true"
"null","<div style=""font-size:60px;"">+</div>","null","html-keyboard-response","372","487977","0.0-6.0-0.183","ZDER","1","m","rechts","52","","fixation","","","",""
"2487","img/150_180.png","70","image-keyboard-response","373","490478","0.0-6.0-1.183","ZDER","1","m","rechts","52","","","object","f","150","true"
"null","<div style=""font-size:60px;"">+</div>","null","html-keyboard-response","374","490881","0.0-6.0-0.184","ZDER","1","m","rechts","52","","fixation","","","",""
"2973","img/60_90.png","70","image-keyboard-response","375","493865","0.0-6.0-1.184","ZDER","1","m","rechts","52","","","object","j","60","false"
"null","<div style=""font-size:60px;"">+</div>","null","html-keyboard-response","376","494282","0.0-6.0-0.185","ZDER","1","m","rechts","52","","fixation","","","",""
"1262","img/90_180.png","70","image-keyboard-response","377","495558","0.0-6.0-1.185","ZDER","1","m","rechts","52","","","object","f","90","true"
"null","<div style=""font-size:60px;"">+</div>","null","html-keyboard-response","378","496063","0.0-6.0-0.186","ZDER","1","m","rechts","52","","fixation","","","",""
"1179","img/0_210.png","70","image-keyboard-response","379","497255","0.0-6.0-1.186","ZDER","1","m","rechts","52","","","object","f","0","true"
"null","<div style=""font-size:60px;"">+</div>","null","html-keyboard-response","380","497619","0.0-6.0-0.187","ZDER","1","m","rechts","52","","fixation","","","",""
"2508","img/30_60.png","70","image-keyboard-response","381","500141","0.0-6.0-1.187","ZDER","1","m","rechts","52","","","object","j","30","false"
"null","<div style=""font-size:60px;"">+</div>","null","html-keyboard-response","382","500466","0.0-6.0-0.188","ZDER","1","m","rechts","52","","fixation","","","",""
"2794","img/150_60.png","70","image-keyboard-response","383","503269","0.0-6.0-1.188","ZDER","1","m","rechts","52","","","object","f","150","true"
"null","<div style=""font-size:60px;"">+</div>","null","html-keyboard-response","384","503577","0.0-6.0-0.189","ZDER","1","m","rechts","52","","fixation","","","",""
"1755","img/0_60.png","74","image-keyboard-response","385","505346","0.0-6.0-1.189","ZDER","1","m","rechts","52","","","object","j","0","true"
"null","<div style=""font-size:60px;"">+</div>","null","html-keyboard-response","386","505671","0.0-6.0-0.190","ZDER","1","m","rechts","52","","fixation","","","",""
"2099","img/120_330.png","74","image-keyboard-response","387","507781","0.0-6.0-1.190","ZDER","1","m","rechts","52","","","object","j","120","true"
"null","<div style=""font-size:60px;"">+</div>","null","html-keyboard-response","388","508090","0.0-6.0-0.191","ZDER","1","m","rechts","52","","fixation","","","",""
"1967","img/30_120.png","74","image-keyboard-response","389","510072","0.0-6.0-1.191","ZDER","1","m","rechts","52","","","object","j","30","true"
"null","<div style=""font-size:60px;"">+</div>","null","html-keyboard-response","390","510576","0.0-6.0-0.192","ZDER","1","m","rechts","52","","fixation","","","",""
"953","img/30_90.png","74","image-keyboard-response","391","511544","0.0-6.0-1.192","ZDER","1","m","rechts","52","","","object","j","30","true"
"null","<div style=""font-size:60px;"">+</div>","null","html-keyboard-response","392","511904","0.0-6.0-0.193","ZDER","1","m","rechts","52","","fixation","","","",""
"1070","img/0_240.png","70","image-keyboard-response","393","512986","0.0-6.0-1.193","ZDER","1","m","rechts","52","","","object","f","0","true"
"null","<div style=""font-size:60px;"">+</div>","null","html-keyboard-response","394","513498","0.0-6.0-0.194","ZDER","1","m","rechts","52","","fixation","","","",""
"null","img/120_210.png","null","image-keyboard-response","395","516520","0.0-6.0-1.194","ZDER","1","m","rechts","52","","","object","f","120","false"
"null","<div style=""font-size:60px;"">+</div>","null","html-keyboard-response","396","516978","0.0-6.0-0.195","ZDER","1","m","rechts","52","","fixation","","","",""
"1101","img/0_330.png","70","image-keyboard-response","397","518093","0.0-6.0-1.195","ZDER","1","m","rechts","52","","","object","f","0","true"
"null","<div style=""font-size:60px;"">+</div>","null","html-keyboard-response","398","518546","0.0-6.0-0.196","ZDER","1","m","rechts","52","","fixation","","","",""
"null","img/L150_180.png","null","image-keyboard-response","399","521561","0.0-6.0-1.196","ZDER","1","m","rechts","52","","","object","j","150","false"
"null","<div style=""font-size:60px;"">+</div>","null","html-keyboard-response","400","521888","0.0-6.0-0.197","ZDER","1","m","rechts","52","","fixation","","","",""
"504","img/0_120.png","74","image-keyboard-response","401","522398","0.0-6.0-1.197","ZDER","1","m","rechts","52","","","object","j","0","true"
"null","<div style=""font-size:60px;"">+</div>","null","html-keyboard-response","402","522710","0.0-6.0-0.198","ZDER","1","m","rechts","52","","fixation","","","",""
"2384","img/150_300.png","70","image-keyboard-response","403","525106","0.0-6.0-1.198","ZDER","1","m","rechts","52","","","object","j","150","false"
"null","<div style=""font-size:60px;"">+</div>","null","html-keyboard-response","404","525460","0.0-6.0-0.199","ZDER","1","m","rechts","52","","fixation","","","",""
"2220","img/90_240.png","74","image-keyboard-response","405","527694","0.0-6.0-1.199","ZDER","1","m","rechts","52","","","object","f","90","false"
"null","<div style=""font-size:60px;"">+</div>","null","html-keyboard-response","406","528205","0.0-6.0-0.200","ZDER","1","m","rechts","52","","fixation","","","",""
"2835","img/120_30.png","70","image-keyboard-response","407","531046","0.0-6.0-1.200","ZDER","1","m","rechts","52","","","object","f","120","true"
"null","<div style=""font-size:60px;"">+</div>","null","html-keyboard-response","408","531465","0.0-6.0-0.201","ZDER","1","m","rechts","52","","fixation","","","",""
"777","img/0_150.png","74","image-keyboard-response","409","532254","0.0-6.0-1.201","ZDER","1","m","rechts","52","","","object","j","0","true"
"null","<div style=""font-size:60px;"">+</div>","null","html-keyboard-response","410","532621","0.0-6.0-0.202","ZDER","1","m","rechts","52","","fixation","","","",""
"2701","img/150_90.png","70","image-keyboard-response","411","535335","0.0-6.0-1.202","ZDER","1","m","rechts","52","","","object","f","150","true"
"null","<div style=""font-size:60px;"">+</div>","null","html-keyboard-response","412","535847","0.0-6.0-0.203","ZDER","1","m","rechts","52","","fixation","","","",""
"1956","img/L90_180.png","74","image-keyboard-response","413","537818","0.0-6.0-1.203","ZDER","1","m","rechts","52","","","object","j","90","true"
"null","<div style=""font-size:60px;"">+</div>","null","html-keyboard-response","414","538174","0.0-6.0-0.204","ZDER","1","m","rechts","52","","fixation","","","",""
"992","img/0_30.png","74","image-keyboard-response","415","539176","0.0-6.0-1.204","ZDER","1","m","rechts","52","","","object","j","0","true"
"null","<div style=""font-size:60px;"">+</div>","null","html-keyboard-response","416","539580","0.0-6.0-0.205","ZDER","1","m","rechts","52","","fixation","","","",""
"2763","img/150_240.png","74","image-keyboard-response","417","542357","0.0-6.0-1.205","ZDER","1","m","rechts","52","","","object","j","150","true"
"null","<div style=""font-size:60px;"">+</div>","null","html-keyboard-response","418","542822","0.0-6.0-0.206","ZDER","1","m","rechts","52","","fixation","","","",""
"2048","img/60_330.png","74","image-keyboard-response","419","544884","0.0-6.0-1.206","ZDER","1","m","rechts","52","","","object","j","60","true"
"null","<div style=""font-size:60px;"">+</div>","null","html-keyboard-response","420","545208","0.0-6.0-0.207","ZDER","1","m","rechts","52","","fixation","","","",""
"1219","img/120_90.png","70","image-keyboard-response","421","546443","0.0-6.0-1.207","ZDER","1","m","rechts","52","","","object","f","120","true"
"24512","<p>Du hast in 84% der Versuche korrekt entschieden.</p><p>Deine durchschnittliche Reaktionszeit war  1526ms.</p><p>Dr&uuml;cke eine beliebige Taste, um die Session zu beenden. Vielen Dank!</p>","32","html-keyboard-response","422","570961","0.0-7.0","ZDER","1","m","rechts","52","","","","","",""
