"rt","stimulus","key_press","trial_type","trial_index","time_elapsed","internal_node_id","subject","session","sex","handedness","age","responses","test_part","condition","correct_response","angle","correct"
"1181","<p>Mental Rotation Experiment.</p> <p>Dr&uuml;cke eine beliebige Taste, um anzufangen.</p>","13","html-keyboard-response","0","1217","0.0-0.0","ZDER","3","m","rechts","52","","","","","",""
"2747","","","survey-text","1","3965","0.0-1.0","ZDER","3","m","rechts","52","{""Q0"":""ZDER""}","","","","",""
"2279","","","survey-text","2","6245","0.0-2.0","ZDER","3","m","rechts","52","{""Q0"":""3""}","","","","",""
"4255","","","survey-multi-choice","3","10505","0.0-3.0","ZDER","3","m","rechts","52","{""Q0"":""m"",""Q1"":""rechts""}","","","","",""
"2762","","","survey-text","4","13270","0.0-4.0","ZDER","3","m","rechts","52","{""Q0"":""52""}","","","","",""
"10685","<p>Stell dir vor, dass du vor einem runden Tisch stehst, auf dem sich ein blauer Ball am Tischrand befindet. Entlang des Tischrands ist jeweils ein verschieden langer Pfeil. Nun bleibst du an deinem Platz vor dem Tisch und rotierst den Tisch entlang des Pfeils (gleiche Richtung und Länge). </p> <img src='img/30_180.png'></img> <br><p> Nachdem du diese (vorgestellte) Rotation durchgef&uuml;hrt hast, schau in Richtung der Tischmitte, und entscheide dann, ob der Ball links oder rechts von dir liegt.</p> <p>Dr&uuml;cke die <strong>'f'</strong>-Taste f&uuml;r links, die <strong>'j'</strong>-Taste f&uuml;r rechts.</p><br><p> Das Bild wird jeweils 1 Sekunde lang pr&auml;sentiert. Du hast 3 Sekunden Zeit eine Entscheidung zu treffen.</p>","70","html-keyboard-response","5","23966","0.0-5.0","ZDER","3","m","rechts","52","","","","","",""
"null","<div style=""font-size:60px;"">+</div>","null","html-keyboard-response","6","25291","0.0-6.0-0.0","ZDER","3","m","rechts","52","","fixation","","","",""
"1533","img/30_180.png","70","image-keyboard-response","7","26836","0.0-6.0-1.0","ZDER","3","m","rechts","52","","","object","f","30","true"
"null","<div style=""font-size:60px;"">+</div>","null","html-keyboard-response","8","27348","0.0-6.0-0.1","ZDER","3","m","rechts","52","","fixation","","","",""
"1131","img/0_30.png","74","image-keyboard-response","9","28496","0.0-6.0-1.1","ZDER","3","m","rechts","52","","","object","j","0","true"
"null","<div style=""font-size:60px;"">+</div>","null","html-keyboard-response","10","29015","0.0-6.0-0.2","ZDER","3","m","rechts","52","","fixation","","","",""
"958","img/0_210.png","70","image-keyboard-response","11","29994","0.0-6.0-1.2","ZDER","3","m","rechts","52","","","object","f","0","true"
"null","<div style=""font-size:60px;"">+</div>","null","html-keyboard-response","12","30306","0.0-6.0-0.3","ZDER","3","m","rechts","52","","fixation","","","",""
"809","img/0_150.png","74","image-keyboard-response","13","31130","0.0-6.0-1.3","ZDER","3","m","rechts","52","","","object","j","0","true"
"null","<div style=""font-size:60px;"">+</div>","null","html-keyboard-response","14","31557","0.0-6.0-0.4","ZDER","3","m","rechts","52","","fixation","","","",""
"1322","img/90_120.png","74","image-keyboard-response","15","32895","0.0-6.0-1.4","ZDER","3","m","rechts","52","","","object","j","90","true"
"null","<div style=""font-size:60px;"">+</div>","null","html-keyboard-response","16","33306","0.0-6.0-0.5","ZDER","3","m","rechts","52","","fixation","","","",""
"1011","img/30_300.png","70","image-keyboard-response","17","34335","0.0-6.0-1.5","ZDER","3","m","rechts","52","","","object","f","30","true"
"null","<div style=""font-size:60px;"">+</div>","null","html-keyboard-response","18","34791","0.0-6.0-0.6","ZDER","3","m","rechts","52","","fixation","","","",""
"1270","img/150_240.png","74","image-keyboard-response","19","36068","0.0-6.0-1.6","ZDER","3","m","rechts","52","","","object","j","150","true"
"null","<div style=""font-size:60px;"">+</div>","null","html-keyboard-response","20","36590","0.0-6.0-0.7","ZDER","3","m","rechts","52","","fixation","","","",""
"1156","img/150_90.png","70","image-keyboard-response","21","37764","0.0-6.0-1.7","ZDER","3","m","rechts","52","","","object","f","150","true"
"null","<div style=""font-size:60px;"">+</div>","null","html-keyboard-response","22","38293","0.0-6.0-0.8","ZDER","3","m","rechts","52","","fixation","","","",""
"1029","img/120_150.png","74","image-keyboard-response","23","39343","0.0-6.0-1.8","ZDER","3","m","rechts","52","","","object","j","120","true"
"null","<div style=""font-size:60px;"">+</div>","null","html-keyboard-response","24","39715","0.0-6.0-0.9","ZDER","3","m","rechts","52","","fixation","","","",""
"1204","img/150_120.png","70","image-keyboard-response","25","40940","0.0-6.0-1.9","ZDER","3","m","rechts","52","","","object","f","150","true"
"null","<div style=""font-size:60px;"">+</div>","null","html-keyboard-response","26","41310","0.0-6.0-0.10","ZDER","3","m","rechts","52","","fixation","","","",""
"1130","img/90_150.png","74","image-keyboard-response","27","42460","0.0-6.0-1.10","ZDER","3","m","rechts","52","","","object","j","90","true"
"null","<div style=""font-size:60px;"">+</div>","null","html-keyboard-response","28","42933","0.0-6.0-0.11","ZDER","3","m","rechts","52","","fixation","","","",""
"1240","img/30_270.png","70","image-keyboard-response","29","44191","0.0-6.0-1.11","ZDER","3","m","rechts","52","","","object","f","30","true"
"null","<div style=""font-size:60px;"">+</div>","null","html-keyboard-response","30","44496","0.0-6.0-0.12","ZDER","3","m","rechts","52","","fixation","","","",""
"1262","img/150_270.png","74","image-keyboard-response","31","45776","0.0-6.0-1.12","ZDER","3","m","rechts","52","","","object","j","150","true"
"null","<div style=""font-size:60px;"">+</div>","null","html-keyboard-response","32","46128","0.0-6.0-0.13","ZDER","3","m","rechts","52","","fixation","","","",""
"1630","img/60_270.png","70","image-keyboard-response","33","47776","0.0-6.0-1.13","ZDER","3","m","rechts","52","","","object","f","60","true"
"null","<div style=""font-size:60px;"">+</div>","null","html-keyboard-response","34","48081","0.0-6.0-0.14","ZDER","3","m","rechts","52","","fixation","","","",""
"1298","img/90_60.png","70","image-keyboard-response","35","49400","0.0-6.0-1.14","ZDER","3","m","rechts","52","","","object","f","90","true"
"null","<div style=""font-size:60px;"">+</div>","null","html-keyboard-response","36","49778","0.0-6.0-0.15","ZDER","3","m","rechts","52","","fixation","","","",""
"1268","img/120_210.png","70","image-keyboard-response","37","51054","0.0-6.0-1.15","ZDER","3","m","rechts","52","","","object","f","120","true"
"null","<div style=""font-size:60px;"">+</div>","null","html-keyboard-response","38","51483","0.0-6.0-0.16","ZDER","3","m","rechts","52","","fixation","","","",""
"1247","img/L60_180.png","74","image-keyboard-response","39","52751","0.0-6.0-1.16","ZDER","3","m","rechts","52","","","object","j","60","true"
"null","<div style=""font-size:60px;"">+</div>","null","html-keyboard-response","40","53062","0.0-6.0-0.17","ZDER","3","m","rechts","52","","fixation","","","",""
"1302","img/90_30.png","70","image-keyboard-response","41","54383","0.0-6.0-1.17","ZDER","3","m","rechts","52","","","object","f","90","true"
"null","<div style=""font-size:60px;"">+</div>","null","html-keyboard-response","42","54687","0.0-6.0-0.18","ZDER","3","m","rechts","52","","fixation","","","",""
"1363","img/0_90.png","74","image-keyboard-response","43","56071","0.0-6.0-1.18","ZDER","3","m","rechts","52","","","object","j","0","true"
"null","<div style=""font-size:60px;"">+</div>","null","html-keyboard-response","44","56438","0.0-6.0-0.19","ZDER","3","m","rechts","52","","fixation","","","",""
"1323","img/L30_180.png","70","image-keyboard-response","45","57778","0.0-6.0-1.19","ZDER","3","m","rechts","52","","","object","j","30","false"
"null","<div style=""font-size:60px;"">+</div>","null","html-keyboard-response","46","58282","0.0-6.0-0.20","ZDER","3","m","rechts","52","","fixation","","","",""
"1171","img/L120_180.png","74","image-keyboard-response","47","59469","0.0-6.0-1.20","ZDER","3","m","rechts","52","","","object","j","120","true"
"null","<div style=""font-size:60px;"">+</div>","null","html-keyboard-response","48","59886","0.0-6.0-0.21","ZDER","3","m","rechts","52","","fixation","","","",""
"1265","img/0_270.png","70","image-keyboard-response","49","61169","0.0-6.0-1.21","ZDER","3","m","rechts","52","","","object","f","0","true"
"null","<div style=""font-size:60px;"">+</div>","null","html-keyboard-response","50","61652","0.0-6.0-0.22","ZDER","3","m","rechts","52","","fixation","","","",""
"971","img/0_330.png","70","image-keyboard-response","51","62639","0.0-6.0-1.22","ZDER","3","m","rechts","52","","","object","f","0","true"
"null","<div style=""font-size:60px;"">+</div>","null","html-keyboard-response","52","63089","0.0-6.0-0.23","ZDER","3","m","rechts","52","","fixation","","","",""
"1381","img/60_90.png","74","image-keyboard-response","53","64487","0.0-6.0-1.23","ZDER","3","m","rechts","52","","","object","j","60","true"
"null","<div style=""font-size:60px;"">+</div>","null","html-keyboard-response","54","64950","0.0-6.0-0.24","ZDER","3","m","rechts","52","","fixation","","","",""
"802","img/0_60.png","74","image-keyboard-response","55","65768","0.0-6.0-1.24","ZDER","3","m","rechts","52","","","object","j","0","true"
"null","<div style=""font-size:60px;"">+</div>","null","html-keyboard-response","56","66278","0.0-6.0-0.25","ZDER","3","m","rechts","52","","fixation","","","",""
"936","img/90_180.png","70","image-keyboard-response","57","67232","0.0-6.0-1.25","ZDER","3","m","rechts","52","","","object","f","90","true"
"null","<div style=""font-size:60px;"">+</div>","null","html-keyboard-response","58","67652","0.0-6.0-0.26","ZDER","3","m","rechts","52","","fixation","","","",""
"991","img/90_210.png","70","image-keyboard-response","59","68660","0.0-6.0-1.26","ZDER","3","m","rechts","52","","","object","f","90","true"
"null","<div style=""font-size:60px;"">+</div>","null","html-keyboard-response","60","69187","0.0-6.0-0.27","ZDER","3","m","rechts","52","","fixation","","","",""
"1267","img/60_150.png","74","image-keyboard-response","61","70472","0.0-6.0-1.27","ZDER","3","m","rechts","52","","","object","j","60","true"
"null","<div style=""font-size:60px;"">+</div>","null","html-keyboard-response","62","70843","0.0-6.0-0.28","ZDER","3","m","rechts","52","","fixation","","","",""
"792","img/30_90.png","74","image-keyboard-response","63","71652","0.0-6.0-1.28","ZDER","3","m","rechts","52","","","object","j","30","true"
"null","<div style=""font-size:60px;"">+</div>","null","html-keyboard-response","64","72062","0.0-6.0-0.29","ZDER","3","m","rechts","52","","fixation","","","",""
"1533","img/0_300.png","70","image-keyboard-response","65","73613","0.0-6.0-1.29","ZDER","3","m","rechts","52","","","object","f","0","true"
"null","<div style=""font-size:60px;"">+</div>","null","html-keyboard-response","66","74024","0.0-6.0-0.30","ZDER","3","m","rechts","52","","fixation","","","",""
"1313","img/60_210.png","70","image-keyboard-response","67","75355","0.0-6.0-1.30","ZDER","3","m","rechts","52","","","object","f","60","true"
"null","<div style=""font-size:60px;"">+</div>","null","html-keyboard-response","68","75820","0.0-6.0-0.31","ZDER","3","m","rechts","52","","fixation","","","",""
"1167","img/120_330.png","74","image-keyboard-response","69","76996","0.0-6.0-1.31","ZDER","3","m","rechts","52","","","object","j","120","true"
"null","<div style=""font-size:60px;"">+</div>","null","html-keyboard-response","70","77500","0.0-6.0-0.32","ZDER","3","m","rechts","52","","fixation","","","",""
"839","img/90_330.png","74","image-keyboard-response","71","78358","0.0-6.0-1.32","ZDER","3","m","rechts","52","","","object","j","90","true"
"null","<div style=""font-size:60px;"">+</div>","null","html-keyboard-response","72","78786","0.0-6.0-0.33","ZDER","3","m","rechts","52","","fixation","","","",""
"1359","img/150_60.png","70","image-keyboard-response","73","80158","0.0-6.0-1.33","ZDER","3","m","rechts","52","","","object","f","150","true"
"null","<div style=""font-size:60px;"">+</div>","null","html-keyboard-response","74","80586","0.0-6.0-0.34","ZDER","3","m","rechts","52","","fixation","","","",""
"915","img/60_330.png","74","image-keyboard-response","75","81520","0.0-6.0-1.34","ZDER","3","m","rechts","52","","","object","j","60","true"
"null","<div style=""font-size:60px;"">+</div>","null","html-keyboard-response","76","81993","0.0-6.0-0.35","ZDER","3","m","rechts","52","","fixation","","","",""
"1265","img/90_240.png","70","image-keyboard-response","77","83275","0.0-6.0-1.35","ZDER","3","m","rechts","52","","","object","f","90","true"
"null","<div style=""font-size:60px;"">+</div>","null","html-keyboard-response","78","83743","0.0-6.0-0.36","ZDER","3","m","rechts","52","","fixation","","","",""
"1491","img/60_180.png","70","image-keyboard-response","79","85254","0.0-6.0-1.36","ZDER","3","m","rechts","52","","","object","f","60","true"
"null","<div style=""font-size:60px;"">+</div>","null","html-keyboard-response","80","85712","0.0-6.0-0.37","ZDER","3","m","rechts","52","","fixation","","","",""
"1027","img/L90_180.png","74","image-keyboard-response","81","86762","0.0-6.0-1.37","ZDER","3","m","rechts","52","","","object","j","90","true"
"null","<div style=""font-size:60px;"">+</div>","null","html-keyboard-response","82","87088","0.0-6.0-0.38","ZDER","3","m","rechts","52","","fixation","","","",""
"768","img/30_120.png","74","image-keyboard-response","83","87873","0.0-6.0-1.38","ZDER","3","m","rechts","52","","","object","j","30","true"
"null","<div style=""font-size:60px;"">+</div>","null","html-keyboard-response","84","88244","0.0-6.0-0.39","ZDER","3","m","rechts","52","","fixation","","","",""
"1088","img/120_90.png","70","image-keyboard-response","85","89349","0.0-6.0-1.39","ZDER","3","m","rechts","52","","","object","f","120","true"
"null","<div style=""font-size:60px;"">+</div>","null","html-keyboard-response","86","89651","0.0-6.0-0.40","ZDER","3","m","rechts","52","","fixation","","","",""
"1368","img/90_300.png","74","image-keyboard-response","87","91037","0.0-6.0-1.40","ZDER","3","m","rechts","52","","","object","j","90","true"
"null","<div style=""font-size:60px;"">+</div>","null","html-keyboard-response","88","91495","0.0-6.0-0.41","ZDER","3","m","rechts","52","","fixation","","","",""
"954","img/0_240.png","70","image-keyboard-response","89","92466","0.0-6.0-1.41","ZDER","3","m","rechts","52","","","object","f","0","true"
"null","<div style=""font-size:60px;"">+</div>","null","html-keyboard-response","90","92776","0.0-6.0-0.42","ZDER","3","m","rechts","52","","fixation","","","",""
"1387","img/30_60.png","74","image-keyboard-response","91","94176","0.0-6.0-1.42","ZDER","3","m","rechts","52","","","object","j","30","true"
"null","<div style=""font-size:60px;"">+</div>","null","html-keyboard-response","92","94699","0.0-6.0-0.43","ZDER","3","m","rechts","52","","fixation","","","",""
"796","img/30_240.png","70","image-keyboard-response","93","95513","0.0-6.0-1.43","ZDER","3","m","rechts","52","","","object","f","30","true"
"null","<div style=""font-size:60px;"">+</div>","null","html-keyboard-response","94","95918","0.0-6.0-0.44","ZDER","3","m","rechts","52","","fixation","","","",""
"1118","img/150_300.png","74","image-keyboard-response","95","97055","0.0-6.0-1.44","ZDER","3","m","rechts","52","","","object","j","150","true"
"null","<div style=""font-size:60px;"">+</div>","null","html-keyboard-response","96","97371","0.0-6.0-0.45","ZDER","3","m","rechts","52","","fixation","","","",""
"903","img/0_120.png","74","image-keyboard-response","97","98295","0.0-6.0-1.45","ZDER","3","m","rechts","52","","","object","j","0","true"
"null","<div style=""font-size:60px;"">+</div>","null","html-keyboard-response","98","98715","0.0-6.0-0.46","ZDER","3","m","rechts","52","","fixation","","","",""
"1015","img/60_30.png","70","image-keyboard-response","99","99745","0.0-6.0-1.46","ZDER","3","m","rechts","52","","","object","f","60","true"
"null","<div style=""font-size:60px;"">+</div>","null","html-keyboard-response","100","100127","0.0-6.0-0.47","ZDER","3","m","rechts","52","","fixation","","","",""
"1085","img/120_270.png","74","image-keyboard-response","101","101230","0.0-6.0-1.47","ZDER","3","m","rechts","52","","","object","j","120","true"
"null","<div style=""font-size:60px;"">+</div>","null","html-keyboard-response","102","101737","0.0-6.0-0.48","ZDER","3","m","rechts","52","","fixation","","","",""
"1497","img/L150_180.png","74","image-keyboard-response","103","103267","0.0-6.0-1.48","ZDER","3","m","rechts","52","","","object","j","150","true"
"null","<div style=""font-size:60px;"">+</div>","null","html-keyboard-response","104","103626","0.0-6.0-0.49","ZDER","3","m","rechts","52","","fixation","","","",""
"1295","img/150_180.png","70","image-keyboard-response","105","104942","0.0-6.0-1.49","ZDER","3","m","rechts","52","","","object","f","150","true"
"null","<div style=""font-size:60px;"">+</div>","null","html-keyboard-response","106","105405","0.0-6.0-0.50","ZDER","3","m","rechts","52","","fixation","","","",""
"1276","img/120_180.png","70","image-keyboard-response","107","106698","0.0-6.0-1.50","ZDER","3","m","rechts","52","","","object","f","120","true"
"null","<div style=""font-size:60px;"">+</div>","null","html-keyboard-response","108","107106","0.0-6.0-0.51","ZDER","3","m","rechts","52","","fixation","","","",""
"1056","img/120_30.png","70","image-keyboard-response","109","108182","0.0-6.0-1.51","ZDER","3","m","rechts","52","","","object","f","120","true"
"null","<div style=""font-size:60px;"">+</div>","null","html-keyboard-response","110","108557","0.0-6.0-0.52","ZDER","3","m","rechts","52","","fixation","","","",""
"1258","img/90_240.png","70","image-keyboard-response","111","109824","0.0-6.0-1.52","ZDER","3","m","rechts","52","","","object","f","90","true"
"null","<div style=""font-size:60px;"">+</div>","null","html-keyboard-response","112","110339","0.0-6.0-0.53","ZDER","3","m","rechts","52","","fixation","","","",""
"1050","img/120_30.png","70","image-keyboard-response","113","111399","0.0-6.0-1.53","ZDER","3","m","rechts","52","","","object","f","120","true"
"null","<div style=""font-size:60px;"">+</div>","null","html-keyboard-response","114","111712","0.0-6.0-0.54","ZDER","3","m","rechts","52","","fixation","","","",""
"865","img/0_30.png","74","image-keyboard-response","115","112593","0.0-6.0-1.54","ZDER","3","m","rechts","52","","","object","j","0","true"
"null","<div style=""font-size:60px;"">+</div>","null","html-keyboard-response","116","113058","0.0-6.0-0.55","ZDER","3","m","rechts","52","","fixation","","","",""
"840","img/30_60.png","74","image-keyboard-response","117","113907","0.0-6.0-1.55","ZDER","3","m","rechts","52","","","object","j","30","true"
"null","<div style=""font-size:60px;"">+</div>","null","html-keyboard-response","118","114338","0.0-6.0-0.56","ZDER","3","m","rechts","52","","fixation","","","",""
"967","img/60_330.png","74","image-keyboard-response","119","115316","0.0-6.0-1.56","ZDER","3","m","rechts","52","","","object","j","60","true"
"null","<div style=""font-size:60px;"">+</div>","null","html-keyboard-response","120","115823","0.0-6.0-0.57","ZDER","3","m","rechts","52","","fixation","","","",""
"847","img/0_120.png","74","image-keyboard-response","121","116676","0.0-6.0-1.57","ZDER","3","m","rechts","52","","","object","j","0","true"
"null","<div style=""font-size:60px;"">+</div>","null","html-keyboard-response","122","117183","0.0-6.0-0.58","ZDER","3","m","rechts","52","","fixation","","","",""
"1378","img/150_120.png","70","image-keyboard-response","123","118576","0.0-6.0-1.58","ZDER","3","m","rechts","52","","","object","f","150","true"
"null","<div style=""font-size:60px;"">+</div>","null","html-keyboard-response","124","118885","0.0-6.0-0.59","ZDER","3","m","rechts","52","","fixation","","","",""
"1002","img/0_150.png","74","image-keyboard-response","125","119892","0.0-6.0-1.59","ZDER","3","m","rechts","52","","","object","j","0","true"
"null","<div style=""font-size:60px;"">+</div>","null","html-keyboard-response","126","120247","0.0-6.0-0.60","ZDER","3","m","rechts","52","","fixation","","","",""
"783","img/0_210.png","70","image-keyboard-response","127","121042","0.0-6.0-1.60","ZDER","3","m","rechts","52","","","object","f","0","true"
"null","<div style=""font-size:60px;"">+</div>","null","html-keyboard-response","128","121417","0.0-6.0-0.61","ZDER","3","m","rechts","52","","fixation","","","",""
"1118","img/150_90.png","70","image-keyboard-response","129","122548","0.0-6.0-1.61","ZDER","3","m","rechts","52","","","object","f","150","true"
"null","<div style=""font-size:60px;"">+</div>","null","html-keyboard-response","130","123011","0.0-6.0-0.62","ZDER","3","m","rechts","52","","fixation","","","",""
"1343","img/30_180.png","70","image-keyboard-response","131","124371","0.0-6.0-1.62","ZDER","3","m","rechts","52","","","object","f","30","true"
"null","<div style=""font-size:60px;"">+</div>","null","html-keyboard-response","132","124886","0.0-6.0-0.63","ZDER","3","m","rechts","52","","fixation","","","",""
"985","img/90_30.png","70","image-keyboard-response","133","125877","0.0-6.0-1.63","ZDER","3","m","rechts","52","","","object","f","90","true"
"null","<div style=""font-size:60px;"">+</div>","null","html-keyboard-response","134","126231","0.0-6.0-0.64","ZDER","3","m","rechts","52","","fixation","","","",""
"1317","img/30_240.png","70","image-keyboard-response","135","127556","0.0-6.0-1.64","ZDER","3","m","rechts","52","","","object","f","30","true"
"null","<div style=""font-size:60px;"">+</div>","null","html-keyboard-response","136","127869","0.0-6.0-0.65","ZDER","3","m","rechts","52","","fixation","","","",""
"918","img/90_330.png","74","image-keyboard-response","137","128793","0.0-6.0-1.65","ZDER","3","m","rechts","52","","","object","j","90","true"
"null","<div style=""font-size:60px;"">+</div>","null","html-keyboard-response","138","129206","0.0-6.0-0.66","ZDER","3","m","rechts","52","","fixation","","","",""
"1463","img/30_300.png","70","image-keyboard-response","139","130682","0.0-6.0-1.66","ZDER","3","m","rechts","52","","","object","f","30","true"
"null","<div style=""font-size:60px;"">+</div>","null","html-keyboard-response","140","131111","0.0-6.0-0.67","ZDER","3","m","rechts","52","","fixation","","","",""
"816","img/0_330.png","70","image-keyboard-response","141","131942","0.0-6.0-1.67","ZDER","3","m","rechts","52","","","object","f","0","true"
"null","<div style=""font-size:60px;"">+</div>","null","html-keyboard-response","142","132407","0.0-6.0-0.68","ZDER","3","m","rechts","52","","fixation","","","",""
"1369","img/60_180.png","70","image-keyboard-response","143","133786","0.0-6.0-1.68","ZDER","3","m","rechts","52","","","object","f","60","true"
"null","<div style=""font-size:60px;"">+</div>","null","html-keyboard-response","144","134313","0.0-6.0-0.69","ZDER","3","m","rechts","52","","fixation","","","",""
"1283","img/L120_180.png","74","image-keyboard-response","145","135609","0.0-6.0-1.69","ZDER","3","m","rechts","52","","","object","j","120","true"
"null","<div style=""font-size:60px;"">+</div>","null","html-keyboard-response","146","136063","0.0-6.0-0.70","ZDER","3","m","rechts","52","","fixation","","","",""
"839","img/90_150.png","74","image-keyboard-response","147","136915","0.0-6.0-1.70","ZDER","3","m","rechts","52","","","object","j","90","true"
"null","<div style=""font-size:60px;"">+</div>","null","html-keyboard-response","148","137282","0.0-6.0-0.71","ZDER","3","m","rechts","52","","fixation","","","",""
"837","img/30_90.png","74","image-keyboard-response","149","138130","0.0-6.0-1.71","ZDER","3","m","rechts","52","","","object","j","30","true"
"null","<div style=""font-size:60px;"">+</div>","null","html-keyboard-response","150","138643","0.0-6.0-0.72","ZDER","3","m","rechts","52","","fixation","","","",""
"1478","img/120_270.png","74","image-keyboard-response","151","140133","0.0-6.0-1.72","ZDER","3","m","rechts","52","","","object","j","120","true"
"null","<div style=""font-size:60px;"">+</div>","null","html-keyboard-response","152","140587","0.0-6.0-0.73","ZDER","3","m","rechts","52","","fixation","","","",""
"1307","img/120_330.png","74","image-keyboard-response","153","141909","0.0-6.0-1.73","ZDER","3","m","rechts","52","","","object","j","120","true"
"null","<div style=""font-size:60px;"">+</div>","null","html-keyboard-response","154","142368","0.0-6.0-0.74","ZDER","3","m","rechts","52","","fixation","","","",""
"1096","img/150_270.png","74","image-keyboard-response","155","143474","0.0-6.0-1.74","ZDER","3","m","rechts","52","","","object","j","150","true"
"null","<div style=""font-size:60px;"">+</div>","null","html-keyboard-response","156","143946","0.0-6.0-0.75","ZDER","3","m","rechts","52","","fixation","","","",""
"2305","img/L30_180.png","74","image-keyboard-response","157","146257","0.0-6.0-1.75","ZDER","3","m","rechts","52","","","object","j","30","true"
"null","<div style=""font-size:60px;"">+</div>","null","html-keyboard-response","158","146580","0.0-6.0-0.76","ZDER","3","m","rechts","52","","fixation","","","",""
"1166","img/L60_180.png","74","image-keyboard-response","159","147760","0.0-6.0-1.76","ZDER","3","m","rechts","52","","","object","j","60","true"
"null","<div style=""font-size:60px;"">+</div>","null","html-keyboard-response","160","148221","0.0-6.0-0.77","ZDER","3","m","rechts","52","","fixation","","","",""
"1360","img/90_180.png","70","image-keyboard-response","161","149594","0.0-6.0-1.77","ZDER","3","m","rechts","52","","","object","f","90","true"
"null","<div style=""font-size:60px;"">+</div>","null","html-keyboard-response","162","150011","0.0-6.0-0.78","ZDER","3","m","rechts","52","","fixation","","","",""
"1425","img/60_270.png","70","image-keyboard-response","163","151449","0.0-6.0-1.78","ZDER","3","m","rechts","52","","","object","f","60","true"
"null","<div style=""font-size:60px;"">+</div>","null","html-keyboard-response","164","151964","0.0-6.0-0.79","ZDER","3","m","rechts","52","","fixation","","","",""
"1143","img/L90_180.png","74","image-keyboard-response","165","153115","0.0-6.0-1.79","ZDER","3","m","rechts","52","","","object","j","90","true"
"null","<div style=""font-size:60px;"">+</div>","null","html-keyboard-response","166","153496","0.0-6.0-0.80","ZDER","3","m","rechts","52","","fixation","","","",""
"966","img/0_270.png","70","image-keyboard-response","167","154477","0.0-6.0-1.80","ZDER","3","m","rechts","52","","","object","f","0","true"
"null","<div style=""font-size:60px;"">+</div>","null","html-keyboard-response","168","154794","0.0-6.0-0.81","ZDER","3","m","rechts","52","","fixation","","","",""
"1684","img/120_210.png","70","image-keyboard-response","169","156491","0.0-6.0-1.81","ZDER","3","m","rechts","52","","","object","f","120","true"
"null","<div style=""font-size:60px;"">+</div>","null","html-keyboard-response","170","156918","0.0-6.0-0.82","ZDER","3","m","rechts","52","","fixation","","","",""
"1062","img/90_120.png","74","image-keyboard-response","171","157985","0.0-6.0-1.82","ZDER","3","m","rechts","52","","","object","j","90","true"
"null","<div style=""font-size:60px;"">+</div>","null","html-keyboard-response","172","158293","0.0-6.0-0.83","ZDER","3","m","rechts","52","","fixation","","","",""
"1379","img/90_60.png","70","image-keyboard-response","173","159685","0.0-6.0-1.83","ZDER","3","m","rechts","52","","","object","f","90","true"
"null","<div style=""font-size:60px;"">+</div>","null","html-keyboard-response","174","160052","0.0-6.0-0.84","ZDER","3","m","rechts","52","","fixation","","","",""
"1005","img/30_120.png","74","image-keyboard-response","175","161068","0.0-6.0-1.84","ZDER","3","m","rechts","52","","","object","j","30","true"
"null","<div style=""font-size:60px;"">+</div>","null","html-keyboard-response","176","161473","0.0-6.0-0.85","ZDER","3","m","rechts","52","","fixation","","","",""
"944","img/60_150.png","74","image-keyboard-response","177","162431","0.0-6.0-1.85","ZDER","3","m","rechts","52","","","object","j","60","true"
"null","<div style=""font-size:60px;"">+</div>","null","html-keyboard-response","178","162785","0.0-6.0-0.86","ZDER","3","m","rechts","52","","fixation","","","",""
"948","img/60_90.png","74","image-keyboard-response","179","163747","0.0-6.0-1.86","ZDER","3","m","rechts","52","","","object","j","60","true"
"null","<div style=""font-size:60px;"">+</div>","null","html-keyboard-response","180","164280","0.0-6.0-0.87","ZDER","3","m","rechts","52","","fixation","","","",""
"1007","img/150_60.png","70","image-keyboard-response","181","165300","0.0-6.0-1.87","ZDER","3","m","rechts","52","","","object","f","150","true"
"null","<div style=""font-size:60px;"">+</div>","null","html-keyboard-response","182","165732","0.0-6.0-0.88","ZDER","3","m","rechts","52","","fixation","","","",""
"1431","img/150_240.png","74","image-keyboard-response","183","167179","0.0-6.0-1.88","ZDER","3","m","rechts","52","","","object","j","150","true"
"null","<div style=""font-size:60px;"">+</div>","null","html-keyboard-response","184","167686","0.0-6.0-0.89","ZDER","3","m","rechts","52","","fixation","","","",""
"874","img/0_60.png","74","image-keyboard-response","185","168574","0.0-6.0-1.89","ZDER","3","m","rechts","52","","","object","j","0","true"
"null","<div style=""font-size:60px;"">+</div>","null","html-keyboard-response","186","168886","0.0-6.0-0.90","ZDER","3","m","rechts","52","","fixation","","","",""
"703","img/0_300.png","70","image-keyboard-response","187","169598","0.0-6.0-1.90","ZDER","3","m","rechts","52","","","object","f","0","true"
"null","<div style=""font-size:60px;"">+</div>","null","html-keyboard-response","188","169968","0.0-6.0-0.91","ZDER","3","m","rechts","52","","fixation","","","",""
"628","img/0_240.png","70","image-keyboard-response","189","170609","0.0-6.0-1.91","ZDER","3","m","rechts","52","","","object","f","0","true"
"null","<div style=""font-size:60px;"">+</div>","null","html-keyboard-response","190","171031","0.0-6.0-0.92","ZDER","3","m","rechts","52","","fixation","","","",""
"805","img/0_90.png","74","image-keyboard-response","191","171847","0.0-6.0-1.92","ZDER","3","m","rechts","52","","","object","j","0","true"
"null","<div style=""font-size:60px;"">+</div>","null","html-keyboard-response","192","172274","0.0-6.0-0.93","ZDER","3","m","rechts","52","","fixation","","","",""
"785","img/90_210.png","70","image-keyboard-response","193","173072","0.0-6.0-1.93","ZDER","3","m","rechts","52","","","object","f","90","true"
"null","<div style=""font-size:60px;"">+</div>","null","html-keyboard-response","194","173383","0.0-6.0-0.94","ZDER","3","m","rechts","52","","fixation","","","",""
"1487","img/150_180.png","70","image-keyboard-response","195","174882","0.0-6.0-1.94","ZDER","3","m","rechts","52","","","object","f","150","true"
"null","<div style=""font-size:60px;"">+</div>","null","html-keyboard-response","196","175391","0.0-6.0-0.95","ZDER","3","m","rechts","52","","fixation","","","",""
"1065","img/150_300.png","74","image-keyboard-response","197","176472","0.0-6.0-1.95","ZDER","3","m","rechts","52","","","object","j","150","true"
"null","<div style=""font-size:60px;"">+</div>","null","html-keyboard-response","198","176782","0.0-6.0-0.96","ZDER","3","m","rechts","52","","fixation","","","",""
"1677","img/L150_180.png","74","image-keyboard-response","199","178473","0.0-6.0-1.96","ZDER","3","m","rechts","52","","","object","j","150","true"
"null","<div style=""font-size:60px;"">+</div>","null","html-keyboard-response","200","178951","0.0-6.0-0.97","ZDER","3","m","rechts","52","","fixation","","","",""
"975","img/60_30.png","70","image-keyboard-response","201","179933","0.0-6.0-1.97","ZDER","3","m","rechts","52","","","object","f","60","true"
"null","<div style=""font-size:60px;"">+</div>","null","html-keyboard-response","202","180249","0.0-6.0-0.98","ZDER","3","m","rechts","52","","fixation","","","",""
"1789","img/120_180.png","70","image-keyboard-response","203","182052","0.0-6.0-1.98","ZDER","3","m","rechts","52","","","object","f","120","true"
"null","<div style=""font-size:60px;"">+</div>","null","html-keyboard-response","204","182466","0.0-6.0-0.99","ZDER","3","m","rechts","52","","fixation","","","",""
"933","img/30_270.png","70","image-keyboard-response","205","183412","0.0-6.0-1.99","ZDER","3","m","rechts","52","","","object","f","30","true"
"null","<div style=""font-size:60px;"">+</div>","null","html-keyboard-response","206","183872","0.0-6.0-0.100","ZDER","3","m","rechts","52","","fixation","","","",""
"1472","img/120_90.png","74","image-keyboard-response","207","185360","0.0-6.0-1.100","ZDER","3","m","rechts","52","","","object","f","120","false"
"null","<div style=""font-size:60px;"">+</div>","null","html-keyboard-response","208","185762","0.0-6.0-0.101","ZDER","3","m","rechts","52","","fixation","","","",""
"964","img/60_210.png","70","image-keyboard-response","209","186741","0.0-6.0-1.101","ZDER","3","m","rechts","52","","","object","f","60","true"
"null","<div style=""font-size:60px;"">+</div>","null","html-keyboard-response","210","187106","0.0-6.0-0.102","ZDER","3","m","rechts","52","","fixation","","","",""
"970","img/90_300.png","74","image-keyboard-response","211","188092","0.0-6.0-1.102","ZDER","3","m","rechts","52","","","object","j","90","true"
"null","<div style=""font-size:60px;"">+</div>","null","html-keyboard-response","212","188622","0.0-6.0-0.103","ZDER","3","m","rechts","52","","fixation","","","",""
"1052","img/120_150.png","74","image-keyboard-response","213","189689","0.0-6.0-1.103","ZDER","3","m","rechts","52","","","object","j","120","true"
"null","<div style=""font-size:60px;"">+</div>","null","html-keyboard-response","214","190045","0.0-6.0-0.104","ZDER","3","m","rechts","52","","fixation","","","",""
"960","img/0_30.png","74","image-keyboard-response","215","191018","0.0-6.0-1.104","ZDER","3","m","rechts","52","","","object","j","0","true"
"null","<div style=""font-size:60px;"">+</div>","null","html-keyboard-response","216","191420","0.0-6.0-0.105","ZDER","3","m","rechts","52","","fixation","","","",""
"945","img/150_90.png","70","image-keyboard-response","217","192379","0.0-6.0-1.105","ZDER","3","m","rechts","52","","","object","f","150","true"
"null","<div style=""font-size:60px;"">+</div>","null","html-keyboard-response","218","192686","0.0-6.0-0.106","ZDER","3","m","rechts","52","","fixation","","","",""
"1234","img/120_90.png","70","image-keyboard-response","219","193929","0.0-6.0-1.106","ZDER","3","m","rechts","52","","","object","f","120","true"
"null","<div style=""font-size:60px;"">+</div>","null","html-keyboard-response","220","194391","0.0-6.0-0.107","ZDER","3","m","rechts","52","","fixation","","","",""
"834","img/0_90.png","74","image-keyboard-response","221","195236","0.0-6.0-1.107","ZDER","3","m","rechts","52","","","object","j","0","true"
"null","<div style=""font-size:60px;"">+</div>","null","html-keyboard-response","222","195758","0.0-6.0-0.108","ZDER","3","m","rechts","52","","fixation","","","",""
"1028","img/150_270.png","74","image-keyboard-response","223","196799","0.0-6.0-1.108","ZDER","3","m","rechts","52","","","object","j","150","true"
"null","<div style=""font-size:60px;"">+</div>","null","html-keyboard-response","224","197210","0.0-6.0-0.109","ZDER","3","m","rechts","52","","fixation","","","",""
"1100","img/60_270.png","70","image-keyboard-response","225","198319","0.0-6.0-1.109","ZDER","3","m","rechts","52","","","object","f","60","true"
"null","<div style=""font-size:60px;"">+</div>","null","html-keyboard-response","226","198834","0.0-6.0-0.110","ZDER","3","m","rechts","52","","fixation","","","",""
"851","img/L30_180.png","74","image-keyboard-response","227","199704","0.0-6.0-1.110","ZDER","3","m","rechts","52","","","object","j","30","true"
"null","<div style=""font-size:60px;"">+</div>","null","html-keyboard-response","228","200219","0.0-6.0-0.111","ZDER","3","m","rechts","52","","fixation","","","",""
"627","img/30_90.png","74","image-keyboard-response","229","200860","0.0-6.0-1.111","ZDER","3","m","rechts","52","","","object","j","30","true"
"null","<div style=""font-size:60px;"">+</div>","null","html-keyboard-response","230","201329","0.0-6.0-0.112","ZDER","3","m","rechts","52","","fixation","","","",""
"476","img/90_330.png","74","image-keyboard-response","231","201817","0.0-6.0-1.112","ZDER","3","m","rechts","52","","","object","j","90","true"
"null","<div style=""font-size:60px;"">+</div>","null","html-keyboard-response","232","202327","0.0-6.0-0.113","ZDER","3","m","rechts","52","","fixation","","","",""
"1025","img/L120_180.png","74","image-keyboard-response","233","203357","0.0-6.0-1.113","ZDER","3","m","rechts","52","","","object","j","120","true"
"null","<div style=""font-size:60px;"">+</div>","null","html-keyboard-response","234","203863","0.0-6.0-0.114","ZDER","3","m","rechts","52","","fixation","","","",""
"2184","img/90_240.png","70","image-keyboard-response","235","206061","0.0-6.0-1.114","ZDER","3","m","rechts","52","","","object","f","90","true"
"null","<div style=""font-size:60px;"">+</div>","null","html-keyboard-response","236","206384","0.0-6.0-0.115","ZDER","3","m","rechts","52","","fixation","","","",""
"1021","img/120_330.png","74","image-keyboard-response","237","207420","0.0-6.0-1.115","ZDER","3","m","rechts","52","","","object","j","120","true"
"null","<div style=""font-size:60px;"">+</div>","null","html-keyboard-response","238","207884","0.0-6.0-0.116","ZDER","3","m","rechts","52","","fixation","","","",""
"912","img/90_60.png","70","image-keyboard-response","239","208803","0.0-6.0-1.116","ZDER","3","m","rechts","52","","","object","f","90","true"
"null","<div style=""font-size:60px;"">+</div>","null","html-keyboard-response","240","209213","0.0-6.0-0.117","ZDER","3","m","rechts","52","","fixation","","","",""
"1178","img/120_150.png","74","image-keyboard-response","241","210401","0.0-6.0-1.117","ZDER","3","m","rechts","52","","","object","j","120","true"
"null","<div style=""font-size:60px;"">+</div>","null","html-keyboard-response","242","210854","0.0-6.0-0.118","ZDER","3","m","rechts","52","","fixation","","","",""
"895","img/0_210.png","70","image-keyboard-response","243","211763","0.0-6.0-1.118","ZDER","3","m","rechts","52","","","object","f","0","true"
"null","<div style=""font-size:60px;"">+</div>","null","html-keyboard-response","244","212119","0.0-6.0-0.119","ZDER","3","m","rechts","52","","fixation","","","",""
"1216","img/60_180.png","70","image-keyboard-response","245","213349","0.0-6.0-1.119","ZDER","3","m","rechts","52","","","object","f","60","true"
"null","<div style=""font-size:60px;"">+</div>","null","html-keyboard-response","246","213728","0.0-6.0-0.120","ZDER","3","m","rechts","52","","fixation","","","",""
"1073","img/60_150.png","74","image-keyboard-response","247","214812","0.0-6.0-1.120","ZDER","3","m","rechts","52","","","object","j","60","true"
"null","<div style=""font-size:60px;"">+</div>","null","html-keyboard-response","248","215319","0.0-6.0-0.121","ZDER","3","m","rechts","52","","fixation","","","",""
"766","img/60_90.png","74","image-keyboard-response","249","216093","0.0-6.0-1.121","ZDER","3","m","rechts","52","","","object","j","60","true"
"null","<div style=""font-size:60px;"">+</div>","null","html-keyboard-response","250","216396","0.0-6.0-0.122","ZDER","3","m","rechts","52","","fixation","","","",""
"1004","img/L150_180.png","74","image-keyboard-response","251","217409","0.0-6.0-1.122","ZDER","3","m","rechts","52","","","object","j","150","true"
"null","<div style=""font-size:60px;"">+</div>","null","html-keyboard-response","252","217771","0.0-6.0-0.123","ZDER","3","m","rechts","52","","fixation","","","",""
"1458","img/150_120.png","74","image-keyboard-response","253","219243","0.0-6.0-1.123","ZDER","3","m","rechts","52","","","object","f","150","false"
"null","<div style=""font-size:60px;"">+</div>","null","html-keyboard-response","254","219604","0.0-6.0-0.124","ZDER","3","m","rechts","52","","fixation","","","",""
"1226","img/150_240.png","70","image-keyboard-response","255","220842","0.0-6.0-1.124","ZDER","3","m","rechts","52","","","object","j","150","false"
"null","<div style=""font-size:60px;"">+</div>","null","html-keyboard-response","256","221153","0.0-6.0-0.125","ZDER","3","m","rechts","52","","fixation","","","",""
"1037","img/0_270.png","70","image-keyboard-response","257","222204","0.0-6.0-1.125","ZDER","3","m","rechts","52","","","object","f","0","true"
"null","<div style=""font-size:60px;"">+</div>","null","html-keyboard-response","258","222730","0.0-6.0-0.126","ZDER","3","m","rechts","52","","fixation","","","",""
"1406","img/90_30.png","70","image-keyboard-response","259","224150","0.0-6.0-1.126","ZDER","3","m","rechts","52","","","object","f","90","true"
"null","<div style=""font-size:60px;"">+</div>","null","html-keyboard-response","260","224527","0.0-6.0-0.127","ZDER","3","m","rechts","52","","fixation","","","",""
"1621","img/30_300.png","70","image-keyboard-response","261","226163","0.0-6.0-1.127","ZDER","3","m","rechts","52","","","object","f","30","true"
"null","<div style=""font-size:60px;"">+</div>","null","html-keyboard-response","262","226517","0.0-6.0-0.128","ZDER","3","m","rechts","52","","fixation","","","",""
"1368","img/150_300.png","74","image-keyboard-response","263","227894","0.0-6.0-1.128","ZDER","3","m","rechts","52","","","object","j","150","true"
"null","<div style=""font-size:60px;"">+</div>","null","html-keyboard-response","264","228204","0.0-6.0-0.129","ZDER","3","m","rechts","52","","fixation","","","",""
"1037","img/0_150.png","74","image-keyboard-response","265","229254","0.0-6.0-1.129","ZDER","3","m","rechts","52","","","object","j","0","true"
"null","<div style=""font-size:60px;"">+</div>","null","html-keyboard-response","266","229622","0.0-6.0-0.130","ZDER","3","m","rechts","52","","fixation","","","",""
"1254","img/30_60.png","74","image-keyboard-response","267","230889","0.0-6.0-1.130","ZDER","3","m","rechts","52","","","object","j","30","true"
"null","<div style=""font-size:60px;"">+</div>","null","html-keyboard-response","268","231310","0.0-6.0-0.131","ZDER","3","m","rechts","52","","fixation","","","",""
"930","img/30_270.png","70","image-keyboard-response","269","232249","0.0-6.0-1.131","ZDER","3","m","rechts","52","","","object","f","30","true"
"null","<div style=""font-size:60px;"">+</div>","null","html-keyboard-response","270","232716","0.0-6.0-0.132","ZDER","3","m","rechts","52","","fixation","","","",""
"940","img/90_300.png","74","image-keyboard-response","271","233667","0.0-6.0-1.132","ZDER","3","m","rechts","52","","","object","j","90","true"
"null","<div style=""font-size:60px;"">+</div>","null","html-keyboard-response","272","234076","0.0-6.0-0.133","ZDER","3","m","rechts","52","","fixation","","","",""
"961","img/90_180.png","70","image-keyboard-response","273","235050","0.0-6.0-1.133","ZDER","3","m","rechts","52","","","object","f","90","true"
"null","<div style=""font-size:60px;"">+</div>","null","html-keyboard-response","274","235421","0.0-6.0-0.134","ZDER","3","m","rechts","52","","fixation","","","",""
"1132","img/120_30.png","70","image-keyboard-response","275","236566","0.0-6.0-1.134","ZDER","3","m","rechts","52","","","object","f","120","true"
"null","<div style=""font-size:60px;"">+</div>","null","html-keyboard-response","276","236996","0.0-6.0-0.135","ZDER","3","m","rechts","52","","fixation","","","",""
"1066","img/120_180.png","70","image-keyboard-response","277","238067","0.0-6.0-1.135","ZDER","3","m","rechts","52","","","object","f","120","true"
"null","<div style=""font-size:60px;"">+</div>","null","html-keyboard-response","278","238481","0.0-6.0-0.136","ZDER","3","m","rechts","52","","fixation","","","",""
"1213","img/150_60.png","70","image-keyboard-response","279","239708","0.0-6.0-1.136","ZDER","3","m","rechts","52","","","object","f","150","true"
"null","<div style=""font-size:60px;"">+</div>","null","html-keyboard-response","280","240124","0.0-6.0-0.137","ZDER","3","m","rechts","52","","fixation","","","",""
"931","img/60_330.png","74","image-keyboard-response","281","241068","0.0-6.0-1.137","ZDER","3","m","rechts","52","","","object","j","60","true"
"null","<div style=""font-size:60px;"">+</div>","null","html-keyboard-response","282","241531","0.0-6.0-0.138","ZDER","3","m","rechts","52","","fixation","","","",""
"914","img/60_210.png","70","image-keyboard-response","283","242453","0.0-6.0-1.138","ZDER","3","m","rechts","52","","","object","f","60","true"
"null","<div style=""font-size:60px;"">+</div>","null","html-keyboard-response","284","242858","0.0-6.0-0.139","ZDER","3","m","rechts","52","","fixation","","","",""
"1397","img/150_180.png","70","image-keyboard-response","285","244265","0.0-6.0-1.139","ZDER","3","m","rechts","52","","","object","f","150","true"
"null","<div style=""font-size:60px;"">+</div>","null","html-keyboard-response","286","244717","0.0-6.0-0.140","ZDER","3","m","rechts","52","","fixation","","","",""
"907","img/0_300.png","70","image-keyboard-response","287","245637","0.0-6.0-1.140","ZDER","3","m","rechts","52","","","object","f","0","true"
"null","<div style=""font-size:60px;"">+</div>","null","html-keyboard-response","288","246093","0.0-6.0-0.141","ZDER","3","m","rechts","52","","fixation","","","",""
"678","img/0_240.png","70","image-keyboard-response","289","246785","0.0-6.0-1.141","ZDER","3","m","rechts","52","","","object","f","0","true"
"null","<div style=""font-size:60px;"">+</div>","null","html-keyboard-response","290","247313","0.0-6.0-0.142","ZDER","3","m","rechts","52","","fixation","","","",""
"988","img/30_180.png","70","image-keyboard-response","291","248314","0.0-6.0-1.142","ZDER","3","m","rechts","52","","","object","f","30","true"
"null","<div style=""font-size:60px;"">+</div>","null","html-keyboard-response","292","248797","0.0-6.0-0.143","ZDER","3","m","rechts","52","","fixation","","","",""
"830","img/90_120.png","74","image-keyboard-response","293","249642","0.0-6.0-1.143","ZDER","3","m","rechts","52","","","object","j","90","true"
"null","<div style=""font-size:60px;"">+</div>","null","html-keyboard-response","294","250063","0.0-6.0-0.144","ZDER","3","m","rechts","52","","fixation","","","",""
"723","img/0_120.png","74","image-keyboard-response","295","250801","0.0-6.0-1.144","ZDER","3","m","rechts","52","","","object","j","0","true"
"null","<div style=""font-size:60px;"">+</div>","null","html-keyboard-response","296","251258","0.0-6.0-0.145","ZDER","3","m","rechts","52","","fixation","","","",""
"1149","img/60_30.png","70","image-keyboard-response","297","252422","0.0-6.0-1.145","ZDER","3","m","rechts","52","","","object","f","60","true"
"null","<div style=""font-size:60px;"">+</div>","null","html-keyboard-response","298","252851","0.0-6.0-0.146","ZDER","3","m","rechts","52","","fixation","","","",""
"1028","img/L90_180.png","74","image-keyboard-response","299","253894","0.0-6.0-1.146","ZDER","3","m","rechts","52","","","object","j","90","true"
"null","<div style=""font-size:60px;"">+</div>","null","html-keyboard-response","300","254306","0.0-6.0-0.147","ZDER","3","m","rechts","52","","fixation","","","",""
"1015","img/30_120.png","74","image-keyboard-response","301","255335","0.0-6.0-1.147","ZDER","3","m","rechts","52","","","object","j","30","true"
"null","<div style=""font-size:60px;"">+</div>","null","html-keyboard-response","302","255711","0.0-6.0-0.148","ZDER","3","m","rechts","52","","fixation","","","",""
"823","img/0_330.png","70","image-keyboard-response","303","256548","0.0-6.0-1.148","ZDER","3","m","rechts","52","","","object","f","0","true"
"null","<div style=""font-size:60px;"">+</div>","null","html-keyboard-response","304","257007","0.0-6.0-0.149","ZDER","3","m","rechts","52","","fixation","","","",""
"795","img/L60_180.png","74","image-keyboard-response","305","257810","0.0-6.0-1.149","ZDER","3","m","rechts","52","","","object","j","60","true"
"null","<div style=""font-size:60px;"">+</div>","null","html-keyboard-response","306","258172","0.0-6.0-0.150","ZDER","3","m","rechts","52","","fixation","","","",""
"1173","img/120_270.png","74","image-keyboard-response","307","259361","0.0-6.0-1.150","ZDER","3","m","rechts","52","","","object","j","120","true"
"null","<div style=""font-size:60px;"">+</div>","null","html-keyboard-response","308","259814","0.0-6.0-0.151","ZDER","3","m","rechts","52","","fixation","","","",""
"974","img/90_210.png","70","image-keyboard-response","309","260803","0.0-6.0-1.151","ZDER","3","m","rechts","52","","","object","f","90","true"
"null","<div style=""font-size:60px;"">+</div>","null","html-keyboard-response","310","261271","0.0-6.0-0.152","ZDER","3","m","rechts","52","","fixation","","","",""
"821","img/30_240.png","70","image-keyboard-response","311","262105","0.0-6.0-1.152","ZDER","3","m","rechts","52","","","object","f","30","true"
"null","<div style=""font-size:60px;"">+</div>","null","html-keyboard-response","312","262409","0.0-6.0-0.153","ZDER","3","m","rechts","52","","fixation","","","",""
"1202","img/90_150.png","74","image-keyboard-response","313","263617","0.0-6.0-1.153","ZDER","3","m","rechts","52","","","object","j","90","true"
"null","<div style=""font-size:60px;"">+</div>","null","html-keyboard-response","314","263974","0.0-6.0-0.154","ZDER","3","m","rechts","52","","fixation","","","",""
"1560","img/120_210.png","70","image-keyboard-response","315","265548","0.0-6.0-1.154","ZDER","3","m","rechts","52","","","object","f","120","true"
"null","<div style=""font-size:60px;"">+</div>","null","html-keyboard-response","316","265929","0.0-6.0-0.155","ZDER","3","m","rechts","52","","fixation","","","",""
"765","img/0_60.png","74","image-keyboard-response","317","266708","0.0-6.0-1.155","ZDER","3","m","rechts","52","","","object","j","0","true"
"null","<div style=""font-size:60px;"">+</div>","null","html-keyboard-response","318","267037","0.0-6.0-0.156","ZDER","3","m","rechts","52","","fixation","","","",""
"668","img/0_150.png","74","image-keyboard-response","319","267711","0.0-6.0-1.156","ZDER","3","m","rechts","52","","","object","j","0","true"
"null","<div style=""font-size:60px;"">+</div>","null","html-keyboard-response","320","268223","0.0-6.0-0.157","ZDER","3","m","rechts","52","","fixation","","","",""
"1175","img/150_60.png","70","image-keyboard-response","321","269408","0.0-6.0-1.157","ZDER","3","m","rechts","52","","","object","f","150","true"
"null","<div style=""font-size:60px;"">+</div>","null","html-keyboard-response","322","269867","0.0-6.0-0.158","ZDER","3","m","rechts","52","","fixation","","","",""
"1058","img/120_180.png","70","image-keyboard-response","323","270938","0.0-6.0-1.158","ZDER","3","m","rechts","52","","","object","f","120","true"
"null","<div style=""font-size:60px;"">+</div>","null","html-keyboard-response","324","271351","0.0-6.0-0.159","ZDER","3","m","rechts","52","","fixation","","","",""
"934","img/150_90.png","70","image-keyboard-response","325","272299","0.0-6.0-1.159","ZDER","3","m","rechts","52","","","object","f","150","true"
"null","<div style=""font-size:60px;"">+</div>","null","html-keyboard-response","326","272711","0.0-6.0-0.160","ZDER","3","m","rechts","52","","fixation","","","",""
"948","img/L120_180.png","74","image-keyboard-response","327","273673","0.0-6.0-1.160","ZDER","3","m","rechts","52","","","object","j","120","true"
"null","<div style=""font-size:60px;"">+</div>","null","html-keyboard-response","328","274054","0.0-6.0-0.161","ZDER","3","m","rechts","52","","fixation","","","",""
"1511","img/L30_180.png","74","image-keyboard-response","329","275573","0.0-6.0-1.161","ZDER","3","m","rechts","52","","","object","j","30","true"
"null","<div style=""font-size:60px;"">+</div>","null","html-keyboard-response","330","276080","0.0-6.0-0.162","ZDER","3","m","rechts","52","","fixation","","","",""
"1071","img/120_330.png","74","image-keyboard-response","331","277158","0.0-6.0-1.162","ZDER","3","m","rechts","52","","","object","j","120","true"
"null","<div style=""font-size:60px;"">+</div>","null","html-keyboard-response","332","277676","0.0-6.0-0.163","ZDER","3","m","rechts","52","","fixation","","","",""
"1304","img/90_240.png","74","image-keyboard-response","333","278994","0.0-6.0-1.163","ZDER","3","m","rechts","52","","","object","f","90","false"
"null","<div style=""font-size:60px;"">+</div>","null","html-keyboard-response","334","279348","0.0-6.0-0.164","ZDER","3","m","rechts","52","","fixation","","","",""
"1120","img/90_30.png","70","image-keyboard-response","335","280479","0.0-6.0-1.164","ZDER","3","m","rechts","52","","","object","f","90","true"
"null","<div style=""font-size:60px;"">+</div>","null","html-keyboard-response","336","280833","0.0-6.0-0.165","ZDER","3","m","rechts","52","","fixation","","","",""
"1004","img/60_180.png","70","image-keyboard-response","337","281851","0.0-6.0-1.165","ZDER","3","m","rechts","52","","","object","f","60","true"
"null","<div style=""font-size:60px;"">+</div>","null","html-keyboard-response","338","282254","0.0-6.0-0.166","ZDER","3","m","rechts","52","","fixation","","","",""
"922","img/120_150.png","74","image-keyboard-response","339","283189","0.0-6.0-1.166","ZDER","3","m","rechts","52","","","object","j","120","true"
"null","<div style=""font-size:60px;"">+</div>","null","html-keyboard-response","340","283707","0.0-6.0-0.167","ZDER","3","m","rechts","52","","fixation","","","",""
"1109","img/L150_180.png","74","image-keyboard-response","341","284832","0.0-6.0-1.167","ZDER","3","m","rechts","52","","","object","j","150","true"
"null","<div style=""font-size:60px;"">+</div>","null","html-keyboard-response","342","285349","0.0-6.0-0.168","ZDER","3","m","rechts","52","","fixation","","","",""
"1016","img/60_330.png","74","image-keyboard-response","343","286374","0.0-6.0-1.168","ZDER","3","m","rechts","52","","","object","j","60","true"
"null","<div style=""font-size:60px;"">+</div>","null","html-keyboard-response","344","286790","0.0-6.0-0.169","ZDER","3","m","rechts","52","","fixation","","","",""
"1009","img/30_300.png","70","image-keyboard-response","345","287814","0.0-6.0-1.169","ZDER","3","m","rechts","52","","","object","f","30","true"
"null","<div style=""font-size:60px;"">+</div>","null","html-keyboard-response","346","288132","0.0-6.0-0.170","ZDER","3","m","rechts","52","","fixation","","","",""
"1131","img/120_30.png","70","image-keyboard-response","347","289275","0.0-6.0-1.170","ZDER","3","m","rechts","52","","","object","f","120","true"
"null","<div style=""font-size:60px;"">+</div>","null","html-keyboard-response","348","289633","0.0-6.0-0.171","ZDER","3","m","rechts","52","","fixation","","","",""
"1338","img/60_90.png","74","image-keyboard-response","349","290988","0.0-6.0-1.171","ZDER","3","m","rechts","52","","","object","j","60","true"
"null","<div style=""font-size:60px;"">+</div>","null","html-keyboard-response","350","291396","0.0-6.0-0.172","ZDER","3","m","rechts","52","","fixation","","","",""
"1100","img/120_210.png","70","image-keyboard-response","351","292505","0.0-6.0-1.172","ZDER","3","m","rechts","52","","","object","f","120","true"
"null","<div style=""font-size:60px;"">+</div>","null","html-keyboard-response","352","292959","0.0-6.0-0.173","ZDER","3","m","rechts","52","","fixation","","","",""
"874","img/90_210.png","70","image-keyboard-response","353","293843","0.0-6.0-1.173","ZDER","3","m","rechts","52","","","object","f","90","true"
"null","<div style=""font-size:60px;"">+</div>","null","html-keyboard-response","354","294213","0.0-6.0-0.174","ZDER","3","m","rechts","52","","fixation","","","",""
"1049","img/0_240.png","70","image-keyboard-response","355","295273","0.0-6.0-1.174","ZDER","3","m","rechts","52","","","object","f","0","true"
"null","<div style=""font-size:60px;"">+</div>","null","html-keyboard-response","356","295682","0.0-6.0-0.175","ZDER","3","m","rechts","52","","fixation","","","",""
"762","img/30_240.png","70","image-keyboard-response","357","296453","0.0-6.0-1.175","ZDER","3","m","rechts","52","","","object","f","30","true"
"null","<div style=""font-size:60px;"">+</div>","null","html-keyboard-response","358","296885","0.0-6.0-0.176","ZDER","3","m","rechts","52","","fixation","","","",""
"1255","img/150_120.png","74","image-keyboard-response","359","298153","0.0-6.0-1.176","ZDER","3","m","rechts","52","","","object","f","150","false"
"null","<div style=""font-size:60px;"">+</div>","null","html-keyboard-response","360","298509","0.0-6.0-0.177","ZDER","3","m","rechts","52","","fixation","","","",""
"922","img/0_30.png","74","image-keyboard-response","361","299446","0.0-6.0-1.177","ZDER","3","m","rechts","52","","","object","j","0","true"
"null","<div style=""font-size:60px;"">+</div>","null","html-keyboard-response","362","299959","0.0-6.0-0.178","ZDER","3","m","rechts","52","","fixation","","","",""
"1061","img/30_90.png","74","image-keyboard-response","363","301033","0.0-6.0-1.178","ZDER","3","m","rechts","52","","","object","j","30","true"
"null","<div style=""font-size:60px;"">+</div>","null","html-keyboard-response","364","301349","0.0-6.0-0.179","ZDER","3","m","rechts","52","","fixation","","","",""
"617","img/30_120.png","74","image-keyboard-response","365","301977","0.0-6.0-1.179","ZDER","3","m","rechts","52","","","object","j","30","true"
"null","<div style=""font-size:60px;"">+</div>","null","html-keyboard-response","366","302304","0.0-6.0-0.180","ZDER","3","m","rechts","52","","fixation","","","",""
"1087","img/150_270.png","74","image-keyboard-response","367","303405","0.0-6.0-1.180","ZDER","3","m","rechts","52","","","object","j","150","true"
"null","<div style=""font-size:60px;"">+</div>","null","html-keyboard-response","368","303819","0.0-6.0-0.181","ZDER","3","m","rechts","52","","fixation","","","",""
"962","img/90_150.png","74","image-keyboard-response","369","304790","0.0-6.0-1.181","ZDER","3","m","rechts","52","","","object","j","90","true"
"null","<div style=""font-size:60px;"">+</div>","null","html-keyboard-response","370","305119","0.0-6.0-0.182","ZDER","3","m","rechts","52","","fixation","","","",""
"825","img/0_210.png","70","image-keyboard-response","371","305950","0.0-6.0-1.182","ZDER","3","m","rechts","52","","","object","f","0","true"
"null","<div style=""font-size:60px;"">+</div>","null","html-keyboard-response","372","306309","0.0-6.0-0.183","ZDER","3","m","rechts","52","","fixation","","","",""
"581","img/0_270.png","70","image-keyboard-response","373","306903","0.0-6.0-1.183","ZDER","3","m","rechts","52","","","object","f","0","true"
"null","<div style=""font-size:60px;"">+</div>","null","html-keyboard-response","374","307261","0.0-6.0-0.184","ZDER","3","m","rechts","52","","fixation","","","",""
"892","img/30_180.png","70","image-keyboard-response","375","308163","0.0-6.0-1.184","ZDER","3","m","rechts","52","","","object","f","30","true"
"null","<div style=""font-size:60px;"">+</div>","null","html-keyboard-response","376","308635","0.0-6.0-0.185","ZDER","3","m","rechts","52","","fixation","","","",""
"824","img/60_150.png","74","image-keyboard-response","377","309474","0.0-6.0-1.185","ZDER","3","m","rechts","52","","","object","j","60","true"
"null","<div style=""font-size:60px;"">+</div>","null","html-keyboard-response","378","309888","0.0-6.0-0.186","ZDER","3","m","rechts","52","","fixation","","","",""
"963","img/60_210.png","70","image-keyboard-response","379","310866","0.0-6.0-1.186","ZDER","3","m","rechts","52","","","object","f","60","true"
"null","<div style=""font-size:60px;"">+</div>","null","html-keyboard-response","380","311373","0.0-6.0-0.187","ZDER","3","m","rechts","52","","fixation","","","",""
"985","img/90_60.png","70","image-keyboard-response","381","312373","0.0-6.0-1.187","ZDER","3","m","rechts","52","","","object","f","90","true"
"null","<div style=""font-size:60px;"">+</div>","null","html-keyboard-response","382","312684","0.0-6.0-0.188","ZDER","3","m","rechts","52","","fixation","","","",""
"1157","img/0_330.png","70","image-keyboard-response","383","313847","0.0-6.0-1.188","ZDER","3","m","rechts","52","","","object","f","0","true"
"null","<div style=""font-size:60px;"">+</div>","null","html-keyboard-response","384","314200","0.0-6.0-0.189","ZDER","3","m","rechts","52","","fixation","","","",""
"735","img/0_120.png","74","image-keyboard-response","385","314949","0.0-6.0-1.189","ZDER","3","m","rechts","52","","","object","j","0","true"
"null","<div style=""font-size:60px;"">+</div>","null","html-keyboard-response","386","315466","0.0-6.0-0.190","ZDER","3","m","rechts","52","","fixation","","","",""
"831","img/150_300.png","74","image-keyboard-response","387","316312","0.0-6.0-1.190","ZDER","3","m","rechts","52","","","object","j","150","true"
"null","<div style=""font-size:60px;"">+</div>","null","html-keyboard-response","388","316716","0.0-6.0-0.191","ZDER","3","m","rechts","52","","fixation","","","",""
"1199","img/150_180.png","70","image-keyboard-response","389","317931","0.0-6.0-1.191","ZDER","3","m","rechts","52","","","object","f","150","true"
"null","<div style=""font-size:60px;"">+</div>","null","html-keyboard-response","390","318293","0.0-6.0-0.192","ZDER","3","m","rechts","52","","fixation","","","",""
"986","img/L60_180.png","74","image-keyboard-response","391","319293","0.0-6.0-1.192","ZDER","3","m","rechts","52","","","object","j","60","true"
"null","<div style=""font-size:60px;"">+</div>","null","html-keyboard-response","392","319656","0.0-6.0-0.193","ZDER","3","m","rechts","52","","fixation","","","",""
"994","img/90_330.png","74","image-keyboard-response","393","320664","0.0-6.0-1.193","ZDER","3","m","rechts","52","","","object","j","90","true"
"null","<div style=""font-size:60px;"">+</div>","null","html-keyboard-response","394","321115","0.0-6.0-0.194","ZDER","3","m","rechts","52","","fixation","","","",""
"1154","img/L90_180.png","74","image-keyboard-response","395","322274","0.0-6.0-1.194","ZDER","3","m","rechts","52","","","object","j","90","true"
"null","<div style=""font-size:60px;"">+</div>","null","html-keyboard-response","396","322726","0.0-6.0-0.195","ZDER","3","m","rechts","52","","fixation","","","",""
"961","img/90_180.png","70","image-keyboard-response","397","323700","0.0-6.0-1.195","ZDER","3","m","rechts","52","","","object","f","90","true"
"null","<div style=""font-size:60px;"">+</div>","null","html-keyboard-response","398","324218","0.0-6.0-0.196","ZDER","3","m","rechts","52","","fixation","","","",""
"861","img/90_120.png","74","image-keyboard-response","399","325093","0.0-6.0-1.196","ZDER","3","m","rechts","52","","","object","j","90","true"
"null","<div style=""font-size:60px;"">+</div>","null","html-keyboard-response","400","325546","0.0-6.0-0.197","ZDER","3","m","rechts","52","","fixation","","","",""
"1100","img/150_240.png","74","image-keyboard-response","401","326661","0.0-6.0-1.197","ZDER","3","m","rechts","52","","","object","j","150","true"
"null","<div style=""font-size:60px;"">+</div>","null","html-keyboard-response","402","326968","0.0-6.0-0.198","ZDER","3","m","rechts","52","","fixation","","","",""
"896","img/0_90.png","74","image-keyboard-response","403","327877","0.0-6.0-1.198","ZDER","3","m","rechts","52","","","object","j","0","true"
"null","<div style=""font-size:60px;"">+</div>","null","html-keyboard-response","404","328188","0.0-6.0-0.199","ZDER","3","m","rechts","52","","fixation","","","",""
"1023","img/60_30.png","70","image-keyboard-response","405","329224","0.0-6.0-1.199","ZDER","3","m","rechts","52","","","object","f","60","true"
"null","<div style=""font-size:60px;"">+</div>","null","html-keyboard-response","406","329703","0.0-6.0-0.200","ZDER","3","m","rechts","52","","fixation","","","",""
"1351","img/60_270.png","70","image-keyboard-response","407","331070","0.0-6.0-1.200","ZDER","3","m","rechts","52","","","object","f","60","true"
"null","<div style=""font-size:60px;"">+</div>","null","html-keyboard-response","408","331586","0.0-6.0-0.201","ZDER","3","m","rechts","52","","fixation","","","",""
"1057","img/120_90.png","70","image-keyboard-response","409","332656","0.0-6.0-1.201","ZDER","3","m","rechts","52","","","object","f","120","true"
"null","<div style=""font-size:60px;"">+</div>","null","html-keyboard-response","410","333024","0.0-6.0-0.202","ZDER","3","m","rechts","52","","fixation","","","",""
"1485","img/30_60.png","74","image-keyboard-response","411","334522","0.0-6.0-1.202","ZDER","3","m","rechts","52","","","object","j","30","true"
"null","<div style=""font-size:60px;"">+</div>","null","html-keyboard-response","412","335049","0.0-6.0-0.203","ZDER","3","m","rechts","52","","fixation","","","",""
"1042","img/30_270.png","70","image-keyboard-response","413","336107","0.0-6.0-1.203","ZDER","3","m","rechts","52","","","object","f","30","true"
"null","<div style=""font-size:60px;"">+</div>","null","html-keyboard-response","414","336439","0.0-6.0-0.204","ZDER","3","m","rechts","52","","fixation","","","",""
"711","img/0_60.png","74","image-keyboard-response","415","337165","0.0-6.0-1.204","ZDER","3","m","rechts","52","","","object","j","0","true"
"null","<div style=""font-size:60px;"">+</div>","null","html-keyboard-response","416","337578","0.0-6.0-0.205","ZDER","3","m","rechts","52","","fixation","","","",""
"1049","img/120_270.png","74","image-keyboard-response","417","338642","0.0-6.0-1.205","ZDER","3","m","rechts","52","","","object","j","120","true"
"null","<div style=""font-size:60px;"">+</div>","null","html-keyboard-response","418","338954","0.0-6.0-0.206","ZDER","3","m","rechts","52","","fixation","","","",""
"945","img/90_300.png","74","image-keyboard-response","419","339914","0.0-6.0-1.206","ZDER","3","m","rechts","52","","","object","j","90","true"
"null","<div style=""font-size:60px;"">+</div>","null","html-keyboard-response","420","340331","0.0-6.0-0.207","ZDER","3","m","rechts","52","","fixation","","","",""
"896","img/0_300.png","70","image-keyboard-response","421","341241","0.0-6.0-1.207","ZDER","3","m","rechts","52","","","object","f","0","true"
"17997","<p>Du hast in 94% der Versuche korrekt entschieden.</p><p>Deine durchschnittliche Reaktionszeit war  1083ms.</p><p>Dr&uuml;cke eine beliebige Taste, um die Session zu beenden. Vielen Dank!</p>","32","html-keyboard-response","422","359245","0.0-7.0","ZDER","3","m","rechts","52","","","","","",""
