"rt","stimulus","key_press","trial_type","trial_index","time_elapsed","internal_node_id","subject","session","sex","handedness","age","responses","test_part","condition","correct_response","angle","correct"
"1153","<p>Mental Rotation Experiment.</p> <p>Dr&uuml;cke eine beliebige Taste, um anzufangen.</p>","13","html-keyboard-response","0","1195","0.0-0.0","ZDER","4","m","rechts","52","","","","","",""
"4918","","","survey-text","1","6118","0.0-1.0","ZDER","4","m","rechts","52","{""Q0"":""ZDER""}","","","","",""
"3354","","","survey-text","2","9474","0.0-2.0","ZDER","4","m","rechts","52","{""Q0"":""4""}","","","","",""
"2502","","","survey-multi-choice","3","11980","0.0-3.0","ZDER","4","m","rechts","52","{""Q0"":""m"",""Q1"":""rechts""}","","","","",""
"2950","","","survey-text","4","14933","0.0-4.0","ZDER","4","m","rechts","52","{""Q0"":""52""}","","","","",""
"7122","<p>Stell dir vor, dass du vor einem runden Tisch stehst, auf dem sich ein blauer Ball am Tischrand befindet. Entlang des Tischrands ist jeweils ein verschieden langer Pfeil. Nun bleibst du an deinem Platz vor dem Tisch und rotierst den Tisch entlang des Pfeils (gleiche Richtung und Länge). </p> <img src='img/30_180.png'></img> <br><p> Nachdem du diese (vorgestellte) Rotation durchgef&uuml;hrt hast, schau in Richtung der Tischmitte, und entscheide dann, ob der Ball links oder rechts von dir liegt.</p> <p>Dr&uuml;cke die <strong>'f'</strong>-Taste f&uuml;r links, die <strong>'j'</strong>-Taste f&uuml;r rechts.</p><br><p> Das Bild wird jeweils 1 Sekunde lang pr&auml;sentiert. Du hast 3 Sekunden Zeit eine Entscheidung zu treffen.</p>","70","html-keyboard-response","5","22063","0.0-5.0","ZDER","4","m","rechts","52","","","","","",""
"null","<div style=""font-size:60px;"">+</div>","null","html-keyboard-response","6","23501","0.0-6.0-0.0","ZDER","4","m","rechts","52","","fixation","","","",""
"1524","img/120_210.png","70","image-keyboard-response","7","25033","0.0-6.0-1.0","ZDER","4","m","rechts","52","","","object","f","120","true"
"null","<div style=""font-size:60px;"">+</div>","null","html-keyboard-response","8","25357","0.0-6.0-0.1","ZDER","4","m","rechts","52","","fixation","","","",""
"935","img/150_270.png","74","image-keyboard-response","9","26310","0.0-6.0-1.1","ZDER","4","m","rechts","52","","","object","j","150","true"
"null","<div style=""font-size:60px;"">+</div>","null","html-keyboard-response","10","26716","0.0-6.0-0.2","ZDER","4","m","rechts","52","","fixation","","","",""
"1005","img/60_150.png","74","image-keyboard-response","11","27741","0.0-6.0-1.2","ZDER","4","m","rechts","52","","","object","j","60","true"
"null","<div style=""font-size:60px;"">+</div>","null","html-keyboard-response","12","28045","0.0-6.0-0.3","ZDER","4","m","rechts","52","","fixation","","","",""
"1139","img/120_150.png","74","image-keyboard-response","13","29201","0.0-6.0-1.3","ZDER","4","m","rechts","52","","","object","j","120","true"
"null","<div style=""font-size:60px;"">+</div>","null","html-keyboard-response","14","29560","0.0-6.0-0.4","ZDER","4","m","rechts","52","","fixation","","","",""
"836","img/0_210.png","70","image-keyboard-response","15","30416","0.0-6.0-1.4","ZDER","4","m","rechts","52","","","object","f","0","true"
"null","<div style=""font-size:60px;"">+</div>","null","html-keyboard-response","16","30934","0.0-6.0-0.5","ZDER","4","m","rechts","52","","fixation","","","",""
"1039","img/L150_180.png","74","image-keyboard-response","17","31993","0.0-6.0-1.5","ZDER","4","m","rechts","52","","","object","j","150","true"
"null","<div style=""font-size:60px;"">+</div>","null","html-keyboard-response","18","32421","0.0-6.0-0.6","ZDER","4","m","rechts","52","","fixation","","","",""
"1648","img/150_240.png","74","image-keyboard-response","19","34084","0.0-6.0-1.6","ZDER","4","m","rechts","52","","","object","j","150","true"
"null","<div style=""font-size:60px;"">+</div>","null","html-keyboard-response","20","34561","0.0-6.0-0.7","ZDER","4","m","rechts","52","","fixation","","","",""
"844","img/0_120.png","74","image-keyboard-response","21","35423","0.0-6.0-1.7","ZDER","4","m","rechts","52","","","object","j","0","true"
"null","<div style=""font-size:60px;"">+</div>","null","html-keyboard-response","22","35933","0.0-6.0-0.8","ZDER","4","m","rechts","52","","fixation","","","",""
"947","img/L120_180.png","74","image-keyboard-response","23","36898","0.0-6.0-1.8","ZDER","4","m","rechts","52","","","object","j","120","true"
"null","<div style=""font-size:60px;"">+</div>","null","html-keyboard-response","24","37309","0.0-6.0-0.9","ZDER","4","m","rechts","52","","fixation","","","",""
"1078","img/120_270.png","74","image-keyboard-response","25","38404","0.0-6.0-1.9","ZDER","4","m","rechts","52","","","object","j","120","true"
"null","<div style=""font-size:60px;"">+</div>","null","html-keyboard-response","26","38812","0.0-6.0-0.10","ZDER","4","m","rechts","52","","fixation","","","",""
"1239","img/L30_180.png","74","image-keyboard-response","27","40068","0.0-6.0-1.10","ZDER","4","m","rechts","52","","","object","j","30","true"
"null","<div style=""font-size:60px;"">+</div>","null","html-keyboard-response","28","40422","0.0-6.0-0.11","ZDER","4","m","rechts","52","","fixation","","","",""
"1249","img/120_330.png","74","image-keyboard-response","29","41687","0.0-6.0-1.11","ZDER","4","m","rechts","52","","","object","j","120","true"
"null","<div style=""font-size:60px;"">+</div>","null","html-keyboard-response","30","42202","0.0-6.0-0.12","ZDER","4","m","rechts","52","","fixation","","","",""
"927","img/120_180.png","70","image-keyboard-response","31","43150","0.0-6.0-1.12","ZDER","4","m","rechts","52","","","object","f","120","true"
"null","<div style=""font-size:60px;"">+</div>","null","html-keyboard-response","32","43655","0.0-6.0-0.13","ZDER","4","m","rechts","52","","fixation","","","",""
"1009","img/60_210.png","70","image-keyboard-response","33","44682","0.0-6.0-1.13","ZDER","4","m","rechts","52","","","object","f","60","true"
"null","<div style=""font-size:60px;"">+</div>","null","html-keyboard-response","34","45107","0.0-6.0-0.14","ZDER","4","m","rechts","52","","fixation","","","",""
"996","img/90_180.png","70","image-keyboard-response","35","46123","0.0-6.0-1.14","ZDER","4","m","rechts","52","","","object","f","90","true"
"null","<div style=""font-size:60px;"">+</div>","null","html-keyboard-response","36","46577","0.0-6.0-0.15","ZDER","4","m","rechts","52","","fixation","","","",""
"867","img/0_270.png","70","image-keyboard-response","37","47451","0.0-6.0-1.15","ZDER","4","m","rechts","52","","","object","f","0","true"
"null","<div style=""font-size:60px;"">+</div>","null","html-keyboard-response","38","47764","0.0-6.0-0.16","ZDER","4","m","rechts","52","","fixation","","","",""
"1273","img/120_30.png","70","image-keyboard-response","39","49059","0.0-6.0-1.16","ZDER","4","m","rechts","52","","","object","f","120","true"
"null","<div style=""font-size:60px;"">+</div>","null","html-keyboard-response","40","49422","0.0-6.0-0.17","ZDER","4","m","rechts","52","","fixation","","","",""
"1005","img/L90_180.png","74","image-keyboard-response","41","50444","0.0-6.0-1.17","ZDER","4","m","rechts","52","","","object","j","90","true"
"null","<div style=""font-size:60px;"">+</div>","null","html-keyboard-response","42","50954","0.0-6.0-0.18","ZDER","4","m","rechts","52","","fixation","","","",""
"1215","img/150_300.png","74","image-keyboard-response","43","52188","0.0-6.0-1.18","ZDER","4","m","rechts","52","","","object","j","150","true"
"null","<div style=""font-size:60px;"">+</div>","null","html-keyboard-response","44","52499","0.0-6.0-0.19","ZDER","4","m","rechts","52","","fixation","","","",""
"1805","img/30_60.png","74","image-keyboard-response","45","54323","0.0-6.0-1.19","ZDER","4","m","rechts","52","","","object","j","30","true"
"null","<div style=""font-size:60px;"">+</div>","null","html-keyboard-response","46","54751","0.0-6.0-0.20","ZDER","4","m","rechts","52","","fixation","","","",""
"1017","img/L60_180.png","74","image-keyboard-response","47","55785","0.0-6.0-1.20","ZDER","4","m","rechts","52","","","object","j","60","true"
"null","<div style=""font-size:60px;"">+</div>","null","html-keyboard-response","48","56110","0.0-6.0-0.21","ZDER","4","m","rechts","52","","fixation","","","",""
"1143","img/60_30.png","70","image-keyboard-response","49","57271","0.0-6.0-1.21","ZDER","4","m","rechts","52","","","object","f","60","true"
"null","<div style=""font-size:60px;"">+</div>","null","html-keyboard-response","50","57782","0.0-6.0-0.22","ZDER","4","m","rechts","52","","fixation","","","",""
"1191","img/90_60.png","70","image-keyboard-response","51","58993","0.0-6.0-1.22","ZDER","4","m","rechts","52","","","object","f","90","true"
"null","<div style=""font-size:60px;"">+</div>","null","html-keyboard-response","52","59409","0.0-6.0-0.23","ZDER","4","m","rechts","52","","fixation","","","",""
"758","img/0_60.png","74","image-keyboard-response","53","60184","0.0-6.0-1.23","ZDER","4","m","rechts","52","","","object","j","0","true"
"null","<div style=""font-size:60px;"">+</div>","null","html-keyboard-response","54","60612","0.0-6.0-0.24","ZDER","4","m","rechts","52","","fixation","","","",""
"973","img/90_30.png","70","image-keyboard-response","55","61591","0.0-6.0-1.24","ZDER","4","m","rechts","52","","","object","f","90","true"
"null","<div style=""font-size:60px;"">+</div>","null","html-keyboard-response","56","62011","0.0-6.0-0.25","ZDER","4","m","rechts","52","","fixation","","","",""
"1025","img/150_180.png","70","image-keyboard-response","57","63054","0.0-6.0-1.25","ZDER","4","m","rechts","52","","","object","f","150","true"
"null","<div style=""font-size:60px;"">+</div>","null","html-keyboard-response","58","63434","0.0-6.0-0.26","ZDER","4","m","rechts","52","","fixation","","","",""
"1486","img/30_180.png","70","image-keyboard-response","59","64932","0.0-6.0-1.26","ZDER","4","m","rechts","52","","","object","f","30","true"
"null","<div style=""font-size:60px;"">+</div>","null","html-keyboard-response","60","65356","0.0-6.0-0.27","ZDER","4","m","rechts","52","","fixation","","","",""
"1048","img/60_270.png","70","image-keyboard-response","61","66418","0.0-6.0-1.27","ZDER","4","m","rechts","52","","","object","f","60","true"
"null","<div style=""font-size:60px;"">+</div>","null","html-keyboard-response","62","66871","0.0-6.0-0.28","ZDER","4","m","rechts","52","","fixation","","","",""
"1138","img/90_150.png","74","image-keyboard-response","63","68027","0.0-6.0-1.28","ZDER","4","m","rechts","52","","","object","j","90","true"
"null","<div style=""font-size:60px;"">+</div>","null","html-keyboard-response","64","68543","0.0-6.0-0.29","ZDER","4","m","rechts","52","","fixation","","","",""
"1126","img/60_180.png","70","image-keyboard-response","65","69691","0.0-6.0-1.29","ZDER","4","m","rechts","52","","","object","f","60","true"
"null","<div style=""font-size:60px;"">+</div>","null","html-keyboard-response","66","70106","0.0-6.0-0.30","ZDER","4","m","rechts","52","","fixation","","","",""
"1289","img/150_60.png","70","image-keyboard-response","67","71413","0.0-6.0-1.30","ZDER","4","m","rechts","52","","","object","f","150","true"
"null","<div style=""font-size:60px;"">+</div>","null","html-keyboard-response","68","71778","0.0-6.0-0.31","ZDER","4","m","rechts","52","","fixation","","","",""
"1442","img/60_90.png","74","image-keyboard-response","69","73236","0.0-6.0-1.31","ZDER","4","m","rechts","52","","","object","j","60","true"
"null","<div style=""font-size:60px;"">+</div>","null","html-keyboard-response","70","73762","0.0-6.0-0.32","ZDER","4","m","rechts","52","","fixation","","","",""
"1165","img/120_90.png","70","image-keyboard-response","71","74945","0.0-6.0-1.32","ZDER","4","m","rechts","52","","","object","f","120","true"
"null","<div style=""font-size:60px;"">+</div>","null","html-keyboard-response","72","75262","0.0-6.0-0.33","ZDER","4","m","rechts","52","","fixation","","","",""
"892","img/150_90.png","70","image-keyboard-response","73","76171","0.0-6.0-1.33","ZDER","4","m","rechts","52","","","object","f","150","true"
"null","<div style=""font-size:60px;"">+</div>","null","html-keyboard-response","74","76481","0.0-6.0-0.34","ZDER","4","m","rechts","52","","fixation","","","",""
"1225","img/90_330.png","74","image-keyboard-response","75","77724","0.0-6.0-1.34","ZDER","4","m","rechts","52","","","object","j","90","true"
"null","<div style=""font-size:60px;"">+</div>","null","html-keyboard-response","76","78179","0.0-6.0-0.35","ZDER","4","m","rechts","52","","fixation","","","",""
"787","img/90_300.png","74","image-keyboard-response","77","78985","0.0-6.0-1.35","ZDER","4","m","rechts","52","","","object","j","90","true"
"null","<div style=""font-size:60px;"">+</div>","null","html-keyboard-response","78","79508","0.0-6.0-0.36","ZDER","4","m","rechts","52","","fixation","","","",""
"1381","img/90_120.png","70","image-keyboard-response","79","80907","0.0-6.0-1.36","ZDER","4","m","rechts","52","","","object","j","90","false"
"null","<div style=""font-size:60px;"">+</div>","null","html-keyboard-response","80","81274","0.0-6.0-0.37","ZDER","4","m","rechts","52","","fixation","","","",""
"964","img/0_90.png","74","image-keyboard-response","81","82257","0.0-6.0-1.37","ZDER","4","m","rechts","52","","","object","j","0","true"
"null","<div style=""font-size:60px;"">+</div>","null","html-keyboard-response","82","82641","0.0-6.0-0.38","ZDER","4","m","rechts","52","","fixation","","","",""
"1934","img/90_240.png","70","image-keyboard-response","83","84586","0.0-6.0-1.38","ZDER","4","m","rechts","52","","","object","f","90","true"
"null","<div style=""font-size:60px;"">+</div>","null","html-keyboard-response","84","85093","0.0-6.0-0.39","ZDER","4","m","rechts","52","","fixation","","","",""
"1039","img/30_240.png","70","image-keyboard-response","85","86149","0.0-6.0-1.39","ZDER","4","m","rechts","52","","","object","f","30","true"
"null","<div style=""font-size:60px;"">+</div>","null","html-keyboard-response","86","86530","0.0-6.0-0.40","ZDER","4","m","rechts","52","","fixation","","","",""
"726","img/0_150.png","74","image-keyboard-response","87","87276","0.0-6.0-1.40","ZDER","4","m","rechts","52","","","object","j","0","true"
"null","<div style=""font-size:60px;"">+</div>","null","html-keyboard-response","88","87749","0.0-6.0-0.41","ZDER","4","m","rechts","52","","fixation","","","",""
"909","img/60_330.png","74","image-keyboard-response","89","88678","0.0-6.0-1.41","ZDER","4","m","rechts","52","","","object","j","60","true"
"null","<div style=""font-size:60px;"">+</div>","null","html-keyboard-response","90","89140","0.0-6.0-0.42","ZDER","4","m","rechts","52","","fixation","","","",""
"1142","img/0_300.png","70","image-keyboard-response","91","90301","0.0-6.0-1.42","ZDER","4","m","rechts","52","","","object","f","0","true"
"null","<div style=""font-size:60px;"">+</div>","null","html-keyboard-response","92","90781","0.0-6.0-0.43","ZDER","4","m","rechts","52","","fixation","","","",""
"807","img/30_120.png","74","image-keyboard-response","93","91605","0.0-6.0-1.43","ZDER","4","m","rechts","52","","","object","j","30","true"
"null","<div style=""font-size:60px;"">+</div>","null","html-keyboard-response","94","92015","0.0-6.0-0.44","ZDER","4","m","rechts","52","","fixation","","","",""
"1375","img/30_90.png","74","image-keyboard-response","95","93407","0.0-6.0-1.44","ZDER","4","m","rechts","52","","","object","j","30","true"
"null","<div style=""font-size:60px;"">+</div>","null","html-keyboard-response","96","93828","0.0-6.0-0.45","ZDER","4","m","rechts","52","","fixation","","","",""
"871","img/0_30.png","74","image-keyboard-response","97","94720","0.0-6.0-1.45","ZDER","4","m","rechts","52","","","object","j","0","true"
"null","<div style=""font-size:60px;"">+</div>","null","html-keyboard-response","98","95235","0.0-6.0-0.46","ZDER","4","m","rechts","52","","fixation","","","",""
"1584","img/30_300.png","70","image-keyboard-response","99","96837","0.0-6.0-1.46","ZDER","4","m","rechts","52","","","object","f","30","true"
"null","<div style=""font-size:60px;"">+</div>","null","html-keyboard-response","100","97312","0.0-6.0-0.47","ZDER","4","m","rechts","52","","fixation","","","",""
"1243","img/0_240.png","70","image-keyboard-response","101","98570","0.0-6.0-1.47","ZDER","4","m","rechts","52","","","object","f","0","true"
"null","<div style=""font-size:60px;"">+</div>","null","html-keyboard-response","102","98937","0.0-6.0-0.48","ZDER","4","m","rechts","52","","fixation","","","",""
"1029","img/90_210.png","70","image-keyboard-response","103","99987","0.0-6.0-1.48","ZDER","4","m","rechts","52","","","object","f","90","true"
"null","<div style=""font-size:60px;"">+</div>","null","html-keyboard-response","104","100292","0.0-6.0-0.49","ZDER","4","m","rechts","52","","fixation","","","",""
"2520","img/150_120.png","70","image-keyboard-response","105","102829","0.0-6.0-1.49","ZDER","4","m","rechts","52","","","object","f","150","true"
"null","<div style=""font-size:60px;"">+</div>","null","html-keyboard-response","106","103185","0.0-6.0-0.50","ZDER","4","m","rechts","52","","fixation","","","",""
"1171","img/30_270.png","70","image-keyboard-response","107","104375","0.0-6.0-1.50","ZDER","4","m","rechts","52","","","object","f","30","true"
"null","<div style=""font-size:60px;"">+</div>","null","html-keyboard-response","108","104858","0.0-6.0-0.51","ZDER","4","m","rechts","52","","fixation","","","",""
"1008","img/0_330.png","70","image-keyboard-response","109","105884","0.0-6.0-1.51","ZDER","4","m","rechts","52","","","object","f","0","true"
"null","<div style=""font-size:60px;"">+</div>","null","html-keyboard-response","110","106262","0.0-6.0-0.52","ZDER","4","m","rechts","52","","fixation","","","",""
"1621","img/90_120.png","70","image-keyboard-response","111","107894","0.0-6.0-1.52","ZDER","4","m","rechts","52","","","object","j","90","false"
"null","<div style=""font-size:60px;"">+</div>","null","html-keyboard-response","112","108357","0.0-6.0-0.53","ZDER","4","m","rechts","52","","fixation","","","",""
"1026","img/0_90.png","74","image-keyboard-response","113","109392","0.0-6.0-1.53","ZDER","4","m","rechts","52","","","object","j","0","true"
"null","<div style=""font-size:60px;"">+</div>","null","html-keyboard-response","114","109920","0.0-6.0-0.54","ZDER","4","m","rechts","52","","fixation","","","",""
"804","img/0_330.png","70","image-keyboard-response","115","110733","0.0-6.0-1.54","ZDER","4","m","rechts","52","","","object","f","0","true"
"null","<div style=""font-size:60px;"">+</div>","null","html-keyboard-response","116","111152","0.0-6.0-0.55","ZDER","4","m","rechts","52","","fixation","","","",""
"883","img/90_300.png","74","image-keyboard-response","117","112046","0.0-6.0-1.55","ZDER","4","m","rechts","52","","","object","j","90","true"
"null","<div style=""font-size:60px;"">+</div>","null","html-keyboard-response","118","112403","0.0-6.0-0.56","ZDER","4","m","rechts","52","","fixation","","","",""
"1422","img/0_60.png","74","image-keyboard-response","119","113834","0.0-6.0-1.56","ZDER","4","m","rechts","52","","","object","j","0","true"
"null","<div style=""font-size:60px;"">+</div>","null","html-keyboard-response","120","114343","0.0-6.0-0.57","ZDER","4","m","rechts","52","","fixation","","","",""
"1313","img/30_180.png","70","image-keyboard-response","121","115660","0.0-6.0-1.57","ZDER","4","m","rechts","52","","","object","f","30","true"
"null","<div style=""font-size:60px;"">+</div>","null","html-keyboard-response","122","116029","0.0-6.0-0.58","ZDER","4","m","rechts","52","","fixation","","","",""
"1746","img/30_300.png","70","image-keyboard-response","123","117785","0.0-6.0-1.58","ZDER","4","m","rechts","52","","","object","f","30","true"
"null","<div style=""font-size:60px;"">+</div>","null","html-keyboard-response","124","118093","0.0-6.0-0.59","ZDER","4","m","rechts","52","","fixation","","","",""
"762","img/30_240.png","70","image-keyboard-response","125","118867","0.0-6.0-1.59","ZDER","4","m","rechts","52","","","object","f","30","true"
"null","<div style=""font-size:60px;"">+</div>","null","html-keyboard-response","126","119330","0.0-6.0-0.60","ZDER","4","m","rechts","52","","fixation","","","",""
"1078","img/30_120.png","74","image-keyboard-response","127","120417","0.0-6.0-1.60","ZDER","4","m","rechts","52","","","object","j","30","true"
"null","<div style=""font-size:60px;"">+</div>","null","html-keyboard-response","128","120843","0.0-6.0-0.61","ZDER","4","m","rechts","52","","fixation","","","",""
"808","img/90_150.png","74","image-keyboard-response","129","121656","0.0-6.0-1.61","ZDER","4","m","rechts","52","","","object","j","90","true"
"null","<div style=""font-size:60px;"">+</div>","null","html-keyboard-response","130","122070","0.0-6.0-0.62","ZDER","4","m","rechts","52","","fixation","","","",""
"1147","img/120_150.png","70","image-keyboard-response","131","123231","0.0-6.0-1.62","ZDER","4","m","rechts","52","","","object","j","120","false"
"null","<div style=""font-size:60px;"">+</div>","null","html-keyboard-response","132","123733","0.0-6.0-0.63","ZDER","4","m","rechts","52","","fixation","","","",""
"1053","img/150_90.png","70","image-keyboard-response","133","124793","0.0-6.0-1.63","ZDER","4","m","rechts","52","","","object","f","150","true"
"null","<div style=""font-size:60px;"">+</div>","null","html-keyboard-response","134","125217","0.0-6.0-0.64","ZDER","4","m","rechts","52","","fixation","","","",""
"907","img/0_30.png","74","image-keyboard-response","135","126133","0.0-6.0-1.64","ZDER","4","m","rechts","52","","","object","j","0","true"
"null","<div style=""font-size:60px;"">+</div>","null","html-keyboard-response","136","126655","0.0-6.0-0.65","ZDER","4","m","rechts","52","","fixation","","","",""
"1127","img/L120_180.png","74","image-keyboard-response","137","127794","0.0-6.0-1.65","ZDER","4","m","rechts","52","","","object","j","120","true"
"null","<div style=""font-size:60px;"">+</div>","null","html-keyboard-response","138","128170","0.0-6.0-0.66","ZDER","4","m","rechts","52","","fixation","","","",""
"1192","img/30_60.png","74","image-keyboard-response","139","129377","0.0-6.0-1.66","ZDER","4","m","rechts","52","","","object","j","30","true"
"null","<div style=""font-size:60px;"">+</div>","null","html-keyboard-response","140","129889","0.0-6.0-0.67","ZDER","4","m","rechts","52","","fixation","","","",""
"733","img/0_120.png","74","image-keyboard-response","141","130634","0.0-6.0-1.67","ZDER","4","m","rechts","52","","","object","j","0","true"
"null","<div style=""font-size:60px;"">+</div>","null","html-keyboard-response","142","131093","0.0-6.0-0.68","ZDER","4","m","rechts","52","","fixation","","","",""
"1221","img/90_210.png","70","image-keyboard-response","143","132322","0.0-6.0-1.68","ZDER","4","m","rechts","52","","","object","f","90","true"
"null","<div style=""font-size:60px;"">+</div>","null","html-keyboard-response","144","132749","0.0-6.0-0.69","ZDER","4","m","rechts","52","","fixation","","","",""
"1045","img/60_330.png","74","image-keyboard-response","145","133804","0.0-6.0-1.69","ZDER","4","m","rechts","52","","","object","j","60","true"
"null","<div style=""font-size:60px;"">+</div>","null","html-keyboard-response","146","134280","0.0-6.0-0.70","ZDER","4","m","rechts","52","","fixation","","","",""
"1212","img/120_180.png","70","image-keyboard-response","147","135505","0.0-6.0-1.70","ZDER","4","m","rechts","52","","","object","f","120","true"
"null","<div style=""font-size:60px;"">+</div>","null","html-keyboard-response","148","135875","0.0-6.0-0.71","ZDER","4","m","rechts","52","","fixation","","","",""
"921","img/90_30.png","70","image-keyboard-response","149","136807","0.0-6.0-1.71","ZDER","4","m","rechts","52","","","object","f","90","true"
"null","<div style=""font-size:60px;"">+</div>","null","html-keyboard-response","150","137171","0.0-6.0-0.72","ZDER","4","m","rechts","52","","fixation","","","",""
"744","img/150_60.png","70","image-keyboard-response","151","137924","0.0-6.0-1.72","ZDER","4","m","rechts","52","","","object","f","150","true"
"null","<div style=""font-size:60px;"">+</div>","null","html-keyboard-response","152","138405","0.0-6.0-0.73","ZDER","4","m","rechts","52","","fixation","","","",""
"1057","img/150_240.png","74","image-keyboard-response","153","139475","0.0-6.0-1.73","ZDER","4","m","rechts","52","","","object","j","150","true"
"null","<div style=""font-size:60px;"">+</div>","null","html-keyboard-response","154","139998","0.0-6.0-0.74","ZDER","4","m","rechts","52","","fixation","","","",""
"987","img/90_330.png","74","image-keyboard-response","155","140996","0.0-6.0-1.74","ZDER","4","m","rechts","52","","","object","j","90","true"
"null","<div style=""font-size:60px;"">+</div>","null","html-keyboard-response","156","141374","0.0-6.0-0.75","ZDER","4","m","rechts","52","","fixation","","","",""
"1306","img/120_210.png","70","image-keyboard-response","157","142693","0.0-6.0-1.75","ZDER","4","m","rechts","52","","","object","f","120","true"
"null","<div style=""font-size:60px;"">+</div>","null","html-keyboard-response","158","143201","0.0-6.0-0.76","ZDER","4","m","rechts","52","","fixation","","","",""
"786","img/150_270.png","74","image-keyboard-response","159","144000","0.0-6.0-1.76","ZDER","4","m","rechts","52","","","object","j","150","true"
"null","<div style=""font-size:60px;"">+</div>","null","html-keyboard-response","160","144326","0.0-6.0-0.77","ZDER","4","m","rechts","52","","fixation","","","",""
"852","img/0_270.png","70","image-keyboard-response","161","145191","0.0-6.0-1.77","ZDER","4","m","rechts","52","","","object","f","0","true"
"null","<div style=""font-size:60px;"">+</div>","null","html-keyboard-response","162","145716","0.0-6.0-0.78","ZDER","4","m","rechts","52","","fixation","","","",""
"743","img/150_300.png","74","image-keyboard-response","163","146473","0.0-6.0-1.78","ZDER","4","m","rechts","52","","","object","j","150","true"
"null","<div style=""font-size:60px;"">+</div>","null","html-keyboard-response","164","146794","0.0-6.0-0.79","ZDER","4","m","rechts","52","","fixation","","","",""
"861","img/90_240.png","74","image-keyboard-response","165","147667","0.0-6.0-1.79","ZDER","4","m","rechts","52","","","object","f","90","false"
"null","<div style=""font-size:60px;"">+</div>","null","html-keyboard-response","166","147997","0.0-6.0-0.80","ZDER","4","m","rechts","52","","fixation","","","",""
"806","img/0_210.png","70","image-keyboard-response","167","148816","0.0-6.0-1.80","ZDER","4","m","rechts","52","","","object","f","0","true"
"null","<div style=""font-size:60px;"">+</div>","null","html-keyboard-response","168","149170","0.0-6.0-0.81","ZDER","4","m","rechts","52","","fixation","","","",""
"927","img/L150_180.png","74","image-keyboard-response","169","150109","0.0-6.0-1.81","ZDER","4","m","rechts","52","","","object","j","150","true"
"null","<div style=""font-size:60px;"">+</div>","null","html-keyboard-response","170","150638","0.0-6.0-0.82","ZDER","4","m","rechts","52","","fixation","","","",""
"953","img/L30_180.png","74","image-keyboard-response","171","151604","0.0-6.0-1.82","ZDER","4","m","rechts","52","","","object","j","30","true"
"null","<div style=""font-size:60px;"">+</div>","null","html-keyboard-response","172","152014","0.0-6.0-0.83","ZDER","4","m","rechts","52","","fixation","","","",""
"1354","img/120_270.png","74","image-keyboard-response","173","153381","0.0-6.0-1.83","ZDER","4","m","rechts","52","","","object","j","120","true"
"null","<div style=""font-size:60px;"">+</div>","null","html-keyboard-response","174","153898","0.0-6.0-0.84","ZDER","4","m","rechts","52","","fixation","","","",""
"874","img/90_60.png","70","image-keyboard-response","175","154777","0.0-6.0-1.84","ZDER","4","m","rechts","52","","","object","f","90","true"
"null","<div style=""font-size:60px;"">+</div>","null","html-keyboard-response","176","155241","0.0-6.0-0.85","ZDER","4","m","rechts","52","","fixation","","","",""
"771","img/0_150.png","74","image-keyboard-response","177","156023","0.0-6.0-1.85","ZDER","4","m","rechts","52","","","object","j","0","true"
"null","<div style=""font-size:60px;"">+</div>","null","html-keyboard-response","178","156539","0.0-6.0-0.86","ZDER","4","m","rechts","52","","fixation","","","",""
"1103","img/60_150.png","74","image-keyboard-response","179","157655","0.0-6.0-1.86","ZDER","4","m","rechts","52","","","object","j","60","true"
"null","<div style=""font-size:60px;"">+</div>","null","html-keyboard-response","180","158124","0.0-6.0-0.87","ZDER","4","m","rechts","52","","fixation","","","",""
"739","img/120_330.png","74","image-keyboard-response","181","158879","0.0-6.0-1.87","ZDER","4","m","rechts","52","","","object","j","120","true"
"null","<div style=""font-size:60px;"">+</div>","null","html-keyboard-response","182","159344","0.0-6.0-0.88","ZDER","4","m","rechts","52","","fixation","","","",""
"801","img/0_240.png","70","image-keyboard-response","183","160153","0.0-6.0-1.88","ZDER","4","m","rechts","52","","","object","f","0","true"
"null","<div style=""font-size:60px;"">+</div>","null","html-keyboard-response","184","160483","0.0-6.0-0.89","ZDER","4","m","rechts","52","","fixation","","","",""
"1220","img/120_90.png","74","image-keyboard-response","185","161717","0.0-6.0-1.89","ZDER","4","m","rechts","52","","","object","f","120","false"
"null","<div style=""font-size:60px;"">+</div>","null","html-keyboard-response","186","162124","0.0-6.0-0.90","ZDER","4","m","rechts","52","","fixation","","","",""
"1179","img/60_210.png","70","image-keyboard-response","187","163317","0.0-6.0-1.90","ZDER","4","m","rechts","52","","","object","f","60","true"
"null","<div style=""font-size:60px;"">+</div>","null","html-keyboard-response","188","163736","0.0-6.0-0.91","ZDER","4","m","rechts","52","","fixation","","","",""
"971","img/60_180.png","70","image-keyboard-response","189","164720","0.0-6.0-1.91","ZDER","4","m","rechts","52","","","object","f","60","true"
"null","<div style=""font-size:60px;"">+</div>","null","html-keyboard-response","190","165032","0.0-6.0-0.92","ZDER","4","m","rechts","52","","fixation","","","",""
"1255","img/60_270.png","70","image-keyboard-response","191","166300","0.0-6.0-1.92","ZDER","4","m","rechts","52","","","object","f","60","true"
"null","<div style=""font-size:60px;"">+</div>","null","html-keyboard-response","192","166768","0.0-6.0-0.93","ZDER","4","m","rechts","52","","fixation","","","",""
"1035","img/0_300.png","70","image-keyboard-response","193","167817","0.0-6.0-1.93","ZDER","4","m","rechts","52","","","object","f","0","true"
"null","<div style=""font-size:60px;"">+</div>","null","html-keyboard-response","194","168172","0.0-6.0-0.94","ZDER","4","m","rechts","52","","fixation","","","",""
"979","img/120_30.png","70","image-keyboard-response","195","169166","0.0-6.0-1.94","ZDER","4","m","rechts","52","","","object","f","120","true"
"null","<div style=""font-size:60px;"">+</div>","null","html-keyboard-response","196","169533","0.0-6.0-0.95","ZDER","4","m","rechts","52","","fixation","","","",""
"1520","img/90_180.png","70","image-keyboard-response","197","171067","0.0-6.0-1.95","ZDER","4","m","rechts","52","","","object","f","90","true"
"null","<div style=""font-size:60px;"">+</div>","null","html-keyboard-response","198","171595","0.0-6.0-0.96","ZDER","4","m","rechts","52","","fixation","","","",""
"1329","img/150_120.png","74","image-keyboard-response","199","172933","0.0-6.0-1.96","ZDER","4","m","rechts","52","","","object","f","150","false"
"null","<div style=""font-size:60px;"">+</div>","null","html-keyboard-response","200","173300","0.0-6.0-0.97","ZDER","4","m","rechts","52","","fixation","","","",""
"1589","img/L90_180.png","74","image-keyboard-response","201","174902","0.0-6.0-1.97","ZDER","4","m","rechts","52","","","object","j","90","true"
"null","<div style=""font-size:60px;"">+</div>","null","html-keyboard-response","202","175263","0.0-6.0-0.98","ZDER","4","m","rechts","52","","fixation","","","",""
"931","img/30_270.png","70","image-keyboard-response","203","176208","0.0-6.0-1.98","ZDER","4","m","rechts","52","","","object","f","30","true"
"null","<div style=""font-size:60px;"">+</div>","null","html-keyboard-response","204","176639","0.0-6.0-0.99","ZDER","4","m","rechts","52","","fixation","","","",""
"849","img/60_90.png","70","image-keyboard-response","205","177500","0.0-6.0-1.99","ZDER","4","m","rechts","52","","","object","j","60","false"
"null","<div style=""font-size:60px;"">+</div>","null","html-keyboard-response","206","177872","0.0-6.0-0.100","ZDER","4","m","rechts","52","","fixation","","","",""
"1813","img/30_90.png","74","image-keyboard-response","207","179695","0.0-6.0-1.100","ZDER","4","m","rechts","52","","","object","j","30","true"
"null","<div style=""font-size:60px;"">+</div>","null","html-keyboard-response","208","180154","0.0-6.0-0.101","ZDER","4","m","rechts","52","","fixation","","","",""
"1026","img/60_30.png","70","image-keyboard-response","209","181192","0.0-6.0-1.101","ZDER","4","m","rechts","52","","","object","f","60","true"
"null","<div style=""font-size:60px;"">+</div>","null","html-keyboard-response","210","181544","0.0-6.0-0.102","ZDER","4","m","rechts","52","","fixation","","","",""
"1761","img/150_180.png","70","image-keyboard-response","211","183318","0.0-6.0-1.102","ZDER","4","m","rechts","52","","","object","f","150","true"
"null","<div style=""font-size:60px;"">+</div>","null","html-keyboard-response","212","183677","0.0-6.0-0.103","ZDER","4","m","rechts","52","","fixation","","","",""
"1879","img/L60_180.png","74","image-keyboard-response","213","185569","0.0-6.0-1.103","ZDER","4","m","rechts","52","","","object","j","60","true"
"null","<div style=""font-size:60px;"">+</div>","null","html-keyboard-response","214","185976","0.0-6.0-0.104","ZDER","4","m","rechts","52","","fixation","","","",""
"1072","img/30_240.png","70","image-keyboard-response","215","187053","0.0-6.0-1.104","ZDER","4","m","rechts","52","","","object","f","30","true"
"null","<div style=""font-size:60px;"">+</div>","null","html-keyboard-response","216","187572","0.0-6.0-0.105","ZDER","4","m","rechts","52","","fixation","","","",""
"1215","img/150_270.png","74","image-keyboard-response","217","188798","0.0-6.0-1.105","ZDER","4","m","rechts","52","","","object","j","150","true"
"null","<div style=""font-size:60px;"">+</div>","null","html-keyboard-response","218","189201","0.0-6.0-0.106","ZDER","4","m","rechts","52","","fixation","","","",""
"1194","img/90_60.png","70","image-keyboard-response","219","190405","0.0-6.0-1.106","ZDER","4","m","rechts","52","","","object","f","90","true"
"null","<div style=""font-size:60px;"">+</div>","null","html-keyboard-response","220","190919","0.0-6.0-0.107","ZDER","4","m","rechts","52","","fixation","","","",""
"1261","img/60_210.png","70","image-keyboard-response","221","192184","0.0-6.0-1.107","ZDER","4","m","rechts","52","","","object","f","60","true"
"null","<div style=""font-size:60px;"">+</div>","null","html-keyboard-response","222","192607","0.0-6.0-0.108","ZDER","4","m","rechts","52","","fixation","","","",""
"689","img/30_270.png","70","image-keyboard-response","223","193305","0.0-6.0-1.108","ZDER","4","m","rechts","52","","","object","f","30","true"
"null","<div style=""font-size:60px;"">+</div>","null","html-keyboard-response","224","193764","0.0-6.0-0.109","ZDER","4","m","rechts","52","","fixation","","","",""
"986","img/30_60.png","74","image-keyboard-response","225","194759","0.0-6.0-1.109","ZDER","4","m","rechts","52","","","object","j","30","true"
"null","<div style=""font-size:60px;"">+</div>","null","html-keyboard-response","226","195267","0.0-6.0-0.110","ZDER","4","m","rechts","52","","fixation","","","",""
"1159","img/150_120.png","70","image-keyboard-response","227","196435","0.0-6.0-1.110","ZDER","4","m","rechts","52","","","object","f","150","true"
"null","<div style=""font-size:60px;"">+</div>","null","html-keyboard-response","228","196862","0.0-6.0-0.111","ZDER","4","m","rechts","52","","fixation","","","",""
"1014","img/120_30.png","70","image-keyboard-response","229","197885","0.0-6.0-1.111","ZDER","4","m","rechts","52","","","object","f","120","true"
"null","<div style=""font-size:60px;"">+</div>","null","html-keyboard-response","230","198357","0.0-6.0-0.112","ZDER","4","m","rechts","52","","fixation","","","",""
"1040","img/0_270.png","70","image-keyboard-response","231","199408","0.0-6.0-1.112","ZDER","4","m","rechts","52","","","object","f","0","true"
"null","<div style=""font-size:60px;"">+</div>","null","html-keyboard-response","232","199889","0.0-6.0-0.113","ZDER","4","m","rechts","52","","fixation","","","",""
"1309","img/30_300.png","70","image-keyboard-response","233","201208","0.0-6.0-1.113","ZDER","4","m","rechts","52","","","object","f","30","true"
"null","<div style=""font-size:60px;"">+</div>","null","html-keyboard-response","234","201560","0.0-6.0-0.114","ZDER","4","m","rechts","52","","fixation","","","",""
"658","img/0_300.png","70","image-keyboard-response","235","202230","0.0-6.0-1.114","ZDER","4","m","rechts","52","","","object","f","0","true"
"null","<div style=""font-size:60px;"">+</div>","null","html-keyboard-response","236","202591","0.0-6.0-0.115","ZDER","4","m","rechts","52","","fixation","","","",""
"741","img/120_330.png","74","image-keyboard-response","237","203347","0.0-6.0-1.115","ZDER","4","m","rechts","52","","","object","j","120","true"
"null","<div style=""font-size:60px;"">+</div>","null","html-keyboard-response","238","203764","0.0-6.0-0.116","ZDER","4","m","rechts","52","","fixation","","","",""
"1189","img/150_240.png","74","image-keyboard-response","239","204962","0.0-6.0-1.116","ZDER","4","m","rechts","52","","","object","j","150","true"
"null","<div style=""font-size:60px;"">+</div>","null","html-keyboard-response","240","205420","0.0-6.0-0.117","ZDER","4","m","rechts","52","","fixation","","","",""
"984","img/120_90.png","70","image-keyboard-response","241","206416","0.0-6.0-1.117","ZDER","4","m","rechts","52","","","object","f","120","true"
"null","<div style=""font-size:60px;"">+</div>","null","html-keyboard-response","242","206732","0.0-6.0-0.118","ZDER","4","m","rechts","52","","fixation","","","",""
"1359","img/90_240.png","70","image-keyboard-response","243","208101","0.0-6.0-1.118","ZDER","4","m","rechts","52","","","object","f","90","true"
"null","<div style=""font-size:60px;"">+</div>","null","html-keyboard-response","244","208407","0.0-6.0-0.119","ZDER","4","m","rechts","52","","fixation","","","",""
"1147","img/90_210.png","70","image-keyboard-response","245","209565","0.0-6.0-1.119","ZDER","4","m","rechts","52","","","object","f","90","true"
"null","<div style=""font-size:60px;"">+</div>","null","html-keyboard-response","246","210046","0.0-6.0-0.120","ZDER","4","m","rechts","52","","fixation","","","",""
"1041","img/60_150.png","74","image-keyboard-response","247","211096","0.0-6.0-1.120","ZDER","4","m","rechts","52","","","object","j","60","true"
"null","<div style=""font-size:60px;"">+</div>","null","html-keyboard-response","248","211578","0.0-6.0-0.121","ZDER","4","m","rechts","52","","fixation","","","",""
"1653","img/150_90.png","70","image-keyboard-response","249","213244","0.0-6.0-1.121","ZDER","4","m","rechts","52","","","object","f","150","true"
"null","<div style=""font-size:60px;"">+</div>","null","html-keyboard-response","250","213703","0.0-6.0-0.122","ZDER","4","m","rechts","52","","fixation","","","",""
"843","img/0_120.png","74","image-keyboard-response","251","214560","0.0-6.0-1.122","ZDER","4","m","rechts","52","","","object","j","0","true"
"null","<div style=""font-size:60px;"">+</div>","null","html-keyboard-response","252","215015","0.0-6.0-0.123","ZDER","4","m","rechts","52","","fixation","","","",""
"847","img/120_180.png","70","image-keyboard-response","253","215875","0.0-6.0-1.123","ZDER","4","m","rechts","52","","","object","f","120","true"
"null","<div style=""font-size:60px;"">+</div>","null","html-keyboard-response","254","216249","0.0-6.0-0.124","ZDER","4","m","rechts","52","","fixation","","","",""
"1188","img/30_120.png","74","image-keyboard-response","255","217452","0.0-6.0-1.124","ZDER","4","m","rechts","52","","","object","j","30","true"
"null","<div style=""font-size:60px;"">+</div>","null","html-keyboard-response","256","217921","0.0-6.0-0.125","ZDER","4","m","rechts","52","","fixation","","","",""
"746","img/0_240.png","70","image-keyboard-response","257","218677","0.0-6.0-1.125","ZDER","4","m","rechts","52","","","object","f","0","true"
"null","<div style=""font-size:60px;"">+</div>","null","html-keyboard-response","258","219107","0.0-6.0-0.126","ZDER","4","m","rechts","52","","fixation","","","",""
"807","img/0_90.png","74","image-keyboard-response","259","219925","0.0-6.0-1.126","ZDER","4","m","rechts","52","","","object","j","0","true"
"null","<div style=""font-size:60px;"">+</div>","null","html-keyboard-response","260","220343","0.0-6.0-0.127","ZDER","4","m","rechts","52","","fixation","","","",""
"1204","img/L90_180.png","74","image-keyboard-response","261","221557","0.0-6.0-1.127","ZDER","4","m","rechts","52","","","object","j","90","true"
"null","<div style=""font-size:60px;"">+</div>","null","html-keyboard-response","262","222029","0.0-6.0-0.128","ZDER","4","m","rechts","52","","fixation","","","",""
"1539","img/L30_180.png","74","image-keyboard-response","263","223572","0.0-6.0-1.128","ZDER","4","m","rechts","52","","","object","j","30","true"
"null","<div style=""font-size:60px;"">+</div>","null","html-keyboard-response","264","223984","0.0-6.0-0.129","ZDER","4","m","rechts","52","","fixation","","","",""
"1130","img/90_300.png","74","image-keyboard-response","265","225123","0.0-6.0-1.129","ZDER","4","m","rechts","52","","","object","j","90","true"
"null","<div style=""font-size:60px;"">+</div>","null","html-keyboard-response","266","225652","0.0-6.0-0.130","ZDER","4","m","rechts","52","","fixation","","","",""
"1042","img/0_330.png","70","image-keyboard-response","267","226708","0.0-6.0-1.130","ZDER","4","m","rechts","52","","","object","f","0","true"
"null","<div style=""font-size:60px;"">+</div>","null","html-keyboard-response","268","227089","0.0-6.0-0.131","ZDER","4","m","rechts","52","","fixation","","","",""
"1325","img/30_90.png","74","image-keyboard-response","269","228420","0.0-6.0-1.131","ZDER","4","m","rechts","52","","","object","j","30","true"
"null","<div style=""font-size:60px;"">+</div>","null","html-keyboard-response","270","228924","0.0-6.0-0.132","ZDER","4","m","rechts","52","","fixation","","","",""
"1029","img/150_300.png","74","image-keyboard-response","271","229962","0.0-6.0-1.132","ZDER","4","m","rechts","52","","","object","j","150","true"
"null","<div style=""font-size:60px;"">+</div>","null","html-keyboard-response","272","230377","0.0-6.0-0.133","ZDER","4","m","rechts","52","","fixation","","","",""
"865","img/150_60.png","74","image-keyboard-response","273","231254","0.0-6.0-1.133","ZDER","4","m","rechts","52","","","object","f","150","false"
"null","<div style=""font-size:60px;"">+</div>","null","html-keyboard-response","274","231720","0.0-6.0-0.134","ZDER","4","m","rechts","52","","fixation","","","",""
"1277","img/120_270.png","74","image-keyboard-response","275","233007","0.0-6.0-1.134","ZDER","4","m","rechts","52","","","object","j","120","true"
"null","<div style=""font-size:60px;"">+</div>","null","html-keyboard-response","276","233313","0.0-6.0-0.135","ZDER","4","m","rechts","52","","fixation","","","",""
"857","img/60_30.png","70","image-keyboard-response","277","234180","0.0-6.0-1.135","ZDER","4","m","rechts","52","","","object","f","60","true"
"null","<div style=""font-size:60px;"">+</div>","null","html-keyboard-response","278","234531","0.0-6.0-0.136","ZDER","4","m","rechts","52","","fixation","","","",""
"1503","img/90_180.png","70","image-keyboard-response","279","236045","0.0-6.0-1.136","ZDER","4","m","rechts","52","","","object","f","90","true"
"null","<div style=""font-size:60px;"">+</div>","null","html-keyboard-response","280","236564","0.0-6.0-0.137","ZDER","4","m","rechts","52","","fixation","","","",""
"921","img/90_30.png","70","image-keyboard-response","281","237499","0.0-6.0-1.137","ZDER","4","m","rechts","52","","","object","f","90","true"
"null","<div style=""font-size:60px;"">+</div>","null","html-keyboard-response","282","237957","0.0-6.0-0.138","ZDER","4","m","rechts","52","","fixation","","","",""
"867","img/90_330.png","74","image-keyboard-response","283","238838","0.0-6.0-1.138","ZDER","4","m","rechts","52","","","object","j","90","true"
"null","<div style=""font-size:60px;"">+</div>","null","html-keyboard-response","284","239149","0.0-6.0-0.139","ZDER","4","m","rechts","52","","fixation","","","",""
"1356","img/90_120.png","74","image-keyboard-response","285","240522","0.0-6.0-1.139","ZDER","4","m","rechts","52","","","object","j","90","true"
"null","<div style=""font-size:60px;"">+</div>","null","html-keyboard-response","286","241024","0.0-6.0-0.140","ZDER","4","m","rechts","52","","fixation","","","",""
"1285","img/120_210.png","74","image-keyboard-response","287","242314","0.0-6.0-1.140","ZDER","4","m","rechts","52","","","object","f","120","false"
"null","<div style=""font-size:60px;"">+</div>","null","html-keyboard-response","288","242681","0.0-6.0-0.141","ZDER","4","m","rechts","52","","fixation","","","",""
"1712","img/L150_180.png","74","image-keyboard-response","289","244407","0.0-6.0-1.141","ZDER","4","m","rechts","52","","","object","j","150","true"
"null","<div style=""font-size:60px;"">+</div>","null","html-keyboard-response","290","244884","0.0-6.0-0.142","ZDER","4","m","rechts","52","","fixation","","","",""
"1411","img/90_150.png","74","image-keyboard-response","291","246308","0.0-6.0-1.142","ZDER","4","m","rechts","52","","","object","j","90","true"
"null","<div style=""font-size:60px;"">+</div>","null","html-keyboard-response","292","246634","0.0-6.0-0.143","ZDER","4","m","rechts","52","","fixation","","","",""
"908","img/60_330.png","74","image-keyboard-response","293","247556","0.0-6.0-1.143","ZDER","4","m","rechts","52","","","object","j","60","true"
"null","<div style=""font-size:60px;"">+</div>","null","html-keyboard-response","294","248010","0.0-6.0-0.144","ZDER","4","m","rechts","52","","fixation","","","",""
"744","img/0_150.png","74","image-keyboard-response","295","248760","0.0-6.0-1.144","ZDER","4","m","rechts","52","","","object","j","0","true"
"null","<div style=""font-size:60px;"">+</div>","null","html-keyboard-response","296","249214","0.0-6.0-0.145","ZDER","4","m","rechts","52","","fixation","","","",""
"1065","img/60_270.png","70","image-keyboard-response","297","250291","0.0-6.0-1.145","ZDER","4","m","rechts","52","","","object","f","60","true"
"null","<div style=""font-size:60px;"">+</div>","null","html-keyboard-response","298","250621","0.0-6.0-0.146","ZDER","4","m","rechts","52","","fixation","","","",""
"1281","img/150_180.png","70","image-keyboard-response","299","251910","0.0-6.0-1.146","ZDER","4","m","rechts","52","","","object","f","150","true"
"null","<div style=""font-size:60px;"">+</div>","null","html-keyboard-response","300","252214","0.0-6.0-0.147","ZDER","4","m","rechts","52","","fixation","","","",""
"1003","img/60_180.png","70","image-keyboard-response","301","253227","0.0-6.0-1.147","ZDER","4","m","rechts","52","","","object","f","60","true"
"null","<div style=""font-size:60px;"">+</div>","null","html-keyboard-response","302","253589","0.0-6.0-0.148","ZDER","4","m","rechts","52","","fixation","","","",""
"1222","img/60_90.png","74","image-keyboard-response","303","254821","0.0-6.0-1.148","ZDER","4","m","rechts","52","","","object","j","60","true"
"null","<div style=""font-size:60px;"">+</div>","null","html-keyboard-response","304","255276","0.0-6.0-0.149","ZDER","4","m","rechts","52","","fixation","","","",""
"851","img/30_180.png","70","image-keyboard-response","305","256140","0.0-6.0-1.149","ZDER","4","m","rechts","52","","","object","f","30","true"
"null","<div style=""font-size:60px;"">+</div>","null","html-keyboard-response","306","256620","0.0-6.0-0.150","ZDER","4","m","rechts","52","","fixation","","","",""
"1035","img/120_150.png","74","image-keyboard-response","307","257669","0.0-6.0-1.150","ZDER","4","m","rechts","52","","","object","j","120","true"
"null","<div style=""font-size:60px;"">+</div>","null","html-keyboard-response","308","258183","0.0-6.0-0.151","ZDER","4","m","rechts","52","","fixation","","","",""
"1252","img/0_210.png","70","image-keyboard-response","309","259448","0.0-6.0-1.151","ZDER","4","m","rechts","52","","","object","f","0","true"
"null","<div style=""font-size:60px;"">+</div>","null","html-keyboard-response","310","259776","0.0-6.0-0.152","ZDER","4","m","rechts","52","","fixation","","","",""
"760","img/0_30.png","74","image-keyboard-response","311","260551","0.0-6.0-1.152","ZDER","4","m","rechts","52","","","object","j","0","true"
"null","<div style=""font-size:60px;"">+</div>","null","html-keyboard-response","312","260880","0.0-6.0-0.153","ZDER","4","m","rechts","52","","fixation","","","",""
"724","img/0_60.png","74","image-keyboard-response","313","261620","0.0-6.0-1.153","ZDER","4","m","rechts","52","","","object","j","0","true"
"null","<div style=""font-size:60px;"">+</div>","null","html-keyboard-response","314","262036","0.0-6.0-0.154","ZDER","4","m","rechts","52","","fixation","","","",""
"1183","img/L120_180.png","74","image-keyboard-response","315","263228","0.0-6.0-1.154","ZDER","4","m","rechts","52","","","object","j","120","true"
"null","<div style=""font-size:60px;"">+</div>","null","html-keyboard-response","316","263684","0.0-6.0-0.155","ZDER","4","m","rechts","52","","fixation","","","",""
"986","img/L60_180.png","74","image-keyboard-response","317","264681","0.0-6.0-1.155","ZDER","4","m","rechts","52","","","object","j","60","true"
"null","<div style=""font-size:60px;"">+</div>","null","html-keyboard-response","318","265105","0.0-6.0-0.156","ZDER","4","m","rechts","52","","fixation","","","",""
"1159","img/150_60.png","70","image-keyboard-response","319","266266","0.0-6.0-1.156","ZDER","4","m","rechts","52","","","object","f","150","true"
"null","<div style=""font-size:60px;"">+</div>","null","html-keyboard-response","320","266573","0.0-6.0-0.157","ZDER","4","m","rechts","52","","fixation","","","",""
"1065","img/0_30.png","74","image-keyboard-response","321","267650","0.0-6.0-1.157","ZDER","4","m","rechts","52","","","object","j","0","true"
"null","<div style=""font-size:60px;"">+</div>","null","html-keyboard-response","322","267964","0.0-6.0-0.158","ZDER","4","m","rechts","52","","fixation","","","",""
"1361","img/L90_180.png","74","image-keyboard-response","323","269336","0.0-6.0-1.158","ZDER","4","m","rechts","52","","","object","j","90","true"
"null","<div style=""font-size:60px;"">+</div>","null","html-keyboard-response","324","269791","0.0-6.0-0.159","ZDER","4","m","rechts","52","","fixation","","","",""
"1537","img/120_210.png","70","image-keyboard-response","325","271339","0.0-6.0-1.159","ZDER","4","m","rechts","52","","","object","f","120","true"
"null","<div style=""font-size:60px;"">+</div>","null","html-keyboard-response","326","271693","0.0-6.0-0.160","ZDER","4","m","rechts","52","","fixation","","","",""
"1161","img/120_30.png","70","image-keyboard-response","327","272868","0.0-6.0-1.160","ZDER","4","m","rechts","52","","","object","f","120","true"
"null","<div style=""font-size:60px;"">+</div>","null","html-keyboard-response","328","273339","0.0-6.0-0.161","ZDER","4","m","rechts","52","","fixation","","","",""
"1050","img/90_150.png","74","image-keyboard-response","329","274399","0.0-6.0-1.161","ZDER","4","m","rechts","52","","","object","j","90","true"
"null","<div style=""font-size:60px;"">+</div>","null","html-keyboard-response","330","274855","0.0-6.0-0.162","ZDER","4","m","rechts","52","","fixation","","","",""
"1018","img/30_300.png","70","image-keyboard-response","331","275884","0.0-6.0-1.162","ZDER","4","m","rechts","52","","","object","f","30","true"
"null","<div style=""font-size:60px;"">+</div>","null","html-keyboard-response","332","276387","0.0-6.0-0.163","ZDER","4","m","rechts","52","","fixation","","","",""
"1050","img/90_210.png","70","image-keyboard-response","333","277447","0.0-6.0-1.163","ZDER","4","m","rechts","52","","","object","f","90","true"
"null","<div style=""font-size:60px;"">+</div>","null","html-keyboard-response","334","277872","0.0-6.0-0.164","ZDER","4","m","rechts","52","","fixation","","","",""
"948","img/60_90.png","74","image-keyboard-response","335","278832","0.0-6.0-1.164","ZDER","4","m","rechts","52","","","object","j","60","true"
"null","<div style=""font-size:60px;"">+</div>","null","html-keyboard-response","336","279247","0.0-6.0-0.165","ZDER","4","m","rechts","52","","fixation","","","",""
"688","img/0_90.png","74","image-keyboard-response","337","279944","0.0-6.0-1.165","ZDER","4","m","rechts","52","","","object","j","0","true"
"null","<div style=""font-size:60px;"">+</div>","null","html-keyboard-response","338","280403","0.0-6.0-0.166","ZDER","4","m","rechts","52","","fixation","","","",""
"991","img/30_90.png","74","image-keyboard-response","339","281409","0.0-6.0-1.166","ZDER","4","m","rechts","52","","","object","j","30","true"
"null","<div style=""font-size:60px;"">+</div>","null","html-keyboard-response","340","281777","0.0-6.0-0.167","ZDER","4","m","rechts","52","","fixation","","","",""
"1225","img/120_330.png","74","image-keyboard-response","341","283018","0.0-6.0-1.167","ZDER","4","m","rechts","52","","","object","j","120","true"
"null","<div style=""font-size:60px;"">+</div>","null","html-keyboard-response","342","283483","0.0-6.0-0.168","ZDER","4","m","rechts","52","","fixation","","","",""
"886","img/90_300.png","74","image-keyboard-response","343","284379","0.0-6.0-1.168","ZDER","4","m","rechts","52","","","object","j","90","true"
"null","<div style=""font-size:60px;"">+</div>","null","html-keyboard-response","344","284842","0.0-6.0-0.169","ZDER","4","m","rechts","52","","fixation","","","",""
"776","img/L30_180.png","74","image-keyboard-response","345","285626","0.0-6.0-1.169","ZDER","4","m","rechts","52","","","object","j","30","true"
"null","<div style=""font-size:60px;"">+</div>","null","html-keyboard-response","346","285936","0.0-6.0-0.170","ZDER","4","m","rechts","52","","fixation","","","",""
"884","img/90_30.png","70","image-keyboard-response","347","286829","0.0-6.0-1.170","ZDER","4","m","rechts","52","","","object","f","90","true"
"null","<div style=""font-size:60px;"">+</div>","null","html-keyboard-response","348","287296","0.0-6.0-0.171","ZDER","4","m","rechts","52","","fixation","","","",""
"836","img/30_270.png","70","image-keyboard-response","349","288145","0.0-6.0-1.171","ZDER","4","m","rechts","52","","","object","f","30","true"
"null","<div style=""font-size:60px;"">+</div>","null","html-keyboard-response","350","288671","0.0-6.0-0.172","ZDER","4","m","rechts","52","","fixation","","","",""
"850","img/150_90.png","70","image-keyboard-response","351","289530","0.0-6.0-1.172","ZDER","4","m","rechts","52","","","object","f","150","true"
"null","<div style=""font-size:60px;"">+</div>","null","html-keyboard-response","352","289903","0.0-6.0-0.173","ZDER","4","m","rechts","52","","fixation","","","",""
"1114","img/L150_180.png","70","image-keyboard-response","353","291028","0.0-6.0-1.173","ZDER","4","m","rechts","52","","","object","j","150","false"
"null","<div style=""font-size:60px;"">+</div>","null","html-keyboard-response","354","291483","0.0-6.0-0.174","ZDER","4","m","rechts","52","","fixation","","","",""
"1211","img/0_210.png","70","image-keyboard-response","355","292703","0.0-6.0-1.174","ZDER","4","m","rechts","52","","","object","f","0","true"
"null","<div style=""font-size:60px;"">+</div>","null","html-keyboard-response","356","293170","0.0-6.0-0.175","ZDER","4","m","rechts","52","","fixation","","","",""
"923","img/L120_180.png","74","image-keyboard-response","357","294097","0.0-6.0-1.175","ZDER","4","m","rechts","52","","","object","j","120","true"
"null","<div style=""font-size:60px;"">+</div>","null","html-keyboard-response","358","294608","0.0-6.0-0.176","ZDER","4","m","rechts","52","","fixation","","","",""
"1277","img/150_270.png","74","image-keyboard-response","359","295898","0.0-6.0-1.176","ZDER","4","m","rechts","52","","","object","j","150","true"
"null","<div style=""font-size:60px;"">+</div>","null","html-keyboard-response","360","296414","0.0-6.0-0.177","ZDER","4","m","rechts","52","","fixation","","","",""
"975","img/60_210.png","74","image-keyboard-response","361","297407","0.0-6.0-1.177","ZDER","4","m","rechts","52","","","object","f","60","false"
"null","<div style=""font-size:60px;"">+</div>","null","html-keyboard-response","362","297937","0.0-6.0-0.178","ZDER","4","m","rechts","52","","fixation","","","",""
"989","img/0_120.png","70","image-keyboard-response","363","298936","0.0-6.0-1.178","ZDER","4","m","rechts","52","","","object","j","0","false"
"null","<div style=""font-size:60px;"">+</div>","null","html-keyboard-response","364","299249","0.0-6.0-0.179","ZDER","4","m","rechts","52","","fixation","","","",""
"1415","img/90_180.png","70","image-keyboard-response","365","300677","0.0-6.0-1.179","ZDER","4","m","rechts","52","","","object","f","90","true"
"null","<div style=""font-size:60px;"">+</div>","null","html-keyboard-response","366","301154","0.0-6.0-0.180","ZDER","4","m","rechts","52","","fixation","","","",""
"1082","img/60_150.png","74","image-keyboard-response","367","302243","0.0-6.0-1.180","ZDER","4","m","rechts","52","","","object","j","60","true"
"null","<div style=""font-size:60px;"">+</div>","null","html-keyboard-response","368","302703","0.0-6.0-0.181","ZDER","4","m","rechts","52","","fixation","","","",""
"1176","img/60_330.png","74","image-keyboard-response","369","303889","0.0-6.0-1.181","ZDER","4","m","rechts","52","","","object","j","60","true"
"null","<div style=""font-size:60px;"">+</div>","null","html-keyboard-response","370","304355","0.0-6.0-0.182","ZDER","4","m","rechts","52","","fixation","","","",""
"971","img/0_330.png","70","image-keyboard-response","371","305336","0.0-6.0-1.182","ZDER","4","m","rechts","52","","","object","f","0","true"
"null","<div style=""font-size:60px;"">+</div>","null","html-keyboard-response","372","305719","0.0-6.0-0.183","ZDER","4","m","rechts","52","","fixation","","","",""
"1041","img/0_240.png","70","image-keyboard-response","373","306778","0.0-6.0-1.183","ZDER","4","m","rechts","52","","","object","f","0","true"
"null","<div style=""font-size:60px;"">+</div>","null","html-keyboard-response","374","307093","0.0-6.0-0.184","ZDER","4","m","rechts","52","","fixation","","","",""
"1374","img/30_60.png","74","image-keyboard-response","375","308475","0.0-6.0-1.184","ZDER","4","m","rechts","52","","","object","j","30","true"
"null","<div style=""font-size:60px;"">+</div>","null","html-keyboard-response","376","308985","0.0-6.0-0.185","ZDER","4","m","rechts","52","","fixation","","","",""
"1086","img/90_240.png","70","image-keyboard-response","377","310084","0.0-6.0-1.185","ZDER","4","m","rechts","52","","","object","f","90","true"
"null","<div style=""font-size:60px;"">+</div>","null","html-keyboard-response","378","310611","0.0-6.0-0.186","ZDER","4","m","rechts","52","","fixation","","","",""
"1139","img/120_180.png","70","image-keyboard-response","379","311760","0.0-6.0-1.186","ZDER","4","m","rechts","52","","","object","f","120","true"
"null","<div style=""font-size:60px;"">+</div>","null","html-keyboard-response","380","312282","0.0-6.0-0.187","ZDER","4","m","rechts","52","","fixation","","","",""
"904","img/150_240.png","74","image-keyboard-response","381","313200","0.0-6.0-1.187","ZDER","4","m","rechts","52","","","object","j","150","true"
"null","<div style=""font-size:60px;"">+</div>","null","html-keyboard-response","382","313673","0.0-6.0-0.188","ZDER","4","m","rechts","52","","fixation","","","",""
"1060","img/60_30.png","70","image-keyboard-response","383","314754","0.0-6.0-1.188","ZDER","4","m","rechts","52","","","object","f","60","true"
"null","<div style=""font-size:60px;"">+</div>","null","html-keyboard-response","384","315110","0.0-6.0-0.189","ZDER","4","m","rechts","52","","fixation","","","",""
"1176","img/90_120.png","74","image-keyboard-response","385","316296","0.0-6.0-1.189","ZDER","4","m","rechts","52","","","object","j","90","true"
"null","<div style=""font-size:60px;"">+</div>","null","html-keyboard-response","386","316798","0.0-6.0-0.190","ZDER","4","m","rechts","52","","fixation","","","",""
"1120","img/60_270.png","70","image-keyboard-response","387","317927","0.0-6.0-1.190","ZDER","4","m","rechts","52","","","object","f","60","true"
"null","<div style=""font-size:60px;"">+</div>","null","html-keyboard-response","388","318439","0.0-6.0-0.191","ZDER","4","m","rechts","52","","fixation","","","",""
"1071","img/120_270.png","74","image-keyboard-response","389","319525","0.0-6.0-1.191","ZDER","4","m","rechts","52","","","object","j","120","true"
"null","<div style=""font-size:60px;"">+</div>","null","html-keyboard-response","390","319987","0.0-6.0-0.192","ZDER","4","m","rechts","52","","fixation","","","",""
"908","img/90_60.png","70","image-keyboard-response","391","320910","0.0-6.0-1.192","ZDER","4","m","rechts","52","","","object","f","90","true"
"null","<div style=""font-size:60px;"">+</div>","null","html-keyboard-response","392","321331","0.0-6.0-0.193","ZDER","4","m","rechts","52","","fixation","","","",""
"935","img/60_180.png","70","image-keyboard-response","393","322279","0.0-6.0-1.193","ZDER","4","m","rechts","52","","","object","f","60","true"
"null","<div style=""font-size:60px;"">+</div>","null","html-keyboard-response","394","322737","0.0-6.0-0.194","ZDER","4","m","rechts","52","","fixation","","","",""
"1251","img/30_240.png","70","image-keyboard-response","395","324001","0.0-6.0-1.194","ZDER","4","m","rechts","52","","","object","f","30","true"
"null","<div style=""font-size:60px;"">+</div>","null","html-keyboard-response","396","324416","0.0-6.0-0.195","ZDER","4","m","rechts","52","","fixation","","","",""
"1204","img/150_120.png","70","image-keyboard-response","397","325633","0.0-6.0-1.195","ZDER","4","m","rechts","52","","","object","f","150","true"
"null","<div style=""font-size:60px;"">+</div>","null","html-keyboard-response","398","326101","0.0-6.0-0.196","ZDER","4","m","rechts","52","","fixation","","","",""
"1065","img/0_60.png","74","image-keyboard-response","399","327171","0.0-6.0-1.196","ZDER","4","m","rechts","52","","","object","j","0","true"
"null","<div style=""font-size:60px;"">+</div>","null","html-keyboard-response","400","327586","0.0-6.0-0.197","ZDER","4","m","rechts","52","","fixation","","","",""
"1194","img/150_180.png","70","image-keyboard-response","401","328794","0.0-6.0-1.197","ZDER","4","m","rechts","52","","","object","f","150","true"
"null","<div style=""font-size:60px;"">+</div>","null","html-keyboard-response","402","329148","0.0-6.0-0.198","ZDER","4","m","rechts","52","","fixation","","","",""
"1127","img/30_120.png","74","image-keyboard-response","403","330279","0.0-6.0-1.198","ZDER","4","m","rechts","52","","","object","j","30","true"
"null","<div style=""font-size:60px;"">+</div>","null","html-keyboard-response","404","330694","0.0-6.0-0.199","ZDER","4","m","rechts","52","","fixation","","","",""
"1237","img/120_90.png","70","image-keyboard-response","405","331944","0.0-6.0-1.199","ZDER","4","m","rechts","52","","","object","f","120","true"
"null","<div style=""font-size:60px;"">+</div>","null","html-keyboard-response","406","332305","0.0-6.0-0.200","ZDER","4","m","rechts","52","","fixation","","","",""
"846","img/0_270.png","70","image-keyboard-response","407","333167","0.0-6.0-1.200","ZDER","4","m","rechts","52","","","object","f","0","true"
"null","<div style=""font-size:60px;"">+</div>","null","html-keyboard-response","408","333524","0.0-6.0-0.201","ZDER","4","m","rechts","52","","fixation","","","",""
"851","img/120_150.png","70","image-keyboard-response","409","334386","0.0-6.0-1.201","ZDER","4","m","rechts","52","","","object","j","120","false"
"null","<div style=""font-size:60px;"">+</div>","null","html-keyboard-response","410","334851","0.0-6.0-0.202","ZDER","4","m","rechts","52","","fixation","","","",""
"805","img/0_150.png","74","image-keyboard-response","411","335668","0.0-6.0-1.202","ZDER","4","m","rechts","52","","","object","j","0","true"
"null","<div style=""font-size:60px;"">+</div>","null","html-keyboard-response","412","336033","0.0-6.0-0.203","ZDER","4","m","rechts","52","","fixation","","","",""
"791","img/0_300.png","70","image-keyboard-response","413","336837","0.0-6.0-1.203","ZDER","4","m","rechts","52","","","object","f","0","true"
"null","<div style=""font-size:60px;"">+</div>","null","html-keyboard-response","414","337361","0.0-6.0-0.204","ZDER","4","m","rechts","52","","fixation","","","",""
"892","img/L60_180.png","74","image-keyboard-response","415","338266","0.0-6.0-1.204","ZDER","4","m","rechts","52","","","object","j","60","true"
"null","<div style=""font-size:60px;"">+</div>","null","html-keyboard-response","416","338790","0.0-6.0-0.205","ZDER","4","m","rechts","52","","fixation","","","",""
"1005","img/90_330.png","74","image-keyboard-response","417","339808","0.0-6.0-1.205","ZDER","4","m","rechts","52","","","object","j","90","true"
"null","<div style=""font-size:60px;"">+</div>","null","html-keyboard-response","418","340119","0.0-6.0-0.206","ZDER","4","m","rechts","52","","fixation","","","",""
"862","img/150_300.png","74","image-keyboard-response","419","340989","0.0-6.0-1.206","ZDER","4","m","rechts","52","","","object","j","150","true"
"null","<div style=""font-size:60px;"">+</div>","null","html-keyboard-response","420","341447","0.0-6.0-0.207","ZDER","4","m","rechts","52","","fixation","","","",""
"1165","img/30_180.png","70","image-keyboard-response","421","342621","0.0-6.0-1.207","ZDER","4","m","rechts","52","","","object","f","30","true"
"18918","<p>Du hast in 91% der Versuche korrekt entschieden.</p><p>Deine durchschnittliche Reaktionszeit war  1096ms.</p><p>Dr&uuml;cke eine beliebige Taste, um die Session zu beenden. Vielen Dank!</p>","32","html-keyboard-response","422","361544","0.0-7.0","ZDER","4","m","rechts","52","","","","","",""
