"rt","stimulus","key_press","trial_type","trial_index","time_elapsed","internal_node_id","subject","session","sex","handedness","age","responses","test_part","condition","correct_response","angle","correct"
"20983","<p>Mental Rotation Experiment.</p> <p>Dr&uuml;cke eine beliebige Taste, um anzufangen.</p>","13","html-keyboard-response","0","21012","0.0-0.0","ZDER","2","m","rechts","52","","","","","",""
"5345","","","survey-text","1","26360","0.0-1.0","ZDER","2","m","rechts","52","{""Q0"":""ZDER""}","","","","",""
"2390","","","survey-text","2","28752","0.0-2.0","ZDER","2","m","rechts","52","{""Q0"":""2""}","","","","",""
"2381","","","survey-multi-choice","3","31138","0.0-3.0","ZDER","2","m","rechts","52","{""Q0"":""m"",""Q1"":""rechts""}","","","","",""
"4635","","","survey-text","4","35774","0.0-4.0","ZDER","2","m","rechts","52","{""Q0"":""52""}","","","","",""
"14204","<p>Stell dir vor, dass du vor einem runden Tisch stehst, auf dem sich ein blauer Ball am Tischrand befindet. Entlang des Tischrands ist jeweils ein verschieden langer Pfeil. Nun bleibst du an deinem Platz vor dem Tisch und rotierst den Tisch entlang des Pfeils (gleiche Richtung und Länge). </p> <img src='img/30_180.png'></img> <br><p> Nachdem du diese (vorgestellte) Rotation durchgef&uuml;hrt hast, schau in Richtung der Tischmitte, und entscheide dann, ob der Ball links oder rechts von dir liegt.</p> <p>Dr&uuml;cke die <strong>'f'</strong>-Taste f&uuml;r links, die <strong>'j'</strong>-Taste f&uuml;r rechts.</p><br><p> Das Bild wird jeweils 1 Sekunde lang pr&auml;sentiert. Du hast 3 Sekunden Zeit eine Entscheidung zu treffen.</p>","70","html-keyboard-response","5","49987","0.0-5.0","ZDER","2","m","rechts","52","","","","","",""
"null","<div style=""font-size:60px;"">+</div>","null","html-keyboard-response","6","51311","0.0-6.0-0.0","ZDER","2","m","rechts","52","","fixation","","","",""
"1646","img/120_150.png","74","image-keyboard-response","7","52979","0.0-6.0-1.0","ZDER","2","m","rechts","52","","","object","j","120","true"
"null","<div style=""font-size:60px;"">+</div>","null","html-keyboard-response","8","53350","0.0-6.0-0.1","ZDER","2","m","rechts","52","","fixation","","","",""
"1780","img/90_330.png","74","image-keyboard-response","9","55147","0.0-6.0-1.1","ZDER","2","m","rechts","52","","","object","j","90","true"
"null","<div style=""font-size:60px;"">+</div>","null","html-keyboard-response","10","55597","0.0-6.0-0.2","ZDER","2","m","rechts","52","","fixation","","","",""
"1292","img/60_270.png","70","image-keyboard-response","11","56907","0.0-6.0-1.2","ZDER","2","m","rechts","52","","","object","f","60","true"
"null","<div style=""font-size:60px;"">+</div>","null","html-keyboard-response","12","57363","0.0-6.0-0.3","ZDER","2","m","rechts","52","","fixation","","","",""
"1115","img/30_120.png","74","image-keyboard-response","13","58496","0.0-6.0-1.3","ZDER","2","m","rechts","52","","","object","j","30","true"
"null","<div style=""font-size:60px;"">+</div>","null","html-keyboard-response","14","58848","0.0-6.0-0.4","ZDER","2","m","rechts","52","","fixation","","","",""
"1459","img/90_240.png","70","image-keyboard-response","15","60319","0.0-6.0-1.4","ZDER","2","m","rechts","52","","","object","f","90","true"
"null","<div style=""font-size:60px;"">+</div>","null","html-keyboard-response","16","60723","0.0-6.0-0.5","ZDER","2","m","rechts","52","","fixation","","","",""
"2843","img/90_30.png","70","image-keyboard-response","17","63585","0.0-6.0-1.5","ZDER","2","m","rechts","52","","","object","f","90","true"
"null","<div style=""font-size:60px;"">+</div>","null","html-keyboard-response","18","64054","0.0-6.0-0.6","ZDER","2","m","rechts","52","","fixation","","","",""
"1311","img/120_330.png","74","image-keyboard-response","19","65381","0.0-6.0-1.6","ZDER","2","m","rechts","52","","","object","j","120","true"
"null","<div style=""font-size:60px;"">+</div>","null","html-keyboard-response","20","65884","0.0-6.0-0.7","ZDER","2","m","rechts","52","","fixation","","","",""
"1503","img/L150_180.png","74","image-keyboard-response","21","67394","0.0-6.0-1.7","ZDER","2","m","rechts","52","","","object","j","150","true"
"null","<div style=""font-size:60px;"">+</div>","null","html-keyboard-response","22","67714","0.0-6.0-0.8","ZDER","2","m","rechts","52","","fixation","","","",""
"1272","img/L60_180.png","74","image-keyboard-response","23","69003","0.0-6.0-1.8","ZDER","2","m","rechts","52","","","object","j","60","true"
"null","<div style=""font-size:60px;"">+</div>","null","html-keyboard-response","24","69323","0.0-6.0-0.9","ZDER","2","m","rechts","52","","fixation","","","",""
"1383","img/120_270.png","70","image-keyboard-response","25","70723","0.0-6.0-1.9","ZDER","2","m","rechts","52","","","object","j","120","false"
"null","<div style=""font-size:60px;"">+</div>","null","html-keyboard-response","26","71197","0.0-6.0-0.10","ZDER","2","m","rechts","52","","fixation","","","",""
"1886","img/90_60.png","70","image-keyboard-response","27","73099","0.0-6.0-1.10","ZDER","2","m","rechts","52","","","object","f","90","true"
"null","<div style=""font-size:60px;"">+</div>","null","html-keyboard-response","28","73558","0.0-6.0-0.11","ZDER","2","m","rechts","52","","fixation","","","",""
"1120","img/L90_180.png","74","image-keyboard-response","29","74696","0.0-6.0-1.11","ZDER","2","m","rechts","52","","","object","j","90","true"
"null","<div style=""font-size:60px;"">+</div>","null","html-keyboard-response","30","75199","0.0-6.0-0.12","ZDER","2","m","rechts","52","","fixation","","","",""
"1268","img/150_180.png","70","image-keyboard-response","31","76484","0.0-6.0-1.12","ZDER","2","m","rechts","52","","","object","f","150","true"
"null","<div style=""font-size:60px;"">+</div>","null","html-keyboard-response","32","76948","0.0-6.0-0.13","ZDER","2","m","rechts","52","","fixation","","","",""
"1431","img/L30_180.png","74","image-keyboard-response","33","78384","0.0-6.0-1.13","ZDER","2","m","rechts","52","","","object","j","30","true"
"null","<div style=""font-size:60px;"">+</div>","null","html-keyboard-response","34","78853","0.0-6.0-0.14","ZDER","2","m","rechts","52","","fixation","","","",""
"2441","img/60_330.png","74","image-keyboard-response","35","81315","0.0-6.0-1.14","ZDER","2","m","rechts","52","","","object","j","60","true"
"null","<div style=""font-size:60px;"">+</div>","null","html-keyboard-response","36","81670","0.0-6.0-0.15","ZDER","2","m","rechts","52","","fixation","","","",""
"1399","img/60_30.png","70","image-keyboard-response","37","83087","0.0-6.0-1.15","ZDER","2","m","rechts","52","","","object","f","60","true"
"null","<div style=""font-size:60px;"">+</div>","null","html-keyboard-response","38","83451","0.0-6.0-0.16","ZDER","2","m","rechts","52","","fixation","","","",""
"1042","img/0_30.png","74","image-keyboard-response","39","84518","0.0-6.0-1.16","ZDER","2","m","rechts","52","","","object","j","0","true"
"null","<div style=""font-size:60px;"">+</div>","null","html-keyboard-response","40","84935","0.0-6.0-0.17","ZDER","2","m","rechts","52","","fixation","","","",""
"1229","img/60_210.png","70","image-keyboard-response","41","86171","0.0-6.0-1.17","ZDER","2","m","rechts","52","","","object","f","60","true"
"null","<div style=""font-size:60px;"">+</div>","null","html-keyboard-response","42","86497","0.0-6.0-0.18","ZDER","2","m","rechts","52","","fixation","","","",""
"1320","img/120_210.png","70","image-keyboard-response","43","87835","0.0-6.0-1.18","ZDER","2","m","rechts","52","","","object","f","120","true"
"null","<div style=""font-size:60px;"">+</div>","null","html-keyboard-response","44","88200","0.0-6.0-0.19","ZDER","2","m","rechts","52","","fixation","","","",""
"1538","img/90_120.png","74","image-keyboard-response","45","89758","0.0-6.0-1.19","ZDER","2","m","rechts","52","","","object","j","90","true"
"null","<div style=""font-size:60px;"">+</div>","null","html-keyboard-response","46","90125","0.0-6.0-0.20","ZDER","2","m","rechts","52","","fixation","","","",""
"1013","img/0_60.png","74","image-keyboard-response","47","91158","0.0-6.0-1.20","ZDER","2","m","rechts","52","","","object","j","0","true"
"null","<div style=""font-size:60px;"">+</div>","null","html-keyboard-response","48","91562","0.0-6.0-0.21","ZDER","2","m","rechts","52","","fixation","","","",""
"1095","img/0_240.png","70","image-keyboard-response","49","92674","0.0-6.0-1.21","ZDER","2","m","rechts","52","","","object","f","0","true"
"null","<div style=""font-size:60px;"">+</div>","null","html-keyboard-response","50","93004","0.0-6.0-0.22","ZDER","2","m","rechts","52","","fixation","","","",""
"1420","img/90_300.png","74","image-keyboard-response","51","94428","0.0-6.0-1.22","ZDER","2","m","rechts","52","","","object","j","90","true"
"null","<div style=""font-size:60px;"">+</div>","null","html-keyboard-response","52","94940","0.0-6.0-0.23","ZDER","2","m","rechts","52","","fixation","","","",""
"1427","img/150_240.png","74","image-keyboard-response","53","96376","0.0-6.0-1.23","ZDER","2","m","rechts","52","","","object","j","150","true"
"null","<div style=""font-size:60px;"">+</div>","null","html-keyboard-response","54","96784","0.0-6.0-0.24","ZDER","2","m","rechts","52","","fixation","","","",""
"1553","img/0_270.png","70","image-keyboard-response","55","98354","0.0-6.0-1.24","ZDER","2","m","rechts","52","","","object","f","0","true"
"null","<div style=""font-size:60px;"">+</div>","null","html-keyboard-response","56","98723","0.0-6.0-0.25","ZDER","2","m","rechts","52","","fixation","","","",""
"1437","img/90_150.png","74","image-keyboard-response","57","100177","0.0-6.0-1.25","ZDER","2","m","rechts","52","","","object","j","90","true"
"null","<div style=""font-size:60px;"">+</div>","null","html-keyboard-response","58","100553","0.0-6.0-0.26","ZDER","2","m","rechts","52","","fixation","","","",""
"1508","img/150_270.png","74","image-keyboard-response","59","102078","0.0-6.0-1.26","ZDER","2","m","rechts","52","","","object","j","150","true"
"null","<div style=""font-size:60px;"">+</div>","null","html-keyboard-response","60","102458","0.0-6.0-0.27","ZDER","2","m","rechts","52","","fixation","","","",""
"1502","img/0_90.png","74","image-keyboard-response","61","103978","0.0-6.0-1.27","ZDER","2","m","rechts","52","","","object","j","0","true"
"null","<div style=""font-size:60px;"">+</div>","null","html-keyboard-response","62","104288","0.0-6.0-0.28","ZDER","2","m","rechts","52","","fixation","","","",""
"1024","img/0_120.png","74","image-keyboard-response","63","105329","0.0-6.0-1.28","ZDER","2","m","rechts","52","","","object","j","0","true"
"null","<div style=""font-size:60px;"">+</div>","null","html-keyboard-response","64","105695","0.0-6.0-0.29","ZDER","2","m","rechts","52","","fixation","","","",""
"1214","img/90_180.png","70","image-keyboard-response","65","106926","0.0-6.0-1.29","ZDER","2","m","rechts","52","","","object","f","90","true"
"null","<div style=""font-size:60px;"">+</div>","null","html-keyboard-response","66","107305","0.0-6.0-0.30","ZDER","2","m","rechts","52","","fixation","","","",""
"2546","img/120_30.png","70","image-keyboard-response","67","109869","0.0-6.0-1.30","ZDER","2","m","rechts","52","","","object","f","120","true"
"null","<div style=""font-size:60px;"">+</div>","null","html-keyboard-response","68","110379","0.0-6.0-0.31","ZDER","2","m","rechts","52","","fixation","","","",""
"1121","img/0_300.png","70","image-keyboard-response","69","111506","0.0-6.0-1.31","ZDER","2","m","rechts","52","","","object","f","0","true"
"null","<div style=""font-size:60px;"">+</div>","null","html-keyboard-response","70","111861","0.0-6.0-0.32","ZDER","2","m","rechts","52","","fixation","","","",""
"2371","img/150_90.png","70","image-keyboard-response","71","114251","0.0-6.0-1.32","ZDER","2","m","rechts","52","","","object","f","150","true"
"null","<div style=""font-size:60px;"">+</div>","null","html-keyboard-response","72","114558","0.0-6.0-0.33","ZDER","2","m","rechts","52","","fixation","","","",""
"1801","img/30_300.png","70","image-keyboard-response","73","116377","0.0-6.0-1.33","ZDER","2","m","rechts","52","","","object","f","30","true"
"null","<div style=""font-size:60px;"">+</div>","null","html-keyboard-response","74","116809","0.0-6.0-0.34","ZDER","2","m","rechts","52","","fixation","","","",""
"1959","img/30_60.png","74","image-keyboard-response","75","118784","0.0-6.0-1.34","ZDER","2","m","rechts","52","","","object","j","30","true"
"null","<div style=""font-size:60px;"">+</div>","null","html-keyboard-response","76","119206","0.0-6.0-0.35","ZDER","2","m","rechts","52","","fixation","","","",""
"1902","img/L120_180.png","74","image-keyboard-response","77","121125","0.0-6.0-1.35","ZDER","2","m","rechts","52","","","object","j","120","true"
"null","<div style=""font-size:60px;"">+</div>","null","html-keyboard-response","78","121580","0.0-6.0-0.36","ZDER","2","m","rechts","52","","fixation","","","",""
"1236","img/30_90.png","74","image-keyboard-response","79","122835","0.0-6.0-1.36","ZDER","2","m","rechts","52","","","object","j","30","true"
"null","<div style=""font-size:60px;"">+</div>","null","html-keyboard-response","80","123346","0.0-6.0-0.37","ZDER","2","m","rechts","52","","fixation","","","",""
"1211","img/60_90.png","74","image-keyboard-response","81","124579","0.0-6.0-1.37","ZDER","2","m","rechts","52","","","object","j","60","true"
"null","<div style=""font-size:60px;"">+</div>","null","html-keyboard-response","82","124894","0.0-6.0-0.38","ZDER","2","m","rechts","52","","fixation","","","",""
"1274","img/30_240.png","70","image-keyboard-response","83","126187","0.0-6.0-1.38","ZDER","2","m","rechts","52","","","object","f","30","true"
"null","<div style=""font-size:60px;"">+</div>","null","html-keyboard-response","84","126644","0.0-6.0-0.39","ZDER","2","m","rechts","52","","fixation","","","",""
"1755","img/150_120.png","70","image-keyboard-response","85","128415","0.0-6.0-1.39","ZDER","2","m","rechts","52","","","object","f","150","true"
"null","<div style=""font-size:60px;"">+</div>","null","html-keyboard-response","86","128877","0.0-6.0-0.40","ZDER","2","m","rechts","52","","fixation","","","",""
"1534","img/60_150.png","74","image-keyboard-response","87","130428","0.0-6.0-1.40","ZDER","2","m","rechts","52","","","object","j","60","true"
"null","<div style=""font-size:60px;"">+</div>","null","html-keyboard-response","88","130895","0.0-6.0-0.41","ZDER","2","m","rechts","52","","fixation","","","",""
"1190","img/60_180.png","70","image-keyboard-response","89","132104","0.0-6.0-1.41","ZDER","2","m","rechts","52","","","object","f","60","true"
"null","<div style=""font-size:60px;"">+</div>","null","html-keyboard-response","90","132472","0.0-6.0-0.42","ZDER","2","m","rechts","52","","fixation","","","",""
"1886","img/150_60.png","70","image-keyboard-response","91","134377","0.0-6.0-1.42","ZDER","2","m","rechts","52","","","object","f","150","true"
"null","<div style=""font-size:60px;"">+</div>","null","html-keyboard-response","92","134692","0.0-6.0-0.43","ZDER","2","m","rechts","52","","fixation","","","",""
"1417","img/30_180.png","70","image-keyboard-response","93","136121","0.0-6.0-1.43","ZDER","2","m","rechts","52","","","object","f","30","true"
"null","<div style=""font-size:60px;"">+</div>","null","html-keyboard-response","94","136487","0.0-6.0-0.44","ZDER","2","m","rechts","52","","fixation","","","",""
"1125","img/0_330.png","70","image-keyboard-response","95","137630","0.0-6.0-1.44","ZDER","2","m","rechts","52","","","object","f","0","true"
"null","<div style=""font-size:60px;"">+</div>","null","html-keyboard-response","96","138047","0.0-6.0-0.45","ZDER","2","m","rechts","52","","fixation","","","",""
"1419","img/120_180.png","70","image-keyboard-response","97","139474","0.0-6.0-1.45","ZDER","2","m","rechts","52","","","object","f","120","true"
"null","<div style=""font-size:60px;"">+</div>","null","html-keyboard-response","98","139803","0.0-6.0-0.46","ZDER","2","m","rechts","52","","fixation","","","",""
"1038","img/0_210.png","70","image-keyboard-response","99","140857","0.0-6.0-1.46","ZDER","2","m","rechts","52","","","object","f","0","true"
"null","<div style=""font-size:60px;"">+</div>","null","html-keyboard-response","100","141225","0.0-6.0-0.47","ZDER","2","m","rechts","52","","fixation","","","",""
"1794","img/30_270.png","70","image-keyboard-response","101","143039","0.0-6.0-1.47","ZDER","2","m","rechts","52","","","object","f","30","true"
"null","<div style=""font-size:60px;"">+</div>","null","html-keyboard-response","102","143567","0.0-6.0-0.48","ZDER","2","m","rechts","52","","fixation","","","",""
"2707","img/120_90.png","70","image-keyboard-response","103","146295","0.0-6.0-1.48","ZDER","2","m","rechts","52","","","object","f","120","true"
"null","<div style=""font-size:60px;"">+</div>","null","html-keyboard-response","104","146761","0.0-6.0-0.49","ZDER","2","m","rechts","52","","fixation","","","",""
"896","img/0_150.png","74","image-keyboard-response","105","147675","0.0-6.0-1.49","ZDER","2","m","rechts","52","","","object","j","0","true"
"null","<div style=""font-size:60px;"">+</div>","null","html-keyboard-response","106","148104","0.0-6.0-0.50","ZDER","2","m","rechts","52","","fixation","","","",""
"1297","img/150_300.png","74","image-keyboard-response","107","149419","0.0-6.0-1.50","ZDER","2","m","rechts","52","","","object","j","150","true"
"null","<div style=""font-size:60px;"">+</div>","null","html-keyboard-response","108","149822","0.0-6.0-0.51","ZDER","2","m","rechts","52","","fixation","","","",""
"1389","img/90_210.png","70","image-keyboard-response","109","151229","0.0-6.0-1.51","ZDER","2","m","rechts","52","","","object","f","90","true"
"null","<div style=""font-size:60px;"">+</div>","null","html-keyboard-response","110","151605","0.0-6.0-0.52","ZDER","2","m","rechts","52","","fixation","","","",""
"1688","img/90_210.png","70","image-keyboard-response","111","153301","0.0-6.0-1.52","ZDER","2","m","rechts","52","","","object","f","90","true"
"null","<div style=""font-size:60px;"">+</div>","null","html-keyboard-response","112","153683","0.0-6.0-0.53","ZDER","2","m","rechts","52","","fixation","","","",""
"1655","img/150_120.png","70","image-keyboard-response","113","155349","0.0-6.0-1.53","ZDER","2","m","rechts","52","","","object","f","150","true"
"null","<div style=""font-size:60px;"">+</div>","null","html-keyboard-response","114","155809","0.0-6.0-0.54","ZDER","2","m","rechts","52","","fixation","","","",""
"1532","img/150_270.png","74","image-keyboard-response","115","157350","0.0-6.0-1.54","ZDER","2","m","rechts","52","","","object","j","150","true"
"null","<div style=""font-size:60px;"">+</div>","null","html-keyboard-response","116","157809","0.0-6.0-0.55","ZDER","2","m","rechts","52","","fixation","","","",""
"949","img/0_240.png","70","image-keyboard-response","117","158767","0.0-6.0-1.55","ZDER","2","m","rechts","52","","","object","f","0","true"
"null","<div style=""font-size:60px;"">+</div>","null","html-keyboard-response","118","159121","0.0-6.0-0.56","ZDER","2","m","rechts","52","","fixation","","","",""
"2079","img/90_240.png","70","image-keyboard-response","119","161213","0.0-6.0-1.56","ZDER","2","m","rechts","52","","","object","f","90","true"
"null","<div style=""font-size:60px;"">+</div>","null","html-keyboard-response","120","161571","0.0-6.0-0.57","ZDER","2","m","rechts","52","","fixation","","","",""
"1766","img/30_60.png","74","image-keyboard-response","121","163346","0.0-6.0-1.57","ZDER","2","m","rechts","52","","","object","j","30","true"
"null","<div style=""font-size:60px;"">+</div>","null","html-keyboard-response","122","163869","0.0-6.0-0.58","ZDER","2","m","rechts","52","","fixation","","","",""
"1625","img/L30_180.png","74","image-keyboard-response","123","165506","0.0-6.0-1.58","ZDER","2","m","rechts","52","","","object","j","30","true"
"null","<div style=""font-size:60px;"">+</div>","null","html-keyboard-response","124","166029","0.0-6.0-0.59","ZDER","2","m","rechts","52","","fixation","","","",""
"1015","img/30_240.png","70","image-keyboard-response","125","167046","0.0-6.0-1.59","ZDER","2","m","rechts","52","","","object","f","30","true"
"null","<div style=""font-size:60px;"">+</div>","null","html-keyboard-response","126","167558","0.0-6.0-0.60","ZDER","2","m","rechts","52","","fixation","","","",""
"922","img/0_330.png","70","image-keyboard-response","127","168489","0.0-6.0-1.60","ZDER","2","m","rechts","52","","","object","f","0","true"
"null","<div style=""font-size:60px;"">+</div>","null","html-keyboard-response","128","168995","0.0-6.0-0.61","ZDER","2","m","rechts","52","","fixation","","","",""
"1805","img/60_270.png","70","image-keyboard-response","129","170805","0.0-6.0-1.61","ZDER","2","m","rechts","52","","","object","f","60","true"
"null","<div style=""font-size:60px;"">+</div>","null","html-keyboard-response","130","171124","0.0-6.0-0.62","ZDER","2","m","rechts","52","","fixation","","","",""
"1278","img/60_180.png","70","image-keyboard-response","131","172412","0.0-6.0-1.62","ZDER","2","m","rechts","52","","","object","f","60","true"
"null","<div style=""font-size:60px;"">+</div>","null","html-keyboard-response","132","172826","0.0-6.0-0.63","ZDER","2","m","rechts","52","","fixation","","","",""
"1774","img/30_270.png","70","image-keyboard-response","133","174609","0.0-6.0-1.63","ZDER","2","m","rechts","52","","","object","f","30","true"
"null","<div style=""font-size:60px;"">+</div>","null","html-keyboard-response","134","174937","0.0-6.0-0.64","ZDER","2","m","rechts","52","","fixation","","","",""
"1359","img/120_210.png","70","image-keyboard-response","135","176307","0.0-6.0-1.64","ZDER","2","m","rechts","52","","","object","f","120","true"
"null","<div style=""font-size:60px;"">+</div>","null","html-keyboard-response","136","176624","0.0-6.0-0.65","ZDER","2","m","rechts","52","","fixation","","","",""
"1370","img/60_150.png","74","image-keyboard-response","137","178004","0.0-6.0-1.65","ZDER","2","m","rechts","52","","","object","j","60","true"
"null","<div style=""font-size:60px;"">+</div>","null","html-keyboard-response","138","178373","0.0-6.0-0.66","ZDER","2","m","rechts","52","","fixation","","","",""
"1487","img/90_30.png","70","image-keyboard-response","139","179873","0.0-6.0-1.66","ZDER","2","m","rechts","52","","","object","f","90","true"
"null","<div style=""font-size:60px;"">+</div>","null","html-keyboard-response","140","180186","0.0-6.0-0.67","ZDER","2","m","rechts","52","","fixation","","","",""
"1625","img/60_90.png","74","image-keyboard-response","141","181819","0.0-6.0-1.67","ZDER","2","m","rechts","52","","","object","j","60","true"
"null","<div style=""font-size:60px;"">+</div>","null","html-keyboard-response","142","182247","0.0-6.0-0.68","ZDER","2","m","rechts","52","","fixation","","","",""
"1700","img/150_60.png","70","image-keyboard-response","143","183957","0.0-6.0-1.68","ZDER","2","m","rechts","52","","","object","f","150","true"
"null","<div style=""font-size:60px;"">+</div>","null","html-keyboard-response","144","184422","0.0-6.0-0.69","ZDER","2","m","rechts","52","","fixation","","","",""
"2462","img/120_270.png","74","image-keyboard-response","145","186897","0.0-6.0-1.69","ZDER","2","m","rechts","52","","","object","j","120","true"
"null","<div style=""font-size:60px;"">+</div>","null","html-keyboard-response","146","187254","0.0-6.0-0.70","ZDER","2","m","rechts","52","","fixation","","","",""
"1336","img/90_300.png","74","image-keyboard-response","147","188602","0.0-6.0-1.70","ZDER","2","m","rechts","52","","","object","j","90","true"
"null","<div style=""font-size:60px;"">+</div>","null","html-keyboard-response","148","189112","0.0-6.0-0.71","ZDER","2","m","rechts","52","","fixation","","","",""
"909","img/0_210.png","70","image-keyboard-response","149","190031","0.0-6.0-1.71","ZDER","2","m","rechts","52","","","object","f","0","true"
"null","<div style=""font-size:60px;"">+</div>","null","html-keyboard-response","150","190502","0.0-6.0-0.72","ZDER","2","m","rechts","52","","fixation","","","",""
"1164","img/150_300.png","74","image-keyboard-response","151","191675","0.0-6.0-1.72","ZDER","2","m","rechts","52","","","object","j","150","true"
"null","<div style=""font-size:60px;"">+</div>","null","html-keyboard-response","152","192050","0.0-6.0-0.73","ZDER","2","m","rechts","52","","fixation","","","",""
"1454","img/120_30.png","70","image-keyboard-response","153","193507","0.0-6.0-1.73","ZDER","2","m","rechts","52","","","object","f","120","true"
"null","<div style=""font-size:60px;"">+</div>","null","html-keyboard-response","154","193925","0.0-6.0-0.74","ZDER","2","m","rechts","52","","fixation","","","",""
"1141","img/60_210.png","70","image-keyboard-response","155","195081","0.0-6.0-1.74","ZDER","2","m","rechts","52","","","object","f","60","true"
"null","<div style=""font-size:60px;"">+</div>","null","html-keyboard-response","156","195411","0.0-6.0-0.75","ZDER","2","m","rechts","52","","fixation","","","",""
"1437","img/90_60.png","70","image-keyboard-response","157","196861","0.0-6.0-1.75","ZDER","2","m","rechts","52","","","object","f","90","true"
"null","<div style=""font-size:60px;"">+</div>","null","html-keyboard-response","158","197380","0.0-6.0-0.76","ZDER","2","m","rechts","52","","fixation","","","",""
"1654","img/30_300.png","70","image-keyboard-response","159","199044","0.0-6.0-1.76","ZDER","2","m","rechts","52","","","object","f","30","true"
"null","<div style=""font-size:60px;"">+</div>","null","html-keyboard-response","160","199363","0.0-6.0-0.77","ZDER","2","m","rechts","52","","fixation","","","",""
"1411","img/0_90.png","74","image-keyboard-response","161","200787","0.0-6.0-1.77","ZDER","2","m","rechts","52","","","object","j","0","true"
"null","<div style=""font-size:60px;"">+</div>","null","html-keyboard-response","162","201301","0.0-6.0-0.78","ZDER","2","m","rechts","52","","fixation","","","",""
"925","img/0_60.png","74","image-keyboard-response","163","202238","0.0-6.0-1.78","ZDER","2","m","rechts","52","","","object","j","0","true"
"null","<div style=""font-size:60px;"">+</div>","null","html-keyboard-response","164","202706","0.0-6.0-0.79","ZDER","2","m","rechts","52","","fixation","","","",""
"1376","img/L60_180.png","74","image-keyboard-response","165","204095","0.0-6.0-1.79","ZDER","2","m","rechts","52","","","object","j","60","true"
"null","<div style=""font-size:60px;"">+</div>","null","html-keyboard-response","166","204553","0.0-6.0-0.80","ZDER","2","m","rechts","52","","fixation","","","",""
"1360","img/30_120.png","74","image-keyboard-response","167","205929","0.0-6.0-1.80","ZDER","2","m","rechts","52","","","object","j","30","true"
"null","<div style=""font-size:60px;"">+</div>","null","html-keyboard-response","168","206236","0.0-6.0-0.81","ZDER","2","m","rechts","52","","fixation","","","",""
"1012","img/0_270.png","70","image-keyboard-response","169","207255","0.0-6.0-1.81","ZDER","2","m","rechts","52","","","object","f","0","true"
"null","<div style=""font-size:60px;"">+</div>","null","html-keyboard-response","170","207580","0.0-6.0-0.82","ZDER","2","m","rechts","52","","fixation","","","",""
"1869","img/150_240.png","74","image-keyboard-response","171","209462","0.0-6.0-1.82","ZDER","2","m","rechts","52","","","object","j","150","true"
"null","<div style=""font-size:60px;"">+</div>","null","html-keyboard-response","172","209878","0.0-6.0-0.83","ZDER","2","m","rechts","52","","fixation","","","",""
"1454","img/30_90.png","74","image-keyboard-response","173","211341","0.0-6.0-1.83","ZDER","2","m","rechts","52","","","object","j","30","true"
"null","<div style=""font-size:60px;"">+</div>","null","html-keyboard-response","174","211767","0.0-6.0-0.84","ZDER","2","m","rechts","52","","fixation","","","",""
"1112","img/0_30.png","74","image-keyboard-response","175","212894","0.0-6.0-1.84","ZDER","2","m","rechts","52","","","object","j","0","true"
"null","<div style=""font-size:60px;"">+</div>","null","html-keyboard-response","176","213251","0.0-6.0-0.85","ZDER","2","m","rechts","52","","fixation","","","",""
"1357","img/120_330.png","74","image-keyboard-response","177","214624","0.0-6.0-1.85","ZDER","2","m","rechts","52","","","object","j","120","true"
"null","<div style=""font-size:60px;"">+</div>","null","html-keyboard-response","178","215128","0.0-6.0-0.86","ZDER","2","m","rechts","52","","fixation","","","",""
"1358","img/L90_180.png","74","image-keyboard-response","179","216493","0.0-6.0-1.86","ZDER","2","m","rechts","52","","","object","j","90","true"
"null","<div style=""font-size:60px;"">+</div>","null","html-keyboard-response","180","217004","0.0-6.0-0.87","ZDER","2","m","rechts","52","","fixation","","","",""
"881","img/0_120.png","74","image-keyboard-response","181","217900","0.0-6.0-1.87","ZDER","2","m","rechts","52","","","object","j","0","true"
"null","<div style=""font-size:60px;"">+</div>","null","html-keyboard-response","182","218206","0.0-6.0-0.88","ZDER","2","m","rechts","52","","fixation","","","",""
"1240","img/L120_180.png","74","image-keyboard-response","183","219451","0.0-6.0-1.88","ZDER","2","m","rechts","52","","","object","j","120","true"
"null","<div style=""font-size:60px;"">+</div>","null","html-keyboard-response","184","219926","0.0-6.0-0.89","ZDER","2","m","rechts","52","","fixation","","","",""
"996","img/0_300.png","70","image-keyboard-response","185","220935","0.0-6.0-1.89","ZDER","2","m","rechts","52","","","object","f","0","true"
"null","<div style=""font-size:60px;"">+</div>","null","html-keyboard-response","186","221458","0.0-6.0-0.90","ZDER","2","m","rechts","52","","fixation","","","",""
"909","img/0_150.png","74","image-keyboard-response","187","222376","0.0-6.0-1.90","ZDER","2","m","rechts","52","","","object","j","0","true"
"null","<div style=""font-size:60px;"">+</div>","null","html-keyboard-response","188","222786","0.0-6.0-0.91","ZDER","2","m","rechts","52","","fixation","","","",""
"1301","img/90_150.png","74","image-keyboard-response","189","224098","0.0-6.0-1.91","ZDER","2","m","rechts","52","","","object","j","90","true"
"null","<div style=""font-size:60px;"">+</div>","null","html-keyboard-response","190","224613","0.0-6.0-0.92","ZDER","2","m","rechts","52","","fixation","","","",""
"931","img/L150_180.png","74","image-keyboard-response","191","225559","0.0-6.0-1.92","ZDER","2","m","rechts","52","","","object","j","150","true"
"null","<div style=""font-size:60px;"">+</div>","null","html-keyboard-response","192","225925","0.0-6.0-0.93","ZDER","2","m","rechts","52","","fixation","","","",""
"1289","img/120_180.png","70","image-keyboard-response","193","227225","0.0-6.0-1.93","ZDER","2","m","rechts","52","","","object","f","120","true"
"null","<div style=""font-size:60px;"">+</div>","null","html-keyboard-response","194","227583","0.0-6.0-0.94","ZDER","2","m","rechts","52","","fixation","","","",""
"1451","img/90_120.png","70","image-keyboard-response","195","229046","0.0-6.0-1.94","ZDER","2","m","rechts","52","","","object","j","90","false"
"null","<div style=""font-size:60px;"">+</div>","null","html-keyboard-response","196","229572","0.0-6.0-0.95","ZDER","2","m","rechts","52","","fixation","","","",""
"1208","img/120_90.png","70","image-keyboard-response","197","230792","0.0-6.0-1.95","ZDER","2","m","rechts","52","","","object","f","120","true"
"null","<div style=""font-size:60px;"">+</div>","null","html-keyboard-response","198","231259","0.0-6.0-0.96","ZDER","2","m","rechts","52","","fixation","","","",""
"1285","img/150_180.png","70","image-keyboard-response","199","232558","0.0-6.0-1.96","ZDER","2","m","rechts","52","","","object","f","150","true"
"null","<div style=""font-size:60px;"">+</div>","null","html-keyboard-response","200","232920","0.0-6.0-0.97","ZDER","2","m","rechts","52","","fixation","","","",""
"1175","img/30_180.png","70","image-keyboard-response","201","234109","0.0-6.0-1.97","ZDER","2","m","rechts","52","","","object","f","30","true"
"null","<div style=""font-size:60px;"">+</div>","null","html-keyboard-response","202","234467","0.0-6.0-0.98","ZDER","2","m","rechts","52","","fixation","","","",""
"1720","img/150_90.png","74","image-keyboard-response","203","236200","0.0-6.0-1.98","ZDER","2","m","rechts","52","","","object","f","150","false"
"null","<div style=""font-size:60px;"">+</div>","null","html-keyboard-response","204","236529","0.0-6.0-0.99","ZDER","2","m","rechts","52","","fixation","","","",""
"1583","img/90_180.png","70","image-keyboard-response","205","238125","0.0-6.0-1.99","ZDER","2","m","rechts","52","","","object","f","90","true"
"null","<div style=""font-size:60px;"">+</div>","null","html-keyboard-response","206","238656","0.0-6.0-0.100","ZDER","2","m","rechts","52","","fixation","","","",""
"1156","img/60_330.png","74","image-keyboard-response","207","239825","0.0-6.0-1.100","ZDER","2","m","rechts","52","","","object","j","60","true"
"null","<div style=""font-size:60px;"">+</div>","null","html-keyboard-response","208","240342","0.0-6.0-0.101","ZDER","2","m","rechts","52","","fixation","","","",""
"1011","img/90_330.png","74","image-keyboard-response","209","241367","0.0-6.0-1.101","ZDER","2","m","rechts","52","","","object","j","90","true"
"null","<div style=""font-size:60px;"">+</div>","null","html-keyboard-response","210","241844","0.0-6.0-0.102","ZDER","2","m","rechts","52","","fixation","","","",""
"1319","img/60_30.png","70","image-keyboard-response","211","243176","0.0-6.0-1.102","ZDER","2","m","rechts","52","","","object","f","60","true"
"null","<div style=""font-size:60px;"">+</div>","null","html-keyboard-response","212","243483","0.0-6.0-0.103","ZDER","2","m","rechts","52","","fixation","","","",""
"1413","img/120_150.png","74","image-keyboard-response","213","244911","0.0-6.0-1.103","ZDER","2","m","rechts","52","","","object","j","120","true"
"null","<div style=""font-size:60px;"">+</div>","null","html-keyboard-response","214","245376","0.0-6.0-0.104","ZDER","2","m","rechts","52","","fixation","","","",""
"978","img/30_120.png","74","image-keyboard-response","215","246362","0.0-6.0-1.104","ZDER","2","m","rechts","52","","","object","j","30","true"
"null","<div style=""font-size:60px;"">+</div>","null","html-keyboard-response","216","246843","0.0-6.0-0.105","ZDER","2","m","rechts","52","","fixation","","","",""
"957","img/60_150.png","74","image-keyboard-response","217","247813","0.0-6.0-1.105","ZDER","2","m","rechts","52","","","object","j","60","true"
"null","<div style=""font-size:60px;"">+</div>","null","html-keyboard-response","218","248286","0.0-6.0-0.106","ZDER","2","m","rechts","52","","fixation","","","",""
"1964","img/90_300.png","74","image-keyboard-response","219","250259","0.0-6.0-1.106","ZDER","2","m","rechts","52","","","object","j","90","true"
"null","<div style=""font-size:60px;"">+</div>","null","html-keyboard-response","220","250615","0.0-6.0-0.107","ZDER","2","m","rechts","52","","fixation","","","",""
"1381","img/150_60.png","70","image-keyboard-response","221","252009","0.0-6.0-1.107","ZDER","2","m","rechts","52","","","object","f","150","true"
"null","<div style=""font-size:60px;"">+</div>","null","html-keyboard-response","222","252537","0.0-6.0-0.108","ZDER","2","m","rechts","52","","fixation","","","",""
"1348","img/60_180.png","70","image-keyboard-response","223","253899","0.0-6.0-1.108","ZDER","2","m","rechts","52","","","object","f","60","true"
"null","<div style=""font-size:60px;"">+</div>","null","html-keyboard-response","224","254360","0.0-6.0-0.109","ZDER","2","m","rechts","52","","fixation","","","",""
"912","img/90_180.png","70","image-keyboard-response","225","255284","0.0-6.0-1.109","ZDER","2","m","rechts","52","","","object","f","90","true"
"null","<div style=""font-size:60px;"">+</div>","null","html-keyboard-response","226","255643","0.0-6.0-0.110","ZDER","2","m","rechts","52","","fixation","","","",""
"822","img/0_210.png","70","image-keyboard-response","227","256476","0.0-6.0-1.110","ZDER","2","m","rechts","52","","","object","f","0","true"
"null","<div style=""font-size:60px;"">+</div>","null","html-keyboard-response","228","256830","0.0-6.0-0.111","ZDER","2","m","rechts","52","","fixation","","","",""
"917","img/90_150.png","74","image-keyboard-response","229","257757","0.0-6.0-1.111","ZDER","2","m","rechts","52","","","object","j","90","true"
"null","<div style=""font-size:60px;"">+</div>","null","html-keyboard-response","230","258266","0.0-6.0-0.112","ZDER","2","m","rechts","52","","fixation","","","",""
"1063","img/L60_180.png","74","image-keyboard-response","231","259333","0.0-6.0-1.112","ZDER","2","m","rechts","52","","","object","j","60","true"
"null","<div style=""font-size:60px;"">+</div>","null","html-keyboard-response","232","259640","0.0-6.0-0.113","ZDER","2","m","rechts","52","","fixation","","","",""
"1438","img/0_90.png","74","image-keyboard-response","233","261089","0.0-6.0-1.113","ZDER","2","m","rechts","52","","","object","j","0","true"
"null","<div style=""font-size:60px;"">+</div>","null","html-keyboard-response","234","261501","0.0-6.0-0.114","ZDER","2","m","rechts","52","","fixation","","","",""
"1727","img/120_330.png","74","image-keyboard-response","235","263236","0.0-6.0-1.114","ZDER","2","m","rechts","52","","","object","j","120","true"
"null","<div style=""font-size:60px;"">+</div>","null","html-keyboard-response","236","263657","0.0-6.0-0.115","ZDER","2","m","rechts","52","","fixation","","","",""
"1827","img/60_90.png","74","image-keyboard-response","237","265497","0.0-6.0-1.115","ZDER","2","m","rechts","52","","","object","j","60","true"
"null","<div style=""font-size:60px;"">+</div>","null","html-keyboard-response","238","265969","0.0-6.0-0.116","ZDER","2","m","rechts","52","","fixation","","","",""
"1095","img/30_90.png","74","image-keyboard-response","239","267073","0.0-6.0-1.116","ZDER","2","m","rechts","52","","","object","j","30","true"
"null","<div style=""font-size:60px;"">+</div>","null","html-keyboard-response","240","267484","0.0-6.0-0.117","ZDER","2","m","rechts","52","","fixation","","","",""
"1020","img/60_210.png","70","image-keyboard-response","241","268513","0.0-6.0-1.117","ZDER","2","m","rechts","52","","","object","f","60","true"
"null","<div style=""font-size:60px;"">+</div>","null","html-keyboard-response","242","269041","0.0-6.0-0.118","ZDER","2","m","rechts","52","","fixation","","","",""
"1223","img/150_270.png","74","image-keyboard-response","243","270277","0.0-6.0-1.118","ZDER","2","m","rechts","52","","","object","j","150","true"
"null","<div style=""font-size:60px;"">+</div>","null","html-keyboard-response","244","270583","0.0-6.0-0.119","ZDER","2","m","rechts","52","","fixation","","","",""
"1262","img/90_330.png","74","image-keyboard-response","245","271856","0.0-6.0-1.119","ZDER","2","m","rechts","52","","","object","j","90","true"
"null","<div style=""font-size:60px;"">+</div>","null","html-keyboard-response","246","272160","0.0-6.0-0.120","ZDER","2","m","rechts","52","","fixation","","","",""
"1377","img/L150_180.png","74","image-keyboard-response","247","273541","0.0-6.0-1.120","ZDER","2","m","rechts","52","","","object","j","150","true"
"null","<div style=""font-size:60px;"">+</div>","null","html-keyboard-response","248","274068","0.0-6.0-0.121","ZDER","2","m","rechts","52","","fixation","","","",""
"1172","img/90_60.png","70","image-keyboard-response","249","275251","0.0-6.0-1.121","ZDER","2","m","rechts","52","","","object","f","90","true"
"null","<div style=""font-size:60px;"">+</div>","null","html-keyboard-response","250","275567","0.0-6.0-0.122","ZDER","2","m","rechts","52","","fixation","","","",""
"1470","img/120_210.png","70","image-keyboard-response","251","277051","0.0-6.0-1.122","ZDER","2","m","rechts","52","","","object","f","120","true"
"null","<div style=""font-size:60px;"">+</div>","null","html-keyboard-response","252","277567","0.0-6.0-0.123","ZDER","2","m","rechts","52","","fixation","","","",""
"1232","img/120_150.png","74","image-keyboard-response","253","278808","0.0-6.0-1.123","ZDER","2","m","rechts","52","","","object","j","120","true"
"null","<div style=""font-size:60px;"">+</div>","null","html-keyboard-response","254","279319","0.0-6.0-0.124","ZDER","2","m","rechts","52","","fixation","","","",""
"1623","img/120_270.png","74","image-keyboard-response","255","280956","0.0-6.0-1.124","ZDER","2","m","rechts","52","","","object","j","120","true"
"null","<div style=""font-size:60px;"">+</div>","null","html-keyboard-response","256","281458","0.0-6.0-0.125","ZDER","2","m","rechts","52","","fixation","","","",""
"1545","img/120_90.png","74","image-keyboard-response","257","283013","0.0-6.0-1.125","ZDER","2","m","rechts","52","","","object","f","120","false"
"null","<div style=""font-size:60px;"">+</div>","null","html-keyboard-response","258","283520","0.0-6.0-0.126","ZDER","2","m","rechts","52","","fixation","","","",""
"1246","img/30_270.png","70","image-keyboard-response","259","284780","0.0-6.0-1.126","ZDER","2","m","rechts","52","","","object","f","30","true"
"null","<div style=""font-size:60px;"">+</div>","null","html-keyboard-response","260","285305","0.0-6.0-0.127","ZDER","2","m","rechts","52","","fixation","","","",""
"1073","img/90_210.png","70","image-keyboard-response","261","286390","0.0-6.0-1.127","ZDER","2","m","rechts","52","","","object","f","90","true"
"null","<div style=""font-size:60px;"">+</div>","null","html-keyboard-response","262","286757","0.0-6.0-0.128","ZDER","2","m","rechts","52","","fixation","","","",""
"1295","img/90_240.png","70","image-keyboard-response","263","288065","0.0-6.0-1.128","ZDER","2","m","rechts","52","","","object","f","90","true"
"null","<div style=""font-size:60px;"">+</div>","null","html-keyboard-response","264","288475","0.0-6.0-0.129","ZDER","2","m","rechts","52","","fixation","","","",""
"1022","img/0_30.png","74","image-keyboard-response","265","289507","0.0-6.0-1.129","ZDER","2","m","rechts","52","","","object","j","0","true"
"null","<div style=""font-size:60px;"">+</div>","null","html-keyboard-response","266","289817","0.0-6.0-0.130","ZDER","2","m","rechts","52","","fixation","","","",""
"1116","img/30_240.png","74","image-keyboard-response","267","290946","0.0-6.0-1.130","ZDER","2","m","rechts","52","","","object","f","30","false"
"null","<div style=""font-size:60px;"">+</div>","null","html-keyboard-response","268","291349","0.0-6.0-0.131","ZDER","2","m","rechts","52","","fixation","","","",""
"1330","img/L120_180.png","74","image-keyboard-response","269","292691","0.0-6.0-1.131","ZDER","2","m","rechts","52","","","object","j","120","true"
"null","<div style=""font-size:60px;"">+</div>","null","html-keyboard-response","270","293052","0.0-6.0-0.132","ZDER","2","m","rechts","52","","fixation","","","",""
"1593","img/0_150.png","74","image-keyboard-response","271","294658","0.0-6.0-1.132","ZDER","2","m","rechts","52","","","object","j","0","true"
"null","<div style=""font-size:60px;"">+</div>","null","html-keyboard-response","272","295021","0.0-6.0-0.133","ZDER","2","m","rechts","52","","fixation","","","",""
"837","img/0_60.png","74","image-keyboard-response","273","295874","0.0-6.0-1.133","ZDER","2","m","rechts","52","","","object","j","0","true"
"null","<div style=""font-size:60px;"">+</div>","null","html-keyboard-response","274","296333","0.0-6.0-0.134","ZDER","2","m","rechts","52","","fixation","","","",""
"889","img/120_180.png","70","image-keyboard-response","275","297233","0.0-6.0-1.134","ZDER","2","m","rechts","52","","","object","f","120","true"
"null","<div style=""font-size:60px;"">+</div>","null","html-keyboard-response","276","297739","0.0-6.0-0.135","ZDER","2","m","rechts","52","","fixation","","","",""
"1016","img/90_120.png","74","image-keyboard-response","277","298765","0.0-6.0-1.135","ZDER","2","m","rechts","52","","","object","j","90","true"
"null","<div style=""font-size:60px;"">+</div>","null","html-keyboard-response","278","299281","0.0-6.0-0.136","ZDER","2","m","rechts","52","","fixation","","","",""
"1617","img/30_300.png","70","image-keyboard-response","279","300903","0.0-6.0-1.136","ZDER","2","m","rechts","52","","","object","f","30","true"
"null","<div style=""font-size:60px;"">+</div>","null","html-keyboard-response","280","301359","0.0-6.0-0.137","ZDER","2","m","rechts","52","","fixation","","","",""
"1272","img/150_240.png","74","image-keyboard-response","281","302647","0.0-6.0-1.137","ZDER","2","m","rechts","52","","","object","j","150","true"
"null","<div style=""font-size:60px;"">+</div>","null","html-keyboard-response","282","303015","0.0-6.0-0.138","ZDER","2","m","rechts","52","","fixation","","","",""
"934","img/0_330.png","70","image-keyboard-response","283","303963","0.0-6.0-1.138","ZDER","2","m","rechts","52","","","object","f","0","true"
"null","<div style=""font-size:60px;"">+</div>","null","html-keyboard-response","284","304377","0.0-6.0-0.139","ZDER","2","m","rechts","52","","fixation","","","",""
"1759","img/150_90.png","70","image-keyboard-response","285","306145","0.0-6.0-1.139","ZDER","2","m","rechts","52","","","object","f","150","true"
"null","<div style=""font-size:60px;"">+</div>","null","html-keyboard-response","286","306658","0.0-6.0-0.140","ZDER","2","m","rechts","52","","fixation","","","",""
"1154","img/150_180.png","70","image-keyboard-response","287","307822","0.0-6.0-1.140","ZDER","2","m","rechts","52","","","object","f","150","true"
"null","<div style=""font-size:60px;"">+</div>","null","html-keyboard-response","288","308282","0.0-6.0-0.141","ZDER","2","m","rechts","52","","fixation","","","",""
"839","img/0_270.png","70","image-keyboard-response","289","309128","0.0-6.0-1.141","ZDER","2","m","rechts","52","","","object","f","0","true"
"null","<div style=""font-size:60px;"">+</div>","null","html-keyboard-response","290","309531","0.0-6.0-0.142","ZDER","2","m","rechts","52","","fixation","","","",""
"1440","img/150_120.png","74","image-keyboard-response","291","310982","0.0-6.0-1.142","ZDER","2","m","rechts","52","","","object","f","150","false"
"null","<div style=""font-size:60px;"">+</div>","null","html-keyboard-response","292","311389","0.0-6.0-0.143","ZDER","2","m","rechts","52","","fixation","","","",""
"809","img/0_300.png","70","image-keyboard-response","293","312210","0.0-6.0-1.143","ZDER","2","m","rechts","52","","","object","f","0","true"
"null","<div style=""font-size:60px;"">+</div>","null","html-keyboard-response","294","312686","0.0-6.0-0.144","ZDER","2","m","rechts","52","","fixation","","","",""
"1243","img/150_300.png","74","image-keyboard-response","295","313942","0.0-6.0-1.144","ZDER","2","m","rechts","52","","","object","j","150","true"
"null","<div style=""font-size:60px;"">+</div>","null","html-keyboard-response","296","314396","0.0-6.0-0.145","ZDER","2","m","rechts","52","","fixation","","","",""
"1074","img/L90_180.png","74","image-keyboard-response","297","315483","0.0-6.0-1.145","ZDER","2","m","rechts","52","","","object","j","90","true"
"null","<div style=""font-size:60px;"">+</div>","null","html-keyboard-response","298","315896","0.0-6.0-0.146","ZDER","2","m","rechts","52","","fixation","","","",""
"960","img/30_180.png","70","image-keyboard-response","299","316865","0.0-6.0-1.146","ZDER","2","m","rechts","52","","","object","f","30","true"
"null","<div style=""font-size:60px;"">+</div>","null","html-keyboard-response","300","317380","0.0-6.0-0.147","ZDER","2","m","rechts","52","","fixation","","","",""
"2200","img/30_60.png","74","image-keyboard-response","301","319593","0.0-6.0-1.147","ZDER","2","m","rechts","52","","","object","j","30","true"
"null","<div style=""font-size:60px;"">+</div>","null","html-keyboard-response","302","319950","0.0-6.0-0.148","ZDER","2","m","rechts","52","","fixation","","","",""
"851","img/0_240.png","70","image-keyboard-response","303","320816","0.0-6.0-1.148","ZDER","2","m","rechts","52","","","object","f","0","true"
"null","<div style=""font-size:60px;"">+</div>","null","html-keyboard-response","304","321230","0.0-6.0-0.149","ZDER","2","m","rechts","52","","fixation","","","",""
"1493","img/60_30.png","70","image-keyboard-response","305","322728","0.0-6.0-1.149","ZDER","2","m","rechts","52","","","object","f","60","true"
"null","<div style=""font-size:60px;"">+</div>","null","html-keyboard-response","306","323091","0.0-6.0-0.150","ZDER","2","m","rechts","52","","fixation","","","",""
"1687","img/60_330.png","74","image-keyboard-response","307","324787","0.0-6.0-1.150","ZDER","2","m","rechts","52","","","object","j","60","true"
"null","<div style=""font-size:60px;"">+</div>","null","html-keyboard-response","308","325290","0.0-6.0-0.151","ZDER","2","m","rechts","52","","fixation","","","",""
"1798","img/120_30.png","70","image-keyboard-response","309","327093","0.0-6.0-1.151","ZDER","2","m","rechts","52","","","object","f","120","true"
"null","<div style=""font-size:60px;"">+</div>","null","html-keyboard-response","310","327619","0.0-6.0-0.152","ZDER","2","m","rechts","52","","fixation","","","",""
"845","img/90_30.png","70","image-keyboard-response","311","328476","0.0-6.0-1.152","ZDER","2","m","rechts","52","","","object","f","90","true"
"null","<div style=""font-size:60px;"">+</div>","null","html-keyboard-response","312","328791","0.0-6.0-0.153","ZDER","2","m","rechts","52","","fixation","","","",""
"1391","img/L30_180.png","74","image-keyboard-response","313","330197","0.0-6.0-1.153","ZDER","2","m","rechts","52","","","object","j","30","true"
"null","<div style=""font-size:60px;"">+</div>","null","html-keyboard-response","314","330510","0.0-6.0-0.154","ZDER","2","m","rechts","52","","fixation","","","",""
"1925","img/60_270.png","70","image-keyboard-response","315","332449","0.0-6.0-1.154","ZDER","2","m","rechts","52","","","object","f","60","true"
"null","<div style=""font-size:60px;"">+</div>","null","html-keyboard-response","316","332912","0.0-6.0-0.155","ZDER","2","m","rechts","52","","fixation","","","",""
"1099","img/0_120.png","74","image-keyboard-response","317","334024","0.0-6.0-1.155","ZDER","2","m","rechts","52","","","object","j","0","true"
"null","<div style=""font-size:60px;"">+</div>","null","html-keyboard-response","318","334433","0.0-6.0-0.156","ZDER","2","m","rechts","52","","fixation","","","",""
"1549","img/60_210.png","70","image-keyboard-response","319","335992","0.0-6.0-1.156","ZDER","2","m","rechts","52","","","object","f","60","true"
"null","<div style=""font-size:60px;"">+</div>","null","html-keyboard-response","320","336355","0.0-6.0-0.157","ZDER","2","m","rechts","52","","fixation","","","",""
"1416","img/60_330.png","74","image-keyboard-response","321","337780","0.0-6.0-1.157","ZDER","2","m","rechts","52","","","object","j","60","true"
"null","<div style=""font-size:60px;"">+</div>","null","html-keyboard-response","322","338294","0.0-6.0-0.158","ZDER","2","m","rechts","52","","fixation","","","",""
"1010","img/120_210.png","74","image-keyboard-response","323","339308","0.0-6.0-1.158","ZDER","2","m","rechts","52","","","object","f","120","false"
"null","<div style=""font-size:60px;"">+</div>","null","html-keyboard-response","324","339764","0.0-6.0-0.159","ZDER","2","m","rechts","52","","fixation","","","",""
"1865","img/120_180.png","70","image-keyboard-response","325","341640","0.0-6.0-1.159","ZDER","2","m","rechts","52","","","object","f","120","true"
"null","<div style=""font-size:60px;"">+</div>","null","html-keyboard-response","326","342155","0.0-6.0-0.160","ZDER","2","m","rechts","52","","fixation","","","",""
"1455","img/90_60.png","70","image-keyboard-response","327","343619","0.0-6.0-1.160","ZDER","2","m","rechts","52","","","object","f","90","true"
"null","<div style=""font-size:60px;"">+</div>","null","html-keyboard-response","328","343935","0.0-6.0-0.161","ZDER","2","m","rechts","52","","fixation","","","",""
"955","img/60_150.png","74","image-keyboard-response","329","344901","0.0-6.0-1.161","ZDER","2","m","rechts","52","","","object","j","60","true"
"null","<div style=""font-size:60px;"">+</div>","null","html-keyboard-response","330","345328","0.0-6.0-0.162","ZDER","2","m","rechts","52","","fixation","","","",""
"935","img/0_240.png","70","image-keyboard-response","331","346271","0.0-6.0-1.162","ZDER","2","m","rechts","52","","","object","f","0","true"
"null","<div style=""font-size:60px;"">+</div>","null","html-keyboard-response","332","346687","0.0-6.0-0.163","ZDER","2","m","rechts","52","","fixation","","","",""
"1092","img/0_90.png","74","image-keyboard-response","333","347792","0.0-6.0-1.163","ZDER","2","m","rechts","52","","","object","j","0","true"
"null","<div style=""font-size:60px;"">+</div>","null","html-keyboard-response","334","348249","0.0-6.0-0.164","ZDER","2","m","rechts","52","","fixation","","","",""
"1043","img/L30_180.png","74","image-keyboard-response","335","349298","0.0-6.0-1.164","ZDER","2","m","rechts","52","","","object","j","30","true"
"null","<div style=""font-size:60px;"">+</div>","null","html-keyboard-response","336","349665","0.0-6.0-0.165","ZDER","2","m","rechts","52","","fixation","","","",""
"1129","img/120_330.png","74","image-keyboard-response","337","350809","0.0-6.0-1.165","ZDER","2","m","rechts","52","","","object","j","120","true"
"null","<div style=""font-size:60px;"">+</div>","null","html-keyboard-response","338","351119","0.0-6.0-0.166","ZDER","2","m","rechts","52","","fixation","","","",""
"1290","img/60_30.png","70","image-keyboard-response","339","352418","0.0-6.0-1.166","ZDER","2","m","rechts","52","","","object","f","60","true"
"null","<div style=""font-size:60px;"">+</div>","null","html-keyboard-response","340","352838","0.0-6.0-0.167","ZDER","2","m","rechts","52","","fixation","","","",""
"1075","img/0_270.png","70","image-keyboard-response","341","353924","0.0-6.0-1.167","ZDER","2","m","rechts","52","","","object","f","0","true"
"null","<div style=""font-size:60px;"">+</div>","null","html-keyboard-response","342","354385","0.0-6.0-0.168","ZDER","2","m","rechts","52","","fixation","","","",""
"955","img/90_30.png","70","image-keyboard-response","343","355351","0.0-6.0-1.168","ZDER","2","m","rechts","52","","","object","f","90","true"
"null","<div style=""font-size:60px;"">+</div>","null","html-keyboard-response","344","355761","0.0-6.0-0.169","ZDER","2","m","rechts","52","","fixation","","","",""
"1450","img/30_60.png","74","image-keyboard-response","345","357220","0.0-6.0-1.169","ZDER","2","m","rechts","52","","","object","j","30","true"
"null","<div style=""font-size:60px;"">+</div>","null","html-keyboard-response","346","357653","0.0-6.0-0.170","ZDER","2","m","rechts","52","","fixation","","","",""
"1043","img/0_30.png","74","image-keyboard-response","347","358706","0.0-6.0-1.170","ZDER","2","m","rechts","52","","","object","j","0","true"
"null","<div style=""font-size:60px;"">+</div>","null","html-keyboard-response","348","359168","0.0-6.0-0.171","ZDER","2","m","rechts","52","","fixation","","","",""
"1559","img/L150_180.png","74","image-keyboard-response","349","360743","0.0-6.0-1.171","ZDER","2","m","rechts","52","","","object","j","150","true"
"null","<div style=""font-size:60px;"">+</div>","null","html-keyboard-response","350","361260","0.0-6.0-0.172","ZDER","2","m","rechts","52","","fixation","","","",""
"1228","img/30_270.png","70","image-keyboard-response","351","362497","0.0-6.0-1.172","ZDER","2","m","rechts","52","","","object","f","30","true"
"null","<div style=""font-size:60px;"">+</div>","null","html-keyboard-response","352","362977","0.0-6.0-0.173","ZDER","2","m","rechts","52","","fixation","","","",""
"1109","img/0_60.png","74","image-keyboard-response","353","364095","0.0-6.0-1.173","ZDER","2","m","rechts","52","","","object","j","0","true"
"null","<div style=""font-size:60px;"">+</div>","null","html-keyboard-response","354","364559","0.0-6.0-0.174","ZDER","2","m","rechts","52","","fixation","","","",""
"1458","img/90_150.png","74","image-keyboard-response","355","366030","0.0-6.0-1.174","ZDER","2","m","rechts","52","","","object","j","90","true"
"null","<div style=""font-size:60px;"">+</div>","null","html-keyboard-response","356","366386","0.0-6.0-0.175","ZDER","2","m","rechts","52","","fixation","","","",""
"1408","img/60_180.png","70","image-keyboard-response","357","367805","0.0-6.0-1.175","ZDER","2","m","rechts","52","","","object","f","60","true"
"null","<div style=""font-size:60px;"">+</div>","null","html-keyboard-response","358","368121","0.0-6.0-0.176","ZDER","2","m","rechts","52","","fixation","","","",""
"1093","img/0_330.png","70","image-keyboard-response","359","369225","0.0-6.0-1.176","ZDER","2","m","rechts","52","","","object","f","0","true"
"null","<div style=""font-size:60px;"">+</div>","null","html-keyboard-response","360","369650","0.0-6.0-0.177","ZDER","2","m","rechts","52","","fixation","","","",""
"1169","img/90_120.png","74","image-keyboard-response","361","370832","0.0-6.0-1.177","ZDER","2","m","rechts","52","","","object","j","90","true"
"null","<div style=""font-size:60px;"">+</div>","null","html-keyboard-response","362","371337","0.0-6.0-0.178","ZDER","2","m","rechts","52","","fixation","","","",""
"1290","img/150_60.png","70","image-keyboard-response","363","372632","0.0-6.0-1.178","ZDER","2","m","rechts","52","","","object","f","150","true"
"null","<div style=""font-size:60px;"">+</div>","null","html-keyboard-response","364","372948","0.0-6.0-0.179","ZDER","2","m","rechts","52","","fixation","","","",""
"948","img/0_300.png","70","image-keyboard-response","365","373904","0.0-6.0-1.179","ZDER","2","m","rechts","52","","","object","f","0","true"
"null","<div style=""font-size:60px;"">+</div>","null","html-keyboard-response","366","374210","0.0-6.0-0.180","ZDER","2","m","rechts","52","","fixation","","","",""
"979","img/L90_180.png","74","image-keyboard-response","367","375199","0.0-6.0-1.180","ZDER","2","m","rechts","52","","","object","j","90","true"
"null","<div style=""font-size:60px;"">+</div>","null","html-keyboard-response","368","375667","0.0-6.0-0.181","ZDER","2","m","rechts","52","","fixation","","","",""
"1254","img/0_150.png","74","image-keyboard-response","369","376931","0.0-6.0-1.181","ZDER","2","m","rechts","52","","","object","j","0","true"
"null","<div style=""font-size:60px;"">+</div>","null","html-keyboard-response","370","377245","0.0-6.0-0.182","ZDER","2","m","rechts","52","","fixation","","","",""
"1386","img/90_300.png","74","image-keyboard-response","371","378640","0.0-6.0-1.182","ZDER","2","m","rechts","52","","","object","j","90","true"
"null","<div style=""font-size:60px;"">+</div>","null","html-keyboard-response","372","379167","0.0-6.0-0.183","ZDER","2","m","rechts","52","","fixation","","","",""
"1104","img/L120_180.png","74","image-keyboard-response","373","380281","0.0-6.0-1.183","ZDER","2","m","rechts","52","","","object","j","120","true"
"null","<div style=""font-size:60px;"">+</div>","null","html-keyboard-response","374","380684","0.0-6.0-0.184","ZDER","2","m","rechts","52","","fixation","","","",""
"974","img/0_120.png","74","image-keyboard-response","375","381669","0.0-6.0-1.184","ZDER","2","m","rechts","52","","","object","j","0","true"
"null","<div style=""font-size:60px;"">+</div>","null","html-keyboard-response","376","381996","0.0-6.0-0.185","ZDER","2","m","rechts","52","","fixation","","","",""
"1484","img/60_270.png","70","image-keyboard-response","377","383489","0.0-6.0-1.185","ZDER","2","m","rechts","52","","","object","f","60","true"
"null","<div style=""font-size:60px;"">+</div>","null","html-keyboard-response","378","383870","0.0-6.0-0.186","ZDER","2","m","rechts","52","","fixation","","","",""
"1294","img/90_330.png","74","image-keyboard-response","379","385177","0.0-6.0-1.186","ZDER","2","m","rechts","52","","","object","j","90","true"
"null","<div style=""font-size:60px;"">+</div>","null","html-keyboard-response","380","385639","0.0-6.0-0.187","ZDER","2","m","rechts","52","","fixation","","","",""
"1171","img/120_30.png","70","image-keyboard-response","381","386819","0.0-6.0-1.187","ZDER","2","m","rechts","52","","","object","f","120","true"
"null","<div style=""font-size:60px;"">+</div>","null","html-keyboard-response","382","387245","0.0-6.0-0.188","ZDER","2","m","rechts","52","","fixation","","","",""
"1084","img/0_210.png","70","image-keyboard-response","383","388337","0.0-6.0-1.188","ZDER","2","m","rechts","52","","","object","f","0","true"
"null","<div style=""font-size:60px;"">+</div>","null","html-keyboard-response","384","388714","0.0-6.0-0.189","ZDER","2","m","rechts","52","","fixation","","","",""
"1405","img/30_300.png","70","image-keyboard-response","385","390128","0.0-6.0-1.189","ZDER","2","m","rechts","52","","","object","f","30","true"
"null","<div style=""font-size:60px;"">+</div>","null","html-keyboard-response","386","390545","0.0-6.0-0.190","ZDER","2","m","rechts","52","","fixation","","","",""
"1493","img/120_90.png","70","image-keyboard-response","387","392052","0.0-6.0-1.190","ZDER","2","m","rechts","52","","","object","f","120","true"
"null","<div style=""font-size:60px;"">+</div>","null","html-keyboard-response","388","392372","0.0-6.0-0.191","ZDER","2","m","rechts","52","","fixation","","","",""
"1512","img/90_210.png","70","image-keyboard-response","389","393896","0.0-6.0-1.191","ZDER","2","m","rechts","52","","","object","f","90","true"
"null","<div style=""font-size:60px;"">+</div>","null","html-keyboard-response","390","394225","0.0-6.0-0.192","ZDER","2","m","rechts","52","","fixation","","","",""
"1409","img/150_270.png","74","image-keyboard-response","391","395650","0.0-6.0-1.192","ZDER","2","m","rechts","52","","","object","j","150","true"
"null","<div style=""font-size:60px;"">+</div>","null","html-keyboard-response","392","396124","0.0-6.0-0.193","ZDER","2","m","rechts","52","","fixation","","","",""
"1790","img/90_240.png","70","image-keyboard-response","393","397924","0.0-6.0-1.193","ZDER","2","m","rechts","52","","","object","f","90","true"
"null","<div style=""font-size:60px;"">+</div>","null","html-keyboard-response","394","398437","0.0-6.0-0.194","ZDER","2","m","rechts","52","","fixation","","","",""
"1329","img/150_180.png","70","image-keyboard-response","395","399780","0.0-6.0-1.194","ZDER","2","m","rechts","52","","","object","f","150","true"
"null","<div style=""font-size:60px;"">+</div>","null","html-keyboard-response","396","400095","0.0-6.0-0.195","ZDER","2","m","rechts","52","","fixation","","","",""
"1463","img/150_300.png","74","image-keyboard-response","397","401569","0.0-6.0-1.195","ZDER","2","m","rechts","52","","","object","j","150","true"
"null","<div style=""font-size:60px;"">+</div>","null","html-keyboard-response","398","402047","0.0-6.0-0.196","ZDER","2","m","rechts","52","","fixation","","","",""
"1379","img/30_240.png","70","image-keyboard-response","399","403437","0.0-6.0-1.196","ZDER","2","m","rechts","52","","","object","f","30","true"
"null","<div style=""font-size:60px;"">+</div>","null","html-keyboard-response","400","403749","0.0-6.0-0.197","ZDER","2","m","rechts","52","","fixation","","","",""
"1506","img/60_90.png","74","image-keyboard-response","401","405268","0.0-6.0-1.197","ZDER","2","m","rechts","52","","","object","j","60","true"
"null","<div style=""font-size:60px;"">+</div>","null","html-keyboard-response","402","405736","0.0-6.0-0.198","ZDER","2","m","rechts","52","","fixation","","","",""
"1051","img/30_90.png","74","image-keyboard-response","403","406800","0.0-6.0-1.198","ZDER","2","m","rechts","52","","","object","j","30","true"
"null","<div style=""font-size:60px;"">+</div>","null","html-keyboard-response","404","407158","0.0-6.0-0.199","ZDER","2","m","rechts","52","","fixation","","","",""
"1474","img/150_90.png","70","image-keyboard-response","405","408645","0.0-6.0-1.199","ZDER","2","m","rechts","52","","","object","f","150","true"
"null","<div style=""font-size:60px;"">+</div>","null","html-keyboard-response","406","409011","0.0-6.0-0.200","ZDER","2","m","rechts","52","","fixation","","","",""
"1499","img/120_150.png","74","image-keyboard-response","407","410523","0.0-6.0-1.200","ZDER","2","m","rechts","52","","","object","j","120","true"
"null","<div style=""font-size:60px;"">+</div>","null","html-keyboard-response","408","411002","0.0-6.0-0.201","ZDER","2","m","rechts","52","","fixation","","","",""
"1380","img/150_240.png","74","image-keyboard-response","409","412389","0.0-6.0-1.201","ZDER","2","m","rechts","52","","","object","j","150","true"
"null","<div style=""font-size:60px;"">+</div>","null","html-keyboard-response","410","412705","0.0-6.0-0.202","ZDER","2","m","rechts","52","","fixation","","","",""
"1493","img/120_270.png","70","image-keyboard-response","411","414213","0.0-6.0-1.202","ZDER","2","m","rechts","52","","","object","j","120","false"
"null","<div style=""font-size:60px;"">+</div>","null","html-keyboard-response","412","414692","0.0-6.0-0.203","ZDER","2","m","rechts","52","","fixation","","","",""
"1649","img/150_120.png","70","image-keyboard-response","413","416350","0.0-6.0-1.203","ZDER","2","m","rechts","52","","","object","f","150","true"
"null","<div style=""font-size:60px;"">+</div>","null","html-keyboard-response","414","416723","0.0-6.0-0.204","ZDER","2","m","rechts","52","","fixation","","","",""
"1324","img/30_120.png","74","image-keyboard-response","415","418060","0.0-6.0-1.204","ZDER","2","m","rechts","52","","","object","j","30","true"
"null","<div style=""font-size:60px;"">+</div>","null","html-keyboard-response","416","418540","0.0-6.0-0.205","ZDER","2","m","rechts","52","","fixation","","","",""
"1117","img/L60_180.png","74","image-keyboard-response","417","419671","0.0-6.0-1.205","ZDER","2","m","rechts","52","","","object","j","60","true"
"null","<div style=""font-size:60px;"">+</div>","null","html-keyboard-response","418","420052","0.0-6.0-0.206","ZDER","2","m","rechts","52","","fixation","","","",""
"1077","img/30_180.png","70","image-keyboard-response","419","421143","0.0-6.0-1.206","ZDER","2","m","rechts","52","","","object","f","30","true"
"null","<div style=""font-size:60px;"">+</div>","null","html-keyboard-response","420","421550","0.0-6.0-0.207","ZDER","2","m","rechts","52","","fixation","","","",""
"1110","img/90_180.png","70","image-keyboard-response","421","422675","0.0-6.0-1.207","ZDER","2","m","rechts","52","","","object","f","90","true"
"13745","<p>Du hast in 93% der Versuche korrekt entschieden.</p><p>Deine durchschnittliche Reaktionszeit war  1357ms.</p><p>Dr&uuml;cke eine beliebige Taste, um die Session zu beenden. Vielen Dank!</p>","32","html-keyboard-response","422","436425","0.0-7.0","ZDER","2","m","rechts","52","","","","","",""
