"rt","stimulus","key_press","trial_type","trial_index","time_elapsed","internal_node_id","subject","session","sex","handedness","age","responses","test_part","condition","correct_response","angle","correct"
"1168","<p>Mental Rotation Experiment.</p> <p>Dr&uuml;cke eine beliebige Taste, um anzufangen.</p>","13","html-keyboard-response","0","1206","0.0-0.0","ZDER","4","m","rechts","52","","","","","",""
"3222","","","survey-text","1","4430","0.0-1.0","ZDER","4","m","rechts","52","{""Q0"":""ZDER""}","","","","",""
"2305","","","survey-text","2","6736","0.0-2.0","ZDER","4","m","rechts","52","{""Q0"":""4""}","","","","",""
"4659","","","survey-multi-choice","3","11402","0.0-3.0","ZDER","4","m","rechts","52","{""Q0"":""m"",""Q1"":""rechts""}","","","","",""
"2442","","","survey-text","4","13845","0.0-4.0","ZDER","4","m","rechts","52","{""Q0"":""52""}","","","","",""
"8286","<p> Stell dir vor, dass du vor einem runden Tisch stehst, auf dem sich ein blauer Ball am Tischrand befindet. Entlang des Tischrands ist jeweils ein verschieden langer Pfeil. Nun bewegst du dich entlang dieses Pfeils bis an seine Spitze. Wenn du am Ende des Pfeils angekommen bist, schau zur Tischmitte. </p> <img src='img/90_180.png'></img> <br> <p>Entscheide dann, ob der Ball von deiner neuen (vorgestellten) Position links oder rechts von dir liegt.</p> <p>Dr&uuml;cke die <strong>'f'</strong>-Taste f&uuml;r links, die <strong>'j'</strong>-Taste f&uuml;r rechts.</p> <br><p> Das Bild wird jeweils 1 Sekunde lang pr&auml;sentiert. Du hast 3 Sekunden Zeit eine Entscheidung zu treffen.</p>","70","html-keyboard-response","5","22154","0.0-5.0","ZDER","4","m","rechts","52","","","","","",""
"null","<div style=""font-size:60px;"">+</div>","null","html-keyboard-response","6","23587","0.0-6.0-0.0","ZDER","4","m","rechts","52","","fixation","","","",""
"1216","img/0_60.png","74","image-keyboard-response","7","24824","0.0-6.0-1.0","ZDER","4","m","rechts","52","","","self","j","0","true"
"null","<div style=""font-size:60px;"">+</div>","null","html-keyboard-response","8","25336","0.0-6.0-0.1","ZDER","4","m","rechts","52","","fixation","","","",""
"1355","img/90_300.png","70","image-keyboard-response","9","26711","0.0-6.0-1.1","ZDER","4","m","rechts","52","","","self","f","90","true"
"null","<div style=""font-size:60px;"">+</div>","null","html-keyboard-response","10","27118","0.0-6.0-0.2","ZDER","4","m","rechts","52","","fixation","","","",""
"1348","img/L150_180.png","70","image-keyboard-response","11","28477","0.0-6.0-1.2","ZDER","4","m","rechts","52","","","self","f","150","true"
"null","<div style=""font-size:60px;"">+</div>","null","html-keyboard-response","12","29011","0.0-6.0-0.3","ZDER","4","m","rechts","52","","fixation","","","",""
"961","img/0_300.png","70","image-keyboard-response","13","29984","0.0-6.0-1.3","ZDER","4","m","rechts","52","","","self","f","0","true"
"null","<div style=""font-size:60px;"">+</div>","null","html-keyboard-response","14","30291","0.0-6.0-0.4","ZDER","4","m","rechts","52","","fixation","","","",""
"1036","img/90_240.png","74","image-keyboard-response","15","31343","0.0-6.0-1.4","ZDER","4","m","rechts","52","","","self","j","90","true"
"null","<div style=""font-size:60px;"">+</div>","null","html-keyboard-response","16","31759","0.0-6.0-0.5","ZDER","4","m","rechts","52","","fixation","","","",""
"839","img/150_240.png","74","image-keyboard-response","17","32616","0.0-6.0-1.5","ZDER","4","m","rechts","52","","","self","j","150","true"
"null","<div style=""font-size:60px;"">+</div>","null","html-keyboard-response","18","33135","0.0-6.0-0.6","ZDER","4","m","rechts","52","","fixation","","","",""
"880","img/60_210.png","74","image-keyboard-response","19","34035","0.0-6.0-1.6","ZDER","4","m","rechts","52","","","self","j","60","true"
"null","<div style=""font-size:60px;"">+</div>","null","html-keyboard-response","20","34347","0.0-6.0-0.7","ZDER","4","m","rechts","52","","fixation","","","",""
"1100","img/120_330.png","70","image-keyboard-response","21","35464","0.0-6.0-1.7","ZDER","4","m","rechts","52","","","self","f","120","true"
"null","<div style=""font-size:60px;"">+</div>","null","html-keyboard-response","22","35815","0.0-6.0-0.8","ZDER","4","m","rechts","52","","fixation","","","",""
"1064","img/L90_180.png","70","image-keyboard-response","23","36902","0.0-6.0-1.8","ZDER","4","m","rechts","52","","","self","f","90","true"
"null","<div style=""font-size:60px;"">+</div>","null","html-keyboard-response","24","37316","0.0-6.0-0.9","ZDER","4","m","rechts","52","","fixation","","","",""
"986","img/90_30.png","74","image-keyboard-response","25","38321","0.0-6.0-1.9","ZDER","4","m","rechts","52","","","self","j","90","true"
"null","<div style=""font-size:60px;"">+</div>","null","html-keyboard-response","26","38749","0.0-6.0-0.10","ZDER","4","m","rechts","52","","fixation","","","",""
"923","img/30_60.png","74","image-keyboard-response","27","39690","0.0-6.0-1.10","ZDER","4","m","rechts","52","","","self","j","30","true"
"null","<div style=""font-size:60px;"">+</div>","null","html-keyboard-response","28","40108","0.0-6.0-0.11","ZDER","4","m","rechts","52","","fixation","","","",""
"1087","img/90_330.png","70","image-keyboard-response","29","41201","0.0-6.0-1.11","ZDER","4","m","rechts","52","","","self","f","90","true"
"null","<div style=""font-size:60px;"">+</div>","null","html-keyboard-response","30","41517","0.0-6.0-0.12","ZDER","4","m","rechts","52","","fixation","","","",""
"1295","img/L60_180.png","70","image-keyboard-response","31","42832","0.0-6.0-1.12","ZDER","4","m","rechts","52","","","self","f","60","true"
"null","<div style=""font-size:60px;"">+</div>","null","html-keyboard-response","32","43252","0.0-6.0-0.13","ZDER","4","m","rechts","52","","fixation","","","",""
"1014","img/150_120.png","70","image-keyboard-response","33","44283","0.0-6.0-1.13","ZDER","4","m","rechts","52","","","self","f","150","true"
"null","<div style=""font-size:60px;"">+</div>","null","html-keyboard-response","34","44595","0.0-6.0-0.14","ZDER","4","m","rechts","52","","fixation","","","",""
"1129","img/120_270.png","74","image-keyboard-response","35","45745","0.0-6.0-1.14","ZDER","4","m","rechts","52","","","self","j","120","true"
"null","<div style=""font-size:60px;"">+</div>","null","html-keyboard-response","36","46252","0.0-6.0-0.15","ZDER","4","m","rechts","52","","fixation","","","",""
"723","img/0_30.png","74","image-keyboard-response","37","46993","0.0-6.0-1.15","ZDER","4","m","rechts","52","","","self","j","0","true"
"null","<div style=""font-size:60px;"">+</div>","null","html-keyboard-response","38","47455","0.0-6.0-0.16","ZDER","4","m","rechts","52","","fixation","","","",""
"891","img/60_180.png","74","image-keyboard-response","39","48366","0.0-6.0-1.16","ZDER","4","m","rechts","52","","","self","j","60","true"
"null","<div style=""font-size:60px;"">+</div>","null","html-keyboard-response","40","48737","0.0-6.0-0.17","ZDER","4","m","rechts","52","","fixation","","","",""
"1221","img/90_60.png","74","image-keyboard-response","41","49975","0.0-6.0-1.17","ZDER","4","m","rechts","52","","","self","j","90","true"
"null","<div style=""font-size:60px;"">+</div>","null","html-keyboard-response","42","50481","0.0-6.0-0.18","ZDER","4","m","rechts","52","","fixation","","","",""
"1197","img/150_180.png","74","image-keyboard-response","43","51697","0.0-6.0-1.18","ZDER","4","m","rechts","52","","","self","j","150","true"
"null","<div style=""font-size:60px;"">+</div>","null","html-keyboard-response","44","52005","0.0-6.0-0.19","ZDER","4","m","rechts","52","","fixation","","","",""
"957","img/90_210.png","74","image-keyboard-response","45","52979","0.0-6.0-1.19","ZDER","4","m","rechts","52","","","self","j","90","true"
"null","<div style=""font-size:60px;"">+</div>","null","html-keyboard-response","46","53287","0.0-6.0-0.20","ZDER","4","m","rechts","52","","fixation","","","",""
"1396","img/30_90.png","74","image-keyboard-response","47","54701","0.0-6.0-1.20","ZDER","4","m","rechts","52","","","self","j","30","true"
"null","<div style=""font-size:60px;"">+</div>","null","html-keyboard-response","48","55161","0.0-6.0-0.21","ZDER","4","m","rechts","52","","fixation","","","",""
"1740","img/120_30.png","74","image-keyboard-response","49","56906","0.0-6.0-1.21","ZDER","4","m","rechts","52","","","self","j","120","true"
"null","<div style=""font-size:60px;"">+</div>","null","html-keyboard-response","50","57317","0.0-6.0-0.22","ZDER","4","m","rechts","52","","fixation","","","",""
"909","img/120_180.png","74","image-keyboard-response","51","58243","0.0-6.0-1.22","ZDER","4","m","rechts","52","","","self","j","120","true"
"null","<div style=""font-size:60px;"">+</div>","null","html-keyboard-response","52","58755","0.0-6.0-0.23","ZDER","4","m","rechts","52","","fixation","","","",""
"750","img/0_150.png","74","image-keyboard-response","53","59528","0.0-6.0-1.23","ZDER","4","m","rechts","52","","","self","j","0","true"
"null","<div style=""font-size:60px;"">+</div>","null","html-keyboard-response","54","60035","0.0-6.0-0.24","ZDER","4","m","rechts","52","","fixation","","","",""
"867","img/150_60.png","74","image-keyboard-response","55","60922","0.0-6.0-1.24","ZDER","4","m","rechts","52","","","self","f","150","false"
"null","<div style=""font-size:60px;"">+</div>","null","html-keyboard-response","56","61334","0.0-6.0-0.25","ZDER","4","m","rechts","52","","fixation","","","",""
"1709","img/120_210.png","74","image-keyboard-response","57","63061","0.0-6.0-1.25","ZDER","4","m","rechts","52","","","self","j","120","true"
"null","<div style=""font-size:60px;"">+</div>","null","html-keyboard-response","58","63582","0.0-6.0-0.26","ZDER","4","m","rechts","52","","fixation","","","",""
"921","img/0_240.png","70","image-keyboard-response","59","64522","0.0-6.0-1.26","ZDER","4","m","rechts","52","","","self","f","0","true"
"null","<div style=""font-size:60px;"">+</div>","null","html-keyboard-response","60","64880","0.0-6.0-0.27","ZDER","4","m","rechts","52","","fixation","","","",""
"1156","img/30_120.png","74","image-keyboard-response","61","66053","0.0-6.0-1.27","ZDER","4","m","rechts","52","","","self","j","30","true"
"null","<div style=""font-size:60px;"">+</div>","null","html-keyboard-response","62","66364","0.0-6.0-0.28","ZDER","4","m","rechts","52","","fixation","","","",""
"1209","img/60_330.png","70","image-keyboard-response","63","67594","0.0-6.0-1.28","ZDER","4","m","rechts","52","","","self","f","60","true"
"null","<div style=""font-size:60px;"">+</div>","null","html-keyboard-response","64","67958","0.0-6.0-0.29","ZDER","4","m","rechts","52","","fixation","","","",""
"913","img/0_330.png","70","image-keyboard-response","65","68888","0.0-6.0-1.29","ZDER","4","m","rechts","52","","","self","f","0","true"
"null","<div style=""font-size:60px;"">+</div>","null","html-keyboard-response","66","69412","0.0-6.0-0.30","ZDER","4","m","rechts","52","","fixation","","","",""
"1056","img/60_150.png","70","image-keyboard-response","67","70485","0.0-6.0-1.30","ZDER","4","m","rechts","52","","","self","f","60","true"
"null","<div style=""font-size:60px;"">+</div>","null","html-keyboard-response","68","70952","0.0-6.0-0.31","ZDER","4","m","rechts","52","","fixation","","","",""
"1024","img/150_270.png","74","image-keyboard-response","69","71992","0.0-6.0-1.31","ZDER","4","m","rechts","52","","","self","j","150","true"
"null","<div style=""font-size:60px;"">+</div>","null","html-keyboard-response","70","72469","0.0-6.0-0.32","ZDER","4","m","rechts","52","","fixation","","","",""
"1113","img/30_270.png","70","image-keyboard-response","71","73600","0.0-6.0-1.32","ZDER","4","m","rechts","52","","","self","f","30","true"
"null","<div style=""font-size:60px;"">+</div>","null","html-keyboard-response","72","73906","0.0-6.0-0.33","ZDER","4","m","rechts","52","","fixation","","","",""
"1103","img/60_30.png","74","image-keyboard-response","73","75028","0.0-6.0-1.33","ZDER","4","m","rechts","52","","","self","j","60","true"
"null","<div style=""font-size:60px;"">+</div>","null","html-keyboard-response","74","75333","0.0-6.0-0.34","ZDER","4","m","rechts","52","","fixation","","","",""
"1031","img/90_120.png","70","image-keyboard-response","75","76369","0.0-6.0-1.34","ZDER","4","m","rechts","52","","","self","f","90","true"
"null","<div style=""font-size:60px;"">+</div>","null","html-keyboard-response","76","76849","0.0-6.0-0.35","ZDER","4","m","rechts","52","","fixation","","","",""
"1333","img/30_240.png","70","image-keyboard-response","77","78200","0.0-6.0-1.35","ZDER","4","m","rechts","52","","","self","f","30","true"
"null","<div style=""font-size:60px;"">+</div>","null","html-keyboard-response","78","78506","0.0-6.0-0.36","ZDER","4","m","rechts","52","","fixation","","","",""
"848","img/0_90.png","74","image-keyboard-response","79","79372","0.0-6.0-1.36","ZDER","4","m","rechts","52","","","self","j","0","true"
"null","<div style=""font-size:60px;"">+</div>","null","html-keyboard-response","80","79833","0.0-6.0-0.37","ZDER","4","m","rechts","52","","fixation","","","",""
"913","img/30_300.png","70","image-keyboard-response","81","80767","0.0-6.0-1.37","ZDER","4","m","rechts","52","","","self","f","30","true"
"null","<div style=""font-size:60px;"">+</div>","null","html-keyboard-response","82","81175","0.0-6.0-0.38","ZDER","4","m","rechts","52","","fixation","","","",""
"900","img/30_180.png","74","image-keyboard-response","83","82083","0.0-6.0-1.38","ZDER","4","m","rechts","52","","","self","j","30","true"
"null","<div style=""font-size:60px;"">+</div>","null","html-keyboard-response","84","82613","0.0-6.0-0.39","ZDER","4","m","rechts","52","","fixation","","","",""
"1037","img/150_90.png","70","image-keyboard-response","85","83669","0.0-6.0-1.39","ZDER","4","m","rechts","52","","","self","f","150","true"
"null","<div style=""font-size:60px;"">+</div>","null","html-keyboard-response","86","84192","0.0-6.0-0.40","ZDER","4","m","rechts","52","","fixation","","","",""
"823","img/0_120.png","74","image-keyboard-response","87","85040","0.0-6.0-1.40","ZDER","4","m","rechts","52","","","self","j","0","true"
"null","<div style=""font-size:60px;"">+</div>","null","html-keyboard-response","88","85348","0.0-6.0-0.41","ZDER","4","m","rechts","52","","fixation","","","",""
"941","img/150_300.png","74","image-keyboard-response","89","86300","0.0-6.0-1.41","ZDER","4","m","rechts","52","","","self","j","150","true"
"null","<div style=""font-size:60px;"">+</div>","null","html-keyboard-response","90","86818","0.0-6.0-0.42","ZDER","4","m","rechts","52","","fixation","","","",""
"1041","img/120_90.png","70","image-keyboard-response","91","87876","0.0-6.0-1.42","ZDER","4","m","rechts","52","","","self","f","120","true"
"null","<div style=""font-size:60px;"">+</div>","null","html-keyboard-response","92","88239","0.0-6.0-0.43","ZDER","4","m","rechts","52","","fixation","","","",""
"909","img/120_150.png","70","image-keyboard-response","93","89161","0.0-6.0-1.43","ZDER","4","m","rechts","52","","","self","f","120","true"
"null","<div style=""font-size:60px;"">+</div>","null","html-keyboard-response","94","89520","0.0-6.0-0.44","ZDER","4","m","rechts","52","","fixation","","","",""
"892","img/0_210.png","70","image-keyboard-response","95","90431","0.0-6.0-1.44","ZDER","4","m","rechts","52","","","self","f","0","true"
"null","<div style=""font-size:60px;"">+</div>","null","html-keyboard-response","96","90942","0.0-6.0-0.45","ZDER","4","m","rechts","52","","fixation","","","",""
"1100","img/60_90.png","74","image-keyboard-response","97","92062","0.0-6.0-1.45","ZDER","4","m","rechts","52","","","self","j","60","true"
"null","<div style=""font-size:60px;"">+</div>","null","html-keyboard-response","98","92567","0.0-6.0-0.46","ZDER","4","m","rechts","52","","fixation","","","",""
"814","img/L120_180.png","70","image-keyboard-response","99","93399","0.0-6.0-1.46","ZDER","4","m","rechts","52","","","self","f","120","true"
"null","<div style=""font-size:60px;"">+</div>","null","html-keyboard-response","100","93816","0.0-6.0-0.47","ZDER","4","m","rechts","52","","fixation","","","",""
"837","img/L30_180.png","70","image-keyboard-response","101","94673","0.0-6.0-1.47","ZDER","4","m","rechts","52","","","self","f","30","true"
"null","<div style=""font-size:60px;"">+</div>","null","html-keyboard-response","102","95001","0.0-6.0-0.48","ZDER","4","m","rechts","52","","fixation","","","",""
"2358","img/60_270.png","70","image-keyboard-response","103","97377","0.0-6.0-1.48","ZDER","4","m","rechts","52","","","self","f","60","true"
"null","<div style=""font-size:60px;"">+</div>","null","html-keyboard-response","104","97794","0.0-6.0-0.49","ZDER","4","m","rechts","52","","fixation","","","",""
"803","img/90_180.png","74","image-keyboard-response","105","98611","0.0-6.0-1.49","ZDER","4","m","rechts","52","","","self","j","90","true"
"null","<div style=""font-size:60px;"">+</div>","null","html-keyboard-response","106","99076","0.0-6.0-0.50","ZDER","4","m","rechts","52","","fixation","","","",""
"855","img/90_150.png","70","image-keyboard-response","107","99949","0.0-6.0-1.50","ZDER","4","m","rechts","52","","","self","f","90","true"
"null","<div style=""font-size:60px;"">+</div>","null","html-keyboard-response","108","100373","0.0-6.0-0.51","ZDER","4","m","rechts","52","","fixation","","","",""
"806","img/0_270.png","70","image-keyboard-response","109","101197","0.0-6.0-1.51","ZDER","4","m","rechts","52","","","self","f","0","true"
"null","<div style=""font-size:60px;"">+</div>","null","html-keyboard-response","110","101617","0.0-6.0-0.52","ZDER","4","m","rechts","52","","fixation","","","",""
"929","img/90_240.png","74","image-keyboard-response","111","102559","0.0-6.0-1.52","ZDER","4","m","rechts","52","","","self","j","90","true"
"null","<div style=""font-size:60px;"">+</div>","null","html-keyboard-response","112","102978","0.0-6.0-0.53","ZDER","4","m","rechts","52","","fixation","","","",""
"1268","img/150_60.png","70","image-keyboard-response","113","104256","0.0-6.0-1.53","ZDER","4","m","rechts","52","","","self","f","150","true"
"null","<div style=""font-size:60px;"">+</div>","null","html-keyboard-response","114","104719","0.0-6.0-0.54","ZDER","4","m","rechts","52","","fixation","","","",""
"958","img/30_180.png","74","image-keyboard-response","115","105686","0.0-6.0-1.54","ZDER","4","m","rechts","52","","","self","j","30","true"
"null","<div style=""font-size:60px;"">+</div>","null","html-keyboard-response","116","106091","0.0-6.0-0.55","ZDER","4","m","rechts","52","","fixation","","","",""
"811","img/60_150.png","70","image-keyboard-response","117","106913","0.0-6.0-1.55","ZDER","4","m","rechts","52","","","self","f","60","true"
"null","<div style=""font-size:60px;"">+</div>","null","html-keyboard-response","118","107418","0.0-6.0-0.56","ZDER","4","m","rechts","52","","fixation","","","",""
"744","img/0_150.png","74","image-keyboard-response","119","108174","0.0-6.0-1.56","ZDER","4","m","rechts","52","","","self","j","0","true"
"null","<div style=""font-size:60px;"">+</div>","null","html-keyboard-response","120","108590","0.0-6.0-0.57","ZDER","4","m","rechts","52","","fixation","","","",""
"1246","img/0_300.png","70","image-keyboard-response","121","109849","0.0-6.0-1.57","ZDER","4","m","rechts","52","","","self","f","0","true"
"null","<div style=""font-size:60px;"">+</div>","null","html-keyboard-response","122","110327","0.0-6.0-0.58","ZDER","4","m","rechts","52","","fixation","","","",""
"946","img/30_120.png","74","image-keyboard-response","123","111277","0.0-6.0-1.58","ZDER","4","m","rechts","52","","","self","j","30","true"
"null","<div style=""font-size:60px;"">+</div>","null","html-keyboard-response","124","111738","0.0-6.0-0.59","ZDER","4","m","rechts","52","","fixation","","","",""
"910","img/L150_180.png","70","image-keyboard-response","125","112662","0.0-6.0-1.59","ZDER","4","m","rechts","52","","","self","f","150","true"
"null","<div style=""font-size:60px;"">+</div>","null","html-keyboard-response","126","112972","0.0-6.0-0.60","ZDER","4","m","rechts","52","","fixation","","","",""
"1263","img/120_30.png","74","image-keyboard-response","127","114248","0.0-6.0-1.60","ZDER","4","m","rechts","52","","","self","j","120","true"
"null","<div style=""font-size:60px;"">+</div>","null","html-keyboard-response","128","114754","0.0-6.0-0.61","ZDER","4","m","rechts","52","","fixation","","","",""
"811","img/0_240.png","70","image-keyboard-response","129","115576","0.0-6.0-1.61","ZDER","4","m","rechts","52","","","self","f","0","true"
"null","<div style=""font-size:60px;"">+</div>","null","html-keyboard-response","130","115879","0.0-6.0-0.62","ZDER","4","m","rechts","52","","fixation","","","",""
"1104","img/120_150.png","70","image-keyboard-response","131","116993","0.0-6.0-1.62","ZDER","4","m","rechts","52","","","self","f","120","true"
"null","<div style=""font-size:60px;"">+</div>","null","html-keyboard-response","132","117316","0.0-6.0-0.63","ZDER","4","m","rechts","52","","fixation","","","",""
"999","img/150_300.png","74","image-keyboard-response","133","118317","0.0-6.0-1.63","ZDER","4","m","rechts","52","","","self","j","150","true"
"null","<div style=""font-size:60px;"">+</div>","null","html-keyboard-response","134","118691","0.0-6.0-0.64","ZDER","4","m","rechts","52","","fixation","","","",""
"743","img/60_180.png","74","image-keyboard-response","135","119446","0.0-6.0-1.64","ZDER","4","m","rechts","52","","","self","j","60","true"
"null","<div style=""font-size:60px;"">+</div>","null","html-keyboard-response","136","119754","0.0-6.0-0.65","ZDER","4","m","rechts","52","","fixation","","","",""
"1320","img/90_60.png","70","image-keyboard-response","137","121087","0.0-6.0-1.65","ZDER","4","m","rechts","52","","","self","j","90","false"
"null","<div style=""font-size:60px;"">+</div>","null","html-keyboard-response","138","121411","0.0-6.0-0.66","ZDER","4","m","rechts","52","","fixation","","","",""
"1845","img/150_240.png","74","image-keyboard-response","139","123261","0.0-6.0-1.66","ZDER","4","m","rechts","52","","","self","j","150","true"
"null","<div style=""font-size:60px;"">+</div>","null","html-keyboard-response","140","123568","0.0-6.0-0.67","ZDER","4","m","rechts","52","","fixation","","","",""
"1815","img/120_270.png","74","image-keyboard-response","141","125395","0.0-6.0-1.67","ZDER","4","m","rechts","52","","","self","j","120","true"
"null","<div style=""font-size:60px;"">+</div>","null","html-keyboard-response","142","125771","0.0-6.0-0.68","ZDER","4","m","rechts","52","","fixation","","","",""
"1741","img/150_120.png","70","image-keyboard-response","143","127524","0.0-6.0-1.68","ZDER","4","m","rechts","52","","","self","f","150","true"
"null","<div style=""font-size:60px;"">+</div>","null","html-keyboard-response","144","127849","0.0-6.0-0.69","ZDER","4","m","rechts","52","","fixation","","","",""
"741","img/0_330.png","70","image-keyboard-response","145","128603","0.0-6.0-1.69","ZDER","4","m","rechts","52","","","self","f","0","true"
"null","<div style=""font-size:60px;"">+</div>","null","html-keyboard-response","146","129113","0.0-6.0-0.70","ZDER","4","m","rechts","52","","fixation","","","",""
"1044","img/90_150.png","70","image-keyboard-response","147","130166","0.0-6.0-1.70","ZDER","4","m","rechts","52","","","self","f","90","true"
"null","<div style=""font-size:60px;"">+</div>","null","html-keyboard-response","148","130668","0.0-6.0-0.71","ZDER","4","m","rechts","52","","fixation","","","",""
"1282","img/90_300.png","70","image-keyboard-response","149","131965","0.0-6.0-1.71","ZDER","4","m","rechts","52","","","self","f","90","true"
"null","<div style=""font-size:60px;"">+</div>","null","html-keyboard-response","150","132377","0.0-6.0-0.72","ZDER","4","m","rechts","52","","fixation","","","",""
"1125","img/60_30.png","74","image-keyboard-response","151","133507","0.0-6.0-1.72","ZDER","4","m","rechts","52","","","self","j","60","true"
"null","<div style=""font-size:60px;"">+</div>","null","html-keyboard-response","152","133987","0.0-6.0-0.73","ZDER","4","m","rechts","52","","fixation","","","",""
"840","img/0_270.png","70","image-keyboard-response","153","134836","0.0-6.0-1.73","ZDER","4","m","rechts","52","","","self","f","0","true"
"null","<div style=""font-size:60px;"">+</div>","null","html-keyboard-response","154","135299","0.0-6.0-0.74","ZDER","4","m","rechts","52","","fixation","","","",""
"1109","img/90_180.png","74","image-keyboard-response","155","136418","0.0-6.0-1.74","ZDER","4","m","rechts","52","","","self","j","90","true"
"null","<div style=""font-size:60px;"">+</div>","null","html-keyboard-response","156","136893","0.0-6.0-0.75","ZDER","4","m","rechts","52","","fixation","","","",""
"2572","img/30_240.png","70","image-keyboard-response","157","139474","0.0-6.0-1.75","ZDER","4","m","rechts","52","","","self","f","30","true"
"null","<div style=""font-size:60px;"">+</div>","null","html-keyboard-response","158","139832","0.0-6.0-0.76","ZDER","4","m","rechts","52","","fixation","","","",""
"895","img/90_330.png","70","image-keyboard-response","159","140742","0.0-6.0-1.76","ZDER","4","m","rechts","52","","","self","f","90","true"
"null","<div style=""font-size:60px;"">+</div>","null","html-keyboard-response","160","141101","0.0-6.0-0.77","ZDER","4","m","rechts","52","","fixation","","","",""
"966","img/L60_180.png","70","image-keyboard-response","161","142082","0.0-6.0-1.77","ZDER","4","m","rechts","52","","","self","f","60","true"
"null","<div style=""font-size:60px;"">+</div>","null","html-keyboard-response","162","142538","0.0-6.0-0.78","ZDER","4","m","rechts","52","","fixation","","","",""
"775","img/150_180.png","74","image-keyboard-response","163","143327","0.0-6.0-1.78","ZDER","4","m","rechts","52","","","self","j","150","true"
"null","<div style=""font-size:60px;"">+</div>","null","html-keyboard-response","164","143850","0.0-6.0-0.79","ZDER","4","m","rechts","52","","fixation","","","",""
"985","img/0_60.png","74","image-keyboard-response","165","144849","0.0-6.0-1.79","ZDER","4","m","rechts","52","","","self","j","0","true"
"null","<div style=""font-size:60px;"">+</div>","null","html-keyboard-response","166","145206","0.0-6.0-0.80","ZDER","4","m","rechts","52","","fixation","","","",""
"1599","img/30_300.png","70","image-keyboard-response","167","146816","0.0-6.0-1.80","ZDER","4","m","rechts","52","","","self","f","30","true"
"null","<div style=""font-size:60px;"">+</div>","null","html-keyboard-response","168","147284","0.0-6.0-0.81","ZDER","4","m","rechts","52","","fixation","","","",""
"1008","img/0_120.png","74","image-keyboard-response","169","148304","0.0-6.0-1.81","ZDER","4","m","rechts","52","","","self","j","0","true"
"null","<div style=""font-size:60px;"">+</div>","null","html-keyboard-response","170","148613","0.0-6.0-0.82","ZDER","4","m","rechts","52","","fixation","","","",""
"684","img/0_30.png","74","image-keyboard-response","171","149314","0.0-6.0-1.82","ZDER","4","m","rechts","52","","","self","j","0","true"
"null","<div style=""font-size:60px;"">+</div>","null","html-keyboard-response","172","149740","0.0-6.0-0.83","ZDER","4","m","rechts","52","","fixation","","","",""
"1195","img/150_90.png","70","image-keyboard-response","173","150945","0.0-6.0-1.83","ZDER","4","m","rechts","52","","","self","f","150","true"
"null","<div style=""font-size:60px;"">+</div>","null","html-keyboard-response","174","151395","0.0-6.0-0.84","ZDER","4","m","rechts","52","","fixation","","","",""
"1200","img/0_210.png","70","image-keyboard-response","175","152599","0.0-6.0-1.84","ZDER","4","m","rechts","52","","","self","f","0","true"
"null","<div style=""font-size:60px;"">+</div>","null","html-keyboard-response","176","153020","0.0-6.0-0.85","ZDER","4","m","rechts","52","","fixation","","","",""
"1522","img/30_270.png","70","image-keyboard-response","177","154556","0.0-6.0-1.85","ZDER","4","m","rechts","52","","","self","f","30","true"
"null","<div style=""font-size:60px;"">+</div>","null","html-keyboard-response","178","155020","0.0-6.0-0.86","ZDER","4","m","rechts","52","","fixation","","","",""
"927","img/90_210.png","74","image-keyboard-response","179","155963","0.0-6.0-1.86","ZDER","4","m","rechts","52","","","self","j","90","true"
"null","<div style=""font-size:60px;"">+</div>","null","html-keyboard-response","180","156334","0.0-6.0-0.87","ZDER","4","m","rechts","52","","fixation","","","",""
"1325","img/90_120.png","70","image-keyboard-response","181","157673","0.0-6.0-1.87","ZDER","4","m","rechts","52","","","self","f","90","true"
"null","<div style=""font-size:60px;"">+</div>","null","html-keyboard-response","182","158037","0.0-6.0-0.88","ZDER","4","m","rechts","52","","fixation","","","",""
"1526","img/L30_180.png","70","image-keyboard-response","183","159574","0.0-6.0-1.88","ZDER","4","m","rechts","52","","","self","f","30","true"
"null","<div style=""font-size:60px;"">+</div>","null","html-keyboard-response","184","160086","0.0-6.0-0.89","ZDER","4","m","rechts","52","","fixation","","","",""
"1344","img/30_60.png","74","image-keyboard-response","185","161441","0.0-6.0-1.89","ZDER","4","m","rechts","52","","","self","j","30","true"
"null","<div style=""font-size:60px;"">+</div>","null","html-keyboard-response","186","161805","0.0-6.0-0.90","ZDER","4","m","rechts","52","","fixation","","","",""
"954","img/120_90.png","70","image-keyboard-response","187","162768","0.0-6.0-1.90","ZDER","4","m","rechts","52","","","self","f","120","true"
"null","<div style=""font-size:60px;"">+</div>","null","html-keyboard-response","188","163230","0.0-6.0-0.91","ZDER","4","m","rechts","52","","fixation","","","",""
"1597","img/120_180.png","74","image-keyboard-response","189","164841","0.0-6.0-1.91","ZDER","4","m","rechts","52","","","self","j","120","true"
"null","<div style=""font-size:60px;"">+</div>","null","html-keyboard-response","190","165197","0.0-6.0-0.92","ZDER","4","m","rechts","52","","fixation","","","",""
"948","img/60_270.png","70","image-keyboard-response","191","166157","0.0-6.0-1.92","ZDER","4","m","rechts","52","","","self","f","60","true"
"null","<div style=""font-size:60px;"">+</div>","null","html-keyboard-response","192","166667","0.0-6.0-0.93","ZDER","4","m","rechts","52","","fixation","","","",""
"815","img/150_270.png","74","image-keyboard-response","193","167495","0.0-6.0-1.93","ZDER","4","m","rechts","52","","","self","j","150","true"
"null","<div style=""font-size:60px;"">+</div>","null","html-keyboard-response","194","167854","0.0-6.0-0.94","ZDER","4","m","rechts","52","","fixation","","","",""
"1043","img/30_90.png","74","image-keyboard-response","195","168913","0.0-6.0-1.94","ZDER","4","m","rechts","52","","","self","j","30","true"
"null","<div style=""font-size:60px;"">+</div>","null","html-keyboard-response","196","169322","0.0-6.0-0.95","ZDER","4","m","rechts","52","","fixation","","","",""
"1115","img/60_330.png","70","image-keyboard-response","197","170451","0.0-6.0-1.95","ZDER","4","m","rechts","52","","","self","f","60","true"
"null","<div style=""font-size:60px;"">+</div>","null","html-keyboard-response","198","170871","0.0-6.0-0.96","ZDER","4","m","rechts","52","","fixation","","","",""
"1350","img/60_90.png","74","image-keyboard-response","199","172230","0.0-6.0-1.96","ZDER","4","m","rechts","52","","","self","j","60","true"
"null","<div style=""font-size:60px;"">+</div>","null","html-keyboard-response","200","172702","0.0-6.0-0.97","ZDER","4","m","rechts","52","","fixation","","","",""
"2233","img/120_330.png","70","image-keyboard-response","201","174949","0.0-6.0-1.97","ZDER","4","m","rechts","52","","","self","f","120","true"
"null","<div style=""font-size:60px;"">+</div>","null","html-keyboard-response","202","175426","0.0-6.0-0.98","ZDER","4","m","rechts","52","","fixation","","","",""
"726","img/0_90.png","74","image-keyboard-response","203","176157","0.0-6.0-1.98","ZDER","4","m","rechts","52","","","self","j","0","true"
"null","<div style=""font-size:60px;"">+</div>","null","html-keyboard-response","204","176676","0.0-6.0-0.99","ZDER","4","m","rechts","52","","fixation","","","",""
"704","img/90_30.png","70","image-keyboard-response","205","177394","0.0-6.0-1.99","ZDER","4","m","rechts","52","","","self","j","90","false"
"null","<div style=""font-size:60px;"">+</div>","null","html-keyboard-response","206","177810","0.0-6.0-0.100","ZDER","4","m","rechts","52","","fixation","","","",""
"1077","img/L90_180.png","70","image-keyboard-response","207","178901","0.0-6.0-1.100","ZDER","4","m","rechts","52","","","self","f","90","true"
"null","<div style=""font-size:60px;"">+</div>","null","html-keyboard-response","208","179279","0.0-6.0-0.101","ZDER","4","m","rechts","52","","fixation","","","",""
"981","img/60_210.png","74","image-keyboard-response","209","180275","0.0-6.0-1.101","ZDER","4","m","rechts","52","","","self","j","60","true"
"null","<div style=""font-size:60px;"">+</div>","null","html-keyboard-response","210","180708","0.0-6.0-0.102","ZDER","4","m","rechts","52","","fixation","","","",""
"721","img/120_210.png","74","image-keyboard-response","211","181442","0.0-6.0-1.102","ZDER","4","m","rechts","52","","","self","j","120","true"
"null","<div style=""font-size:60px;"">+</div>","null","html-keyboard-response","212","181971","0.0-6.0-0.103","ZDER","4","m","rechts","52","","fixation","","","",""
"834","img/L120_180.png","70","image-keyboard-response","213","182818","0.0-6.0-1.103","ZDER","4","m","rechts","52","","","self","f","120","true"
"null","<div style=""font-size:60px;"">+</div>","null","html-keyboard-response","214","183130","0.0-6.0-0.104","ZDER","4","m","rechts","52","","fixation","","","",""
"null","img/L120_180.png","null","image-keyboard-response","215","186147","0.0-6.0-1.104","ZDER","4","m","rechts","52","","","self","f","120","false"
"null","<div style=""font-size:60px;"">+</div>","null","html-keyboard-response","216","186456","0.0-6.0-0.105","ZDER","4","m","rechts","52","","fixation","","","",""
"1421","img/150_60.png","70","image-keyboard-response","217","187884","0.0-6.0-1.105","ZDER","4","m","rechts","52","","","self","f","150","true"
"null","<div style=""font-size:60px;"">+</div>","null","html-keyboard-response","218","188301","0.0-6.0-0.106","ZDER","4","m","rechts","52","","fixation","","","",""
"897","img/L90_180.png","70","image-keyboard-response","219","189209","0.0-6.0-1.106","ZDER","4","m","rechts","52","","","self","f","90","true"
"null","<div style=""font-size:60px;"">+</div>","null","html-keyboard-response","220","189740","0.0-6.0-0.107","ZDER","4","m","rechts","52","","fixation","","","",""
"953","img/L30_180.png","70","image-keyboard-response","221","190705","0.0-6.0-1.107","ZDER","4","m","rechts","52","","","self","f","30","true"
"null","<div style=""font-size:60px;"">+</div>","null","html-keyboard-response","222","191022","0.0-6.0-0.108","ZDER","4","m","rechts","52","","fixation","","","",""
"875","img/150_120.png","70","image-keyboard-response","223","191906","0.0-6.0-1.108","ZDER","4","m","rechts","52","","","self","f","150","true"
"null","<div style=""font-size:60px;"">+</div>","null","html-keyboard-response","224","192318","0.0-6.0-0.109","ZDER","4","m","rechts","52","","fixation","","","",""
"920","img/150_90.png","70","image-keyboard-response","225","193247","0.0-6.0-1.109","ZDER","4","m","rechts","52","","","self","f","150","true"
"null","<div style=""font-size:60px;"">+</div>","null","html-keyboard-response","226","193628","0.0-6.0-0.110","ZDER","4","m","rechts","52","","fixation","","","",""
"913","img/0_210.png","70","image-keyboard-response","227","194550","0.0-6.0-1.110","ZDER","4","m","rechts","52","","","self","f","0","true"
"null","<div style=""font-size:60px;"">+</div>","null","html-keyboard-response","228","195065","0.0-6.0-0.111","ZDER","4","m","rechts","52","","fixation","","","",""
"1399","img/90_330.png","70","image-keyboard-response","229","196473","0.0-6.0-1.111","ZDER","4","m","rechts","52","","","self","f","90","true"
"null","<div style=""font-size:60px;"">+</div>","null","html-keyboard-response","230","196829","0.0-6.0-0.112","ZDER","4","m","rechts","52","","fixation","","","",""
"814","img/0_60.png","74","image-keyboard-response","231","197654","0.0-6.0-1.112","ZDER","4","m","rechts","52","","","self","j","0","true"
"null","<div style=""font-size:60px;"">+</div>","null","html-keyboard-response","232","198018","0.0-6.0-0.113","ZDER","4","m","rechts","52","","fixation","","","",""
"1311","img/120_30.png","74","image-keyboard-response","233","199333","0.0-6.0-1.113","ZDER","4","m","rechts","52","","","self","j","120","true"
"null","<div style=""font-size:60px;"">+</div>","null","html-keyboard-response","234","199649","0.0-6.0-0.114","ZDER","4","m","rechts","52","","fixation","","","",""
"1012","img/120_90.png","70","image-keyboard-response","235","200672","0.0-6.0-1.114","ZDER","4","m","rechts","52","","","self","f","120","true"
"null","<div style=""font-size:60px;"">+</div>","null","html-keyboard-response","236","200976","0.0-6.0-0.115","ZDER","4","m","rechts","52","","fixation","","","",""
"1552","img/30_300.png","70","image-keyboard-response","237","202537","0.0-6.0-1.115","ZDER","4","m","rechts","52","","","self","f","30","true"
"null","<div style=""font-size:60px;"">+</div>","null","html-keyboard-response","238","202961","0.0-6.0-0.116","ZDER","4","m","rechts","52","","fixation","","","",""
"1273","img/90_150.png","70","image-keyboard-response","239","204249","0.0-6.0-1.116","ZDER","4","m","rechts","52","","","self","f","90","true"
"null","<div style=""font-size:60px;"">+</div>","null","html-keyboard-response","240","204564","0.0-6.0-0.117","ZDER","4","m","rechts","52","","fixation","","","",""
"112","img/90_240.png","70","image-keyboard-response","241","204689","0.0-6.0-1.117","ZDER","4","m","rechts","52","","","self","j","90","false"
"null","<div style=""font-size:60px;"">+</div>","null","html-keyboard-response","242","205017","0.0-6.0-0.118","ZDER","4","m","rechts","52","","fixation","","","",""
"1044","img/120_180.png","74","image-keyboard-response","243","206070","0.0-6.0-1.118","ZDER","4","m","rechts","52","","","self","j","120","true"
"null","<div style=""font-size:60px;"">+</div>","null","html-keyboard-response","244","206376","0.0-6.0-0.119","ZDER","4","m","rechts","52","","fixation","","","",""
"921","img/30_180.png","74","image-keyboard-response","245","207308","0.0-6.0-1.119","ZDER","4","m","rechts","52","","","self","j","30","true"
"null","<div style=""font-size:60px;"">+</div>","null","html-keyboard-response","246","207719","0.0-6.0-0.120","ZDER","4","m","rechts","52","","fixation","","","",""
"983","img/L150_180.png","70","image-keyboard-response","247","208715","0.0-6.0-1.120","ZDER","4","m","rechts","52","","","self","f","150","true"
"null","<div style=""font-size:60px;"">+</div>","null","html-keyboard-response","248","209140","0.0-6.0-0.121","ZDER","4","m","rechts","52","","fixation","","","",""
"1489","img/90_300.png","70","image-keyboard-response","249","210639","0.0-6.0-1.121","ZDER","4","m","rechts","52","","","self","f","90","true"
"null","<div style=""font-size:60px;"">+</div>","null","html-keyboard-response","250","210992","0.0-6.0-0.122","ZDER","4","m","rechts","52","","fixation","","","",""
"986","img/60_270.png","70","image-keyboard-response","251","211988","0.0-6.0-1.122","ZDER","4","m","rechts","52","","","self","f","60","true"
"null","<div style=""font-size:60px;"">+</div>","null","html-keyboard-response","252","212399","0.0-6.0-0.123","ZDER","4","m","rechts","52","","fixation","","","",""
"930","img/60_330.png","70","image-keyboard-response","253","213339","0.0-6.0-1.123","ZDER","4","m","rechts","52","","","self","f","60","true"
"null","<div style=""font-size:60px;"">+</div>","null","html-keyboard-response","254","213758","0.0-6.0-0.124","ZDER","4","m","rechts","52","","fixation","","","",""
"828","img/0_270.png","70","image-keyboard-response","255","214599","0.0-6.0-1.124","ZDER","4","m","rechts","52","","","self","f","0","true"
"null","<div style=""font-size:60px;"">+</div>","null","html-keyboard-response","256","215014","0.0-6.0-0.125","ZDER","4","m","rechts","52","","fixation","","","",""
"634","img/0_330.png","70","image-keyboard-response","257","215658","0.0-6.0-1.125","ZDER","4","m","rechts","52","","","self","f","0","true"
"null","<div style=""font-size:60px;"">+</div>","null","html-keyboard-response","258","216125","0.0-6.0-0.126","ZDER","4","m","rechts","52","","fixation","","","",""
"1028","img/150_240.png","74","image-keyboard-response","259","217164","0.0-6.0-1.126","ZDER","4","m","rechts","52","","","self","j","150","true"
"null","<div style=""font-size:60px;"">+</div>","null","html-keyboard-response","260","217624","0.0-6.0-0.127","ZDER","4","m","rechts","52","","fixation","","","",""
"1551","img/60_150.png","70","image-keyboard-response","261","219190","0.0-6.0-1.127","ZDER","4","m","rechts","52","","","self","f","60","true"
"null","<div style=""font-size:60px;"">+</div>","null","html-keyboard-response","262","219608","0.0-6.0-0.128","ZDER","4","m","rechts","52","","fixation","","","",""
"696","img/120_270.png","74","image-keyboard-response","263","220314","0.0-6.0-1.128","ZDER","4","m","rechts","52","","","self","j","120","true"
"null","<div style=""font-size:60px;"">+</div>","null","html-keyboard-response","264","220763","0.0-6.0-0.129","ZDER","4","m","rechts","52","","fixation","","","",""
"1292","img/90_60.png","74","image-keyboard-response","265","222070","0.0-6.0-1.129","ZDER","4","m","rechts","52","","","self","j","90","true"
"null","<div style=""font-size:60px;"">+</div>","null","html-keyboard-response","266","222577","0.0-6.0-0.130","ZDER","4","m","rechts","52","","fixation","","","",""
"1305","img/120_330.png","70","image-keyboard-response","267","223892","0.0-6.0-1.130","ZDER","4","m","rechts","52","","","self","f","120","true"
"null","<div style=""font-size:60px;"">+</div>","null","html-keyboard-response","268","224351","0.0-6.0-0.131","ZDER","4","m","rechts","52","","fixation","","","",""
"1117","img/30_270.png","70","image-keyboard-response","269","225477","0.0-6.0-1.131","ZDER","4","m","rechts","52","","","self","f","30","true"
"null","<div style=""font-size:60px;"">+</div>","null","html-keyboard-response","270","225984","0.0-6.0-0.132","ZDER","4","m","rechts","52","","fixation","","","",""
"1102","img/90_120.png","70","image-keyboard-response","271","227097","0.0-6.0-1.132","ZDER","4","m","rechts","52","","","self","f","90","true"
"null","<div style=""font-size:60px;"">+</div>","null","html-keyboard-response","272","227407","0.0-6.0-0.133","ZDER","4","m","rechts","52","","fixation","","","",""
"1115","img/30_240.png","70","image-keyboard-response","273","228535","0.0-6.0-1.133","ZDER","4","m","rechts","52","","","self","f","30","true"
"null","<div style=""font-size:60px;"">+</div>","null","html-keyboard-response","274","228844","0.0-6.0-0.134","ZDER","4","m","rechts","52","","fixation","","","",""
"1346","img/30_90.png","74","image-keyboard-response","275","230200","0.0-6.0-1.134","ZDER","4","m","rechts","52","","","self","j","30","true"
"null","<div style=""font-size:60px;"">+</div>","null","html-keyboard-response","276","230578","0.0-6.0-0.135","ZDER","4","m","rechts","52","","fixation","","","",""
"1131","img/60_30.png","74","image-keyboard-response","277","231724","0.0-6.0-1.135","ZDER","4","m","rechts","52","","","self","j","60","true"
"null","<div style=""font-size:60px;"">+</div>","null","html-keyboard-response","278","232079","0.0-6.0-0.136","ZDER","4","m","rechts","52","","fixation","","","",""
"1047","img/90_180.png","74","image-keyboard-response","279","233140","0.0-6.0-1.136","ZDER","4","m","rechts","52","","","self","j","90","true"
"null","<div style=""font-size:60px;"">+</div>","null","html-keyboard-response","280","233650","0.0-6.0-0.137","ZDER","4","m","rechts","52","","fixation","","","",""
"782","img/L60_180.png","70","image-keyboard-response","281","234442","0.0-6.0-1.137","ZDER","4","m","rechts","52","","","self","f","60","true"
"null","<div style=""font-size:60px;"">+</div>","null","html-keyboard-response","282","234846","0.0-6.0-0.138","ZDER","4","m","rechts","52","","fixation","","","",""
"654","img/0_240.png","70","image-keyboard-response","283","235512","0.0-6.0-1.138","ZDER","4","m","rechts","52","","","self","f","0","true"
"null","<div style=""font-size:60px;"">+</div>","null","html-keyboard-response","284","235923","0.0-6.0-0.139","ZDER","4","m","rechts","52","","fixation","","","",""
"null","img/0_120.png","null","image-keyboard-response","285","238939","0.0-6.0-1.139","ZDER","4","m","rechts","52","","","self","j","0","false"
"null","<div style=""font-size:60px;"">+</div>","null","html-keyboard-response","286","239360","0.0-6.0-0.140","ZDER","4","m","rechts","52","","fixation","","","",""
"997","img/120_210.png","74","image-keyboard-response","287","240366","0.0-6.0-1.140","ZDER","4","m","rechts","52","","","self","j","120","true"
"null","<div style=""font-size:60px;"">+</div>","null","html-keyboard-response","288","240894","0.0-6.0-0.141","ZDER","4","m","rechts","52","","fixation","","","",""
"783","img/0_300.png","70","image-keyboard-response","289","241689","0.0-6.0-1.141","ZDER","4","m","rechts","52","","","self","f","0","true"
"null","<div style=""font-size:60px;"">+</div>","null","html-keyboard-response","290","242015","0.0-6.0-0.142","ZDER","4","m","rechts","52","","fixation","","","",""
"818","img/150_300.png","74","image-keyboard-response","291","242849","0.0-6.0-1.142","ZDER","4","m","rechts","52","","","self","j","150","true"
"null","<div style=""font-size:60px;"">+</div>","null","html-keyboard-response","292","243374","0.0-6.0-0.143","ZDER","4","m","rechts","52","","fixation","","","",""
"1102","img/60_90.png","74","image-keyboard-response","293","244490","0.0-6.0-1.143","ZDER","4","m","rechts","52","","","self","j","60","true"
"null","<div style=""font-size:60px;"">+</div>","null","html-keyboard-response","294","244896","0.0-6.0-0.144","ZDER","4","m","rechts","52","","fixation","","","",""
"823","img/0_90.png","74","image-keyboard-response","295","245729","0.0-6.0-1.144","ZDER","4","m","rechts","52","","","self","j","0","true"
"null","<div style=""font-size:60px;"">+</div>","null","html-keyboard-response","296","246255","0.0-6.0-0.145","ZDER","4","m","rechts","52","","fixation","","","",""
"924","img/90_30.png","74","image-keyboard-response","297","247190","0.0-6.0-1.145","ZDER","4","m","rechts","52","","","self","j","90","true"
"null","<div style=""font-size:60px;"">+</div>","null","html-keyboard-response","298","247520","0.0-6.0-0.146","ZDER","4","m","rechts","52","","fixation","","","",""
"886","img/150_270.png","74","image-keyboard-response","299","248408","0.0-6.0-1.146","ZDER","4","m","rechts","52","","","self","j","150","true"
"null","<div style=""font-size:60px;"">+</div>","null","html-keyboard-response","300","248832","0.0-6.0-0.147","ZDER","4","m","rechts","52","","fixation","","","",""
"809","img/0_150.png","74","image-keyboard-response","301","249654","0.0-6.0-1.147","ZDER","4","m","rechts","52","","","self","j","0","true"
"null","<div style=""font-size:60px;"">+</div>","null","html-keyboard-response","302","250022","0.0-6.0-0.148","ZDER","4","m","rechts","52","","fixation","","","",""
"666","img/150_180.png","74","image-keyboard-response","303","250701","0.0-6.0-1.148","ZDER","4","m","rechts","52","","","self","j","150","true"
"null","<div style=""font-size:60px;"">+</div>","null","html-keyboard-response","304","251161","0.0-6.0-0.149","ZDER","4","m","rechts","52","","fixation","","","",""
"719","img/120_150.png","70","image-keyboard-response","305","251893","0.0-6.0-1.149","ZDER","4","m","rechts","52","","","self","f","120","true"
"null","<div style=""font-size:60px;"">+</div>","null","html-keyboard-response","306","252216","0.0-6.0-0.150","ZDER","4","m","rechts","52","","fixation","","","",""
"824","img/90_210.png","74","image-keyboard-response","307","253053","0.0-6.0-1.150","ZDER","4","m","rechts","52","","","self","j","90","true"
"null","<div style=""font-size:60px;"">+</div>","null","html-keyboard-response","308","253418","0.0-6.0-0.151","ZDER","4","m","rechts","52","","fixation","","","",""
"903","img/30_120.png","74","image-keyboard-response","309","254334","0.0-6.0-1.151","ZDER","4","m","rechts","52","","","self","j","30","true"
"null","<div style=""font-size:60px;"">+</div>","null","html-keyboard-response","310","254746","0.0-6.0-0.152","ZDER","4","m","rechts","52","","fixation","","","",""
"969","img/60_210.png","74","image-keyboard-response","311","255719","0.0-6.0-1.152","ZDER","4","m","rechts","52","","","self","j","60","true"
"null","<div style=""font-size:60px;"">+</div>","null","html-keyboard-response","312","256183","0.0-6.0-0.153","ZDER","4","m","rechts","52","","fixation","","","",""
"726","img/30_60.png","74","image-keyboard-response","313","256923","0.0-6.0-1.153","ZDER","4","m","rechts","52","","","self","j","30","true"
"null","<div style=""font-size:60px;"">+</div>","null","html-keyboard-response","314","257230","0.0-6.0-0.154","ZDER","4","m","rechts","52","","fixation","","","",""
"837","img/60_180.png","74","image-keyboard-response","315","258082","0.0-6.0-1.154","ZDER","4","m","rechts","52","","","self","j","60","true"
"null","<div style=""font-size:60px;"">+</div>","null","html-keyboard-response","316","258386","0.0-6.0-0.155","ZDER","4","m","rechts","52","","fixation","","","",""
"693","img/0_30.png","74","image-keyboard-response","317","259092","0.0-6.0-1.155","ZDER","4","m","rechts","52","","","self","j","0","true"
"null","<div style=""font-size:60px;"">+</div>","null","html-keyboard-response","318","259607","0.0-6.0-0.156","ZDER","4","m","rechts","52","","fixation","","","",""
"817","img/L90_180.png","70","image-keyboard-response","319","260433","0.0-6.0-1.156","ZDER","4","m","rechts","52","","","self","f","90","true"
"null","<div style=""font-size:60px;"">+</div>","null","html-keyboard-response","320","260888","0.0-6.0-0.157","ZDER","4","m","rechts","52","","fixation","","","",""
"779","img/150_90.png","70","image-keyboard-response","321","261680","0.0-6.0-1.157","ZDER","4","m","rechts","52","","","self","f","150","true"
"null","<div style=""font-size:60px;"">+</div>","null","html-keyboard-response","322","262014","0.0-6.0-0.158","ZDER","4","m","rechts","52","","fixation","","","",""
"941","img/0_90.png","74","image-keyboard-response","323","262963","0.0-6.0-1.158","ZDER","4","m","rechts","52","","","self","j","0","true"
"null","<div style=""font-size:60px;"">+</div>","null","html-keyboard-response","324","263389","0.0-6.0-0.159","ZDER","4","m","rechts","52","","fixation","","","",""
"1186","img/30_240.png","70","image-keyboard-response","325","264582","0.0-6.0-1.159","ZDER","4","m","rechts","52","","","self","f","30","true"
"null","<div style=""font-size:60px;"">+</div>","null","html-keyboard-response","326","265092","0.0-6.0-0.160","ZDER","4","m","rechts","52","","fixation","","","",""
"878","img/L60_180.png","70","image-keyboard-response","327","265979","0.0-6.0-1.160","ZDER","4","m","rechts","52","","","self","f","60","true"
"null","<div style=""font-size:60px;"">+</div>","null","html-keyboard-response","328","266387","0.0-6.0-0.161","ZDER","4","m","rechts","52","","fixation","","","",""
"599","img/120_180.png","74","image-keyboard-response","329","267001","0.0-6.0-1.161","ZDER","4","m","rechts","52","","","self","j","120","true"
"null","<div style=""font-size:60px;"">+</div>","null","html-keyboard-response","330","267434","0.0-6.0-0.162","ZDER","4","m","rechts","52","","fixation","","","",""
"738","img/150_180.png","74","image-keyboard-response","331","268196","0.0-6.0-1.162","ZDER","4","m","rechts","52","","","self","j","150","true"
"null","<div style=""font-size:60px;"">+</div>","null","html-keyboard-response","332","268701","0.0-6.0-0.163","ZDER","4","m","rechts","52","","fixation","","","",""
"642","img/L150_180.png","70","image-keyboard-response","333","269353","0.0-6.0-1.163","ZDER","4","m","rechts","52","","","self","f","150","true"
"null","<div style=""font-size:60px;"">+</div>","null","html-keyboard-response","334","269810","0.0-6.0-0.164","ZDER","4","m","rechts","52","","fixation","","","",""
"1120","img/30_60.png","74","image-keyboard-response","335","270940","0.0-6.0-1.164","ZDER","4","m","rechts","52","","","self","j","30","true"
"null","<div style=""font-size:60px;"">+</div>","null","html-keyboard-response","336","271343","0.0-6.0-0.165","ZDER","4","m","rechts","52","","fixation","","","",""
"723","img/60_30.png","74","image-keyboard-response","337","272074","0.0-6.0-1.165","ZDER","4","m","rechts","52","","","self","j","60","true"
"null","<div style=""font-size:60px;"">+</div>","null","html-keyboard-response","338","272405","0.0-6.0-0.166","ZDER","4","m","rechts","52","","fixation","","","",""
"1153","img/90_330.png","70","image-keyboard-response","339","273571","0.0-6.0-1.166","ZDER","4","m","rechts","52","","","self","f","90","true"
"null","<div style=""font-size:60px;"">+</div>","null","html-keyboard-response","340","274076","0.0-6.0-0.167","ZDER","4","m","rechts","52","","fixation","","","",""
"1083","img/60_150.png","70","image-keyboard-response","341","275170","0.0-6.0-1.167","ZDER","4","m","rechts","52","","","self","f","60","true"
"null","<div style=""font-size:60px;"">+</div>","null","html-keyboard-response","342","275636","0.0-6.0-0.168","ZDER","4","m","rechts","52","","fixation","","","",""
"706","img/0_30.png","74","image-keyboard-response","343","276351","0.0-6.0-1.168","ZDER","4","m","rechts","52","","","self","j","0","true"
"null","<div style=""font-size:60px;"">+</div>","null","html-keyboard-response","344","276807","0.0-6.0-0.169","ZDER","4","m","rechts","52","","fixation","","","",""
"624","img/0_240.png","70","image-keyboard-response","345","277442","0.0-6.0-1.169","ZDER","4","m","rechts","52","","","self","f","0","true"
"null","<div style=""font-size:60px;"">+</div>","null","html-keyboard-response","346","277807","0.0-6.0-0.170","ZDER","4","m","rechts","52","","fixation","","","",""
"808","img/90_120.png","70","image-keyboard-response","347","278624","0.0-6.0-1.170","ZDER","4","m","rechts","52","","","self","f","90","true"
"null","<div style=""font-size:60px;"">+</div>","null","html-keyboard-response","348","278979","0.0-6.0-0.171","ZDER","4","m","rechts","52","","fixation","","","",""
"846","img/30_90.png","74","image-keyboard-response","349","279838","0.0-6.0-1.171","ZDER","4","m","rechts","52","","","self","j","30","true"
"null","<div style=""font-size:60px;"">+</div>","null","html-keyboard-response","350","280260","0.0-6.0-0.172","ZDER","4","m","rechts","52","","fixation","","","",""
"814","img/120_90.png","70","image-keyboard-response","351","281089","0.0-6.0-1.172","ZDER","4","m","rechts","52","","","self","f","120","true"
"null","<div style=""font-size:60px;"">+</div>","null","html-keyboard-response","352","281556","0.0-6.0-0.173","ZDER","4","m","rechts","52","","fixation","","","",""
"1000","img/0_270.png","70","image-keyboard-response","353","282560","0.0-6.0-1.173","ZDER","4","m","rechts","52","","","self","f","0","true"
"null","<div style=""font-size:60px;"">+</div>","null","html-keyboard-response","354","282916","0.0-6.0-0.174","ZDER","4","m","rechts","52","","fixation","","","",""
"760","img/150_60.png","70","image-keyboard-response","355","283686","0.0-6.0-1.174","ZDER","4","m","rechts","52","","","self","f","150","true"
"null","<div style=""font-size:60px;"">+</div>","null","html-keyboard-response","356","284151","0.0-6.0-0.175","ZDER","4","m","rechts","52","","fixation","","","",""
"818","img/0_120.png","74","image-keyboard-response","357","284979","0.0-6.0-1.175","ZDER","4","m","rechts","52","","","self","j","0","true"
"null","<div style=""font-size:60px;"">+</div>","null","html-keyboard-response","358","285495","0.0-6.0-0.176","ZDER","4","m","rechts","52","","fixation","","","",""
"999","img/120_150.png","70","image-keyboard-response","359","286498","0.0-6.0-1.176","ZDER","4","m","rechts","52","","","self","f","120","true"
"null","<div style=""font-size:60px;"">+</div>","null","html-keyboard-response","360","286855","0.0-6.0-0.177","ZDER","4","m","rechts","52","","fixation","","","",""
"994","img/120_30.png","74","image-keyboard-response","361","287862","0.0-6.0-1.177","ZDER","4","m","rechts","52","","","self","j","120","true"
"null","<div style=""font-size:60px;"">+</div>","null","html-keyboard-response","362","288278","0.0-6.0-0.178","ZDER","4","m","rechts","52","","fixation","","","",""
"720","img/90_150.png","70","image-keyboard-response","363","289009","0.0-6.0-1.178","ZDER","4","m","rechts","52","","","self","f","90","true"
"null","<div style=""font-size:60px;"">+</div>","null","html-keyboard-response","364","289374","0.0-6.0-0.179","ZDER","4","m","rechts","52","","fixation","","","",""
"600","img/120_210.png","74","image-keyboard-response","365","289987","0.0-6.0-1.179","ZDER","4","m","rechts","52","","","self","j","120","true"
"null","<div style=""font-size:60px;"">+</div>","null","html-keyboard-response","366","290405","0.0-6.0-0.180","ZDER","4","m","rechts","52","","fixation","","","",""
"1391","img/90_300.png","70","image-keyboard-response","367","291811","0.0-6.0-1.180","ZDER","4","m","rechts","52","","","self","f","90","true"
"null","<div style=""font-size:60px;"">+</div>","null","html-keyboard-response","368","292171","0.0-6.0-0.181","ZDER","4","m","rechts","52","","fixation","","","",""
"630","img/90_240.png","74","image-keyboard-response","369","292810","0.0-6.0-1.181","ZDER","4","m","rechts","52","","","self","j","90","true"
"null","<div style=""font-size:60px;"">+</div>","null","html-keyboard-response","370","293265","0.0-6.0-0.182","ZDER","4","m","rechts","52","","fixation","","","",""
"668","img/120_270.png","74","image-keyboard-response","371","293948","0.0-6.0-1.182","ZDER","4","m","rechts","52","","","self","j","120","true"
"null","<div style=""font-size:60px;"">+</div>","null","html-keyboard-response","372","294416","0.0-6.0-0.183","ZDER","4","m","rechts","52","","fixation","","","",""
"713","img/30_180.png","74","image-keyboard-response","373","295139","0.0-6.0-1.183","ZDER","4","m","rechts","52","","","self","j","30","true"
"null","<div style=""font-size:60px;"">+</div>","null","html-keyboard-response","374","295564","0.0-6.0-0.184","ZDER","4","m","rechts","52","","fixation","","","",""
"1091","img/60_330.png","70","image-keyboard-response","375","296659","0.0-6.0-1.184","ZDER","4","m","rechts","52","","","self","f","60","true"
"null","<div style=""font-size:60px;"">+</div>","null","html-keyboard-response","376","297126","0.0-6.0-0.185","ZDER","4","m","rechts","52","","fixation","","","",""
"1845","img/150_120.png","74","image-keyboard-response","377","298985","0.0-6.0-1.185","ZDER","4","m","rechts","52","","","self","f","150","false"
"null","<div style=""font-size:60px;"">+</div>","null","html-keyboard-response","378","299516","0.0-6.0-0.186","ZDER","4","m","rechts","52","","fixation","","","",""
"714","img/0_210.png","70","image-keyboard-response","379","300235","0.0-6.0-1.186","ZDER","4","m","rechts","52","","","self","f","0","true"
"null","<div style=""font-size:60px;"">+</div>","null","html-keyboard-response","380","300767","0.0-6.0-0.187","ZDER","4","m","rechts","52","","fixation","","","",""
"1109","img/120_330.png","70","image-keyboard-response","381","301889","0.0-6.0-1.187","ZDER","4","m","rechts","52","","","self","f","120","true"
"null","<div style=""font-size:60px;"">+</div>","null","html-keyboard-response","382","302346","0.0-6.0-0.188","ZDER","4","m","rechts","52","","fixation","","","",""
"915","img/90_180.png","74","image-keyboard-response","383","303271","0.0-6.0-1.188","ZDER","4","m","rechts","52","","","self","j","90","true"
"null","<div style=""font-size:60px;"">+</div>","null","html-keyboard-response","384","303736","0.0-6.0-0.189","ZDER","4","m","rechts","52","","fixation","","","",""
"1347","img/30_300.png","70","image-keyboard-response","385","305096","0.0-6.0-1.189","ZDER","4","m","rechts","52","","","self","f","30","true"
"null","<div style=""font-size:60px;"">+</div>","null","html-keyboard-response","386","305502","0.0-6.0-0.190","ZDER","4","m","rechts","52","","fixation","","","",""
"780","img/0_300.png","70","image-keyboard-response","387","306287","0.0-6.0-1.190","ZDER","4","m","rechts","52","","","self","f","0","true"
"null","<div style=""font-size:60px;"">+</div>","null","html-keyboard-response","388","306754","0.0-6.0-0.191","ZDER","4","m","rechts","52","","fixation","","","",""
"612","img/150_240.png","74","image-keyboard-response","389","307381","0.0-6.0-1.191","ZDER","4","m","rechts","52","","","self","j","150","true"
"null","<div style=""font-size:60px;"">+</div>","null","html-keyboard-response","390","307689","0.0-6.0-0.192","ZDER","4","m","rechts","52","","fixation","","","",""
"509","img/0_150.png","74","image-keyboard-response","391","308212","0.0-6.0-1.192","ZDER","4","m","rechts","52","","","self","j","0","true"
"null","<div style=""font-size:60px;"">+</div>","null","html-keyboard-response","392","308533","0.0-6.0-0.193","ZDER","4","m","rechts","52","","fixation","","","",""
"977","img/60_270.png","70","image-keyboard-response","393","309515","0.0-6.0-1.193","ZDER","4","m","rechts","52","","","self","f","60","true"
"null","<div style=""font-size:60px;"">+</div>","null","html-keyboard-response","394","309966","0.0-6.0-0.194","ZDER","4","m","rechts","52","","fixation","","","",""
"730","img/60_210.png","74","image-keyboard-response","395","310707","0.0-6.0-1.194","ZDER","4","m","rechts","52","","","self","j","60","true"
"null","<div style=""font-size:60px;"">+</div>","null","html-keyboard-response","396","311013","0.0-6.0-0.195","ZDER","4","m","rechts","52","","fixation","","","",""
"970","img/30_120.png","74","image-keyboard-response","397","311992","0.0-6.0-1.195","ZDER","4","m","rechts","52","","","self","j","30","true"
"null","<div style=""font-size:60px;"">+</div>","null","html-keyboard-response","398","312325","0.0-6.0-0.196","ZDER","4","m","rechts","52","","fixation","","","",""
"859","img/60_90.png","74","image-keyboard-response","399","313196","0.0-6.0-1.196","ZDER","4","m","rechts","52","","","self","j","60","true"
"null","<div style=""font-size:60px;"">+</div>","null","html-keyboard-response","400","313668","0.0-6.0-0.197","ZDER","4","m","rechts","52","","fixation","","","",""
"773","img/90_30.png","74","image-keyboard-response","401","314455","0.0-6.0-1.197","ZDER","4","m","rechts","52","","","self","j","90","true"
"null","<div style=""font-size:60px;"">+</div>","null","html-keyboard-response","402","314818","0.0-6.0-0.198","ZDER","4","m","rechts","52","","fixation","","","",""
"1266","img/30_270.png","70","image-keyboard-response","403","316099","0.0-6.0-1.198","ZDER","4","m","rechts","52","","","self","f","30","true"
"null","<div style=""font-size:60px;"">+</div>","null","html-keyboard-response","404","316464","0.0-6.0-0.199","ZDER","4","m","rechts","52","","fixation","","","",""
"669","img/60_180.png","74","image-keyboard-response","405","317145","0.0-6.0-1.199","ZDER","4","m","rechts","52","","","self","j","60","true"
"null","<div style=""font-size:60px;"">+</div>","null","html-keyboard-response","406","317572","0.0-6.0-0.200","ZDER","4","m","rechts","52","","fixation","","","",""
"1021","img/90_60.png","74","image-keyboard-response","407","318606","0.0-6.0-1.200","ZDER","4","m","rechts","52","","","self","j","90","true"
"null","<div style=""font-size:60px;"">+</div>","null","html-keyboard-response","408","319135","0.0-6.0-0.201","ZDER","4","m","rechts","52","","fixation","","","",""
"753","img/150_270.png","74","image-keyboard-response","409","319901","0.0-6.0-1.201","ZDER","4","m","rechts","52","","","self","j","150","true"
"null","<div style=""font-size:60px;"">+</div>","null","html-keyboard-response","410","320318","0.0-6.0-0.202","ZDER","4","m","rechts","52","","fixation","","","",""
"659","img/0_60.png","74","image-keyboard-response","411","320992","0.0-6.0-1.202","ZDER","4","m","rechts","52","","","self","j","0","true"
"null","<div style=""font-size:60px;"">+</div>","null","html-keyboard-response","412","321318","0.0-6.0-0.203","ZDER","4","m","rechts","52","","fixation","","","",""
"818","img/L120_180.png","70","image-keyboard-response","413","322151","0.0-6.0-1.203","ZDER","4","m","rechts","52","","","self","f","120","true"
"null","<div style=""font-size:60px;"">+</div>","null","html-keyboard-response","414","322662","0.0-6.0-0.204","ZDER","4","m","rechts","52","","fixation","","","",""
"658","img/150_300.png","74","image-keyboard-response","415","323331","0.0-6.0-1.204","ZDER","4","m","rechts","52","","","self","j","150","true"
"null","<div style=""font-size:60px;"">+</div>","null","html-keyboard-response","416","323786","0.0-6.0-0.205","ZDER","4","m","rechts","52","","fixation","","","",""
"700","img/0_330.png","70","image-keyboard-response","417","324499","0.0-6.0-1.205","ZDER","4","m","rechts","52","","","self","f","0","true"
"null","<div style=""font-size:60px;"">+</div>","null","html-keyboard-response","418","324959","0.0-6.0-0.206","ZDER","4","m","rechts","52","","fixation","","","",""
"734","img/L30_180.png","70","image-keyboard-response","419","325706","0.0-6.0-1.206","ZDER","4","m","rechts","52","","","self","f","30","true"
"null","<div style=""font-size:60px;"">+</div>","null","html-keyboard-response","420","326162","0.0-6.0-0.207","ZDER","4","m","rechts","52","","fixation","","","",""
"612","img/90_210.png","74","image-keyboard-response","421","326788","0.0-6.0-1.207","ZDER","4","m","rechts","52","","","self","j","90","true"
"48000","<p>Du hast in 94% der Versuche korrekt entschieden.</p><p>Deine durchschnittliche Reaktionszeit war  1012ms.</p><p>Dr&uuml;cke eine beliebige Taste, um die Session zu beenden. Vielen Dank!</p>","32","html-keyboard-response","422","374793","0.0-7.0","ZDER","4","m","rechts","52","","","","","",""
