"rt","stimulus","key_press","trial_type","trial_index","time_elapsed","internal_node_id","subject","session","sex","handedness","age","responses","test_part","condition","correct_response","angle","correct"
"1491","<p>Mental Rotation Experiment.</p> <p>Dr&uuml;cke eine beliebige Taste, um anzufangen.</p>","13","html-keyboard-response","0","1530","0.0-0.0","ZDER","1","m","rechts","52","","","","","",""
"12610","","","survey-text","1","14143","0.0-1.0","ZDER","1","m","rechts","52","{""Q0"":""ZDER""}","","","","",""
"7607","","","survey-text","2","21752","0.0-2.0","ZDER","1","m","rechts","52","{""Q0"":""1""}","","","","",""
"9134","","","survey-multi-choice","3","30890","0.0-3.0","ZDER","1","m","rechts","52","{""Q0"":""m"",""Q1"":""rechts""}","","","","",""
"2463","","","survey-text","4","33353","0.0-4.0","ZDER","1","m","rechts","52","{""Q0"":""52""}","","","","",""
"7550","<p> Stell dir vor, dass du vor einem runden Tisch stehst, auf dem sich ein blauer Ball am Tischrand befindet. Entlang des Tischrands ist jeweils ein verschieden langer Pfeil. Nun bewegst du dich entlang dieses Pfeils bis an seine Spitze. Wenn du am Ende des Pfeils angekommen bist, schau zur Tischmitte. </p> <img src='img/90_180.png'></img> <br> <p>Entscheide dann, ob der Ball von deiner neuen (vorgestellten) Position links oder rechts von dir liegt.</p> <p>Dr&uuml;cke die <strong>'f'</strong>-Taste f&uuml;r links, die <strong>'j'</strong>-Taste f&uuml;r rechts.</p> <br><p> Das Bild wird jeweils 1 Sekunde lang pr&auml;sentiert. Du hast 3 Sekunden Zeit eine Entscheidung zu treffen.</p>","74","html-keyboard-response","5","40920","0.0-5.0","ZDER","1","m","rechts","52","","","","","",""
"null","<div style=""font-size:60px;"">+</div>","null","html-keyboard-response","6","42446","0.0-6.0-0.0","ZDER","1","m","rechts","52","","fixation","","","",""
"2454","img/30_270.png","70","image-keyboard-response","7","44921","0.0-6.0-1.0","ZDER","1","m","rechts","52","","","self","f","30","true"
"null","<div style=""font-size:60px;"">+</div>","null","html-keyboard-response","8","45338","0.0-6.0-0.1","ZDER","1","m","rechts","52","","fixation","","","",""
"2290","img/90_210.png","74","image-keyboard-response","9","47648","0.0-6.0-1.1","ZDER","1","m","rechts","52","","","self","j","90","true"
"null","<div style=""font-size:60px;"">+</div>","null","html-keyboard-response","10","48003","0.0-6.0-0.2","ZDER","1","m","rechts","52","","fixation","","","",""
"2641","img/90_300.png","70","image-keyboard-response","11","50662","0.0-6.0-1.2","ZDER","1","m","rechts","52","","","self","f","90","true"
"null","<div style=""font-size:60px;"">+</div>","null","html-keyboard-response","12","51128","0.0-6.0-0.3","ZDER","1","m","rechts","52","","fixation","","","",""
"null","img/90_120.png","null","image-keyboard-response","13","54151","0.0-6.0-1.3","ZDER","1","m","rechts","52","","","self","f","90","false"
"null","<div style=""font-size:60px;"">+</div>","null","html-keyboard-response","14","54466","0.0-6.0-0.4","ZDER","1","m","rechts","52","","fixation","","","",""
"443","img/90_150.png","70","image-keyboard-response","15","54924","0.0-6.0-1.4","ZDER","1","m","rechts","52","","","self","f","90","true"
"null","<div style=""font-size:60px;"">+</div>","null","html-keyboard-response","16","55232","0.0-6.0-0.5","ZDER","1","m","rechts","52","","fixation","","","",""
"2499","img/60_330.png","70","image-keyboard-response","17","57751","0.0-6.0-1.5","ZDER","1","m","rechts","52","","","self","f","60","true"
"null","<div style=""font-size:60px;"">+</div>","null","html-keyboard-response","18","58277","0.0-6.0-0.6","ZDER","1","m","rechts","52","","fixation","","","",""
"1261","img/0_300.png","70","image-keyboard-response","19","59557","0.0-6.0-1.6","ZDER","1","m","rechts","52","","","self","f","0","true"
"null","<div style=""font-size:60px;"">+</div>","null","html-keyboard-response","20","59983","0.0-6.0-0.7","ZDER","1","m","rechts","52","","fixation","","","",""
"1771","img/120_150.png","70","image-keyboard-response","21","61773","0.0-6.0-1.7","ZDER","1","m","rechts","52","","","self","f","120","true"
"null","<div style=""font-size:60px;"">+</div>","null","html-keyboard-response","22","62076","0.0-6.0-0.8","ZDER","1","m","rechts","52","","fixation","","","",""
"1983","img/0_270.png","70","image-keyboard-response","23","64080","0.0-6.0-1.8","ZDER","1","m","rechts","52","","","self","f","0","true"
"null","<div style=""font-size:60px;"">+</div>","null","html-keyboard-response","24","64497","0.0-6.0-0.9","ZDER","1","m","rechts","52","","fixation","","","",""
"2404","img/150_60.png","70","image-keyboard-response","25","66918","0.0-6.0-1.9","ZDER","1","m","rechts","52","","","self","f","150","true"
"null","<div style=""font-size:60px;"">+</div>","null","html-keyboard-response","26","67228","0.0-6.0-0.10","ZDER","1","m","rechts","52","","fixation","","","",""
"null","img/L90_180.png","null","image-keyboard-response","27","70273","0.0-6.0-1.10","ZDER","1","m","rechts","52","","","self","f","90","false"
"null","<div style=""font-size:60px;"">+</div>","null","html-keyboard-response","28","70648","0.0-6.0-0.11","ZDER","1","m","rechts","52","","fixation","","","",""
"237","img/30_240.png","70","image-keyboard-response","29","70903","0.0-6.0-1.11","ZDER","1","m","rechts","52","","","self","f","30","true"
"null","<div style=""font-size:60px;"">+</div>","null","html-keyboard-response","30","71211","0.0-6.0-0.12","ZDER","1","m","rechts","52","","fixation","","","",""
"2258","img/150_180.png","74","image-keyboard-response","31","73487","0.0-6.0-1.12","ZDER","1","m","rechts","52","","","self","j","150","true"
"null","<div style=""font-size:60px;"">+</div>","null","html-keyboard-response","32","73905","0.0-6.0-0.13","ZDER","1","m","rechts","52","","fixation","","","",""
"2217","img/90_180.png","74","image-keyboard-response","33","76133","0.0-6.0-1.13","ZDER","1","m","rechts","52","","","self","j","90","true"
"null","<div style=""font-size:60px;"">+</div>","null","html-keyboard-response","34","76549","0.0-6.0-0.14","ZDER","1","m","rechts","52","","fixation","","","",""
"1402","img/0_60.png","74","image-keyboard-response","35","77972","0.0-6.0-1.14","ZDER","1","m","rechts","52","","","self","j","0","true"
"null","<div style=""font-size:60px;"">+</div>","null","html-keyboard-response","36","78494","0.0-6.0-0.15","ZDER","1","m","rechts","52","","fixation","","","",""
"null","img/30_120.png","null","image-keyboard-response","37","81526","0.0-6.0-1.15","ZDER","1","m","rechts","52","","","self","j","30","false"
"null","<div style=""font-size:60px;"">+</div>","null","html-keyboard-response","38","81892","0.0-6.0-0.16","ZDER","1","m","rechts","52","","fixation","","","",""
"null","img/150_270.png","null","image-keyboard-response","39","84941","0.0-6.0-1.16","ZDER","1","m","rechts","52","","","self","j","150","false"
"null","<div style=""font-size:60px;"">+</div>","null","html-keyboard-response","40","85453","0.0-6.0-0.17","ZDER","1","m","rechts","52","","fixation","","","",""
"null","img/150_240.png","null","image-keyboard-response","41","88466","0.0-6.0-1.17","ZDER","1","m","rechts","52","","","self","j","150","false"
"null","<div style=""font-size:60px;"">+</div>","null","html-keyboard-response","42","88878","0.0-6.0-0.18","ZDER","1","m","rechts","52","","fixation","","","",""
"15","img/0_90.png","70","image-keyboard-response","43","88913","0.0-6.0-1.18","ZDER","1","m","rechts","52","","","self","j","0","false"
"null","<div style=""font-size:60px;"">+</div>","null","html-keyboard-response","44","89331","0.0-6.0-0.19","ZDER","1","m","rechts","52","","fixation","","","",""
"2937","img/90_330.png","70","image-keyboard-response","45","92288","0.0-6.0-1.19","ZDER","1","m","rechts","52","","","self","f","90","true"
"null","<div style=""font-size:60px;"">+</div>","null","html-keyboard-response","46","92816","0.0-6.0-0.20","ZDER","1","m","rechts","52","","fixation","","","",""
"1082","img/0_240.png","70","image-keyboard-response","47","93903","0.0-6.0-1.20","ZDER","1","m","rechts","52","","","self","f","0","true"
"null","<div style=""font-size:60px;"">+</div>","null","html-keyboard-response","48","94362","0.0-6.0-0.21","ZDER","1","m","rechts","52","","fixation","","","",""
"2598","img/L60_180.png","70","image-keyboard-response","49","96978","0.0-6.0-1.21","ZDER","1","m","rechts","52","","","self","f","60","true"
"null","<div style=""font-size:60px;"">+</div>","null","html-keyboard-response","50","97290","0.0-6.0-0.22","ZDER","1","m","rechts","52","","fixation","","","",""
"2637","img/L150_180.png","70","image-keyboard-response","51","99938","0.0-6.0-1.22","ZDER","1","m","rechts","52","","","self","f","150","true"
"null","<div style=""font-size:60px;"">+</div>","null","html-keyboard-response","52","100465","0.0-6.0-0.23","ZDER","1","m","rechts","52","","fixation","","","",""
"2453","img/30_180.png","74","image-keyboard-response","53","102933","0.0-6.0-1.23","ZDER","1","m","rechts","52","","","self","j","30","true"
"null","<div style=""font-size:60px;"">+</div>","null","html-keyboard-response","54","103446","0.0-6.0-0.24","ZDER","1","m","rechts","52","","fixation","","","",""
"2663","img/90_60.png","74","image-keyboard-response","55","106126","0.0-6.0-1.24","ZDER","1","m","rechts","52","","","self","j","90","true"
"null","<div style=""font-size:60px;"">+</div>","null","html-keyboard-response","56","106591","0.0-6.0-0.25","ZDER","1","m","rechts","52","","fixation","","","",""
"1607","img/L120_180.png","70","image-keyboard-response","57","108215","0.0-6.0-1.25","ZDER","1","m","rechts","52","","","self","f","120","true"
"null","<div style=""font-size:60px;"">+</div>","null","html-keyboard-response","58","108540","0.0-6.0-0.26","ZDER","1","m","rechts","52","","fixation","","","",""
"1107","img/0_210.png","70","image-keyboard-response","59","109665","0.0-6.0-1.26","ZDER","1","m","rechts","52","","","self","f","0","true"
"null","<div style=""font-size:60px;"">+</div>","null","html-keyboard-response","60","110129","0.0-6.0-0.27","ZDER","1","m","rechts","52","","fixation","","","",""
"2987","img/150_90.png","70","image-keyboard-response","61","113136","0.0-6.0-1.27","ZDER","1","m","rechts","52","","","self","f","150","true"
"null","<div style=""font-size:60px;"">+</div>","null","html-keyboard-response","62","113493","0.0-6.0-0.28","ZDER","1","m","rechts","52","","fixation","","","",""
"null","img/30_60.png","null","image-keyboard-response","63","116539","0.0-6.0-1.28","ZDER","1","m","rechts","52","","","self","j","30","false"
"null","<div style=""font-size:60px;"">+</div>","null","html-keyboard-response","64","116864","0.0-6.0-0.29","ZDER","1","m","rechts","52","","fixation","","","",""
"null","img/L30_180.png","null","image-keyboard-response","65","119892","0.0-6.0-1.29","ZDER","1","m","rechts","52","","","self","f","30","false"
"null","<div style=""font-size:60px;"">+</div>","null","html-keyboard-response","66","120245","0.0-6.0-0.30","ZDER","1","m","rechts","52","","fixation","","","",""
"1303","img/0_120.png","74","image-keyboard-response","67","121567","0.0-6.0-1.30","ZDER","1","m","rechts","52","","","self","j","0","true"
"null","<div style=""font-size:60px;"">+</div>","null","html-keyboard-response","68","122074","0.0-6.0-0.31","ZDER","1","m","rechts","52","","fixation","","","",""
"1295","img/0_330.png","70","image-keyboard-response","69","123390","0.0-6.0-1.31","ZDER","1","m","rechts","52","","","self","f","0","true"
"null","<div style=""font-size:60px;"">+</div>","null","html-keyboard-response","70","123903","0.0-6.0-0.32","ZDER","1","m","rechts","52","","fixation","","","",""
"1419","img/60_150.png","70","image-keyboard-response","71","125327","0.0-6.0-1.32","ZDER","1","m","rechts","52","","","self","f","60","true"
"null","<div style=""font-size:60px;"">+</div>","null","html-keyboard-response","72","125639","0.0-6.0-0.33","ZDER","1","m","rechts","52","","fixation","","","",""
"1966","img/120_330.png","70","image-keyboard-response","73","127622","0.0-6.0-1.33","ZDER","1","m","rechts","52","","","self","f","120","true"
"null","<div style=""font-size:60px;"">+</div>","null","html-keyboard-response","74","128136","0.0-6.0-0.34","ZDER","1","m","rechts","52","","fixation","","","",""
"2407","img/60_270.png","70","image-keyboard-response","75","130561","0.0-6.0-1.34","ZDER","1","m","rechts","52","","","self","f","60","true"
"null","<div style=""font-size:60px;"">+</div>","null","html-keyboard-response","76","130916","0.0-6.0-0.35","ZDER","1","m","rechts","52","","fixation","","","",""
"2999","img/60_90.png","74","image-keyboard-response","77","133933","0.0-6.0-1.35","ZDER","1","m","rechts","52","","","self","j","60","true"
"null","<div style=""font-size:60px;"">+</div>","null","html-keyboard-response","78","134462","0.0-6.0-0.36","ZDER","1","m","rechts","52","","fixation","","","",""
"1320","img/150_120.png","70","image-keyboard-response","79","135799","0.0-6.0-1.36","ZDER","1","m","rechts","52","","","self","f","150","true"
"null","<div style=""font-size:60px;"">+</div>","null","html-keyboard-response","80","136305","0.0-6.0-0.37","ZDER","1","m","rechts","52","","fixation","","","",""
"1860","img/120_210.png","74","image-keyboard-response","81","138184","0.0-6.0-1.37","ZDER","1","m","rechts","52","","","self","j","120","true"
"null","<div style=""font-size:60px;"">+</div>","null","html-keyboard-response","82","138589","0.0-6.0-0.38","ZDER","1","m","rechts","52","","fixation","","","",""
"1624","img/30_90.png","74","image-keyboard-response","83","140232","0.0-6.0-1.38","ZDER","1","m","rechts","52","","","self","j","30","true"
"null","<div style=""font-size:60px;"">+</div>","null","html-keyboard-response","84","140683","0.0-6.0-0.39","ZDER","1","m","rechts","52","","fixation","","","",""
"2694","img/150_300.png","74","image-keyboard-response","85","143397","0.0-6.0-1.39","ZDER","1","m","rechts","52","","","self","j","150","true"
"null","<div style=""font-size:60px;"">+</div>","null","html-keyboard-response","86","143753","0.0-6.0-0.40","ZDER","1","m","rechts","52","","fixation","","","",""
"1886","img/60_210.png","74","image-keyboard-response","87","145656","0.0-6.0-1.40","ZDER","1","m","rechts","52","","","self","j","60","true"
"null","<div style=""font-size:60px;"">+</div>","null","html-keyboard-response","88","146061","0.0-6.0-0.41","ZDER","1","m","rechts","52","","fixation","","","",""
"1835","img/120_30.png","70","image-keyboard-response","89","147913","0.0-6.0-1.41","ZDER","1","m","rechts","52","","","self","j","120","false"
"null","<div style=""font-size:60px;"">+</div>","null","html-keyboard-response","90","148219","0.0-6.0-0.42","ZDER","1","m","rechts","52","","fixation","","","",""
"1728","img/60_30.png","74","image-keyboard-response","91","149964","0.0-6.0-1.42","ZDER","1","m","rechts","52","","","self","j","60","true"
"null","<div style=""font-size:60px;"">+</div>","null","html-keyboard-response","92","150272","0.0-6.0-0.43","ZDER","1","m","rechts","52","","fixation","","","",""
"1650","img/120_180.png","74","image-keyboard-response","93","151942","0.0-6.0-1.43","ZDER","1","m","rechts","52","","","self","j","120","true"
"null","<div style=""font-size:60px;"">+</div>","null","html-keyboard-response","94","152305","0.0-6.0-0.44","ZDER","1","m","rechts","52","","fixation","","","",""
"2448","img/30_300.png","70","image-keyboard-response","95","154770","0.0-6.0-1.44","ZDER","1","m","rechts","52","","","self","f","30","true"
"null","<div style=""font-size:60px;"">+</div>","null","html-keyboard-response","96","155095","0.0-6.0-0.45","ZDER","1","m","rechts","52","","fixation","","","",""
"2212","img/90_30.png","74","image-keyboard-response","97","157325","0.0-6.0-1.45","ZDER","1","m","rechts","52","","","self","j","90","true"
"null","<div style=""font-size:60px;"">+</div>","null","html-keyboard-response","98","157743","0.0-6.0-0.46","ZDER","1","m","rechts","52","","fixation","","","",""
"null","img/90_240.png","null","image-keyboard-response","99","160778","0.0-6.0-1.46","ZDER","1","m","rechts","52","","","self","j","90","false"
"null","<div style=""font-size:60px;"">+</div>","null","html-keyboard-response","100","161182","0.0-6.0-0.47","ZDER","1","m","rechts","52","","fixation","","","",""
"1172","img/0_150.png","74","image-keyboard-response","101","162372","0.0-6.0-1.47","ZDER","1","m","rechts","52","","","self","j","0","true"
"null","<div style=""font-size:60px;"">+</div>","null","html-keyboard-response","102","162682","0.0-6.0-0.48","ZDER","1","m","rechts","52","","fixation","","","",""
"null","img/120_90.png","null","image-keyboard-response","103","165706","0.0-6.0-1.48","ZDER","1","m","rechts","52","","","self","f","120","false"
"null","<div style=""font-size:60px;"">+</div>","null","html-keyboard-response","104","166167","0.0-6.0-0.49","ZDER","1","m","rechts","52","","fixation","","","",""
"14","img/60_180.png","70","image-keyboard-response","105","166202","0.0-6.0-1.49","ZDER","1","m","rechts","52","","","self","j","60","false"
"null","<div style=""font-size:60px;"">+</div>","null","html-keyboard-response","106","166730","0.0-6.0-0.50","ZDER","1","m","rechts","52","","fixation","","","",""
"2026","img/120_270.png","74","image-keyboard-response","107","168773","0.0-6.0-1.50","ZDER","1","m","rechts","52","","","self","j","120","true"
"null","<div style=""font-size:60px;"">+</div>","null","html-keyboard-response","108","169175","0.0-6.0-0.51","ZDER","1","m","rechts","52","","fixation","","","",""
"1032","img/0_30.png","74","image-keyboard-response","109","170223","0.0-6.0-1.51","ZDER","1","m","rechts","52","","","self","j","0","true"
"null","<div style=""font-size:60px;"">+</div>","null","html-keyboard-response","110","170580","0.0-6.0-0.52","ZDER","1","m","rechts","52","","fixation","","","",""
"1695","img/90_30.png","74","image-keyboard-response","111","172284","0.0-6.0-1.52","ZDER","1","m","rechts","52","","","self","j","90","true"
"null","<div style=""font-size:60px;"">+</div>","null","html-keyboard-response","112","172752","0.0-6.0-0.53","ZDER","1","m","rechts","52","","fixation","","","",""
"1125","img/0_330.png","70","image-keyboard-response","113","173888","0.0-6.0-1.53","ZDER","1","m","rechts","52","","","self","f","0","true"
"null","<div style=""font-size:60px;"">+</div>","null","html-keyboard-response","114","174418","0.0-6.0-0.54","ZDER","1","m","rechts","52","","fixation","","","",""
"2334","img/120_150.png","70","image-keyboard-response","115","176765","0.0-6.0-1.54","ZDER","1","m","rechts","52","","","self","f","120","true"
"null","<div style=""font-size:60px;"">+</div>","null","html-keyboard-response","116","177073","0.0-6.0-0.55","ZDER","1","m","rechts","52","","fixation","","","",""
"1800","img/90_150.png","70","image-keyboard-response","117","178888","0.0-6.0-1.55","ZDER","1","m","rechts","52","","","self","f","90","true"
"null","<div style=""font-size:60px;"">+</div>","null","html-keyboard-response","118","179401","0.0-6.0-0.56","ZDER","1","m","rechts","52","","fixation","","","",""
"2600","img/30_60.png","74","image-keyboard-response","119","182011","0.0-6.0-1.56","ZDER","1","m","rechts","52","","","self","j","30","true"
"null","<div style=""font-size:60px;"">+</div>","null","html-keyboard-response","120","182462","0.0-6.0-0.57","ZDER","1","m","rechts","52","","fixation","","","",""
"1971","img/30_120.png","74","image-keyboard-response","121","184446","0.0-6.0-1.57","ZDER","1","m","rechts","52","","","self","j","30","true"
"null","<div style=""font-size:60px;"">+</div>","null","html-keyboard-response","122","184957","0.0-6.0-0.58","ZDER","1","m","rechts","52","","fixation","","","",""
"2175","img/120_210.png","74","image-keyboard-response","123","187136","0.0-6.0-1.58","ZDER","1","m","rechts","52","","","self","j","120","true"
"null","<div style=""font-size:60px;"">+</div>","null","html-keyboard-response","124","187553","0.0-6.0-0.59","ZDER","1","m","rechts","52","","fixation","","","",""
"887","img/120_180.png","74","image-keyboard-response","125","188449","0.0-6.0-1.59","ZDER","1","m","rechts","52","","","self","j","120","true"
"null","<div style=""font-size:60px;"">+</div>","null","html-keyboard-response","126","188804","0.0-6.0-0.60","ZDER","1","m","rechts","52","","fixation","","","",""
"2813","img/L30_180.png","70","image-keyboard-response","127","191626","0.0-6.0-1.60","ZDER","1","m","rechts","52","","","self","f","30","true"
"null","<div style=""font-size:60px;"">+</div>","null","html-keyboard-response","128","192029","0.0-6.0-0.61","ZDER","1","m","rechts","52","","fixation","","","",""
"991","img/0_30.png","74","image-keyboard-response","129","193029","0.0-6.0-1.61","ZDER","1","m","rechts","52","","","self","j","0","true"
"null","<div style=""font-size:60px;"">+</div>","null","html-keyboard-response","130","193400","0.0-6.0-0.62","ZDER","1","m","rechts","52","","fixation","","","",""
"1002","img/0_240.png","70","image-keyboard-response","131","194414","0.0-6.0-1.62","ZDER","1","m","rechts","52","","","self","f","0","true"
"null","<div style=""font-size:60px;"">+</div>","null","html-keyboard-response","132","194743","0.0-6.0-0.63","ZDER","1","m","rechts","52","","fixation","","","",""
"null","img/150_60.png","null","image-keyboard-response","133","197778","0.0-6.0-1.63","ZDER","1","m","rechts","52","","","self","f","150","false"
"null","<div style=""font-size:60px;"">+</div>","null","html-keyboard-response","134","198306","0.0-6.0-0.64","ZDER","1","m","rechts","52","","fixation","","","",""
"2533","img/150_240.png","74","image-keyboard-response","135","200852","0.0-6.0-1.64","ZDER","1","m","rechts","52","","","self","j","150","true"
"null","<div style=""font-size:60px;"">+</div>","null","html-keyboard-response","136","201223","0.0-6.0-0.65","ZDER","1","m","rechts","52","","fixation","","","",""
"1893","img/120_330.png","70","image-keyboard-response","137","203126","0.0-6.0-1.65","ZDER","1","m","rechts","52","","","self","f","120","true"
"null","<div style=""font-size:60px;"">+</div>","null","html-keyboard-response","138","203448","0.0-6.0-0.66","ZDER","1","m","rechts","52","","fixation","","","",""
"1383","img/60_150.png","70","image-keyboard-response","139","204840","0.0-6.0-1.66","ZDER","1","m","rechts","52","","","self","f","60","true"
"null","<div style=""font-size:60px;"">+</div>","null","html-keyboard-response","140","205306","0.0-6.0-0.67","ZDER","1","m","rechts","52","","fixation","","","",""
"1411","img/L60_180.png","70","image-keyboard-response","141","206730","0.0-6.0-1.67","ZDER","1","m","rechts","52","","","self","f","60","true"
"null","<div style=""font-size:60px;"">+</div>","null","html-keyboard-response","142","207254","0.0-6.0-0.68","ZDER","1","m","rechts","52","","fixation","","","",""
"2589","img/120_270.png","74","image-keyboard-response","143","209852","0.0-6.0-1.68","ZDER","1","m","rechts","52","","","self","j","120","true"
"null","<div style=""font-size:60px;"">+</div>","null","html-keyboard-response","144","210318","0.0-6.0-0.69","ZDER","1","m","rechts","52","","fixation","","","",""
"1623","img/150_300.png","74","image-keyboard-response","145","211950","0.0-6.0-1.69","ZDER","1","m","rechts","52","","","self","j","150","true"
"null","<div style=""font-size:60px;"">+</div>","null","html-keyboard-response","146","212457","0.0-6.0-0.70","ZDER","1","m","rechts","52","","fixation","","","",""
"2403","img/90_240.png","74","image-keyboard-response","147","214869","0.0-6.0-1.70","ZDER","1","m","rechts","52","","","self","j","90","true"
"null","<div style=""font-size:60px;"">+</div>","null","html-keyboard-response","148","215319","0.0-6.0-0.71","ZDER","1","m","rechts","52","","fixation","","","",""
"1077","img/0_150.png","74","image-keyboard-response","149","216405","0.0-6.0-1.71","ZDER","1","m","rechts","52","","","self","j","0","true"
"null","<div style=""font-size:60px;"">+</div>","null","html-keyboard-response","150","216834","0.0-6.0-0.72","ZDER","1","m","rechts","52","","fixation","","","",""
"2346","img/60_30.png","74","image-keyboard-response","151","219190","0.0-6.0-1.72","ZDER","1","m","rechts","52","","","self","j","60","true"
"null","<div style=""font-size:60px;"">+</div>","null","html-keyboard-response","152","219505","0.0-6.0-0.73","ZDER","1","m","rechts","52","","fixation","","","",""
"2338","img/90_300.png","70","image-keyboard-response","153","221856","0.0-6.0-1.73","ZDER","1","m","rechts","52","","","self","f","90","true"
"null","<div style=""font-size:60px;"">+</div>","null","html-keyboard-response","154","222370","0.0-6.0-0.74","ZDER","1","m","rechts","52","","fixation","","","",""
"2231","img/150_90.png","70","image-keyboard-response","155","224613","0.0-6.0-1.74","ZDER","1","m","rechts","52","","","self","f","150","true"
"null","<div style=""font-size:60px;"">+</div>","null","html-keyboard-response","156","225124","0.0-6.0-0.75","ZDER","1","m","rechts","52","","fixation","","","",""
"null","img/90_210.png","null","image-keyboard-response","157","228156","0.0-6.0-1.75","ZDER","1","m","rechts","52","","","self","j","90","false"
"null","<div style=""font-size:60px;"">+</div>","null","html-keyboard-response","158","228635","0.0-6.0-0.76","ZDER","1","m","rechts","52","","fixation","","","",""
"943","img/0_300.png","70","image-keyboard-response","159","229591","0.0-6.0-1.76","ZDER","1","m","rechts","52","","","self","f","0","true"
"null","<div style=""font-size:60px;"">+</div>","null","html-keyboard-response","160","229947","0.0-6.0-0.77","ZDER","1","m","rechts","52","","fixation","","","",""
"1998","img/60_270.png","70","image-keyboard-response","161","231954","0.0-6.0-1.77","ZDER","1","m","rechts","52","","","self","f","60","true"
"null","<div style=""font-size:60px;"">+</div>","null","html-keyboard-response","162","232463","0.0-6.0-0.78","ZDER","1","m","rechts","52","","fixation","","","",""
"941","img/0_90.png","74","image-keyboard-response","163","233416","0.0-6.0-1.78","ZDER","1","m","rechts","52","","","self","j","0","true"
"null","<div style=""font-size:60px;"">+</div>","null","html-keyboard-response","164","233933","0.0-6.0-0.79","ZDER","1","m","rechts","52","","fixation","","","",""
"2257","img/150_180.png","74","image-keyboard-response","165","236198","0.0-6.0-1.79","ZDER","1","m","rechts","52","","","self","j","150","true"
"null","<div style=""font-size:60px;"">+</div>","null","html-keyboard-response","166","236726","0.0-6.0-0.80","ZDER","1","m","rechts","52","","fixation","","","",""
"2030","img/30_180.png","74","image-keyboard-response","167","238769","0.0-6.0-1.80","ZDER","1","m","rechts","52","","","self","j","30","true"
"null","<div style=""font-size:60px;"">+</div>","null","html-keyboard-response","168","239125","0.0-6.0-0.81","ZDER","1","m","rechts","52","","fixation","","","",""
"1029","img/0_210.png","70","image-keyboard-response","169","240167","0.0-6.0-1.81","ZDER","1","m","rechts","52","","","self","f","0","true"
"null","<div style=""font-size:60px;"">+</div>","null","html-keyboard-response","170","240545","0.0-6.0-0.82","ZDER","1","m","rechts","52","","fixation","","","",""
"1994","img/0_270.png","70","image-keyboard-response","171","242552","0.0-6.0-1.82","ZDER","1","m","rechts","52","","","self","f","0","true"
"null","<div style=""font-size:60px;"">+</div>","null","html-keyboard-response","172","243063","0.0-6.0-0.83","ZDER","1","m","rechts","52","","fixation","","","",""
"1479","img/L90_180.png","70","image-keyboard-response","173","244554","0.0-6.0-1.83","ZDER","1","m","rechts","52","","","self","f","90","true"
"null","<div style=""font-size:60px;"">+</div>","null","html-keyboard-response","174","244868","0.0-6.0-0.84","ZDER","1","m","rechts","52","","fixation","","","",""
"1294","img/0_120.png","74","image-keyboard-response","175","246173","0.0-6.0-1.84","ZDER","1","m","rechts","52","","","self","j","0","true"
"null","<div style=""font-size:60px;"">+</div>","null","html-keyboard-response","176","246476","0.0-6.0-0.85","ZDER","1","m","rechts","52","","fixation","","","",""
"1308","img/30_90.png","74","image-keyboard-response","177","247795","0.0-6.0-1.85","ZDER","1","m","rechts","52","","","self","j","30","true"
"null","<div style=""font-size:60px;"">+</div>","null","html-keyboard-response","178","248211","0.0-6.0-0.86","ZDER","1","m","rechts","52","","fixation","","","",""
"1956","img/90_180.png","74","image-keyboard-response","179","250180","0.0-6.0-1.86","ZDER","1","m","rechts","52","","","self","j","90","true"
"null","<div style=""font-size:60px;"">+</div>","null","html-keyboard-response","180","250712","0.0-6.0-0.87","ZDER","1","m","rechts","52","","fixation","","","",""
"2360","img/90_120.png","70","image-keyboard-response","181","253086","0.0-6.0-1.87","ZDER","1","m","rechts","52","","","self","f","90","true"
"null","<div style=""font-size:60px;"">+</div>","null","html-keyboard-response","182","253494","0.0-6.0-0.88","ZDER","1","m","rechts","52","","fixation","","","",""
"2854","img/150_270.png","74","image-keyboard-response","183","256362","0.0-6.0-1.88","ZDER","1","m","rechts","52","","","self","j","150","true"
"null","<div style=""font-size:60px;"">+</div>","null","html-keyboard-response","184","256874","0.0-6.0-0.89","ZDER","1","m","rechts","52","","fixation","","","",""
"null","img/30_300.png","null","image-keyboard-response","185","259900","0.0-6.0-1.89","ZDER","1","m","rechts","52","","","self","f","30","false"
"null","<div style=""font-size:60px;"">+</div>","null","html-keyboard-response","186","260319","0.0-6.0-0.90","ZDER","1","m","rechts","52","","fixation","","","",""
"1421","img/60_210.png","74","image-keyboard-response","187","261755","0.0-6.0-1.90","ZDER","1","m","rechts","52","","","self","j","60","true"
"null","<div style=""font-size:60px;"">+</div>","null","html-keyboard-response","188","262258","0.0-6.0-0.91","ZDER","1","m","rechts","52","","fixation","","","",""
"1410","img/60_330.png","70","image-keyboard-response","189","263680","0.0-6.0-1.91","ZDER","1","m","rechts","52","","","self","f","60","true"
"null","<div style=""font-size:60px;"">+</div>","null","html-keyboard-response","190","264182","0.0-6.0-0.92","ZDER","1","m","rechts","52","","fixation","","","",""
"1522","img/150_120.png","70","image-keyboard-response","191","265717","0.0-6.0-1.92","ZDER","1","m","rechts","52","","","self","f","150","true"
"null","<div style=""font-size:60px;"">+</div>","null","html-keyboard-response","192","266182","0.0-6.0-0.93","ZDER","1","m","rechts","52","","fixation","","","",""
"1513","img/60_180.png","74","image-keyboard-response","193","267706","0.0-6.0-1.93","ZDER","1","m","rechts","52","","","self","j","60","true"
"null","<div style=""font-size:60px;"">+</div>","null","html-keyboard-response","194","268073","0.0-6.0-0.94","ZDER","1","m","rechts","52","","fixation","","","",""
"1143","img/0_60.png","74","image-keyboard-response","195","269227","0.0-6.0-1.94","ZDER","1","m","rechts","52","","","self","j","0","true"
"null","<div style=""font-size:60px;"">+</div>","null","html-keyboard-response","196","269636","0.0-6.0-0.95","ZDER","1","m","rechts","52","","fixation","","","",""
"1416","img/L120_180.png","70","image-keyboard-response","197","271068","0.0-6.0-1.95","ZDER","1","m","rechts","52","","","self","f","120","true"
"null","<div style=""font-size:60px;"">+</div>","null","html-keyboard-response","198","271449","0.0-6.0-0.96","ZDER","1","m","rechts","52","","fixation","","","",""
"1454","img/90_60.png","74","image-keyboard-response","199","272916","0.0-6.0-1.96","ZDER","1","m","rechts","52","","","self","j","90","true"
"null","<div style=""font-size:60px;"">+</div>","null","html-keyboard-response","200","273324","0.0-6.0-0.97","ZDER","1","m","rechts","52","","fixation","","","",""
"1414","img/L150_180.png","70","image-keyboard-response","201","274751","0.0-6.0-1.97","ZDER","1","m","rechts","52","","","self","f","150","true"
"null","<div style=""font-size:60px;"">+</div>","null","html-keyboard-response","202","275167","0.0-6.0-0.98","ZDER","1","m","rechts","52","","fixation","","","",""
"2534","img/120_30.png","74","image-keyboard-response","203","277714","0.0-6.0-1.98","ZDER","1","m","rechts","52","","","self","j","120","true"
"null","<div style=""font-size:60px;"">+</div>","null","html-keyboard-response","204","278178","0.0-6.0-0.99","ZDER","1","m","rechts","52","","fixation","","","",""
"2300","img/60_90.png","74","image-keyboard-response","205","280492","0.0-6.0-1.99","ZDER","1","m","rechts","52","","","self","j","60","true"
"null","<div style=""font-size:60px;"">+</div>","null","html-keyboard-response","206","280894","0.0-6.0-0.100","ZDER","1","m","rechts","52","","fixation","","","",""
"1244","img/120_90.png","70","image-keyboard-response","207","282151","0.0-6.0-1.100","ZDER","1","m","rechts","52","","","self","f","120","true"
"null","<div style=""font-size:60px;"">+</div>","null","html-keyboard-response","208","282531","0.0-6.0-0.101","ZDER","1","m","rechts","52","","fixation","","","",""
"2054","img/30_240.png","70","image-keyboard-response","209","284598","0.0-6.0-1.101","ZDER","1","m","rechts","52","","","self","f","30","true"
"null","<div style=""font-size:60px;"">+</div>","null","html-keyboard-response","210","284955","0.0-6.0-0.102","ZDER","1","m","rechts","52","","fixation","","","",""
"1460","img/30_270.png","70","image-keyboard-response","211","286428","0.0-6.0-1.102","ZDER","1","m","rechts","52","","","self","f","30","true"
"null","<div style=""font-size:60px;"">+</div>","null","html-keyboard-response","212","286783","0.0-6.0-0.103","ZDER","1","m","rechts","52","","fixation","","","",""
"2409","img/90_330.png","70","image-keyboard-response","213","289206","0.0-6.0-1.103","ZDER","1","m","rechts","52","","","self","f","90","true"
"null","<div style=""font-size:60px;"">+</div>","null","html-keyboard-response","214","289530","0.0-6.0-0.104","ZDER","1","m","rechts","52","","fixation","","","",""
"1409","img/90_180.png","74","image-keyboard-response","215","290950","0.0-6.0-1.104","ZDER","1","m","rechts","52","","","self","j","90","true"
"null","<div style=""font-size:60px;"">+</div>","null","html-keyboard-response","216","291263","0.0-6.0-0.105","ZDER","1","m","rechts","52","","fixation","","","",""
"1800","img/30_120.png","74","image-keyboard-response","217","293076","0.0-6.0-1.105","ZDER","1","m","rechts","52","","","self","j","30","true"
"null","<div style=""font-size:60px;"">+</div>","null","html-keyboard-response","218","293435","0.0-6.0-0.106","ZDER","1","m","rechts","52","","fixation","","","",""
"2561","img/L60_180.png","70","image-keyboard-response","219","296006","0.0-6.0-1.106","ZDER","1","m","rechts","52","","","self","f","60","true"
"null","<div style=""font-size:60px;"">+</div>","null","html-keyboard-response","220","296455","0.0-6.0-0.107","ZDER","1","m","rechts","52","","fixation","","","",""
"2913","img/120_270.png","74","image-keyboard-response","221","299380","0.0-6.0-1.107","ZDER","1","m","rechts","52","","","self","j","120","true"
"null","<div style=""font-size:60px;"">+</div>","null","html-keyboard-response","222","299894","0.0-6.0-0.108","ZDER","1","m","rechts","52","","fixation","","","",""
"1062","img/0_90.png","74","image-keyboard-response","223","300963","0.0-6.0-1.108","ZDER","1","m","rechts","52","","","self","j","0","true"
"null","<div style=""font-size:60px;"">+</div>","null","html-keyboard-response","224","301426","0.0-6.0-0.109","ZDER","1","m","rechts","52","","fixation","","","",""
"811","img/0_270.png","70","image-keyboard-response","225","302247","0.0-6.0-1.109","ZDER","1","m","rechts","52","","","self","f","0","true"
"null","<div style=""font-size:60px;"">+</div>","null","html-keyboard-response","226","302565","0.0-6.0-0.110","ZDER","1","m","rechts","52","","fixation","","","",""
"1741","img/60_180.png","74","image-keyboard-response","227","304316","0.0-6.0-1.110","ZDER","1","m","rechts","52","","","self","j","60","true"
"null","<div style=""font-size:60px;"">+</div>","null","html-keyboard-response","228","304783","0.0-6.0-0.111","ZDER","1","m","rechts","52","","fixation","","","",""
"1772","img/60_270.png","74","image-keyboard-response","229","306565","0.0-6.0-1.111","ZDER","1","m","rechts","52","","","self","f","60","false"
"null","<div style=""font-size:60px;"">+</div>","null","html-keyboard-response","230","306881","0.0-6.0-0.112","ZDER","1","m","rechts","52","","fixation","","","",""
"null","img/120_30.png","null","image-keyboard-response","231","309907","0.0-6.0-1.112","ZDER","1","m","rechts","52","","","self","j","120","false"
"null","<div style=""font-size:60px;"">+</div>","null","html-keyboard-response","232","310240","0.0-6.0-0.113","ZDER","1","m","rechts","52","","fixation","","","",""
"2309","img/90_240.png","74","image-keyboard-response","233","312563","0.0-6.0-1.113","ZDER","1","m","rechts","52","","","self","j","90","true"
"null","<div style=""font-size:60px;"">+</div>","null","html-keyboard-response","234","312965","0.0-6.0-0.114","ZDER","1","m","rechts","52","","fixation","","","",""
"1330","img/60_330.png","70","image-keyboard-response","235","314306","0.0-6.0-1.114","ZDER","1","m","rechts","52","","","self","f","60","true"
"null","<div style=""font-size:60px;"">+</div>","null","html-keyboard-response","236","314834","0.0-6.0-0.115","ZDER","1","m","rechts","52","","fixation","","","",""
"1213","img/120_210.png","74","image-keyboard-response","237","316061","0.0-6.0-1.115","ZDER","1","m","rechts","52","","","self","j","120","true"
"null","<div style=""font-size:60px;"">+</div>","null","html-keyboard-response","238","316366","0.0-6.0-0.116","ZDER","1","m","rechts","52","","fixation","","","",""
"1081","img/90_210.png","74","image-keyboard-response","239","317457","0.0-6.0-1.116","ZDER","1","m","rechts","52","","","self","j","90","true"
"null","<div style=""font-size:60px;"">+</div>","null","html-keyboard-response","240","317834","0.0-6.0-0.117","ZDER","1","m","rechts","52","","fixation","","","",""
"1043","img/0_210.png","70","image-keyboard-response","241","318886","0.0-6.0-1.117","ZDER","1","m","rechts","52","","","self","f","0","true"
"null","<div style=""font-size:60px;"">+</div>","null","html-keyboard-response","242","319418","0.0-6.0-0.118","ZDER","1","m","rechts","52","","fixation","","","",""
"2262","img/30_300.png","70","image-keyboard-response","243","321691","0.0-6.0-1.118","ZDER","1","m","rechts","52","","","self","f","30","true"
"null","<div style=""font-size:60px;"">+</div>","null","html-keyboard-response","244","322217","0.0-6.0-0.119","ZDER","1","m","rechts","52","","fixation","","","",""
"1007","img/0_120.png","74","image-keyboard-response","245","323234","0.0-6.0-1.119","ZDER","1","m","rechts","52","","","self","j","0","true"
"null","<div style=""font-size:60px;"">+</div>","null","html-keyboard-response","246","323601","0.0-6.0-0.120","ZDER","1","m","rechts","52","","fixation","","","",""
"1535","img/150_240.png","74","image-keyboard-response","247","325150","0.0-6.0-1.120","ZDER","1","m","rechts","52","","","self","j","150","true"
"null","<div style=""font-size:60px;"">+</div>","null","html-keyboard-response","248","325664","0.0-6.0-0.121","ZDER","1","m","rechts","52","","fixation","","","",""
"900","img/150_270.png","74","image-keyboard-response","249","326569","0.0-6.0-1.121","ZDER","1","m","rechts","52","","","self","j","150","true"
"null","<div style=""font-size:60px;"">+</div>","null","html-keyboard-response","250","327024","0.0-6.0-0.122","ZDER","1","m","rechts","52","","fixation","","","",""
"2279","img/90_30.png","74","image-keyboard-response","251","329316","0.0-6.0-1.122","ZDER","1","m","rechts","52","","","self","j","90","true"
"null","<div style=""font-size:60px;"">+</div>","null","html-keyboard-response","252","329735","0.0-6.0-0.123","ZDER","1","m","rechts","52","","fixation","","","",""
"2081","img/60_210.png","74","image-keyboard-response","253","331825","0.0-6.0-1.123","ZDER","1","m","rechts","52","","","self","j","60","true"
"null","<div style=""font-size:60px;"">+</div>","null","html-keyboard-response","254","332290","0.0-6.0-0.124","ZDER","1","m","rechts","52","","fixation","","","",""
"902","img/0_300.png","70","image-keyboard-response","255","333203","0.0-6.0-1.124","ZDER","1","m","rechts","52","","","self","f","0","true"
"null","<div style=""font-size:60px;"">+</div>","null","html-keyboard-response","256","333727","0.0-6.0-0.125","ZDER","1","m","rechts","52","","fixation","","","",""
"1579","img/120_330.png","70","image-keyboard-response","257","335322","0.0-6.0-1.125","ZDER","1","m","rechts","52","","","self","f","120","true"
"null","<div style=""font-size:60px;"">+</div>","null","html-keyboard-response","258","335682","0.0-6.0-0.126","ZDER","1","m","rechts","52","","fixation","","","",""
"2537","img/L150_180.png","70","image-keyboard-response","259","338228","0.0-6.0-1.126","ZDER","1","m","rechts","52","","","self","f","150","true"
"null","<div style=""font-size:60px;"">+</div>","null","html-keyboard-response","260","338747","0.0-6.0-0.127","ZDER","1","m","rechts","52","","fixation","","","",""
"2507","img/60_90.png","74","image-keyboard-response","261","341263","0.0-6.0-1.127","ZDER","1","m","rechts","52","","","self","j","60","true"
"null","<div style=""font-size:60px;"">+</div>","null","html-keyboard-response","262","341743","0.0-6.0-0.128","ZDER","1","m","rechts","52","","fixation","","","",""
"1105","img/L90_180.png","70","image-keyboard-response","263","342859","0.0-6.0-1.128","ZDER","1","m","rechts","52","","","self","f","90","true"
"null","<div style=""font-size:60px;"">+</div>","null","html-keyboard-response","264","343324","0.0-6.0-0.129","ZDER","1","m","rechts","52","","fixation","","","",""
"2410","img/30_180.png","74","image-keyboard-response","265","345743","0.0-6.0-1.129","ZDER","1","m","rechts","52","","","self","j","30","true"
"null","<div style=""font-size:60px;"">+</div>","null","html-keyboard-response","266","346115","0.0-6.0-0.130","ZDER","1","m","rechts","52","","fixation","","","",""
"2193","img/30_60.png","74","image-keyboard-response","267","348319","0.0-6.0-1.130","ZDER","1","m","rechts","52","","","self","j","30","true"
"null","<div style=""font-size:60px;"">+</div>","null","html-keyboard-response","268","348830","0.0-6.0-0.131","ZDER","1","m","rechts","52","","fixation","","","",""
"1286","img/150_120.png","70","image-keyboard-response","269","350126","0.0-6.0-1.131","ZDER","1","m","rechts","52","","","self","f","150","true"
"null","<div style=""font-size:60px;"">+</div>","null","html-keyboard-response","270","350532","0.0-6.0-0.132","ZDER","1","m","rechts","52","","fixation","","","",""
"2085","img/30_240.png","70","image-keyboard-response","271","352628","0.0-6.0-1.132","ZDER","1","m","rechts","52","","","self","f","30","true"
"null","<div style=""font-size:60px;"">+</div>","null","html-keyboard-response","272","353141","0.0-6.0-0.133","ZDER","1","m","rechts","52","","fixation","","","",""
"2180","img/90_60.png","74","image-keyboard-response","273","355332","0.0-6.0-1.133","ZDER","1","m","rechts","52","","","self","j","90","true"
"null","<div style=""font-size:60px;"">+</div>","null","html-keyboard-response","274","355844","0.0-6.0-0.134","ZDER","1","m","rechts","52","","fixation","","","",""
"2049","img/30_270.png","70","image-keyboard-response","275","357904","0.0-6.0-1.134","ZDER","1","m","rechts","52","","","self","f","30","true"
"null","<div style=""font-size:60px;"">+</div>","null","html-keyboard-response","276","358323","0.0-6.0-0.135","ZDER","1","m","rechts","52","","fixation","","","",""
"1004","img/0_150.png","74","image-keyboard-response","277","359340","0.0-6.0-1.135","ZDER","1","m","rechts","52","","","self","j","0","true"
"null","<div style=""font-size:60px;"">+</div>","null","html-keyboard-response","278","359807","0.0-6.0-0.136","ZDER","1","m","rechts","52","","fixation","","","",""
"1725","img/120_180.png","74","image-keyboard-response","279","361545","0.0-6.0-1.136","ZDER","1","m","rechts","52","","","self","j","120","true"
"null","<div style=""font-size:60px;"">+</div>","null","html-keyboard-response","280","361868","0.0-6.0-0.137","ZDER","1","m","rechts","52","","fixation","","","",""
"1903","img/120_150.png","70","image-keyboard-response","281","363784","0.0-6.0-1.137","ZDER","1","m","rechts","52","","","self","f","120","true"
"null","<div style=""font-size:60px;"">+</div>","null","html-keyboard-response","282","364151","0.0-6.0-0.138","ZDER","1","m","rechts","52","","fixation","","","",""
"924","img/0_240.png","70","image-keyboard-response","283","365089","0.0-6.0-1.138","ZDER","1","m","rechts","52","","","self","f","0","true"
"null","<div style=""font-size:60px;"">+</div>","null","html-keyboard-response","284","365558","0.0-6.0-0.139","ZDER","1","m","rechts","52","","fixation","","","",""
"1788","img/150_60.png","70","image-keyboard-response","285","367361","0.0-6.0-1.139","ZDER","1","m","rechts","52","","","self","f","150","true"
"null","<div style=""font-size:60px;"">+</div>","null","html-keyboard-response","286","367683","0.0-6.0-0.140","ZDER","1","m","rechts","52","","fixation","","","",""
"2698","img/L120_180.png","70","image-keyboard-response","287","370390","0.0-6.0-1.140","ZDER","1","m","rechts","52","","","self","f","120","true"
"null","<div style=""font-size:60px;"">+</div>","null","html-keyboard-response","288","370818","0.0-6.0-0.141","ZDER","1","m","rechts","52","","fixation","","","",""
"1089","img/120_90.png","70","image-keyboard-response","289","371916","0.0-6.0-1.141","ZDER","1","m","rechts","52","","","self","f","120","true"
"null","<div style=""font-size:60px;"">+</div>","null","html-keyboard-response","290","372316","0.0-6.0-0.142","ZDER","1","m","rechts","52","","fixation","","","",""
"1522","img/30_90.png","74","image-keyboard-response","291","373842","0.0-6.0-1.142","ZDER","1","m","rechts","52","","","self","j","30","true"
"null","<div style=""font-size:60px;"">+</div>","null","html-keyboard-response","292","374293","0.0-6.0-0.143","ZDER","1","m","rechts","52","","fixation","","","",""
"1241","img/60_30.png","74","image-keyboard-response","293","375539","0.0-6.0-1.143","ZDER","1","m","rechts","52","","","self","j","60","true"
"null","<div style=""font-size:60px;"">+</div>","null","html-keyboard-response","294","375996","0.0-6.0-0.144","ZDER","1","m","rechts","52","","fixation","","","",""
"1522","img/150_180.png","74","image-keyboard-response","295","377531","0.0-6.0-1.144","ZDER","1","m","rechts","52","","","self","j","150","true"
"null","<div style=""font-size:60px;"">+</div>","null","html-keyboard-response","296","377903","0.0-6.0-0.145","ZDER","1","m","rechts","52","","fixation","","","",""
"1741","img/L30_180.png","70","image-keyboard-response","297","379657","0.0-6.0-1.145","ZDER","1","m","rechts","52","","","self","f","30","true"
"null","<div style=""font-size:60px;"">+</div>","null","html-keyboard-response","298","380137","0.0-6.0-0.146","ZDER","1","m","rechts","52","","fixation","","","",""
"1148","img/0_30.png","74","image-keyboard-response","299","381298","0.0-6.0-1.146","ZDER","1","m","rechts","52","","","self","j","0","true"
"null","<div style=""font-size:60px;"">+</div>","null","html-keyboard-response","300","381615","0.0-6.0-0.147","ZDER","1","m","rechts","52","","fixation","","","",""
"835","img/0_60.png","74","image-keyboard-response","301","382462","0.0-6.0-1.147","ZDER","1","m","rechts","52","","","self","j","0","true"
"null","<div style=""font-size:60px;"">+</div>","null","html-keyboard-response","302","382912","0.0-6.0-0.148","ZDER","1","m","rechts","52","","fixation","","","",""
"1727","img/90_300.png","74","image-keyboard-response","303","384652","0.0-6.0-1.148","ZDER","1","m","rechts","52","","","self","f","90","false"
"null","<div style=""font-size:60px;"">+</div>","null","html-keyboard-response","304","385021","0.0-6.0-0.149","ZDER","1","m","rechts","52","","fixation","","","",""
"1012","img/0_330.png","70","image-keyboard-response","305","386046","0.0-6.0-1.149","ZDER","1","m","rechts","52","","","self","f","0","true"
"null","<div style=""font-size:60px;"">+</div>","null","html-keyboard-response","306","386349","0.0-6.0-0.150","ZDER","1","m","rechts","52","","fixation","","","",""
"1723","img/90_120.png","70","image-keyboard-response","307","388085","0.0-6.0-1.150","ZDER","1","m","rechts","52","","","self","f","90","true"
"null","<div style=""font-size:60px;"">+</div>","null","html-keyboard-response","308","388600","0.0-6.0-0.151","ZDER","1","m","rechts","52","","fixation","","","",""
"1010","img/60_150.png","70","image-keyboard-response","309","389623","0.0-6.0-1.151","ZDER","1","m","rechts","52","","","self","f","60","true"
"null","<div style=""font-size:60px;"">+</div>","null","html-keyboard-response","310","390085","0.0-6.0-0.152","ZDER","1","m","rechts","52","","fixation","","","",""
"2639","img/90_330.png","70","image-keyboard-response","311","392734","0.0-6.0-1.152","ZDER","1","m","rechts","52","","","self","f","90","true"
"null","<div style=""font-size:60px;"">+</div>","null","html-keyboard-response","312","393091","0.0-6.0-0.153","ZDER","1","m","rechts","52","","fixation","","","",""
"2119","img/90_150.png","70","image-keyboard-response","313","395223","0.0-6.0-1.153","ZDER","1","m","rechts","52","","","self","f","90","true"
"null","<div style=""font-size:60px;"">+</div>","null","html-keyboard-response","314","395734","0.0-6.0-0.154","ZDER","1","m","rechts","52","","fixation","","","",""
"2005","img/150_300.png","74","image-keyboard-response","315","397753","0.0-6.0-1.154","ZDER","1","m","rechts","52","","","self","j","150","true"
"null","<div style=""font-size:60px;"">+</div>","null","html-keyboard-response","316","398124","0.0-6.0-0.155","ZDER","1","m","rechts","52","","fixation","","","",""
"1727","img/150_90.png","70","image-keyboard-response","317","399864","0.0-6.0-1.155","ZDER","1","m","rechts","52","","","self","f","150","true"
"null","<div style=""font-size:60px;"">+</div>","null","html-keyboard-response","318","400366","0.0-6.0-0.156","ZDER","1","m","rechts","52","","fixation","","","",""
"2433","img/90_330.png","70","image-keyboard-response","319","402804","0.0-6.0-1.156","ZDER","1","m","rechts","52","","","self","f","90","true"
"null","<div style=""font-size:60px;"">+</div>","null","html-keyboard-response","320","403176","0.0-6.0-0.157","ZDER","1","m","rechts","52","","fixation","","","",""
"1506","img/30_180.png","74","image-keyboard-response","321","404691","0.0-6.0-1.157","ZDER","1","m","rechts","52","","","self","j","30","true"
"null","<div style=""font-size:60px;"">+</div>","null","html-keyboard-response","322","405217","0.0-6.0-0.158","ZDER","1","m","rechts","52","","fixation","","","",""
"1397","img/150_300.png","70","image-keyboard-response","323","406625","0.0-6.0-1.158","ZDER","1","m","rechts","52","","","self","j","150","false"
"null","<div style=""font-size:60px;"">+</div>","null","html-keyboard-response","324","407139","0.0-6.0-0.159","ZDER","1","m","rechts","52","","fixation","","","",""
"2761","img/L120_180.png","70","image-keyboard-response","325","409914","0.0-6.0-1.159","ZDER","1","m","rechts","52","","","self","f","120","true"
"null","<div style=""font-size:60px;"">+</div>","null","html-keyboard-response","326","410238","0.0-6.0-0.160","ZDER","1","m","rechts","52","","fixation","","","",""
"1538","img/0_150.png","74","image-keyboard-response","327","411788","0.0-6.0-1.160","ZDER","1","m","rechts","52","","","self","j","0","true"
"null","<div style=""font-size:60px;"">+</div>","null","html-keyboard-response","328","412159","0.0-6.0-0.161","ZDER","1","m","rechts","52","","fixation","","","",""
"2605","img/150_90.png","70","image-keyboard-response","329","414774","0.0-6.0-1.161","ZDER","1","m","rechts","52","","","self","f","150","true"
"null","<div style=""font-size:60px;"">+</div>","null","html-keyboard-response","330","415084","0.0-6.0-0.162","ZDER","1","m","rechts","52","","fixation","","","",""
"1418","img/30_90.png","74","image-keyboard-response","331","416513","0.0-6.0-1.162","ZDER","1","m","rechts","52","","","self","j","30","true"
"null","<div style=""font-size:60px;"">+</div>","null","html-keyboard-response","332","416817","0.0-6.0-0.163","ZDER","1","m","rechts","52","","fixation","","","",""
"2617","img/150_180.png","74","image-keyboard-response","333","419444","0.0-6.0-1.163","ZDER","1","m","rechts","52","","","self","j","150","true"
"null","<div style=""font-size:60px;"">+</div>","null","html-keyboard-response","334","419907","0.0-6.0-0.164","ZDER","1","m","rechts","52","","fixation","","","",""
"2103","img/120_330.png","70","image-keyboard-response","335","422019","0.0-6.0-1.164","ZDER","1","m","rechts","52","","","self","f","120","true"
"null","<div style=""font-size:60px;"">+</div>","null","html-keyboard-response","336","422342","0.0-6.0-0.165","ZDER","1","m","rechts","52","","fixation","","","",""
"1747","img/60_330.png","70","image-keyboard-response","337","424095","0.0-6.0-1.165","ZDER","1","m","rechts","52","","","self","f","60","true"
"null","<div style=""font-size:60px;"">+</div>","null","html-keyboard-response","338","424604","0.0-6.0-0.166","ZDER","1","m","rechts","52","","fixation","","","",""
"2203","img/90_180.png","74","image-keyboard-response","339","426820","0.0-6.0-1.166","ZDER","1","m","rechts","52","","","self","j","90","true"
"null","<div style=""font-size:60px;"">+</div>","null","html-keyboard-response","340","427221","0.0-6.0-0.167","ZDER","1","m","rechts","52","","fixation","","","",""
"980","img/0_30.png","74","image-keyboard-response","341","428212","0.0-6.0-1.167","ZDER","1","m","rechts","52","","","self","j","0","true"
"null","<div style=""font-size:60px;"">+</div>","null","html-keyboard-response","342","428682","0.0-6.0-0.168","ZDER","1","m","rechts","52","","fixation","","","",""
"2574","img/120_270.png","70","image-keyboard-response","343","431266","0.0-6.0-1.168","ZDER","1","m","rechts","52","","","self","j","120","false"
"null","<div style=""font-size:60px;"">+</div>","null","html-keyboard-response","344","431575","0.0-6.0-0.169","ZDER","1","m","rechts","52","","fixation","","","",""
"879","img/0_330.png","70","image-keyboard-response","345","432467","0.0-6.0-1.169","ZDER","1","m","rechts","52","","","self","f","0","true"
"null","<div style=""font-size:60px;"">+</div>","null","html-keyboard-response","346","432888","0.0-6.0-0.170","ZDER","1","m","rechts","52","","fixation","","","",""
"1827","img/30_270.png","70","image-keyboard-response","347","434726","0.0-6.0-1.170","ZDER","1","m","rechts","52","","","self","f","30","true"
"null","<div style=""font-size:60px;"">+</div>","null","html-keyboard-response","348","435184","0.0-6.0-0.171","ZDER","1","m","rechts","52","","fixation","","","",""
"811","img/0_210.png","70","image-keyboard-response","349","436008","0.0-6.0-1.171","ZDER","1","m","rechts","52","","","self","f","0","true"
"null","<div style=""font-size:60px;"">+</div>","null","html-keyboard-response","350","436331","0.0-6.0-0.172","ZDER","1","m","rechts","52","","fixation","","","",""
"1056","img/0_120.png","74","image-keyboard-response","351","437393","0.0-6.0-1.172","ZDER","1","m","rechts","52","","","self","j","0","true"
"null","<div style=""font-size:60px;"">+</div>","null","html-keyboard-response","352","437769","0.0-6.0-0.173","ZDER","1","m","rechts","52","","fixation","","","",""
"736","img/0_90.png","74","image-keyboard-response","353","438519","0.0-6.0-1.173","ZDER","1","m","rechts","52","","","self","j","0","true"
"null","<div style=""font-size:60px;"">+</div>","null","html-keyboard-response","354","438877","0.0-6.0-0.174","ZDER","1","m","rechts","52","","fixation","","","",""
"1710","img/L150_180.png","70","image-keyboard-response","355","440600","0.0-6.0-1.174","ZDER","1","m","rechts","52","","","self","f","150","true"
"null","<div style=""font-size:60px;"">+</div>","null","html-keyboard-response","356","440955","0.0-6.0-0.175","ZDER","1","m","rechts","52","","fixation","","","",""
"1648","img/90_240.png","74","image-keyboard-response","357","442614","0.0-6.0-1.175","ZDER","1","m","rechts","52","","","self","j","90","true"
"null","<div style=""font-size:60px;"">+</div>","null","html-keyboard-response","358","442939","0.0-6.0-0.176","ZDER","1","m","rechts","52","","fixation","","","",""
"2502","img/L30_180.png","70","image-keyboard-response","359","445450","0.0-6.0-1.176","ZDER","1","m","rechts","52","","","self","f","30","true"
"null","<div style=""font-size:60px;"">+</div>","null","html-keyboard-response","360","445853","0.0-6.0-0.177","ZDER","1","m","rechts","52","","fixation","","","",""
"1411","img/60_180.png","74","image-keyboard-response","361","447271","0.0-6.0-1.177","ZDER","1","m","rechts","52","","","self","j","60","true"
"null","<div style=""font-size:60px;"">+</div>","null","html-keyboard-response","362","447572","0.0-6.0-0.178","ZDER","1","m","rechts","52","","fixation","","","",""
"1286","img/60_150.png","70","image-keyboard-response","363","448869","0.0-6.0-1.178","ZDER","1","m","rechts","52","","","self","f","60","true"
"null","<div style=""font-size:60px;"">+</div>","null","html-keyboard-response","364","449384","0.0-6.0-0.179","ZDER","1","m","rechts","52","","fixation","","","",""
"1413","img/60_30.png","74","image-keyboard-response","365","450801","0.0-6.0-1.179","ZDER","1","m","rechts","52","","","self","j","60","true"
"null","<div style=""font-size:60px;"">+</div>","null","html-keyboard-response","366","451104","0.0-6.0-0.180","ZDER","1","m","rechts","52","","fixation","","","",""
"2523","img/L90_180.png","70","image-keyboard-response","367","453643","0.0-6.0-1.180","ZDER","1","m","rechts","52","","","self","f","90","true"
"null","<div style=""font-size:60px;"">+</div>","null","html-keyboard-response","368","453998","0.0-6.0-0.181","ZDER","1","m","rechts","52","","fixation","","","",""
"1179","img/L60_180.png","70","image-keyboard-response","369","455190","0.0-6.0-1.181","ZDER","1","m","rechts","52","","","self","f","60","true"
"null","<div style=""font-size:60px;"">+</div>","null","html-keyboard-response","370","455717","0.0-6.0-0.182","ZDER","1","m","rechts","52","","fixation","","","",""
"2290","img/90_300.png","70","image-keyboard-response","371","458016","0.0-6.0-1.182","ZDER","1","m","rechts","52","","","self","f","90","true"
"null","<div style=""font-size:60px;"">+</div>","null","html-keyboard-response","372","458466","0.0-6.0-0.183","ZDER","1","m","rechts","52","","fixation","","","",""
"1639","img/120_90.png","70","image-keyboard-response","373","460119","0.0-6.0-1.183","ZDER","1","m","rechts","52","","","self","f","120","true"
"null","<div style=""font-size:60px;"">+</div>","null","html-keyboard-response","374","460436","0.0-6.0-0.184","ZDER","1","m","rechts","52","","fixation","","","",""
"1547","img/120_30.png","74","image-keyboard-response","375","461996","0.0-6.0-1.184","ZDER","1","m","rechts","52","","","self","j","120","true"
"null","<div style=""font-size:60px;"">+</div>","null","html-keyboard-response","376","462310","0.0-6.0-0.185","ZDER","1","m","rechts","52","","fixation","","","",""
"1064","img/0_270.png","70","image-keyboard-response","377","463379","0.0-6.0-1.185","ZDER","1","m","rechts","52","","","self","f","0","true"
"null","<div style=""font-size:60px;"">+</div>","null","html-keyboard-response","378","463709","0.0-6.0-0.186","ZDER","1","m","rechts","52","","fixation","","","",""
"2056","img/150_270.png","74","image-keyboard-response","379","465778","0.0-6.0-1.186","ZDER","1","m","rechts","52","","","self","j","150","true"
"null","<div style=""font-size:60px;"">+</div>","null","html-keyboard-response","380","466193","0.0-6.0-0.187","ZDER","1","m","rechts","52","","fixation","","","",""
"1589","img/90_120.png","70","image-keyboard-response","381","467791","0.0-6.0-1.187","ZDER","1","m","rechts","52","","","self","f","90","true"
"null","<div style=""font-size:60px;"">+</div>","null","html-keyboard-response","382","468301","0.0-6.0-0.188","ZDER","1","m","rechts","52","","fixation","","","",""
"968","img/90_150.png","70","image-keyboard-response","383","469275","0.0-6.0-1.188","ZDER","1","m","rechts","52","","","self","f","90","true"
"null","<div style=""font-size:60px;"">+</div>","null","html-keyboard-response","384","469691","0.0-6.0-0.189","ZDER","1","m","rechts","52","","fixation","","","",""
"1685","img/90_30.png","74","image-keyboard-response","385","471389","0.0-6.0-1.189","ZDER","1","m","rechts","52","","","self","j","90","true"
"null","<div style=""font-size:60px;"">+</div>","null","html-keyboard-response","386","471894","0.0-6.0-0.190","ZDER","1","m","rechts","52","","fixation","","","",""
"1732","img/120_180.png","70","image-keyboard-response","387","473640","0.0-6.0-1.190","ZDER","1","m","rechts","52","","","self","j","120","false"
"null","<div style=""font-size:60px;"">+</div>","null","html-keyboard-response","388","473946","0.0-6.0-0.191","ZDER","1","m","rechts","52","","fixation","","","",""
"2581","img/150_60.png","70","image-keyboard-response","389","476536","0.0-6.0-1.191","ZDER","1","m","rechts","52","","","self","f","150","true"
"null","<div style=""font-size:60px;"">+</div>","null","html-keyboard-response","390","477003","0.0-6.0-0.192","ZDER","1","m","rechts","52","","fixation","","","",""
"868","img/0_240.png","70","image-keyboard-response","391","477882","0.0-6.0-1.192","ZDER","1","m","rechts","52","","","self","f","0","true"
"null","<div style=""font-size:60px;"">+</div>","null","html-keyboard-response","392","478345","0.0-6.0-0.193","ZDER","1","m","rechts","52","","fixation","","","",""
"1308","img/90_210.png","74","image-keyboard-response","393","479661","0.0-6.0-1.193","ZDER","1","m","rechts","52","","","self","j","90","true"
"null","<div style=""font-size:60px;"">+</div>","null","html-keyboard-response","394","480039","0.0-6.0-0.194","ZDER","1","m","rechts","52","","fixation","","","",""
"2628","img/60_270.png","74","image-keyboard-response","395","482679","0.0-6.0-1.194","ZDER","1","m","rechts","52","","","self","f","60","false"
"null","<div style=""font-size:60px;"">+</div>","null","html-keyboard-response","396","483051","0.0-6.0-0.195","ZDER","1","m","rechts","52","","fixation","","","",""
"2157","img/150_120.png","70","image-keyboard-response","397","485223","0.0-6.0-1.195","ZDER","1","m","rechts","52","","","self","f","150","true"
"null","<div style=""font-size:60px;"">+</div>","null","html-keyboard-response","398","485591","0.0-6.0-0.196","ZDER","1","m","rechts","52","","fixation","","","",""
"1411","img/120_210.png","74","image-keyboard-response","399","487017","0.0-6.0-1.196","ZDER","1","m","rechts","52","","","self","j","120","true"
"null","<div style=""font-size:60px;"">+</div>","null","html-keyboard-response","400","487371","0.0-6.0-0.197","ZDER","1","m","rechts","52","","fixation","","","",""
"1104","img/0_60.png","74","image-keyboard-response","401","488481","0.0-6.0-1.197","ZDER","1","m","rechts","52","","","self","j","0","true"
"null","<div style=""font-size:60px;"">+</div>","null","html-keyboard-response","402","488791","0.0-6.0-0.198","ZDER","1","m","rechts","52","","fixation","","","",""
"1049","img/120_150.png","70","image-keyboard-response","403","489853","0.0-6.0-1.198","ZDER","1","m","rechts","52","","","self","f","120","true"
"null","<div style=""font-size:60px;"">+</div>","null","html-keyboard-response","404","490332","0.0-6.0-0.199","ZDER","1","m","rechts","52","","fixation","","","",""
"1461","img/60_210.png","74","image-keyboard-response","405","491812","0.0-6.0-1.199","ZDER","1","m","rechts","52","","","self","j","60","true"
"null","<div style=""font-size:60px;"">+</div>","null","html-keyboard-response","406","492315","0.0-6.0-0.200","ZDER","1","m","rechts","52","","fixation","","","",""
"1214","img/150_240.png","74","image-keyboard-response","407","493544","0.0-6.0-1.200","ZDER","1","m","rechts","52","","","self","j","150","true"
"null","<div style=""font-size:60px;"">+</div>","null","html-keyboard-response","408","493948","0.0-6.0-0.201","ZDER","1","m","rechts","52","","fixation","","","",""
"2960","img/30_120.png","70","image-keyboard-response","409","496921","0.0-6.0-1.201","ZDER","1","m","rechts","52","","","self","j","30","false"
"null","<div style=""font-size:60px;"">+</div>","null","html-keyboard-response","410","497385","0.0-6.0-0.202","ZDER","1","m","rechts","52","","fixation","","","",""
"2311","img/60_90.png","70","image-keyboard-response","411","499701","0.0-6.0-1.202","ZDER","1","m","rechts","52","","","self","j","60","false"
"null","<div style=""font-size:60px;"">+</div>","null","html-keyboard-response","412","500011","0.0-6.0-0.203","ZDER","1","m","rechts","52","","fixation","","","",""
"2508","img/30_300.png","70","image-keyboard-response","413","502533","0.0-6.0-1.203","ZDER","1","m","rechts","52","","","self","f","30","true"
"null","<div style=""font-size:60px;"">+</div>","null","html-keyboard-response","414","502952","0.0-6.0-0.204","ZDER","1","m","rechts","52","","fixation","","","",""
"2033","img/30_240.png","70","image-keyboard-response","415","504999","0.0-6.0-1.204","ZDER","1","m","rechts","52","","","self","f","30","true"
"null","<div style=""font-size:60px;"">+</div>","null","html-keyboard-response","416","505479","0.0-6.0-0.205","ZDER","1","m","rechts","52","","fixation","","","",""
"2058","img/90_60.png","70","image-keyboard-response","417","507543","0.0-6.0-1.205","ZDER","1","m","rechts","52","","","self","j","90","false"
"null","<div style=""font-size:60px;"">+</div>","null","html-keyboard-response","418","507851","0.0-6.0-0.206","ZDER","1","m","rechts","52","","fixation","","","",""
"1507","img/30_60.png","74","image-keyboard-response","419","509372","0.0-6.0-1.206","ZDER","1","m","rechts","52","","","self","j","30","true"
"null","<div style=""font-size:60px;"">+</div>","null","html-keyboard-response","420","509804","0.0-6.0-0.207","ZDER","1","m","rechts","52","","fixation","","","",""
"762","img/0_300.png","70","image-keyboard-response","421","510579","0.0-6.0-1.207","ZDER","1","m","rechts","52","","","self","f","0","true"
"17442","<p>Du hast in 86% der Versuche korrekt entschieden.</p><p>Deine durchschnittliche Reaktionszeit war  1744ms.</p><p>Dr&uuml;cke eine beliebige Taste, um die Session zu beenden. Vielen Dank!</p>","32","html-keyboard-response","422","528029","0.0-7.0","ZDER","1","m","rechts","52","","","","","",""
