"rt","stimulus","key_press","trial_type","trial_index","time_elapsed","internal_node_id","subject","session","sex","handedness","age","responses","test_part","condition","correct_response","angle","correct"
"6968","<p>Mental Rotation Experiment.</p> <p>Dr&uuml;cke eine beliebige Taste, um anzufangen.</p>","13","html-keyboard-response","0","7009","0.0-0.0","ZDER","3","m","rechts","52","","","","","",""
"3115","","","survey-text","1","10126","0.0-1.0","ZDER","3","m","rechts","52","{""Q0"":""ZDER""}","","","","",""
"2982","","","survey-text","2","13112","0.0-2.0","ZDER","3","m","rechts","52","{""Q0"":""3""}","","","","",""
"9418","","","survey-multi-choice","3","22545","0.0-3.0","ZDER","3","m","rechts","52","{""Q0"":""m"",""Q1"":""rechts""}","","","","",""
"2720","","","survey-text","4","25265","0.0-4.0","ZDER","3","m","rechts","52","{""Q0"":""52""}","","","","",""
"9848","<p> Stell dir vor, dass du vor einem runden Tisch stehst, auf dem sich ein blauer Ball am Tischrand befindet. Entlang des Tischrands ist jeweils ein verschieden langer Pfeil. Nun bewegst du dich entlang dieses Pfeils bis an seine Spitze. Wenn du am Ende des Pfeils angekommen bist, schau zur Tischmitte. </p> <img src='img/90_180.png'></img> <br> <p>Entscheide dann, ob der Ball von deiner neuen (vorgestellten) Position links oder rechts von dir liegt.</p> <p>Dr&uuml;cke die <strong>'f'</strong>-Taste f&uuml;r links, die <strong>'j'</strong>-Taste f&uuml;r rechts.</p> <br><p> Das Bild wird jeweils 1 Sekunde lang pr&auml;sentiert. Du hast 3 Sekunden Zeit eine Entscheidung zu treffen.</p>","74","html-keyboard-response","5","35138","0.0-5.0","ZDER","3","m","rechts","52","","","","","",""
"null","<div style=""font-size:60px;"">+</div>","null","html-keyboard-response","6","36552","0.0-6.0-0.0","ZDER","3","m","rechts","52","","fixation","","","",""
"1550","img/90_30.png","74","image-keyboard-response","7","38112","0.0-6.0-1.0","ZDER","3","m","rechts","52","","","self","j","90","true"
"null","<div style=""font-size:60px;"">+</div>","null","html-keyboard-response","8","38420","0.0-6.0-0.1","ZDER","3","m","rechts","52","","fixation","","","",""
"884","img/0_60.png","74","image-keyboard-response","9","39322","0.0-6.0-1.1","ZDER","3","m","rechts","52","","","self","j","0","true"
"null","<div style=""font-size:60px;"">+</div>","null","html-keyboard-response","10","39748","0.0-6.0-0.2","ZDER","3","m","rechts","52","","fixation","","","",""
"1052","img/60_150.png","70","image-keyboard-response","11","40818","0.0-6.0-1.2","ZDER","3","m","rechts","52","","","self","f","60","true"
"null","<div style=""font-size:60px;"">+</div>","null","html-keyboard-response","12","41280","0.0-6.0-0.3","ZDER","3","m","rechts","52","","fixation","","","",""
"1309","img/60_90.png","74","image-keyboard-response","13","42607","0.0-6.0-1.3","ZDER","3","m","rechts","52","","","self","j","60","true"
"null","<div style=""font-size:60px;"">+</div>","null","html-keyboard-response","14","42977","0.0-6.0-0.4","ZDER","3","m","rechts","52","","fixation","","","",""
"1188","img/L90_180.png","70","image-keyboard-response","15","44182","0.0-6.0-1.4","ZDER","3","m","rechts","52","","","self","f","90","true"
"null","<div style=""font-size:60px;"">+</div>","null","html-keyboard-response","16","44491","0.0-6.0-0.5","ZDER","3","m","rechts","52","","fixation","","","",""
"1088","img/30_180.png","74","image-keyboard-response","17","45586","0.0-6.0-1.5","ZDER","3","m","rechts","52","","","self","j","30","true"
"null","<div style=""font-size:60px;"">+</div>","null","html-keyboard-response","18","46102","0.0-6.0-0.6","ZDER","3","m","rechts","52","","fixation","","","",""
"1044","img/120_150.png","70","image-keyboard-response","19","47164","0.0-6.0-1.6","ZDER","3","m","rechts","52","","","self","f","120","true"
"null","<div style=""font-size:60px;"">+</div>","null","html-keyboard-response","20","47696","0.0-6.0-0.7","ZDER","3","m","rechts","52","","fixation","","","",""
"1013","img/60_30.png","74","image-keyboard-response","21","48728","0.0-6.0-1.7","ZDER","3","m","rechts","52","","","self","j","60","true"
"null","<div style=""font-size:60px;"">+</div>","null","html-keyboard-response","22","49148","0.0-6.0-0.8","ZDER","3","m","rechts","52","","fixation","","","",""
"1292","img/60_210.png","74","image-keyboard-response","23","50460","0.0-6.0-1.8","ZDER","3","m","rechts","52","","","self","j","60","true"
"null","<div style=""font-size:60px;"">+</div>","null","html-keyboard-response","24","50773","0.0-6.0-0.9","ZDER","3","m","rechts","52","","fixation","","","",""
"827","img/90_150.png","70","image-keyboard-response","25","51618","0.0-6.0-1.9","ZDER","3","m","rechts","52","","","self","f","90","true"
"null","<div style=""font-size:60px;"">+</div>","null","html-keyboard-response","26","51992","0.0-6.0-0.10","ZDER","3","m","rechts","52","","fixation","","","",""
"1096","img/90_240.png","74","image-keyboard-response","27","53104","0.0-6.0-1.10","ZDER","3","m","rechts","52","","","self","j","90","true"
"null","<div style=""font-size:60px;"">+</div>","null","html-keyboard-response","28","53477","0.0-6.0-0.11","ZDER","3","m","rechts","52","","fixation","","","",""
"753","img/0_270.png","70","image-keyboard-response","29","54251","0.0-6.0-1.11","ZDER","3","m","rechts","52","","","self","f","0","true"
"null","<div style=""font-size:60px;"">+</div>","null","html-keyboard-response","30","54618","0.0-6.0-0.12","ZDER","3","m","rechts","52","","fixation","","","",""
"1031","img/120_270.png","74","image-keyboard-response","31","55669","0.0-6.0-1.12","ZDER","3","m","rechts","52","","","self","j","120","true"
"null","<div style=""font-size:60px;"">+</div>","null","html-keyboard-response","32","56196","0.0-6.0-0.13","ZDER","3","m","rechts","52","","fixation","","","",""
"1064","img/60_330.png","70","image-keyboard-response","33","57277","0.0-6.0-1.13","ZDER","3","m","rechts","52","","","self","f","60","true"
"null","<div style=""font-size:60px;"">+</div>","null","html-keyboard-response","34","57744","0.0-6.0-0.14","ZDER","3","m","rechts","52","","fixation","","","",""
"1347","img/30_240.png","70","image-keyboard-response","35","59111","0.0-6.0-1.14","ZDER","3","m","rechts","52","","","self","f","30","true"
"null","<div style=""font-size:60px;"">+</div>","null","html-keyboard-response","36","59417","0.0-6.0-0.15","ZDER","3","m","rechts","52","","fixation","","","",""
"1714","img/L30_180.png","70","image-keyboard-response","37","61148","0.0-6.0-1.15","ZDER","3","m","rechts","52","","","self","f","30","true"
"null","<div style=""font-size:60px;"">+</div>","null","html-keyboard-response","38","61475","0.0-6.0-0.16","ZDER","3","m","rechts","52","","fixation","","","",""
"1107","img/30_60.png","74","image-keyboard-response","39","62607","0.0-6.0-1.16","ZDER","3","m","rechts","52","","","self","j","30","true"
"null","<div style=""font-size:60px;"">+</div>","null","html-keyboard-response","40","62929","0.0-6.0-0.17","ZDER","3","m","rechts","52","","fixation","","","",""
"1485","img/30_270.png","70","image-keyboard-response","41","64432","0.0-6.0-1.17","ZDER","3","m","rechts","52","","","self","f","30","true"
"null","<div style=""font-size:60px;"">+</div>","null","html-keyboard-response","42","64741","0.0-6.0-0.18","ZDER","3","m","rechts","52","","fixation","","","",""
"2110","img/60_270.png","74","image-keyboard-response","43","66867","0.0-6.0-1.18","ZDER","3","m","rechts","52","","","self","f","60","false"
"null","<div style=""font-size:60px;"">+</div>","null","html-keyboard-response","44","67268","0.0-6.0-0.19","ZDER","3","m","rechts","52","","fixation","","","",""
"1303","img/L60_180.png","70","image-keyboard-response","45","68591","0.0-6.0-1.19","ZDER","3","m","rechts","52","","","self","f","60","true"
"null","<div style=""font-size:60px;"">+</div>","null","html-keyboard-response","46","69004","0.0-6.0-0.20","ZDER","3","m","rechts","52","","fixation","","","",""
"1642","img/90_60.png","74","image-keyboard-response","47","70664","0.0-6.0-1.20","ZDER","3","m","rechts","52","","","self","j","90","true"
"null","<div style=""font-size:60px;"">+</div>","null","html-keyboard-response","48","71176","0.0-6.0-0.21","ZDER","3","m","rechts","52","","fixation","","","",""
"899","img/0_30.png","74","image-keyboard-response","49","72094","0.0-6.0-1.21","ZDER","3","m","rechts","52","","","self","j","0","true"
"null","<div style=""font-size:60px;"">+</div>","null","html-keyboard-response","50","72410","0.0-6.0-0.22","ZDER","3","m","rechts","52","","fixation","","","",""
"1004","img/150_120.png","70","image-keyboard-response","51","73432","0.0-6.0-1.22","ZDER","3","m","rechts","52","","","self","f","150","true"
"null","<div style=""font-size:60px;"">+</div>","null","html-keyboard-response","52","73896","0.0-6.0-0.23","ZDER","3","m","rechts","52","","fixation","","","",""
"770","img/90_180.png","74","image-keyboard-response","53","74679","0.0-6.0-1.23","ZDER","3","m","rechts","52","","","self","j","90","true"
"null","<div style=""font-size:60px;"">+</div>","null","html-keyboard-response","54","75131","0.0-6.0-0.24","ZDER","3","m","rechts","52","","fixation","","","",""
"859","img/0_330.png","70","image-keyboard-response","55","76008","0.0-6.0-1.24","ZDER","3","m","rechts","52","","","self","f","0","true"
"null","<div style=""font-size:60px;"">+</div>","null","html-keyboard-response","56","76327","0.0-6.0-0.25","ZDER","3","m","rechts","52","","fixation","","","",""
"734","img/0_240.png","70","image-keyboard-response","57","77079","0.0-6.0-1.25","ZDER","3","m","rechts","52","","","self","f","0","true"
"null","<div style=""font-size:60px;"">+</div>","null","html-keyboard-response","58","77545","0.0-6.0-0.26","ZDER","3","m","rechts","52","","fixation","","","",""
"2180","img/30_120.png","74","image-keyboard-response","59","79737","0.0-6.0-1.26","ZDER","3","m","rechts","52","","","self","j","30","true"
"null","<div style=""font-size:60px;"">+</div>","null","html-keyboard-response","60","80201","0.0-6.0-0.27","ZDER","3","m","rechts","52","","fixation","","","",""
"1334","img/150_240.png","74","image-keyboard-response","61","81553","0.0-6.0-1.27","ZDER","3","m","rechts","52","","","self","j","150","true"
"null","<div style=""font-size:60px;"">+</div>","null","html-keyboard-response","62","81920","0.0-6.0-0.28","ZDER","3","m","rechts","52","","fixation","","","",""
"1057","img/90_210.png","74","image-keyboard-response","63","82995","0.0-6.0-1.28","ZDER","3","m","rechts","52","","","self","j","90","true"
"null","<div style=""font-size:60px;"">+</div>","null","html-keyboard-response","64","83356","0.0-6.0-0.29","ZDER","3","m","rechts","52","","fixation","","","",""
"812","img/0_210.png","70","image-keyboard-response","65","84188","0.0-6.0-1.29","ZDER","3","m","rechts","52","","","self","f","0","true"
"null","<div style=""font-size:60px;"">+</div>","null","html-keyboard-response","66","84496","0.0-6.0-0.30","ZDER","3","m","rechts","52","","fixation","","","",""
"1336","img/L120_180.png","70","image-keyboard-response","67","85853","0.0-6.0-1.30","ZDER","3","m","rechts","52","","","self","f","120","true"
"null","<div style=""font-size:60px;"">+</div>","null","html-keyboard-response","68","86261","0.0-6.0-0.31","ZDER","3","m","rechts","52","","fixation","","","",""
"933","img/120_180.png","74","image-keyboard-response","69","87213","0.0-6.0-1.31","ZDER","3","m","rechts","52","","","self","j","120","true"
"null","<div style=""font-size:60px;"">+</div>","null","html-keyboard-response","70","87668","0.0-6.0-0.32","ZDER","3","m","rechts","52","","fixation","","","",""
"1384","img/30_300.png","70","image-keyboard-response","71","89070","0.0-6.0-1.32","ZDER","3","m","rechts","52","","","self","f","30","true"
"null","<div style=""font-size:60px;"">+</div>","null","html-keyboard-response","72","89386","0.0-6.0-0.33","ZDER","3","m","rechts","52","","fixation","","","",""
"1306","img/90_330.png","70","image-keyboard-response","73","90712","0.0-6.0-1.33","ZDER","3","m","rechts","52","","","self","f","90","true"
"null","<div style=""font-size:60px;"">+</div>","null","html-keyboard-response","74","91121","0.0-6.0-0.34","ZDER","3","m","rechts","52","","fixation","","","",""
"1060","img/150_270.png","74","image-keyboard-response","75","92198","0.0-6.0-1.34","ZDER","3","m","rechts","52","","","self","j","150","true"
"null","<div style=""font-size:60px;"">+</div>","null","html-keyboard-response","76","92605","0.0-6.0-0.35","ZDER","3","m","rechts","52","","fixation","","","",""
"1500","img/120_30.png","74","image-keyboard-response","77","94110","0.0-6.0-1.35","ZDER","3","m","rechts","52","","","self","j","120","true"
"null","<div style=""font-size:60px;"">+</div>","null","html-keyboard-response","78","94574","0.0-6.0-0.36","ZDER","3","m","rechts","52","","fixation","","","",""
"1160","img/150_90.png","70","image-keyboard-response","79","95741","0.0-6.0-1.36","ZDER","3","m","rechts","52","","","self","f","150","true"
"null","<div style=""font-size:60px;"">+</div>","null","html-keyboard-response","80","96122","0.0-6.0-0.37","ZDER","3","m","rechts","52","","fixation","","","",""
"1118","img/90_120.png","70","image-keyboard-response","81","97259","0.0-6.0-1.37","ZDER","3","m","rechts","52","","","self","f","90","true"
"null","<div style=""font-size:60px;"">+</div>","null","html-keyboard-response","82","97562","0.0-6.0-0.38","ZDER","3","m","rechts","52","","fixation","","","",""
"1153","img/0_300.png","70","image-keyboard-response","83","98722","0.0-6.0-1.38","ZDER","3","m","rechts","52","","","self","f","0","true"
"null","<div style=""font-size:60px;"">+</div>","null","html-keyboard-response","84","99125","0.0-6.0-0.39","ZDER","3","m","rechts","52","","fixation","","","",""
"769","img/0_90.png","74","image-keyboard-response","85","99915","0.0-6.0-1.39","ZDER","3","m","rechts","52","","","self","j","0","true"
"null","<div style=""font-size:60px;"">+</div>","null","html-keyboard-response","86","100281","0.0-6.0-0.40","ZDER","3","m","rechts","52","","fixation","","","",""
"1325","img/120_330.png","70","image-keyboard-response","87","101623","0.0-6.0-1.40","ZDER","3","m","rechts","52","","","self","f","120","true"
"null","<div style=""font-size:60px;"">+</div>","null","html-keyboard-response","88","102080","0.0-6.0-0.41","ZDER","3","m","rechts","52","","fixation","","","",""
"1059","img/60_180.png","74","image-keyboard-response","89","103157","0.0-6.0-1.41","ZDER","3","m","rechts","52","","","self","j","60","true"
"null","<div style=""font-size:60px;"">+</div>","null","html-keyboard-response","90","103470","0.0-6.0-0.42","ZDER","3","m","rechts","52","","fixation","","","",""
"883","img/150_180.png","74","image-keyboard-response","91","104370","0.0-6.0-1.42","ZDER","3","m","rechts","52","","","self","j","150","true"
"null","<div style=""font-size:60px;"">+</div>","null","html-keyboard-response","92","104830","0.0-6.0-0.43","ZDER","3","m","rechts","52","","fixation","","","",""
"892","img/0_120.png","74","image-keyboard-response","93","105744","0.0-6.0-1.43","ZDER","3","m","rechts","52","","","self","j","0","true"
"null","<div style=""font-size:60px;"">+</div>","null","html-keyboard-response","94","106173","0.0-6.0-0.44","ZDER","3","m","rechts","52","","fixation","","","",""
"1047","img/L150_180.png","70","image-keyboard-response","95","107237","0.0-6.0-1.44","ZDER","3","m","rechts","52","","","self","f","150","true"
"null","<div style=""font-size:60px;"">+</div>","null","html-keyboard-response","96","107691","0.0-6.0-0.45","ZDER","3","m","rechts","52","","fixation","","","",""
"800","img/0_150.png","74","image-keyboard-response","97","108511","0.0-6.0-1.45","ZDER","3","m","rechts","52","","","self","j","0","true"
"null","<div style=""font-size:60px;"">+</div>","null","html-keyboard-response","98","108878","0.0-6.0-0.46","ZDER","3","m","rechts","52","","fixation","","","",""
"1324","img/150_300.png","74","image-keyboard-response","99","110218","0.0-6.0-1.46","ZDER","3","m","rechts","52","","","self","j","150","true"
"null","<div style=""font-size:60px;"">+</div>","null","html-keyboard-response","100","110643","0.0-6.0-0.47","ZDER","3","m","rechts","52","","fixation","","","",""
"2298","img/120_90.png","70","image-keyboard-response","101","112948","0.0-6.0-1.47","ZDER","3","m","rechts","52","","","self","f","120","true"
"null","<div style=""font-size:60px;"">+</div>","null","html-keyboard-response","102","113412","0.0-6.0-0.48","ZDER","3","m","rechts","52","","fixation","","","",""
"1138","img/30_90.png","74","image-keyboard-response","103","114571","0.0-6.0-1.48","ZDER","3","m","rechts","52","","","self","j","30","true"
"null","<div style=""font-size:60px;"">+</div>","null","html-keyboard-response","104","114928","0.0-6.0-0.49","ZDER","3","m","rechts","52","","fixation","","","",""
"1069","img/120_210.png","74","image-keyboard-response","105","116003","0.0-6.0-1.49","ZDER","3","m","rechts","52","","","self","j","120","true"
"null","<div style=""font-size:60px;"">+</div>","null","html-keyboard-response","106","116366","0.0-6.0-0.50","ZDER","3","m","rechts","52","","fixation","","","",""
"1633","img/150_60.png","70","image-keyboard-response","107","118016","0.0-6.0-1.50","ZDER","3","m","rechts","52","","","self","f","150","true"
"null","<div style=""font-size:60px;"">+</div>","null","html-keyboard-response","108","118521","0.0-6.0-0.51","ZDER","3","m","rechts","52","","fixation","","","",""
"1781","img/90_300.png","70","image-keyboard-response","109","120323","0.0-6.0-1.51","ZDER","3","m","rechts","52","","","self","f","90","true"
"null","<div style=""font-size:60px;"">+</div>","null","html-keyboard-response","110","120786","0.0-6.0-0.52","ZDER","3","m","rechts","52","","fixation","","","",""
"1598","img/120_90.png","70","image-keyboard-response","111","122394","0.0-6.0-1.52","ZDER","3","m","rechts","52","","","self","f","120","true"
"null","<div style=""font-size:60px;"">+</div>","null","html-keyboard-response","112","122851","0.0-6.0-0.53","ZDER","3","m","rechts","52","","fixation","","","",""
"821","img/120_150.png","70","image-keyboard-response","113","123686","0.0-6.0-1.53","ZDER","3","m","rechts","52","","","self","f","120","true"
"null","<div style=""font-size:60px;"">+</div>","null","html-keyboard-response","114","124195","0.0-6.0-0.54","ZDER","3","m","rechts","52","","fixation","","","",""
"2260","img/60_270.png","70","image-keyboard-response","115","126467","0.0-6.0-1.54","ZDER","3","m","rechts","52","","","self","f","60","true"
"null","<div style=""font-size:60px;"">+</div>","null","html-keyboard-response","116","126779","0.0-6.0-0.55","ZDER","3","m","rechts","52","","fixation","","","",""
"1116","img/150_270.png","74","image-keyboard-response","117","127904","0.0-6.0-1.55","ZDER","3","m","rechts","52","","","self","j","150","true"
"null","<div style=""font-size:60px;"">+</div>","null","html-keyboard-response","118","128227","0.0-6.0-0.56","ZDER","3","m","rechts","52","","fixation","","","",""
"2559","img/60_90.png","74","image-keyboard-response","119","130798","0.0-6.0-1.56","ZDER","3","m","rechts","52","","","self","j","60","true"
"null","<div style=""font-size:60px;"">+</div>","null","html-keyboard-response","120","131250","0.0-6.0-0.57","ZDER","3","m","rechts","52","","fixation","","","",""
"1070","img/150_180.png","74","image-keyboard-response","121","132328","0.0-6.0-1.57","ZDER","3","m","rechts","52","","","self","j","150","true"
"null","<div style=""font-size:60px;"">+</div>","null","html-keyboard-response","122","132687","0.0-6.0-0.58","ZDER","3","m","rechts","52","","fixation","","","",""
"744","img/0_90.png","74","image-keyboard-response","123","133441","0.0-6.0-1.58","ZDER","3","m","rechts","52","","","self","j","0","true"
"null","<div style=""font-size:60px;"">+</div>","null","html-keyboard-response","124","133744","0.0-6.0-0.59","ZDER","3","m","rechts","52","","fixation","","","",""
"1192","img/60_330.png","70","image-keyboard-response","125","134948","0.0-6.0-1.59","ZDER","3","m","rechts","52","","","self","f","60","true"
"null","<div style=""font-size:60px;"">+</div>","null","html-keyboard-response","126","135477","0.0-6.0-0.60","ZDER","3","m","rechts","52","","fixation","","","",""
"992","img/90_330.png","70","image-keyboard-response","127","136479","0.0-6.0-1.60","ZDER","3","m","rechts","52","","","self","f","90","true"
"null","<div style=""font-size:60px;"">+</div>","null","html-keyboard-response","128","136832","0.0-6.0-0.61","ZDER","3","m","rechts","52","","fixation","","","",""
"951","img/0_240.png","70","image-keyboard-response","129","137794","0.0-6.0-1.61","ZDER","3","m","rechts","52","","","self","f","0","true"
"null","<div style=""font-size:60px;"">+</div>","null","html-keyboard-response","130","138253","0.0-6.0-0.62","ZDER","3","m","rechts","52","","fixation","","","",""
"1190","img/L30_180.png","70","image-keyboard-response","131","139459","0.0-6.0-1.62","ZDER","3","m","rechts","52","","","self","f","30","true"
"null","<div style=""font-size:60px;"">+</div>","null","html-keyboard-response","132","139816","0.0-6.0-0.63","ZDER","3","m","rechts","52","","fixation","","","",""
"1407","img/0_30.png","74","image-keyboard-response","133","141235","0.0-6.0-1.63","ZDER","3","m","rechts","52","","","self","j","0","true"
"null","<div style=""font-size:60px;"">+</div>","null","html-keyboard-response","134","141659","0.0-6.0-0.64","ZDER","3","m","rechts","52","","fixation","","","",""
"766","img/0_300.png","70","image-keyboard-response","135","142430","0.0-6.0-1.64","ZDER","3","m","rechts","52","","","self","f","0","true"
"null","<div style=""font-size:60px;"">+</div>","null","html-keyboard-response","136","142739","0.0-6.0-0.65","ZDER","3","m","rechts","52","","fixation","","","",""
"1285","img/90_30.png","74","image-keyboard-response","137","144038","0.0-6.0-1.65","ZDER","3","m","rechts","52","","","self","j","90","true"
"null","<div style=""font-size:60px;"">+</div>","null","html-keyboard-response","138","144496","0.0-6.0-0.66","ZDER","3","m","rechts","52","","fixation","","","",""
"1648","img/120_210.png","74","image-keyboard-response","139","146153","0.0-6.0-1.66","ZDER","3","m","rechts","52","","","self","j","120","true"
"null","<div style=""font-size:60px;"">+</div>","null","html-keyboard-response","140","146620","0.0-6.0-0.67","ZDER","3","m","rechts","52","","fixation","","","",""
"1284","img/120_330.png","70","image-keyboard-response","141","147908","0.0-6.0-1.67","ZDER","3","m","rechts","52","","","self","f","120","true"
"null","<div style=""font-size:60px;"">+</div>","null","html-keyboard-response","142","148363","0.0-6.0-0.68","ZDER","3","m","rechts","52","","fixation","","","",""
"1456","img/30_180.png","74","image-keyboard-response","143","149833","0.0-6.0-1.68","ZDER","3","m","rechts","52","","","self","j","30","true"
"null","<div style=""font-size:60px;"">+</div>","null","html-keyboard-response","144","150285","0.0-6.0-0.69","ZDER","3","m","rechts","52","","fixation","","","",""
"1119","img/L90_180.png","70","image-keyboard-response","145","151418","0.0-6.0-1.69","ZDER","3","m","rechts","52","","","self","f","90","true"
"null","<div style=""font-size:60px;"">+</div>","null","html-keyboard-response","146","151926","0.0-6.0-0.70","ZDER","3","m","rechts","52","","fixation","","","",""
"864","img/30_90.png","74","image-keyboard-response","147","152800","0.0-6.0-1.70","ZDER","3","m","rechts","52","","","self","j","30","true"
"null","<div style=""font-size:60px;"">+</div>","null","html-keyboard-response","148","153162","0.0-6.0-0.71","ZDER","3","m","rechts","52","","fixation","","","",""
"1235","img/120_270.png","74","image-keyboard-response","149","154410","0.0-6.0-1.71","ZDER","3","m","rechts","52","","","self","j","120","true"
"null","<div style=""font-size:60px;"">+</div>","null","html-keyboard-response","150","154928","0.0-6.0-0.72","ZDER","3","m","rechts","52","","fixation","","","",""
"912","img/L60_180.png","70","image-keyboard-response","151","155851","0.0-6.0-1.72","ZDER","3","m","rechts","52","","","self","f","60","true"
"null","<div style=""font-size:60px;"">+</div>","null","html-keyboard-response","152","156255","0.0-6.0-0.73","ZDER","3","m","rechts","52","","fixation","","","",""
"643","img/L150_180.png","70","image-keyboard-response","153","156908","0.0-6.0-1.73","ZDER","3","m","rechts","52","","","self","f","150","true"
"null","<div style=""font-size:60px;"">+</div>","null","html-keyboard-response","154","157318","0.0-6.0-0.74","ZDER","3","m","rechts","52","","fixation","","","",""
"770","img/0_210.png","70","image-keyboard-response","155","158102","0.0-6.0-1.74","ZDER","3","m","rechts","52","","","self","f","0","true"
"null","<div style=""font-size:60px;"">+</div>","null","html-keyboard-response","156","158460","0.0-6.0-0.75","ZDER","3","m","rechts","52","","fixation","","","",""
"725","img/L120_180.png","70","image-keyboard-response","157","159199","0.0-6.0-1.75","ZDER","3","m","rechts","52","","","self","f","120","true"
"null","<div style=""font-size:60px;"">+</div>","null","html-keyboard-response","158","159506","0.0-6.0-0.76","ZDER","3","m","rechts","52","","fixation","","","",""
"888","img/150_240.png","74","image-keyboard-response","159","160407","0.0-6.0-1.76","ZDER","3","m","rechts","52","","","self","j","150","true"
"null","<div style=""font-size:60px;"">+</div>","null","html-keyboard-response","160","160866","0.0-6.0-0.77","ZDER","3","m","rechts","52","","fixation","","","",""
"910","img/90_240.png","74","image-keyboard-response","161","161788","0.0-6.0-1.77","ZDER","3","m","rechts","52","","","self","j","90","true"
"null","<div style=""font-size:60px;"">+</div>","null","html-keyboard-response","162","162319","0.0-6.0-0.78","ZDER","3","m","rechts","52","","fixation","","","",""
"1326","img/30_300.png","70","image-keyboard-response","163","163658","0.0-6.0-1.78","ZDER","3","m","rechts","52","","","self","f","30","true"
"null","<div style=""font-size:60px;"">+</div>","null","html-keyboard-response","164","164164","0.0-6.0-0.79","ZDER","3","m","rechts","52","","fixation","","","",""
"857","img/60_180.png","74","image-keyboard-response","165","165030","0.0-6.0-1.79","ZDER","3","m","rechts","52","","","self","j","60","true"
"null","<div style=""font-size:60px;"">+</div>","null","html-keyboard-response","166","165491","0.0-6.0-0.80","ZDER","3","m","rechts","52","","fixation","","","",""
"595","img/90_180.png","74","image-keyboard-response","167","166101","0.0-6.0-1.80","ZDER","3","m","rechts","52","","","self","j","90","true"
"null","<div style=""font-size:60px;"">+</div>","null","html-keyboard-response","168","166631","0.0-6.0-0.81","ZDER","3","m","rechts","52","","fixation","","","",""
"798","img/90_120.png","70","image-keyboard-response","169","167439","0.0-6.0-1.81","ZDER","3","m","rechts","52","","","self","f","90","true"
"null","<div style=""font-size:60px;"">+</div>","null","html-keyboard-response","170","167853","0.0-6.0-0.82","ZDER","3","m","rechts","52","","fixation","","","",""
"845","img/150_90.png","70","image-keyboard-response","171","168710","0.0-6.0-1.82","ZDER","3","m","rechts","52","","","self","f","150","true"
"null","<div style=""font-size:60px;"">+</div>","null","html-keyboard-response","172","169025","0.0-6.0-0.83","ZDER","3","m","rechts","52","","fixation","","","",""
"1058","img/150_60.png","70","image-keyboard-response","173","170094","0.0-6.0-1.83","ZDER","3","m","rechts","52","","","self","f","150","true"
"null","<div style=""font-size:60px;"">+</div>","null","html-keyboard-response","174","170413","0.0-6.0-0.84","ZDER","3","m","rechts","52","","fixation","","","",""
"1410","img/90_60.png","74","image-keyboard-response","175","171835","0.0-6.0-1.84","ZDER","3","m","rechts","52","","","self","j","90","true"
"null","<div style=""font-size:60px;"">+</div>","null","html-keyboard-response","176","172302","0.0-6.0-0.85","ZDER","3","m","rechts","52","","fixation","","","",""
"1063","img/120_180.png","74","image-keyboard-response","177","173379","0.0-6.0-1.85","ZDER","3","m","rechts","52","","","self","j","120","true"
"null","<div style=""font-size:60px;"">+</div>","null","html-keyboard-response","178","173833","0.0-6.0-0.86","ZDER","3","m","rechts","52","","fixation","","","",""
"1038","img/60_210.png","74","image-keyboard-response","179","174876","0.0-6.0-1.86","ZDER","3","m","rechts","52","","","self","j","60","true"
"null","<div style=""font-size:60px;"">+</div>","null","html-keyboard-response","180","175208","0.0-6.0-0.87","ZDER","3","m","rechts","52","","fixation","","","",""
"1348","img/120_30.png","70","image-keyboard-response","181","176573","0.0-6.0-1.87","ZDER","3","m","rechts","52","","","self","j","120","false"
"null","<div style=""font-size:60px;"">+</div>","null","html-keyboard-response","182","176926","0.0-6.0-0.88","ZDER","3","m","rechts","52","","fixation","","","",""
"1436","img/150_300.png","74","image-keyboard-response","183","178373","0.0-6.0-1.88","ZDER","3","m","rechts","52","","","self","j","150","true"
"null","<div style=""font-size:60px;"">+</div>","null","html-keyboard-response","184","178740","0.0-6.0-0.89","ZDER","3","m","rechts","52","","fixation","","","",""
"1514","img/30_60.png","74","image-keyboard-response","185","180263","0.0-6.0-1.89","ZDER","3","m","rechts","52","","","self","j","30","true"
"null","<div style=""font-size:60px;"">+</div>","null","html-keyboard-response","186","180788","0.0-6.0-0.90","ZDER","3","m","rechts","52","","fixation","","","",""
"1056","img/90_210.png","74","image-keyboard-response","187","181848","0.0-6.0-1.90","ZDER","3","m","rechts","52","","","self","j","90","true"
"null","<div style=""font-size:60px;"">+</div>","null","html-keyboard-response","188","182255","0.0-6.0-0.91","ZDER","3","m","rechts","52","","fixation","","","",""
"1889","img/30_120.png","74","image-keyboard-response","189","184157","0.0-6.0-1.91","ZDER","3","m","rechts","52","","","self","j","30","true"
"null","<div style=""font-size:60px;"">+</div>","null","html-keyboard-response","190","184538","0.0-6.0-0.92","ZDER","3","m","rechts","52","","fixation","","","",""
"785","img/0_60.png","74","image-keyboard-response","191","185337","0.0-6.0-1.92","ZDER","3","m","rechts","52","","","self","j","0","true"
"null","<div style=""font-size:60px;"">+</div>","null","html-keyboard-response","192","185709","0.0-6.0-0.93","ZDER","3","m","rechts","52","","fixation","","","",""
"714","img/0_120.png","74","image-keyboard-response","193","186438","0.0-6.0-1.93","ZDER","3","m","rechts","52","","","self","j","0","true"
"null","<div style=""font-size:60px;"">+</div>","null","html-keyboard-response","194","186896","0.0-6.0-0.94","ZDER","3","m","rechts","52","","fixation","","","",""
"1172","img/30_270.png","70","image-keyboard-response","195","188083","0.0-6.0-1.94","ZDER","3","m","rechts","52","","","self","f","30","true"
"null","<div style=""font-size:60px;"">+</div>","null","html-keyboard-response","196","188508","0.0-6.0-0.95","ZDER","3","m","rechts","52","","fixation","","","",""
"1116","img/150_120.png","70","image-keyboard-response","197","189637","0.0-6.0-1.95","ZDER","3","m","rechts","52","","","self","f","150","true"
"null","<div style=""font-size:60px;"">+</div>","null","html-keyboard-response","198","190164","0.0-6.0-0.96","ZDER","3","m","rechts","52","","fixation","","","",""
"1639","img/30_240.png","70","image-keyboard-response","199","191816","0.0-6.0-1.96","ZDER","3","m","rechts","52","","","self","f","30","true"
"null","<div style=""font-size:60px;"">+</div>","null","html-keyboard-response","200","192227","0.0-6.0-0.97","ZDER","3","m","rechts","52","","fixation","","","",""
"1367","img/90_150.png","70","image-keyboard-response","201","193607","0.0-6.0-1.97","ZDER","3","m","rechts","52","","","self","f","90","true"
"null","<div style=""font-size:60px;"">+</div>","null","html-keyboard-response","202","193976","0.0-6.0-0.98","ZDER","3","m","rechts","52","","fixation","","","",""
"856","img/0_330.png","70","image-keyboard-response","203","194845","0.0-6.0-1.98","ZDER","3","m","rechts","52","","","self","f","0","true"
"null","<div style=""font-size:60px;"">+</div>","null","html-keyboard-response","204","195211","0.0-6.0-0.99","ZDER","3","m","rechts","52","","fixation","","","",""
"2280","img/90_300.png","74","image-keyboard-response","205","197504","0.0-6.0-1.99","ZDER","3","m","rechts","52","","","self","f","90","false"
"null","<div style=""font-size:60px;"">+</div>","null","html-keyboard-response","206","197860","0.0-6.0-0.100","ZDER","3","m","rechts","52","","fixation","","","",""
"1143","img/60_150.png","70","image-keyboard-response","207","199016","0.0-6.0-1.100","ZDER","3","m","rechts","52","","","self","f","60","true"
"null","<div style=""font-size:60px;"">+</div>","null","html-keyboard-response","208","199532","0.0-6.0-0.101","ZDER","3","m","rechts","52","","fixation","","","",""
"955","img/60_30.png","74","image-keyboard-response","209","200492","0.0-6.0-1.101","ZDER","3","m","rechts","52","","","self","j","60","true"
"null","<div style=""font-size:60px;"">+</div>","null","html-keyboard-response","210","200995","0.0-6.0-0.102","ZDER","3","m","rechts","52","","fixation","","","",""
"866","img/0_270.png","70","image-keyboard-response","211","201874","0.0-6.0-1.102","ZDER","3","m","rechts","52","","","self","f","0","true"
"null","<div style=""font-size:60px;"">+</div>","null","html-keyboard-response","212","202183","0.0-6.0-0.103","ZDER","3","m","rechts","52","","fixation","","","",""
"769","img/0_150.png","74","image-keyboard-response","213","202967","0.0-6.0-1.103","ZDER","3","m","rechts","52","","","self","j","0","true"
"null","<div style=""font-size:60px;"">+</div>","null","html-keyboard-response","214","203471","0.0-6.0-0.104","ZDER","3","m","rechts","52","","fixation","","","",""
"1003","img/30_60.png","74","image-keyboard-response","215","204484","0.0-6.0-1.104","ZDER","3","m","rechts","52","","","self","j","30","true"
"null","<div style=""font-size:60px;"">+</div>","null","html-keyboard-response","216","204814","0.0-6.0-0.105","ZDER","3","m","rechts","52","","fixation","","","",""
"837","img/0_300.png","70","image-keyboard-response","217","205657","0.0-6.0-1.105","ZDER","3","m","rechts","52","","","self","f","0","true"
"null","<div style=""font-size:60px;"">+</div>","null","html-keyboard-response","218","206065","0.0-6.0-0.106","ZDER","3","m","rechts","52","","fixation","","","",""
"796","img/30_180.png","74","image-keyboard-response","219","206870","0.0-6.0-1.106","ZDER","3","m","rechts","52","","","self","j","30","true"
"null","<div style=""font-size:60px;"">+</div>","null","html-keyboard-response","220","207328","0.0-6.0-0.107","ZDER","3","m","rechts","52","","fixation","","","",""
"1564","img/60_270.png","70","image-keyboard-response","221","208907","0.0-6.0-1.107","ZDER","3","m","rechts","52","","","self","f","60","true"
"null","<div style=""font-size:60px;"">+</div>","null","html-keyboard-response","222","209322","0.0-6.0-0.108","ZDER","3","m","rechts","52","","fixation","","","",""
"711","img/0_150.png","74","image-keyboard-response","223","210043","0.0-6.0-1.108","ZDER","3","m","rechts","52","","","self","j","0","true"
"null","<div style=""font-size:60px;"">+</div>","null","html-keyboard-response","224","210571","0.0-6.0-0.109","ZDER","3","m","rechts","52","","fixation","","","",""
"2150","img/120_330.png","70","image-keyboard-response","225","212734","0.0-6.0-1.109","ZDER","3","m","rechts","52","","","self","f","120","true"
"null","<div style=""font-size:60px;"">+</div>","null","html-keyboard-response","226","213060","0.0-6.0-0.110","ZDER","3","m","rechts","52","","fixation","","","",""
"794","img/150_180.png","74","image-keyboard-response","227","213867","0.0-6.0-1.110","ZDER","3","m","rechts","52","","","self","j","150","true"
"null","<div style=""font-size:60px;"">+</div>","null","html-keyboard-response","228","214280","0.0-6.0-0.111","ZDER","3","m","rechts","52","","fixation","","","",""
"940","img/90_120.png","70","image-keyboard-response","229","215229","0.0-6.0-1.111","ZDER","3","m","rechts","52","","","self","f","90","true"
"null","<div style=""font-size:60px;"">+</div>","null","html-keyboard-response","230","215731","0.0-6.0-0.112","ZDER","3","m","rechts","52","","fixation","","","",""
"1110","img/60_210.png","74","image-keyboard-response","231","216848","0.0-6.0-1.112","ZDER","3","m","rechts","52","","","self","j","60","true"
"null","<div style=""font-size:60px;"">+</div>","null","html-keyboard-response","232","217170","0.0-6.0-0.113","ZDER","3","m","rechts","52","","fixation","","","",""
"1153","img/60_90.png","70","image-keyboard-response","233","218335","0.0-6.0-1.113","ZDER","3","m","rechts","52","","","self","j","60","false"
"null","<div style=""font-size:60px;"">+</div>","null","html-keyboard-response","234","218795","0.0-6.0-0.114","ZDER","3","m","rechts","52","","fixation","","","",""
"984","img/90_240.png","74","image-keyboard-response","235","219783","0.0-6.0-1.114","ZDER","3","m","rechts","52","","","self","j","90","true"
"null","<div style=""font-size:60px;"">+</div>","null","html-keyboard-response","236","220311","0.0-6.0-0.115","ZDER","3","m","rechts","52","","fixation","","","",""
"980","img/90_330.png","70","image-keyboard-response","237","221305","0.0-6.0-1.115","ZDER","3","m","rechts","52","","","self","f","90","true"
"null","<div style=""font-size:60px;"">+</div>","null","html-keyboard-response","238","221764","0.0-6.0-0.116","ZDER","3","m","rechts","52","","fixation","","","",""
"883","img/0_240.png","70","image-keyboard-response","239","222655","0.0-6.0-1.116","ZDER","3","m","rechts","52","","","self","f","0","true"
"null","<div style=""font-size:60px;"">+</div>","null","html-keyboard-response","240","223079","0.0-6.0-0.117","ZDER","3","m","rechts","52","","fixation","","","",""
"1481","img/30_270.png","70","image-keyboard-response","241","224568","0.0-6.0-1.117","ZDER","3","m","rechts","52","","","self","f","30","true"
"null","<div style=""font-size:60px;"">+</div>","null","html-keyboard-response","242","225078","0.0-6.0-0.118","ZDER","3","m","rechts","52","","fixation","","","",""
"1494","img/150_90.png","70","image-keyboard-response","243","226581","0.0-6.0-1.118","ZDER","3","m","rechts","52","","","self","f","150","true"
"null","<div style=""font-size:60px;"">+</div>","null","html-keyboard-response","244","226900","0.0-6.0-0.119","ZDER","3","m","rechts","52","","fixation","","","",""
"1231","img/60_330.png","70","image-keyboard-response","245","228144","0.0-6.0-1.119","ZDER","3","m","rechts","52","","","self","f","60","true"
"null","<div style=""font-size:60px;"">+</div>","null","html-keyboard-response","246","228502","0.0-6.0-0.120","ZDER","3","m","rechts","52","","fixation","","","",""
"879","img/150_240.png","74","image-keyboard-response","247","229394","0.0-6.0-1.120","ZDER","3","m","rechts","52","","","self","j","150","true"
"null","<div style=""font-size:60px;"">+</div>","null","html-keyboard-response","248","229705","0.0-6.0-0.121","ZDER","3","m","rechts","52","","fixation","","","",""
"1455","img/90_60.png","74","image-keyboard-response","249","231171","0.0-6.0-1.121","ZDER","3","m","rechts","52","","","self","j","90","true"
"null","<div style=""font-size:60px;"">+</div>","null","html-keyboard-response","250","231627","0.0-6.0-0.122","ZDER","3","m","rechts","52","","fixation","","","",""
"1001","img/30_90.png","74","image-keyboard-response","251","232644","0.0-6.0-1.122","ZDER","3","m","rechts","52","","","self","j","30","true"
"null","<div style=""font-size:60px;"">+</div>","null","html-keyboard-response","252","233003","0.0-6.0-0.123","ZDER","3","m","rechts","52","","fixation","","","",""
"819","img/0_90.png","74","image-keyboard-response","253","233835","0.0-6.0-1.123","ZDER","3","m","rechts","52","","","self","j","0","true"
"null","<div style=""font-size:60px;"">+</div>","null","html-keyboard-response","254","234350","0.0-6.0-0.124","ZDER","3","m","rechts","52","","fixation","","","",""
"1112","img/120_180.png","74","image-keyboard-response","255","235469","0.0-6.0-1.124","ZDER","3","m","rechts","52","","","self","j","120","true"
"null","<div style=""font-size:60px;"">+</div>","null","html-keyboard-response","256","235976","0.0-6.0-0.125","ZDER","3","m","rechts","52","","fixation","","","",""
"1717","img/30_300.png","70","image-keyboard-response","257","237707","0.0-6.0-1.125","ZDER","3","m","rechts","52","","","self","f","30","true"
"null","<div style=""font-size:60px;"">+</div>","null","html-keyboard-response","258","238160","0.0-6.0-0.126","ZDER","3","m","rechts","52","","fixation","","","",""
"1278","img/150_60.png","70","image-keyboard-response","259","239450","0.0-6.0-1.126","ZDER","3","m","rechts","52","","","self","f","150","true"
"null","<div style=""font-size:60px;"">+</div>","null","html-keyboard-response","260","239815","0.0-6.0-0.127","ZDER","3","m","rechts","52","","fixation","","","",""
"891","img/90_210.png","74","image-keyboard-response","261","240711","0.0-6.0-1.127","ZDER","3","m","rechts","52","","","self","j","90","true"
"null","<div style=""font-size:60px;"">+</div>","null","html-keyboard-response","262","241019","0.0-6.0-0.128","ZDER","3","m","rechts","52","","fixation","","","",""
"800","img/90_180.png","74","image-keyboard-response","263","241832","0.0-6.0-1.128","ZDER","3","m","rechts","52","","","self","j","90","true"
"null","<div style=""font-size:60px;"">+</div>","null","html-keyboard-response","264","242284","0.0-6.0-0.129","ZDER","3","m","rechts","52","","fixation","","","",""
"1607","img/L120_180.png","70","image-keyboard-response","265","243906","0.0-6.0-1.129","ZDER","3","m","rechts","52","","","self","f","120","true"
"null","<div style=""font-size:60px;"">+</div>","null","html-keyboard-response","266","244268","0.0-6.0-0.130","ZDER","3","m","rechts","52","","fixation","","","",""
"838","img/120_90.png","70","image-keyboard-response","267","245119","0.0-6.0-1.130","ZDER","3","m","rechts","52","","","self","f","120","true"
"null","<div style=""font-size:60px;"">+</div>","null","html-keyboard-response","268","245551","0.0-6.0-0.131","ZDER","3","m","rechts","52","","fixation","","","",""
"1069","img/60_150.png","70","image-keyboard-response","269","246629","0.0-6.0-1.131","ZDER","3","m","rechts","52","","","self","f","60","true"
"null","<div style=""font-size:60px;"">+</div>","null","html-keyboard-response","270","247081","0.0-6.0-0.132","ZDER","3","m","rechts","52","","fixation","","","",""
"828","img/L30_180.png","70","image-keyboard-response","271","247922","0.0-6.0-1.132","ZDER","3","m","rechts","52","","","self","f","30","true"
"null","<div style=""font-size:60px;"">+</div>","null","html-keyboard-response","272","248231","0.0-6.0-0.133","ZDER","3","m","rechts","52","","fixation","","","",""
"1057","img/150_120.png","70","image-keyboard-response","273","249298","0.0-6.0-1.133","ZDER","3","m","rechts","52","","","self","f","150","true"
"null","<div style=""font-size:60px;"">+</div>","null","html-keyboard-response","274","249778","0.0-6.0-0.134","ZDER","3","m","rechts","52","","fixation","","","",""
"1403","img/60_30.png","74","image-keyboard-response","275","251184","0.0-6.0-1.134","ZDER","3","m","rechts","52","","","self","j","60","true"
"null","<div style=""font-size:60px;"">+</div>","null","html-keyboard-response","276","251637","0.0-6.0-0.135","ZDER","3","m","rechts","52","","fixation","","","",""
"1256","img/120_30.png","74","image-keyboard-response","277","252907","0.0-6.0-1.135","ZDER","3","m","rechts","52","","","self","j","120","true"
"null","<div style=""font-size:60px;"">+</div>","null","html-keyboard-response","278","253373","0.0-6.0-0.136","ZDER","3","m","rechts","52","","fixation","","","",""
"884","img/0_120.png","74","image-keyboard-response","279","254268","0.0-6.0-1.136","ZDER","3","m","rechts","52","","","self","j","0","true"
"null","<div style=""font-size:60px;"">+</div>","null","html-keyboard-response","280","254731","0.0-6.0-0.137","ZDER","3","m","rechts","52","","fixation","","","",""
"993","img/90_30.png","74","image-keyboard-response","281","255741","0.0-6.0-1.137","ZDER","3","m","rechts","52","","","self","j","90","true"
"null","<div style=""font-size:60px;"">+</div>","null","html-keyboard-response","282","256248","0.0-6.0-0.138","ZDER","3","m","rechts","52","","fixation","","","",""
"1526","img/60_180.png","74","image-keyboard-response","283","257788","0.0-6.0-1.138","ZDER","3","m","rechts","52","","","self","j","60","true"
"null","<div style=""font-size:60px;"">+</div>","null","html-keyboard-response","284","258156","0.0-6.0-0.139","ZDER","3","m","rechts","52","","fixation","","","",""
"715","img/0_60.png","74","image-keyboard-response","285","258879","0.0-6.0-1.139","ZDER","3","m","rechts","52","","","self","j","0","true"
"null","<div style=""font-size:60px;"">+</div>","null","html-keyboard-response","286","259187","0.0-6.0-0.140","ZDER","3","m","rechts","52","","fixation","","","",""
"983","img/150_300.png","74","image-keyboard-response","287","260184","0.0-6.0-1.140","ZDER","3","m","rechts","52","","","self","j","150","true"
"null","<div style=""font-size:60px;"">+</div>","null","html-keyboard-response","288","260545","0.0-6.0-0.141","ZDER","3","m","rechts","52","","fixation","","","",""
"2329","img/150_270.png","74","image-keyboard-response","289","262887","0.0-6.0-1.141","ZDER","3","m","rechts","52","","","self","j","150","true"
"null","<div style=""font-size:60px;"">+</div>","null","html-keyboard-response","290","263369","0.0-6.0-0.142","ZDER","3","m","rechts","52","","fixation","","","",""
"718","img/120_210.png","74","image-keyboard-response","291","264099","0.0-6.0-1.142","ZDER","3","m","rechts","52","","","self","j","120","true"
"null","<div style=""font-size:60px;"">+</div>","null","html-keyboard-response","292","264463","0.0-6.0-0.143","ZDER","3","m","rechts","52","","fixation","","","",""
"930","img/L60_180.png","70","image-keyboard-response","293","265406","0.0-6.0-1.143","ZDER","3","m","rechts","52","","","self","f","60","true"
"null","<div style=""font-size:60px;"">+</div>","null","html-keyboard-response","294","265713","0.0-6.0-0.144","ZDER","3","m","rechts","52","","fixation","","","",""
"1065","img/30_120.png","74","image-keyboard-response","295","266787","0.0-6.0-1.144","ZDER","3","m","rechts","52","","","self","j","30","true"
"null","<div style=""font-size:60px;"">+</div>","null","html-keyboard-response","296","267307","0.0-6.0-0.145","ZDER","3","m","rechts","52","","fixation","","","",""
"1419","img/90_300.png","70","image-keyboard-response","297","268735","0.0-6.0-1.145","ZDER","3","m","rechts","52","","","self","f","90","true"
"null","<div style=""font-size:60px;"">+</div>","null","html-keyboard-response","298","269252","0.0-6.0-0.146","ZDER","3","m","rechts","52","","fixation","","","",""
"742","img/0_270.png","70","image-keyboard-response","299","270004","0.0-6.0-1.146","ZDER","3","m","rechts","52","","","self","f","0","true"
"null","<div style=""font-size:60px;"">+</div>","null","html-keyboard-response","300","270376","0.0-6.0-0.147","ZDER","3","m","rechts","52","","fixation","","","",""
"1112","img/120_270.png","74","image-keyboard-response","301","271501","0.0-6.0-1.147","ZDER","3","m","rechts","52","","","self","j","120","true"
"null","<div style=""font-size:60px;"">+</div>","null","html-keyboard-response","302","272018","0.0-6.0-0.148","ZDER","3","m","rechts","52","","fixation","","","",""
"817","img/90_150.png","70","image-keyboard-response","303","272850","0.0-6.0-1.148","ZDER","3","m","rechts","52","","","self","f","90","true"
"null","<div style=""font-size:60px;"">+</div>","null","html-keyboard-response","304","273159","0.0-6.0-0.149","ZDER","3","m","rechts","52","","fixation","","","",""
"1053","img/30_240.png","70","image-keyboard-response","305","274225","0.0-6.0-1.149","ZDER","3","m","rechts","52","","","self","f","30","true"
"null","<div style=""font-size:60px;"">+</div>","null","html-keyboard-response","306","274705","0.0-6.0-0.150","ZDER","3","m","rechts","52","","fixation","","","",""
"677","img/0_210.png","70","image-keyboard-response","307","275395","0.0-6.0-1.150","ZDER","3","m","rechts","52","","","self","f","0","true"
"null","<div style=""font-size:60px;"">+</div>","null","html-keyboard-response","308","275767","0.0-6.0-0.151","ZDER","3","m","rechts","52","","fixation","","","",""
"967","img/120_150.png","70","image-keyboard-response","309","276746","0.0-6.0-1.151","ZDER","3","m","rechts","52","","","self","f","120","true"
"null","<div style=""font-size:60px;"">+</div>","null","html-keyboard-response","310","277252","0.0-6.0-0.152","ZDER","3","m","rechts","52","","fixation","","","",""
"729","img/0_330.png","70","image-keyboard-response","311","277994","0.0-6.0-1.152","ZDER","3","m","rechts","52","","","self","f","0","true"
"null","<div style=""font-size:60px;"">+</div>","null","html-keyboard-response","312","278519","0.0-6.0-0.153","ZDER","3","m","rechts","52","","fixation","","","",""
"844","img/0_30.png","74","image-keyboard-response","313","279376","0.0-6.0-1.153","ZDER","3","m","rechts","52","","","self","j","0","true"
"null","<div style=""font-size:60px;"">+</div>","null","html-keyboard-response","314","279800","0.0-6.0-0.154","ZDER","3","m","rechts","52","","fixation","","","",""
"923","img/L90_180.png","70","image-keyboard-response","315","280727","0.0-6.0-1.154","ZDER","3","m","rechts","52","","","self","f","90","true"
"null","<div style=""font-size:60px;"">+</div>","null","html-keyboard-response","316","281187","0.0-6.0-0.155","ZDER","3","m","rechts","52","","fixation","","","",""
"639","img/L150_180.png","70","image-keyboard-response","317","281839","0.0-6.0-1.155","ZDER","3","m","rechts","52","","","self","f","150","true"
"null","<div style=""font-size:60px;"">+</div>","null","html-keyboard-response","318","282265","0.0-6.0-0.156","ZDER","3","m","rechts","52","","fixation","","","",""
"746","img/0_270.png","70","image-keyboard-response","319","283023","0.0-6.0-1.156","ZDER","3","m","rechts","52","","","self","f","0","true"
"null","<div style=""font-size:60px;"">+</div>","null","html-keyboard-response","320","283441","0.0-6.0-0.157","ZDER","3","m","rechts","52","","fixation","","","",""
"573","img/120_150.png","70","image-keyboard-response","321","284024","0.0-6.0-1.157","ZDER","3","m","rechts","52","","","self","f","120","true"
"null","<div style=""font-size:60px;"">+</div>","null","html-keyboard-response","322","284394","0.0-6.0-0.158","ZDER","3","m","rechts","52","","fixation","","","",""
"1509","img/60_330.png","70","image-keyboard-response","323","285913","0.0-6.0-1.158","ZDER","3","m","rechts","52","","","self","f","60","true"
"null","<div style=""font-size:60px;"">+</div>","null","html-keyboard-response","324","286441","0.0-6.0-0.159","ZDER","3","m","rechts","52","","fixation","","","",""
"956","img/90_240.png","74","image-keyboard-response","325","287410","0.0-6.0-1.159","ZDER","3","m","rechts","52","","","self","j","90","true"
"null","<div style=""font-size:60px;"">+</div>","null","html-keyboard-response","326","287763","0.0-6.0-0.160","ZDER","3","m","rechts","52","","fixation","","","",""
"1201","img/90_330.png","70","image-keyboard-response","327","288976","0.0-6.0-1.160","ZDER","3","m","rechts","52","","","self","f","90","true"
"null","<div style=""font-size:60px;"">+</div>","null","html-keyboard-response","328","289349","0.0-6.0-0.161","ZDER","3","m","rechts","52","","fixation","","","",""
"927","img/60_210.png","74","image-keyboard-response","329","290290","0.0-6.0-1.161","ZDER","3","m","rechts","52","","","self","j","60","true"
"null","<div style=""font-size:60px;"">+</div>","null","html-keyboard-response","330","290801","0.0-6.0-0.162","ZDER","3","m","rechts","52","","fixation","","","",""
"1212","img/90_60.png","74","image-keyboard-response","331","292021","0.0-6.0-1.162","ZDER","3","m","rechts","52","","","self","j","90","true"
"null","<div style=""font-size:60px;"">+</div>","null","html-keyboard-response","332","292551","0.0-6.0-0.163","ZDER","3","m","rechts","52","","fixation","","","",""
"773","img/60_180.png","74","image-keyboard-response","333","293337","0.0-6.0-1.163","ZDER","3","m","rechts","52","","","self","j","60","true"
"null","<div style=""font-size:60px;"">+</div>","null","html-keyboard-response","334","293814","0.0-6.0-0.164","ZDER","3","m","rechts","52","","fixation","","","",""
"949","img/60_150.png","70","image-keyboard-response","335","294769","0.0-6.0-1.164","ZDER","3","m","rechts","52","","","self","f","60","true"
"null","<div style=""font-size:60px;"">+</div>","null","html-keyboard-response","336","295080","0.0-6.0-0.165","ZDER","3","m","rechts","52","","fixation","","","",""
"757","img/0_210.png","70","image-keyboard-response","337","295846","0.0-6.0-1.165","ZDER","3","m","rechts","52","","","self","f","0","true"
"null","<div style=""font-size:60px;"">+</div>","null","html-keyboard-response","338","296221","0.0-6.0-0.166","ZDER","3","m","rechts","52","","fixation","","","",""
"1138","img/30_120.png","74","image-keyboard-response","339","297367","0.0-6.0-1.166","ZDER","3","m","rechts","52","","","self","j","30","true"
"null","<div style=""font-size:60px;"">+</div>","null","html-keyboard-response","340","297767","0.0-6.0-0.167","ZDER","3","m","rechts","52","","fixation","","","",""
"1417","img/60_270.png","70","image-keyboard-response","341","299201","0.0-6.0-1.167","ZDER","3","m","rechts","52","","","self","f","60","true"
"null","<div style=""font-size:60px;"">+</div>","null","html-keyboard-response","342","299513","0.0-6.0-0.168","ZDER","3","m","rechts","52","","fixation","","","",""
"1066","img/30_270.png","70","image-keyboard-response","343","300596","0.0-6.0-1.168","ZDER","3","m","rechts","52","","","self","f","30","true"
"null","<div style=""font-size:60px;"">+</div>","null","html-keyboard-response","344","301122","0.0-6.0-0.169","ZDER","3","m","rechts","52","","fixation","","","",""
"1361","img/90_300.png","70","image-keyboard-response","345","302495","0.0-6.0-1.169","ZDER","3","m","rechts","52","","","self","f","90","true"
"null","<div style=""font-size:60px;"">+</div>","null","html-keyboard-response","346","302850","0.0-6.0-0.170","ZDER","3","m","rechts","52","","fixation","","","",""
"733","img/30_180.png","74","image-keyboard-response","347","303588","0.0-6.0-1.170","ZDER","3","m","rechts","52","","","self","j","30","true"
"null","<div style=""font-size:60px;"">+</div>","null","html-keyboard-response","348","304006","0.0-6.0-0.171","ZDER","3","m","rechts","52","","fixation","","","",""
"764","img/150_270.png","74","image-keyboard-response","349","304779","0.0-6.0-1.171","ZDER","3","m","rechts","52","","","self","j","150","true"
"null","<div style=""font-size:60px;"">+</div>","null","html-keyboard-response","350","305289","0.0-6.0-0.172","ZDER","3","m","rechts","52","","fixation","","","",""
"615","img/120_270.png","74","image-keyboard-response","351","305916","0.0-6.0-1.172","ZDER","3","m","rechts","52","","","self","j","120","true"
"null","<div style=""font-size:60px;"">+</div>","null","html-keyboard-response","352","306335","0.0-6.0-0.173","ZDER","3","m","rechts","52","","fixation","","","",""
"565","img/150_240.png","74","image-keyboard-response","353","306917","0.0-6.0-1.173","ZDER","3","m","rechts","52","","","self","j","150","true"
"null","<div style=""font-size:60px;"">+</div>","null","html-keyboard-response","354","307318","0.0-6.0-0.174","ZDER","3","m","rechts","52","","fixation","","","",""
"1207","img/L150_180.png","70","image-keyboard-response","355","308536","0.0-6.0-1.174","ZDER","3","m","rechts","52","","","self","f","150","true"
"null","<div style=""font-size:60px;"">+</div>","null","html-keyboard-response","356","308851","0.0-6.0-0.175","ZDER","3","m","rechts","52","","fixation","","","",""
"1112","img/60_30.png","74","image-keyboard-response","357","309968","0.0-6.0-1.175","ZDER","3","m","rechts","52","","","self","j","60","true"
"null","<div style=""font-size:60px;"">+</div>","null","html-keyboard-response","358","310336","0.0-6.0-0.176","ZDER","3","m","rechts","52","","fixation","","","",""
"689","img/L120_180.png","70","image-keyboard-response","359","311036","0.0-6.0-1.176","ZDER","3","m","rechts","52","","","self","f","120","true"
"null","<div style=""font-size:60px;"">+</div>","null","html-keyboard-response","360","311491","0.0-6.0-0.177","ZDER","3","m","rechts","52","","fixation","","","",""
"1849","img/60_90.png","70","image-keyboard-response","361","313354","0.0-6.0-1.177","ZDER","3","m","rechts","52","","","self","j","60","false"
"null","<div style=""font-size:60px;"">+</div>","null","html-keyboard-response","362","313819","0.0-6.0-0.178","ZDER","3","m","rechts","52","","fixation","","","",""
"683","img/0_240.png","70","image-keyboard-response","363","314512","0.0-6.0-1.178","ZDER","3","m","rechts","52","","","self","f","0","true"
"null","<div style=""font-size:60px;"">+</div>","null","html-keyboard-response","364","315038","0.0-6.0-0.179","ZDER","3","m","rechts","52","","fixation","","","",""
"701","img/L90_180.png","70","image-keyboard-response","365","315748","0.0-6.0-1.179","ZDER","3","m","rechts","52","","","self","f","90","true"
"null","<div style=""font-size:60px;"">+</div>","null","html-keyboard-response","366","316163","0.0-6.0-0.180","ZDER","3","m","rechts","52","","fixation","","","",""
"809","img/30_60.png","74","image-keyboard-response","367","316986","0.0-6.0-1.180","ZDER","3","m","rechts","52","","","self","j","30","true"
"null","<div style=""font-size:60px;"">+</div>","null","html-keyboard-response","368","317350","0.0-6.0-0.181","ZDER","3","m","rechts","52","","fixation","","","",""
"1079","img/30_240.png","70","image-keyboard-response","369","318440","0.0-6.0-1.181","ZDER","3","m","rechts","52","","","self","f","30","true"
"null","<div style=""font-size:60px;"">+</div>","null","html-keyboard-response","370","318795","0.0-6.0-0.182","ZDER","3","m","rechts","52","","fixation","","","",""
"907","img/150_300.png","74","image-keyboard-response","371","319709","0.0-6.0-1.182","ZDER","3","m","rechts","52","","","self","j","150","true"
"null","<div style=""font-size:60px;"">+</div>","null","html-keyboard-response","372","320030","0.0-6.0-0.183","ZDER","3","m","rechts","52","","fixation","","","",""
"861","img/120_210.png","74","image-keyboard-response","373","320900","0.0-6.0-1.183","ZDER","3","m","rechts","52","","","self","j","120","true"
"null","<div style=""font-size:60px;"">+</div>","null","html-keyboard-response","374","321420","0.0-6.0-0.184","ZDER","3","m","rechts","52","","fixation","","","",""
"1305","img/L30_180.png","70","image-keyboard-response","375","322735","0.0-6.0-1.184","ZDER","3","m","rechts","52","","","self","f","30","true"
"null","<div style=""font-size:60px;"">+</div>","null","html-keyboard-response","376","323250","0.0-6.0-0.185","ZDER","3","m","rechts","52","","fixation","","","",""
"871","img/L60_180.png","70","image-keyboard-response","377","324131","0.0-6.0-1.185","ZDER","3","m","rechts","52","","","self","f","60","true"
"null","<div style=""font-size:60px;"">+</div>","null","html-keyboard-response","378","324593","0.0-6.0-0.186","ZDER","3","m","rechts","52","","fixation","","","",""
"761","img/0_60.png","74","image-keyboard-response","379","325368","0.0-6.0-1.186","ZDER","3","m","rechts","52","","","self","j","0","true"
"null","<div style=""font-size:60px;"">+</div>","null","html-keyboard-response","380","325874","0.0-6.0-0.187","ZDER","3","m","rechts","52","","fixation","","","",""
"926","img/90_180.png","74","image-keyboard-response","381","326808","0.0-6.0-1.187","ZDER","3","m","rechts","52","","","self","j","90","true"
"null","<div style=""font-size:60px;"">+</div>","null","html-keyboard-response","382","327330","0.0-6.0-0.188","ZDER","3","m","rechts","52","","fixation","","","",""
"814","img/90_120.png","70","image-keyboard-response","383","328158","0.0-6.0-1.188","ZDER","3","m","rechts","52","","","self","f","90","true"
"null","<div style=""font-size:60px;"">+</div>","null","html-keyboard-response","384","328614","0.0-6.0-0.189","ZDER","3","m","rechts","52","","fixation","","","",""
"711","img/0_90.png","74","image-keyboard-response","385","329341","0.0-6.0-1.189","ZDER","3","m","rechts","52","","","self","j","0","true"
"null","<div style=""font-size:60px;"">+</div>","null","html-keyboard-response","386","329819","0.0-6.0-0.190","ZDER","3","m","rechts","52","","fixation","","","",""
"767","img/90_210.png","74","image-keyboard-response","387","330600","0.0-6.0-1.190","ZDER","3","m","rechts","52","","","self","j","90","true"
"null","<div style=""font-size:60px;"">+</div>","null","html-keyboard-response","388","331116","0.0-6.0-0.191","ZDER","3","m","rechts","52","","fixation","","","",""
"888","img/120_90.png","70","image-keyboard-response","389","332017","0.0-6.0-1.191","ZDER","3","m","rechts","52","","","self","f","120","true"
"null","<div style=""font-size:60px;"">+</div>","null","html-keyboard-response","390","332444","0.0-6.0-0.192","ZDER","3","m","rechts","52","","fixation","","","",""
"1021","img/30_90.png","74","image-keyboard-response","391","333479","0.0-6.0-1.192","ZDER","3","m","rechts","52","","","self","j","30","true"
"null","<div style=""font-size:60px;"">+</div>","null","html-keyboard-response","392","333992","0.0-6.0-0.193","ZDER","3","m","rechts","52","","fixation","","","",""
"2842","img/120_330.png","74","image-keyboard-response","393","336848","0.0-6.0-1.193","ZDER","3","m","rechts","52","","","self","f","120","false"
"null","<div style=""font-size:60px;"">+</div>","null","html-keyboard-response","394","337359","0.0-6.0-0.194","ZDER","3","m","rechts","52","","fixation","","","",""
"741","img/0_150.png","74","image-keyboard-response","395","338114","0.0-6.0-1.194","ZDER","3","m","rechts","52","","","self","j","0","true"
"null","<div style=""font-size:60px;"">+</div>","null","html-keyboard-response","396","338545","0.0-6.0-0.195","ZDER","3","m","rechts","52","","fixation","","","",""
"648","img/0_30.png","74","image-keyboard-response","397","339206","0.0-6.0-1.195","ZDER","3","m","rechts","52","","","self","j","0","true"
"null","<div style=""font-size:60px;"">+</div>","null","html-keyboard-response","398","339688","0.0-6.0-0.196","ZDER","3","m","rechts","52","","fixation","","","",""
"800","img/150_60.png","70","image-keyboard-response","399","340502","0.0-6.0-1.196","ZDER","3","m","rechts","52","","","self","f","150","true"
"null","<div style=""font-size:60px;"">+</div>","null","html-keyboard-response","400","340952","0.0-6.0-0.197","ZDER","3","m","rechts","52","","fixation","","","",""
"757","img/150_90.png","70","image-keyboard-response","401","341715","0.0-6.0-1.197","ZDER","3","m","rechts","52","","","self","f","150","true"
"null","<div style=""font-size:60px;"">+</div>","null","html-keyboard-response","402","342171","0.0-6.0-0.198","ZDER","3","m","rechts","52","","fixation","","","",""
"767","img/90_150.png","70","image-keyboard-response","403","342950","0.0-6.0-1.198","ZDER","3","m","rechts","52","","","self","f","90","true"
"null","<div style=""font-size:60px;"">+</div>","null","html-keyboard-response","404","343407","0.0-6.0-0.199","ZDER","3","m","rechts","52","","fixation","","","",""
"1579","img/30_300.png","70","image-keyboard-response","405","345000","0.0-6.0-1.199","ZDER","3","m","rechts","52","","","self","f","30","true"
"null","<div style=""font-size:60px;"">+</div>","null","html-keyboard-response","406","345517","0.0-6.0-0.200","ZDER","3","m","rechts","52","","fixation","","","",""
"740","img/90_30.png","74","image-keyboard-response","407","346271","0.0-6.0-1.200","ZDER","3","m","rechts","52","","","self","j","90","true"
"null","<div style=""font-size:60px;"">+</div>","null","html-keyboard-response","408","346782","0.0-6.0-0.201","ZDER","3","m","rechts","52","","fixation","","","",""
"733","img/150_120.png","70","image-keyboard-response","409","347530","0.0-6.0-1.201","ZDER","3","m","rechts","52","","","self","f","150","true"
"null","<div style=""font-size:60px;"">+</div>","null","html-keyboard-response","410","347844","0.0-6.0-0.202","ZDER","3","m","rechts","52","","fixation","","","",""
"835","img/0_330.png","70","image-keyboard-response","411","348691","0.0-6.0-1.202","ZDER","3","m","rechts","52","","","self","f","0","true"
"null","<div style=""font-size:60px;"">+</div>","null","html-keyboard-response","412","349046","0.0-6.0-0.203","ZDER","3","m","rechts","52","","fixation","","","",""
"610","img/0_300.png","70","image-keyboard-response","413","349669","0.0-6.0-1.203","ZDER","3","m","rechts","52","","","self","f","0","true"
"null","<div style=""font-size:60px;"">+</div>","null","html-keyboard-response","414","350124","0.0-6.0-0.204","ZDER","3","m","rechts","52","","fixation","","","",""
"587","img/120_180.png","74","image-keyboard-response","415","350726","0.0-6.0-1.204","ZDER","3","m","rechts","52","","","self","j","120","true"
"null","<div style=""font-size:60px;"">+</div>","null","html-keyboard-response","416","351188","0.0-6.0-0.205","ZDER","3","m","rechts","52","","fixation","","","",""
"605","img/120_30.png","70","image-keyboard-response","417","351806","0.0-6.0-1.205","ZDER","3","m","rechts","52","","","self","j","120","false"
"null","<div style=""font-size:60px;"">+</div>","null","html-keyboard-response","418","352171","0.0-6.0-0.206","ZDER","3","m","rechts","52","","fixation","","","",""
"1083","img/0_120.png","74","image-keyboard-response","419","353268","0.0-6.0-1.206","ZDER","3","m","rechts","52","","","self","j","0","true"
"null","<div style=""font-size:60px;"">+</div>","null","html-keyboard-response","420","353592","0.0-6.0-0.207","ZDER","3","m","rechts","52","","fixation","","","",""
"739","img/150_180.png","74","image-keyboard-response","421","354336","0.0-6.0-1.207","ZDER","3","m","rechts","52","","","self","j","150","true"
"24775","<p>Du hast in 94% der Versuche korrekt entschieden.</p><p>Deine durchschnittliche Reaktionszeit war  1075ms.</p><p>Dr&uuml;cke eine beliebige Taste, um die Session zu beenden. Vielen Dank!</p>","32","html-keyboard-response","422","379114","0.0-7.0","ZDER","3","m","rechts","52","","","","","",""
