"rt","stimulus","key_press","trial_type","trial_index","time_elapsed","internal_node_id","subject","session","sex","handedness","age","responses","test_part","condition","correct_response","angle","correct"
"2927","<p>Mental Rotation Experiment.</p> <p>Dr&uuml;cke eine beliebige Taste, um anzufangen.</p>","13","html-keyboard-response","0","2962","0.0-0.0","ZDER","2","m","rechts","52","","","","","",""
"6176","","","survey-text","1","9143","0.0-1.0","ZDER","2","m","rechts","52","{""Q0"":""ZDER""}","","","","",""
"4090","","","survey-text","2","13234","0.0-2.0","ZDER","2","m","rechts","52","{""Q0"":""2""}","","","","",""
"4927","","","survey-multi-choice","3","18174","0.0-3.0","ZDER","2","m","rechts","52","{""Q0"":""m"",""Q1"":""rechts""}","","","","",""
"6185","","","survey-text","4","24360","0.0-4.0","ZDER","2","m","rechts","52","{""Q0"":""52""}","","","","",""
"14376","<p> Stell dir vor, dass du vor einem runden Tisch stehst, auf dem sich ein blauer Ball am Tischrand befindet. Entlang des Tischrands ist jeweils ein verschieden langer Pfeil. Nun bewegst du dich entlang dieses Pfeils bis an seine Spitze. Wenn du am Ende des Pfeils angekommen bist, schau zur Tischmitte. </p> <img src='img/90_180.png'></img> <br> <p>Entscheide dann, ob der Ball von deiner neuen (vorgestellten) Position links oder rechts von dir liegt.</p> <p>Dr&uuml;cke die <strong>'f'</strong>-Taste f&uuml;r links, die <strong>'j'</strong>-Taste f&uuml;r rechts.</p> <br><p> Das Bild wird jeweils 1 Sekunde lang pr&auml;sentiert. Du hast 3 Sekunden Zeit eine Entscheidung zu treffen.</p>","70","html-keyboard-response","5","38760","0.0-5.0","ZDER","2","m","rechts","52","","","","","",""
"null","<div style=""font-size:60px;"">+</div>","null","html-keyboard-response","6","40099","0.0-6.0-0.0","ZDER","2","m","rechts","52","","fixation","","","",""
"1891","img/150_270.png","74","image-keyboard-response","7","42011","0.0-6.0-1.0","ZDER","2","m","rechts","52","","","self","j","150","true"
"null","<div style=""font-size:60px;"">+</div>","null","html-keyboard-response","8","42426","0.0-6.0-0.1","ZDER","2","m","rechts","52","","fixation","","","",""
"1202","img/60_150.png","70","image-keyboard-response","9","43647","0.0-6.0-1.1","ZDER","2","m","rechts","52","","","self","f","60","true"
"null","<div style=""font-size:60px;"">+</div>","null","html-keyboard-response","10","44005","0.0-6.0-0.2","ZDER","2","m","rechts","52","","fixation","","","",""
"1671","img/60_30.png","74","image-keyboard-response","11","45696","0.0-6.0-1.2","ZDER","2","m","rechts","52","","","self","j","60","true"
"null","<div style=""font-size:60px;"">+</div>","null","html-keyboard-response","12","46058","0.0-6.0-0.3","ZDER","2","m","rechts","52","","fixation","","","",""
"1214","img/0_330.png","70","image-keyboard-response","13","47291","0.0-6.0-1.3","ZDER","2","m","rechts","52","","","self","f","0","true"
"null","<div style=""font-size:60px;"">+</div>","null","html-keyboard-response","14","47621","0.0-6.0-0.4","ZDER","2","m","rechts","52","","fixation","","","",""
"1048","img/60_180.png","74","image-keyboard-response","15","48689","0.0-6.0-1.4","ZDER","2","m","rechts","52","","","self","j","60","true"
"null","<div style=""font-size:60px;"">+</div>","null","html-keyboard-response","16","48995","0.0-6.0-0.5","ZDER","2","m","rechts","52","","fixation","","","",""
"1249","img/0_120.png","74","image-keyboard-response","17","50264","0.0-6.0-1.5","ZDER","2","m","rechts","52","","","self","j","0","true"
"null","<div style=""font-size:60px;"">+</div>","null","html-keyboard-response","18","50620","0.0-6.0-0.6","ZDER","2","m","rechts","52","","fixation","","","",""
"1043","img/0_210.png","70","image-keyboard-response","19","51681","0.0-6.0-1.6","ZDER","2","m","rechts","52","","","self","f","0","true"
"null","<div style=""font-size:60px;"">+</div>","null","html-keyboard-response","20","52151","0.0-6.0-0.7","ZDER","2","m","rechts","52","","fixation","","","",""
"805","img/0_240.png","70","image-keyboard-response","21","52975","0.0-6.0-1.7","ZDER","2","m","rechts","52","","","self","f","0","true"
"null","<div style=""font-size:60px;"">+</div>","null","html-keyboard-response","22","53276","0.0-6.0-0.8","ZDER","2","m","rechts","52","","fixation","","","",""
"1783","img/90_300.png","74","image-keyboard-response","23","55079","0.0-6.0-1.8","ZDER","2","m","rechts","52","","","self","f","90","false"
"null","<div style=""font-size:60px;"">+</div>","null","html-keyboard-response","24","55450","0.0-6.0-0.9","ZDER","2","m","rechts","52","","fixation","","","",""
"1421","img/L120_180.png","70","image-keyboard-response","25","56888","0.0-6.0-1.9","ZDER","2","m","rechts","52","","","self","f","120","true"
"null","<div style=""font-size:60px;"">+</div>","null","html-keyboard-response","26","57246","0.0-6.0-0.10","ZDER","2","m","rechts","52","","fixation","","","",""
"1188","img/30_90.png","74","image-keyboard-response","27","58454","0.0-6.0-1.10","ZDER","2","m","rechts","52","","","self","j","30","true"
"null","<div style=""font-size:60px;"">+</div>","null","html-keyboard-response","28","58918","0.0-6.0-0.11","ZDER","2","m","rechts","52","","fixation","","","",""
"1343","img/120_150.png","70","image-keyboard-response","29","60276","0.0-6.0-1.11","ZDER","2","m","rechts","52","","","self","f","120","true"
"null","<div style=""font-size:60px;"">+</div>","null","html-keyboard-response","30","60729","0.0-6.0-0.12","ZDER","2","m","rechts","52","","fixation","","","",""
"1010","img/0_90.png","74","image-keyboard-response","31","61759","0.0-6.0-1.12","ZDER","2","m","rechts","52","","","self","j","0","true"
"null","<div style=""font-size:60px;"">+</div>","null","html-keyboard-response","32","62074","0.0-6.0-0.13","ZDER","2","m","rechts","52","","fixation","","","",""
"1416","img/90_180.png","74","image-keyboard-response","33","63503","0.0-6.0-1.13","ZDER","2","m","rechts","52","","","self","j","90","true"
"null","<div style=""font-size:60px;"">+</div>","null","html-keyboard-response","34","63882","0.0-6.0-0.14","ZDER","2","m","rechts","52","","fixation","","","",""
"1043","img/30_180.png","74","image-keyboard-response","35","64932","0.0-6.0-1.14","ZDER","2","m","rechts","52","","","self","j","30","true"
"null","<div style=""font-size:60px;"">+</div>","null","html-keyboard-response","36","65356","0.0-6.0-0.15","ZDER","2","m","rechts","52","","fixation","","","",""
"1102","img/L150_180.png","70","image-keyboard-response","37","66475","0.0-6.0-1.15","ZDER","2","m","rechts","52","","","self","f","150","true"
"null","<div style=""font-size:60px;"">+</div>","null","html-keyboard-response","38","66933","0.0-6.0-0.16","ZDER","2","m","rechts","52","","fixation","","","",""
"828","img/150_180.png","74","image-keyboard-response","39","67768","0.0-6.0-1.16","ZDER","2","m","rechts","52","","","self","j","150","true"
"null","<div style=""font-size:60px;"">+</div>","null","html-keyboard-response","40","68122","0.0-6.0-0.17","ZDER","2","m","rechts","52","","fixation","","","",""
"1260","img/90_150.png","70","image-keyboard-response","41","69399","0.0-6.0-1.17","ZDER","2","m","rechts","52","","","self","f","90","true"
"null","<div style=""font-size:60px;"">+</div>","null","html-keyboard-response","42","69816","0.0-6.0-0.18","ZDER","2","m","rechts","52","","fixation","","","",""
"1016","img/0_300.png","70","image-keyboard-response","43","70850","0.0-6.0-1.18","ZDER","2","m","rechts","52","","","self","f","0","true"
"null","<div style=""font-size:60px;"">+</div>","null","html-keyboard-response","44","71205","0.0-6.0-0.19","ZDER","2","m","rechts","52","","fixation","","","",""
"786","img/L90_180.png","70","image-keyboard-response","45","71999","0.0-6.0-1.19","ZDER","2","m","rechts","52","","","self","f","90","true"
"null","<div style=""font-size:60px;"">+</div>","null","html-keyboard-response","46","72504","0.0-6.0-0.20","ZDER","2","m","rechts","52","","fixation","","","",""
"1090","img/30_120.png","74","image-keyboard-response","47","73615","0.0-6.0-1.20","ZDER","2","m","rechts","52","","","self","j","30","true"
"null","<div style=""font-size:60px;"">+</div>","null","html-keyboard-response","48","73972","0.0-6.0-0.21","ZDER","2","m","rechts","52","","fixation","","","",""
"806","img/0_60.png","74","image-keyboard-response","49","74785","0.0-6.0-1.21","ZDER","2","m","rechts","52","","","self","j","0","true"
"null","<div style=""font-size:60px;"">+</div>","null","html-keyboard-response","50","75301","0.0-6.0-0.22","ZDER","2","m","rechts","52","","fixation","","","",""
"1061","img/L30_180.png","70","image-keyboard-response","51","76383","0.0-6.0-1.22","ZDER","2","m","rechts","52","","","self","f","30","true"
"null","<div style=""font-size:60px;"">+</div>","null","html-keyboard-response","52","76800","0.0-6.0-0.23","ZDER","2","m","rechts","52","","fixation","","","",""
"872","img/0_30.png","74","image-keyboard-response","53","77680","0.0-6.0-1.23","ZDER","2","m","rechts","52","","","self","j","0","true"
"null","<div style=""font-size:60px;"">+</div>","null","html-keyboard-response","54","78097","0.0-6.0-0.24","ZDER","2","m","rechts","52","","fixation","","","",""
"1814","img/120_330.png","70","image-keyboard-response","55","79928","0.0-6.0-1.24","ZDER","2","m","rechts","52","","","self","f","120","true"
"null","<div style=""font-size:60px;"">+</div>","null","html-keyboard-response","56","80292","0.0-6.0-0.25","ZDER","2","m","rechts","52","","fixation","","","",""
"1383","img/90_120.png","70","image-keyboard-response","57","81681","0.0-6.0-1.25","ZDER","2","m","rechts","52","","","self","f","90","true"
"null","<div style=""font-size:60px;"">+</div>","null","html-keyboard-response","58","81984","0.0-6.0-0.26","ZDER","2","m","rechts","52","","fixation","","","",""
"1595","img/90_240.png","74","image-keyboard-response","59","83584","0.0-6.0-1.26","ZDER","2","m","rechts","52","","","self","j","90","true"
"null","<div style=""font-size:60px;"">+</div>","null","html-keyboard-response","60","83949","0.0-6.0-0.27","ZDER","2","m","rechts","52","","fixation","","","",""
"1384","img/60_90.png","70","image-keyboard-response","61","85338","0.0-6.0-1.27","ZDER","2","m","rechts","52","","","self","j","60","false"
"null","<div style=""font-size:60px;"">+</div>","null","html-keyboard-response","62","85792","0.0-6.0-0.28","ZDER","2","m","rechts","52","","fixation","","","",""
"1581","img/30_270.png","70","image-keyboard-response","63","87387","0.0-6.0-1.28","ZDER","2","m","rechts","52","","","self","f","30","true"
"null","<div style=""font-size:60px;"">+</div>","null","html-keyboard-response","64","87807","0.0-6.0-0.29","ZDER","2","m","rechts","52","","fixation","","","",""
"956","img/90_210.png","74","image-keyboard-response","65","88770","0.0-6.0-1.29","ZDER","2","m","rechts","52","","","self","j","90","true"
"null","<div style=""font-size:60px;"">+</div>","null","html-keyboard-response","66","89278","0.0-6.0-0.30","ZDER","2","m","rechts","52","","fixation","","","",""
"1097","img/0_270.png","70","image-keyboard-response","67","90389","0.0-6.0-1.30","ZDER","2","m","rechts","52","","","self","f","0","true"
"null","<div style=""font-size:60px;"">+</div>","null","html-keyboard-response","68","90748","0.0-6.0-0.31","ZDER","2","m","rechts","52","","fixation","","","",""
"1593","img/120_90.png","70","image-keyboard-response","69","92360","0.0-6.0-1.31","ZDER","2","m","rechts","52","","","self","f","120","true"
"null","<div style=""font-size:60px;"">+</div>","null","html-keyboard-response","70","92716","0.0-6.0-0.32","ZDER","2","m","rechts","52","","fixation","","","",""
"2480","img/60_270.png","70","image-keyboard-response","71","95207","0.0-6.0-1.32","ZDER","2","m","rechts","52","","","self","f","60","true"
"null","<div style=""font-size:60px;"">+</div>","null","html-keyboard-response","72","95722","0.0-6.0-0.33","ZDER","2","m","rechts","52","","fixation","","","",""
"2224","img/L60_180.png","70","image-keyboard-response","73","97953","0.0-6.0-1.33","ZDER","2","m","rechts","52","","","self","f","60","true"
"null","<div style=""font-size:60px;"">+</div>","null","html-keyboard-response","74","98487","0.0-6.0-0.34","ZDER","2","m","rechts","52","","fixation","","","",""
"1853","img/150_120.png","70","image-keyboard-response","75","100353","0.0-6.0-1.34","ZDER","2","m","rechts","52","","","self","f","150","true"
"null","<div style=""font-size:60px;"">+</div>","null","html-keyboard-response","76","100818","0.0-6.0-0.35","ZDER","2","m","rechts","52","","fixation","","","",""
"1557","img/90_30.png","74","image-keyboard-response","77","102386","0.0-6.0-1.35","ZDER","2","m","rechts","52","","","self","j","90","true"
"null","<div style=""font-size:60px;"">+</div>","null","html-keyboard-response","78","102848","0.0-6.0-0.36","ZDER","2","m","rechts","52","","fixation","","","",""
"971","img/150_90.png","70","image-keyboard-response","79","103833","0.0-6.0-1.36","ZDER","2","m","rechts","52","","","self","f","150","true"
"null","<div style=""font-size:60px;"">+</div>","null","html-keyboard-response","80","104192","0.0-6.0-0.37","ZDER","2","m","rechts","52","","fixation","","","",""
"1668","img/30_300.png","70","image-keyboard-response","81","105882","0.0-6.0-1.37","ZDER","2","m","rechts","52","","","self","f","30","true"
"null","<div style=""font-size:60px;"">+</div>","null","html-keyboard-response","82","106348","0.0-6.0-0.38","ZDER","2","m","rechts","52","","fixation","","","",""
"1103","img/120_180.png","74","image-keyboard-response","83","107471","0.0-6.0-1.38","ZDER","2","m","rechts","52","","","self","j","120","true"
"null","<div style=""font-size:60px;"">+</div>","null","html-keyboard-response","84","107974","0.0-6.0-0.39","ZDER","2","m","rechts","52","","fixation","","","",""
"1334","img/30_240.png","70","image-keyboard-response","85","109327","0.0-6.0-1.39","ZDER","2","m","rechts","52","","","self","f","30","true"
"null","<div style=""font-size:60px;"">+</div>","null","html-keyboard-response","86","109788","0.0-6.0-0.40","ZDER","2","m","rechts","52","","fixation","","","",""
"1768","img/120_30.png","74","image-keyboard-response","87","111575","0.0-6.0-1.40","ZDER","2","m","rechts","52","","","self","j","120","true"
"null","<div style=""font-size:60px;"">+</div>","null","html-keyboard-response","88","111880","0.0-6.0-0.41","ZDER","2","m","rechts","52","","fixation","","","",""
"1747","img/150_240.png","74","image-keyboard-response","89","113636","0.0-6.0-1.41","ZDER","2","m","rechts","52","","","self","j","150","true"
"null","<div style=""font-size:60px;"">+</div>","null","html-keyboard-response","90","114149","0.0-6.0-0.42","ZDER","2","m","rechts","52","","fixation","","","",""
"2265","img/90_330.png","70","image-keyboard-response","91","116430","0.0-6.0-1.42","ZDER","2","m","rechts","52","","","self","f","90","true"
"null","<div style=""font-size:60px;"">+</div>","null","html-keyboard-response","92","116785","0.0-6.0-0.43","ZDER","2","m","rechts","52","","fixation","","","",""
"1284","img/120_270.png","74","image-keyboard-response","93","118091","0.0-6.0-1.43","ZDER","2","m","rechts","52","","","self","j","120","true"
"null","<div style=""font-size:60px;"">+</div>","null","html-keyboard-response","94","118560","0.0-6.0-0.44","ZDER","2","m","rechts","52","","fixation","","","",""
"1253","img/60_330.png","70","image-keyboard-response","95","119835","0.0-6.0-1.44","ZDER","2","m","rechts","52","","","self","f","60","true"
"null","<div style=""font-size:60px;"">+</div>","null","html-keyboard-response","96","120357","0.0-6.0-0.45","ZDER","2","m","rechts","52","","fixation","","","",""
"1695","img/150_300.png","74","image-keyboard-response","97","122071","0.0-6.0-1.45","ZDER","2","m","rechts","52","","","self","j","150","true"
"null","<div style=""font-size:60px;"">+</div>","null","html-keyboard-response","98","122387","0.0-6.0-0.46","ZDER","2","m","rechts","52","","fixation","","","",""
"1028","img/120_210.png","74","image-keyboard-response","99","123434","0.0-6.0-1.46","ZDER","2","m","rechts","52","","","self","j","120","true"
"null","<div style=""font-size:60px;"">+</div>","null","html-keyboard-response","100","123747","0.0-6.0-0.47","ZDER","2","m","rechts","52","","fixation","","","",""
"1829","img/90_60.png","74","image-keyboard-response","101","125595","0.0-6.0-1.47","ZDER","2","m","rechts","52","","","self","j","90","true"
"null","<div style=""font-size:60px;"">+</div>","null","html-keyboard-response","102","125950","0.0-6.0-0.48","ZDER","2","m","rechts","52","","fixation","","","",""
"1804","img/30_60.png","74","image-keyboard-response","103","127777","0.0-6.0-1.48","ZDER","2","m","rechts","52","","","self","j","30","true"
"null","<div style=""font-size:60px;"">+</div>","null","html-keyboard-response","104","128295","0.0-6.0-0.49","ZDER","2","m","rechts","52","","fixation","","","",""
"1587","img/60_210.png","74","image-keyboard-response","105","129901","0.0-6.0-1.49","ZDER","2","m","rechts","52","","","self","j","60","true"
"null","<div style=""font-size:60px;"">+</div>","null","html-keyboard-response","106","130259","0.0-6.0-0.50","ZDER","2","m","rechts","52","","fixation","","","",""
"1018","img/0_150.png","74","image-keyboard-response","107","131295","0.0-6.0-1.50","ZDER","2","m","rechts","52","","","self","j","0","true"
"null","<div style=""font-size:60px;"">+</div>","null","html-keyboard-response","108","131650","0.0-6.0-0.51","ZDER","2","m","rechts","52","","fixation","","","",""
"2746","img/150_60.png","70","image-keyboard-response","109","134409","0.0-6.0-1.51","ZDER","2","m","rechts","52","","","self","f","150","true"
"null","<div style=""font-size:60px;"">+</div>","null","html-keyboard-response","110","134824","0.0-6.0-0.52","ZDER","2","m","rechts","52","","fixation","","","",""
"1336","img/L90_180.png","70","image-keyboard-response","111","136169","0.0-6.0-1.52","ZDER","2","m","rechts","52","","","self","f","90","true"
"null","<div style=""font-size:60px;"">+</div>","null","html-keyboard-response","112","136631","0.0-6.0-0.53","ZDER","2","m","rechts","52","","fixation","","","",""
"1505","img/90_240.png","74","image-keyboard-response","113","138151","0.0-6.0-1.53","ZDER","2","m","rechts","52","","","self","j","90","true"
"null","<div style=""font-size:60px;"">+</div>","null","html-keyboard-response","114","138538","0.0-6.0-0.54","ZDER","2","m","rechts","52","","fixation","","","",""
"824","img/60_180.png","74","image-keyboard-response","115","139374","0.0-6.0-1.54","ZDER","2","m","rechts","52","","","self","j","60","true"
"null","<div style=""font-size:60px;"">+</div>","null","html-keyboard-response","116","139842","0.0-6.0-0.55","ZDER","2","m","rechts","52","","fixation","","","",""
"762","img/0_120.png","74","image-keyboard-response","117","140612","0.0-6.0-1.55","ZDER","2","m","rechts","52","","","self","j","0","true"
"null","<div style=""font-size:60px;"">+</div>","null","html-keyboard-response","118","141078","0.0-6.0-0.56","ZDER","2","m","rechts","52","","fixation","","","",""
"1560","img/30_60.png","74","image-keyboard-response","119","142649","0.0-6.0-1.56","ZDER","2","m","rechts","52","","","self","j","30","true"
"null","<div style=""font-size:60px;"">+</div>","null","html-keyboard-response","120","142970","0.0-6.0-0.57","ZDER","2","m","rechts","52","","fixation","","","",""
"1207","img/0_240.png","70","image-keyboard-response","121","144191","0.0-6.0-1.57","ZDER","2","m","rechts","52","","","self","f","0","true"
"null","<div style=""font-size:60px;"">+</div>","null","html-keyboard-response","122","144521","0.0-6.0-0.58","ZDER","2","m","rechts","52","","fixation","","","",""
"2619","img/60_90.png","70","image-keyboard-response","123","147153","0.0-6.0-1.58","ZDER","2","m","rechts","52","","","self","j","60","false"
"null","<div style=""font-size:60px;"">+</div>","null","html-keyboard-response","124","147477","0.0-6.0-0.59","ZDER","2","m","rechts","52","","fixation","","","",""
"796","img/0_270.png","70","image-keyboard-response","125","148285","0.0-6.0-1.59","ZDER","2","m","rechts","52","","","self","f","0","true"
"null","<div style=""font-size:60px;"">+</div>","null","html-keyboard-response","126","148742","0.0-6.0-0.60","ZDER","2","m","rechts","52","","fixation","","","",""
"1093","img/90_180.png","74","image-keyboard-response","127","149848","0.0-6.0-1.60","ZDER","2","m","rechts","52","","","self","j","90","true"
"null","<div style=""font-size:60px;"">+</div>","null","html-keyboard-response","128","150318","0.0-6.0-0.61","ZDER","2","m","rechts","52","","fixation","","","",""
"1322","img/90_330.png","70","image-keyboard-response","129","151650","0.0-6.0-1.61","ZDER","2","m","rechts","52","","","self","f","90","true"
"null","<div style=""font-size:60px;"">+</div>","null","html-keyboard-response","130","152156","0.0-6.0-0.62","ZDER","2","m","rechts","52","","fixation","","","",""
"1361","img/30_180.png","74","image-keyboard-response","131","153529","0.0-6.0-1.62","ZDER","2","m","rechts","52","","","self","j","30","true"
"null","<div style=""font-size:60px;"">+</div>","null","html-keyboard-response","132","153989","0.0-6.0-0.63","ZDER","2","m","rechts","52","","fixation","","","",""
"1245","img/150_300.png","74","image-keyboard-response","133","155238","0.0-6.0-1.63","ZDER","2","m","rechts","52","","","self","j","150","true"
"null","<div style=""font-size:60px;"">+</div>","null","html-keyboard-response","134","155546","0.0-6.0-0.64","ZDER","2","m","rechts","52","","fixation","","","",""
"1828","img/60_30.png","74","image-keyboard-response","135","157387","0.0-6.0-1.64","ZDER","2","m","rechts","52","","","self","j","60","true"
"null","<div style=""font-size:60px;"">+</div>","null","html-keyboard-response","136","157794","0.0-6.0-0.65","ZDER","2","m","rechts","52","","fixation","","","",""
"1522","img/150_270.png","74","image-keyboard-response","137","159333","0.0-6.0-1.65","ZDER","2","m","rechts","52","","","self","j","150","true"
"null","<div style=""font-size:60px;"">+</div>","null","html-keyboard-response","138","159685","0.0-6.0-0.66","ZDER","2","m","rechts","52","","fixation","","","",""
"1443","img/60_150.png","70","image-keyboard-response","139","161134","0.0-6.0-1.66","ZDER","2","m","rechts","52","","","self","f","60","true"
"null","<div style=""font-size:60px;"">+</div>","null","html-keyboard-response","140","161560","0.0-6.0-0.67","ZDER","2","m","rechts","52","","fixation","","","",""
"809","img/120_150.png","70","image-keyboard-response","141","162382","0.0-6.0-1.67","ZDER","2","m","rechts","52","","","self","f","120","true"
"null","<div style=""font-size:60px;"">+</div>","null","html-keyboard-response","142","162840","0.0-6.0-0.68","ZDER","2","m","rechts","52","","fixation","","","",""
"2552","img/60_270.png","74","image-keyboard-response","143","165402","0.0-6.0-1.68","ZDER","2","m","rechts","52","","","self","f","60","false"
"null","<div style=""font-size:60px;"">+</div>","null","html-keyboard-response","144","165711","0.0-6.0-0.69","ZDER","2","m","rechts","52","","fixation","","","",""
"1417","img/30_120.png","74","image-keyboard-response","145","167140","0.0-6.0-1.69","ZDER","2","m","rechts","52","","","self","j","30","true"
"null","<div style=""font-size:60px;"">+</div>","null","html-keyboard-response","146","167616","0.0-6.0-0.70","ZDER","2","m","rechts","52","","fixation","","","",""
"804","img/0_30.png","74","image-keyboard-response","147","168433","0.0-6.0-1.70","ZDER","2","m","rechts","52","","","self","j","0","true"
"null","<div style=""font-size:60px;"">+</div>","null","html-keyboard-response","148","168897","0.0-6.0-0.71","ZDER","2","m","rechts","52","","fixation","","","",""
"1139","img/150_180.png","74","image-keyboard-response","149","170044","0.0-6.0-1.71","ZDER","2","m","rechts","52","","","self","j","150","true"
"null","<div style=""font-size:60px;"">+</div>","null","html-keyboard-response","150","170465","0.0-6.0-0.72","ZDER","2","m","rechts","52","","fixation","","","",""
"2007","img/90_120.png","70","image-keyboard-response","151","172485","0.0-6.0-1.72","ZDER","2","m","rechts","52","","","self","f","90","true"
"null","<div style=""font-size:60px;"">+</div>","null","html-keyboard-response","152","172887","0.0-6.0-0.73","ZDER","2","m","rechts","52","","fixation","","","",""
"1495","img/30_240.png","70","image-keyboard-response","153","174386","0.0-6.0-1.73","ZDER","2","m","rechts","52","","","self","f","30","true"
"null","<div style=""font-size:60px;"">+</div>","null","html-keyboard-response","154","174902","0.0-6.0-0.74","ZDER","2","m","rechts","52","","fixation","","","",""
"2417","img/150_120.png","74","image-keyboard-response","155","177327","0.0-6.0-1.74","ZDER","2","m","rechts","52","","","self","f","150","false"
"null","<div style=""font-size:60px;"">+</div>","null","html-keyboard-response","156","177792","0.0-6.0-0.75","ZDER","2","m","rechts","52","","fixation","","","",""
"968","img/0_90.png","74","image-keyboard-response","157","178773","0.0-6.0-1.75","ZDER","2","m","rechts","52","","","self","j","0","true"
"null","<div style=""font-size:60px;"">+</div>","null","html-keyboard-response","158","179084","0.0-6.0-0.76","ZDER","2","m","rechts","52","","fixation","","","",""
"1342","img/L60_180.png","70","image-keyboard-response","159","180439","0.0-6.0-1.76","ZDER","2","m","rechts","52","","","self","f","60","true"
"null","<div style=""font-size:60px;"">+</div>","null","html-keyboard-response","160","180896","0.0-6.0-0.77","ZDER","2","m","rechts","52","","fixation","","","",""
"1469","img/30_300.png","70","image-keyboard-response","161","182373","0.0-6.0-1.77","ZDER","2","m","rechts","52","","","self","f","30","true"
"null","<div style=""font-size:60px;"">+</div>","null","html-keyboard-response","162","182803","0.0-6.0-0.78","ZDER","2","m","rechts","52","","fixation","","","",""
"1718","img/90_210.png","74","image-keyboard-response","163","184534","0.0-6.0-1.78","ZDER","2","m","rechts","52","","","self","j","90","true"
"null","<div style=""font-size:60px;"">+</div>","null","html-keyboard-response","164","185054","0.0-6.0-0.79","ZDER","2","m","rechts","52","","fixation","","","",""
"1135","img/150_60.png","74","image-keyboard-response","165","186199","0.0-6.0-1.79","ZDER","2","m","rechts","52","","","self","f","150","false"
"null","<div style=""font-size:60px;"">+</div>","null","html-keyboard-response","166","186712","0.0-6.0-0.80","ZDER","2","m","rechts","52","","fixation","","","",""
"3012","img/120_180.png","74","image-keyboard-response","167","189737","0.0-6.0-1.80","ZDER","2","m","rechts","52","","","self","j","120","true"
"null","<div style=""font-size:60px;"">+</div>","null","html-keyboard-response","168","190148","0.0-6.0-0.81","ZDER","2","m","rechts","52","","fixation","","","",""
"1188","img/L30_180.png","70","image-keyboard-response","169","191348","0.0-6.0-1.81","ZDER","2","m","rechts","52","","","self","f","30","true"
"null","<div style=""font-size:60px;"">+</div>","null","html-keyboard-response","170","191663","0.0-6.0-0.82","ZDER","2","m","rechts","52","","fixation","","","",""
"1646","img/60_330.png","70","image-keyboard-response","171","193321","0.0-6.0-1.82","ZDER","2","m","rechts","52","","","self","f","60","true"
"null","<div style=""font-size:60px;"">+</div>","null","html-keyboard-response","172","193679","0.0-6.0-0.83","ZDER","2","m","rechts","52","","fixation","","","",""
"2550","img/90_60.png","74","image-keyboard-response","173","196239","0.0-6.0-1.83","ZDER","2","m","rechts","52","","","self","j","90","true"
"null","<div style=""font-size:60px;"">+</div>","null","html-keyboard-response","174","196656","0.0-6.0-0.84","ZDER","2","m","rechts","52","","fixation","","","",""
"1488","img/L150_180.png","70","image-keyboard-response","175","198158","0.0-6.0-1.84","ZDER","2","m","rechts","52","","","self","f","150","true"
"null","<div style=""font-size:60px;"">+</div>","null","html-keyboard-response","176","198578","0.0-6.0-0.85","ZDER","2","m","rechts","52","","fixation","","","",""
"1129","img/150_240.png","74","image-keyboard-response","177","199722","0.0-6.0-1.85","ZDER","2","m","rechts","52","","","self","j","150","true"
"null","<div style=""font-size:60px;"">+</div>","null","html-keyboard-response","178","200086","0.0-6.0-0.86","ZDER","2","m","rechts","52","","fixation","","","",""
"2091","img/120_330.png","70","image-keyboard-response","179","202191","0.0-6.0-1.86","ZDER","2","m","rechts","52","","","self","f","120","true"
"null","<div style=""font-size:60px;"">+</div>","null","html-keyboard-response","180","202546","0.0-6.0-0.87","ZDER","2","m","rechts","52","","fixation","","","",""
"965","img/0_300.png","70","image-keyboard-response","181","203525","0.0-6.0-1.87","ZDER","2","m","rechts","52","","","self","f","0","true"
"null","<div style=""font-size:60px;"">+</div>","null","html-keyboard-response","182","203906","0.0-6.0-0.88","ZDER","2","m","rechts","52","","fixation","","","",""
"1263","img/120_270.png","74","image-keyboard-response","183","205179","0.0-6.0-1.88","ZDER","2","m","rechts","52","","","self","j","120","true"
"null","<div style=""font-size:60px;"">+</div>","null","html-keyboard-response","184","205602","0.0-6.0-0.89","ZDER","2","m","rechts","52","","fixation","","","",""
"800","img/120_210.png","74","image-keyboard-response","185","206415","0.0-6.0-1.89","ZDER","2","m","rechts","52","","","self","j","120","true"
"null","<div style=""font-size:60px;"">+</div>","null","html-keyboard-response","186","206869","0.0-6.0-0.90","ZDER","2","m","rechts","52","","fixation","","","",""
"1196","img/30_270.png","70","image-keyboard-response","187","208081","0.0-6.0-1.90","ZDER","2","m","rechts","52","","","self","f","30","true"
"null","<div style=""font-size:60px;"">+</div>","null","html-keyboard-response","188","208447","0.0-6.0-0.91","ZDER","2","m","rechts","52","","fixation","","","",""
"1083","img/0_150.png","74","image-keyboard-response","189","209543","0.0-6.0-1.91","ZDER","2","m","rechts","52","","","self","j","0","true"
"null","<div style=""font-size:60px;"">+</div>","null","html-keyboard-response","190","209915","0.0-6.0-0.92","ZDER","2","m","rechts","52","","fixation","","","",""
"1307","img/0_330.png","70","image-keyboard-response","191","211231","0.0-6.0-1.92","ZDER","2","m","rechts","52","","","self","f","0","true"
"null","<div style=""font-size:60px;"">+</div>","null","html-keyboard-response","192","211745","0.0-6.0-0.93","ZDER","2","m","rechts","52","","fixation","","","",""
"1351","img/30_90.png","74","image-keyboard-response","193","213110","0.0-6.0-1.93","ZDER","2","m","rechts","52","","","self","j","30","true"
"null","<div style=""font-size:60px;"">+</div>","null","html-keyboard-response","194","213573","0.0-6.0-0.94","ZDER","2","m","rechts","52","","fixation","","","",""
"1145","img/90_30.png","74","image-keyboard-response","195","214729","0.0-6.0-1.94","ZDER","2","m","rechts","52","","","self","j","90","true"
"null","<div style=""font-size:60px;"">+</div>","null","html-keyboard-response","196","215041","0.0-6.0-0.95","ZDER","2","m","rechts","52","","fixation","","","",""
"842","img/120_30.png","74","image-keyboard-response","197","215898","0.0-6.0-1.95","ZDER","2","m","rechts","52","","","self","j","120","true"
"null","<div style=""font-size:60px;"">+</div>","null","html-keyboard-response","198","216261","0.0-6.0-0.96","ZDER","2","m","rechts","52","","fixation","","","",""
"1739","img/60_210.png","74","image-keyboard-response","199","218013","0.0-6.0-1.96","ZDER","2","m","rechts","52","","","self","j","60","true"
"null","<div style=""font-size:60px;"">+</div>","null","html-keyboard-response","200","218324","0.0-6.0-0.97","ZDER","2","m","rechts","52","","fixation","","","",""
"1680","img/0_60.png","74","image-keyboard-response","201","220015","0.0-6.0-1.97","ZDER","2","m","rechts","52","","","self","j","0","true"
"null","<div style=""font-size:60px;"">+</div>","null","html-keyboard-response","202","220478","0.0-6.0-0.98","ZDER","2","m","rechts","52","","fixation","","","",""
"828","img/0_210.png","70","image-keyboard-response","203","221322","0.0-6.0-1.98","ZDER","2","m","rechts","52","","","self","f","0","true"
"null","<div style=""font-size:60px;"">+</div>","null","html-keyboard-response","204","221745","0.0-6.0-0.99","ZDER","2","m","rechts","52","","fixation","","","",""
"1802","img/90_300.png","70","image-keyboard-response","205","223560","0.0-6.0-1.99","ZDER","2","m","rechts","52","","","self","f","90","true"
"null","<div style=""font-size:60px;"">+</div>","null","html-keyboard-response","206","224075","0.0-6.0-0.100","ZDER","2","m","rechts","52","","fixation","","","",""
"1532","img/120_90.png","70","image-keyboard-response","207","225620","0.0-6.0-1.100","ZDER","2","m","rechts","52","","","self","f","120","true"
"null","<div style=""font-size:60px;"">+</div>","null","html-keyboard-response","208","225980","0.0-6.0-0.101","ZDER","2","m","rechts","52","","fixation","","","",""
"1434","img/L120_180.png","70","image-keyboard-response","209","227420","0.0-6.0-1.101","ZDER","2","m","rechts","52","","","self","f","120","true"
"null","<div style=""font-size:60px;"">+</div>","null","html-keyboard-response","210","227735","0.0-6.0-0.102","ZDER","2","m","rechts","52","","fixation","","","",""
"876","img/150_90.png","70","image-keyboard-response","211","228624","0.0-6.0-1.102","ZDER","2","m","rechts","52","","","self","f","150","true"
"null","<div style=""font-size:60px;"">+</div>","null","html-keyboard-response","212","229045","0.0-6.0-0.103","ZDER","2","m","rechts","52","","fixation","","","",""
"848","img/90_150.png","70","image-keyboard-response","213","229905","0.0-6.0-1.103","ZDER","2","m","rechts","52","","","self","f","90","true"
"null","<div style=""font-size:60px;"">+</div>","null","html-keyboard-response","214","230372","0.0-6.0-0.104","ZDER","2","m","rechts","52","","fixation","","","",""
"1100","img/90_30.png","74","image-keyboard-response","215","231482","0.0-6.0-1.104","ZDER","2","m","rechts","52","","","self","j","90","true"
"null","<div style=""font-size:60px;"">+</div>","null","html-keyboard-response","216","231857","0.0-6.0-0.105","ZDER","2","m","rechts","52","","fixation","","","",""
"1098","img/L120_180.png","70","image-keyboard-response","217","232963","0.0-6.0-1.105","ZDER","2","m","rechts","52","","","self","f","120","true"
"null","<div style=""font-size:60px;"">+</div>","null","html-keyboard-response","218","233325","0.0-6.0-0.106","ZDER","2","m","rechts","52","","fixation","","","",""
"1428","img/150_60.png","70","image-keyboard-response","219","234767","0.0-6.0-1.106","ZDER","2","m","rechts","52","","","self","f","150","true"
"null","<div style=""font-size:60px;"">+</div>","null","html-keyboard-response","220","235217","0.0-6.0-0.107","ZDER","2","m","rechts","52","","fixation","","","",""
"1468","img/30_120.png","74","image-keyboard-response","221","236701","0.0-6.0-1.107","ZDER","2","m","rechts","52","","","self","j","30","true"
"null","<div style=""font-size:60px;"">+</div>","null","html-keyboard-response","222","237171","0.0-6.0-0.108","ZDER","2","m","rechts","52","","fixation","","","",""
"1175","img/L60_180.png","70","image-keyboard-response","223","238354","0.0-6.0-1.108","ZDER","2","m","rechts","52","","","self","f","60","true"
"null","<div style=""font-size:60px;"">+</div>","null","html-keyboard-response","224","238718","0.0-6.0-0.109","ZDER","2","m","rechts","52","","fixation","","","",""
"1474","img/90_120.png","70","image-keyboard-response","225","240201","0.0-6.0-1.109","ZDER","2","m","rechts","52","","","self","f","90","true"
"null","<div style=""font-size:60px;"">+</div>","null","html-keyboard-response","226","240514","0.0-6.0-0.110","ZDER","2","m","rechts","52","","fixation","","","",""
"1404","img/150_300.png","74","image-keyboard-response","227","241931","0.0-6.0-1.110","ZDER","2","m","rechts","52","","","self","j","150","true"
"null","<div style=""font-size:60px;"">+</div>","null","html-keyboard-response","228","242390","0.0-6.0-0.111","ZDER","2","m","rechts","52","","fixation","","","",""
"1896","img/90_150.png","70","image-keyboard-response","229","244296","0.0-6.0-1.111","ZDER","2","m","rechts","52","","","self","f","90","true"
"null","<div style=""font-size:60px;"">+</div>","null","html-keyboard-response","230","244809","0.0-6.0-0.112","ZDER","2","m","rechts","52","","fixation","","","",""
"721","img/60_150.png","70","image-keyboard-response","231","245543","0.0-6.0-1.112","ZDER","2","m","rechts","52","","","self","f","60","true"
"null","<div style=""font-size:60px;"">+</div>","null","html-keyboard-response","232","245917","0.0-6.0-0.113","ZDER","2","m","rechts","52","","fixation","","","",""
"1263","img/30_300.png","70","image-keyboard-response","233","247186","0.0-6.0-1.113","ZDER","2","m","rechts","52","","","self","f","30","true"
"null","<div style=""font-size:60px;"">+</div>","null","html-keyboard-response","234","247558","0.0-6.0-0.114","ZDER","2","m","rechts","52","","fixation","","","",""
"967","img/150_240.png","74","image-keyboard-response","235","248536","0.0-6.0-1.114","ZDER","2","m","rechts","52","","","self","j","150","true"
"null","<div style=""font-size:60px;"">+</div>","null","html-keyboard-response","236","249043","0.0-6.0-0.115","ZDER","2","m","rechts","52","","fixation","","","",""
"700","img/120_180.png","74","image-keyboard-response","237","249751","0.0-6.0-1.115","ZDER","2","m","rechts","52","","","self","j","120","true"
"null","<div style=""font-size:60px;"">+</div>","null","html-keyboard-response","238","250166","0.0-6.0-0.116","ZDER","2","m","rechts","52","","fixation","","","",""
"988","img/0_210.png","70","image-keyboard-response","239","251166","0.0-6.0-1.116","ZDER","2","m","rechts","52","","","self","f","0","true"
"null","<div style=""font-size:60px;"">+</div>","null","html-keyboard-response","240","251478","0.0-6.0-0.117","ZDER","2","m","rechts","52","","fixation","","","",""
"756","img/150_180.png","74","image-keyboard-response","241","252251","0.0-6.0-1.117","ZDER","2","m","rechts","52","","","self","j","150","true"
"null","<div style=""font-size:60px;"">+</div>","null","html-keyboard-response","242","252683","0.0-6.0-0.118","ZDER","2","m","rechts","52","","fixation","","","",""
"1792","img/60_270.png","74","image-keyboard-response","243","254488","0.0-6.0-1.118","ZDER","2","m","rechts","52","","","self","f","60","false"
"null","<div style=""font-size:60px;"">+</div>","null","html-keyboard-response","244","254918","0.0-6.0-0.119","ZDER","2","m","rechts","52","","fixation","","","",""
"857","img/0_300.png","70","image-keyboard-response","245","255781","0.0-6.0-1.119","ZDER","2","m","rechts","52","","","self","f","0","true"
"null","<div style=""font-size:60px;"">+</div>","null","html-keyboard-response","246","256200","0.0-6.0-0.120","ZDER","2","m","rechts","52","","fixation","","","",""
"1169","img/120_330.png","70","image-keyboard-response","247","257380","0.0-6.0-1.120","ZDER","2","m","rechts","52","","","self","f","120","true"
"null","<div style=""font-size:60px;"">+</div>","null","html-keyboard-response","248","257747","0.0-6.0-0.121","ZDER","2","m","rechts","52","","fixation","","","",""
"833","img/0_120.png","74","image-keyboard-response","249","258592","0.0-6.0-1.121","ZDER","2","m","rechts","52","","","self","j","0","true"
"null","<div style=""font-size:60px;"">+</div>","null","html-keyboard-response","250","258949","0.0-6.0-0.122","ZDER","2","m","rechts","52","","fixation","","","",""
"1434","img/30_240.png","70","image-keyboard-response","251","260394","0.0-6.0-1.122","ZDER","2","m","rechts","52","","","self","f","30","true"
"null","<div style=""font-size:60px;"">+</div>","null","html-keyboard-response","252","260856","0.0-6.0-0.123","ZDER","2","m","rechts","52","","fixation","","","",""
"1059","img/60_330.png","70","image-keyboard-response","253","261924","0.0-6.0-1.123","ZDER","2","m","rechts","52","","","self","f","60","true"
"null","<div style=""font-size:60px;"">+</div>","null","html-keyboard-response","254","262291","0.0-6.0-0.124","ZDER","2","m","rechts","52","","fixation","","","",""
"1319","img/120_150.png","70","image-keyboard-response","255","263623","0.0-6.0-1.124","ZDER","2","m","rechts","52","","","self","f","120","true"
"null","<div style=""font-size:60px;"">+</div>","null","html-keyboard-response","256","264050","0.0-6.0-0.125","ZDER","2","m","rechts","52","","fixation","","","",""
"2016","img/90_330.png","70","image-keyboard-response","257","266080","0.0-6.0-1.125","ZDER","2","m","rechts","52","","","self","f","90","true"
"null","<div style=""font-size:60px;"">+</div>","null","html-keyboard-response","258","266514","0.0-6.0-0.126","ZDER","2","m","rechts","52","","fixation","","","",""
"934","img/90_300.png","70","image-keyboard-response","259","267459","0.0-6.0-1.126","ZDER","2","m","rechts","52","","","self","f","90","true"
"null","<div style=""font-size:60px;"">+</div>","null","html-keyboard-response","260","267966","0.0-6.0-0.127","ZDER","2","m","rechts","52","","fixation","","","",""
"826","img/90_210.png","74","image-keyboard-response","261","268797","0.0-6.0-1.127","ZDER","2","m","rechts","52","","","self","j","90","true"
"null","<div style=""font-size:60px;"">+</div>","null","html-keyboard-response","262","269201","0.0-6.0-0.128","ZDER","2","m","rechts","52","","fixation","","","",""
"1811","img/150_120.png","70","image-keyboard-response","263","271026","0.0-6.0-1.128","ZDER","2","m","rechts","52","","","self","f","150","true"
"null","<div style=""font-size:60px;"">+</div>","null","html-keyboard-response","264","271435","0.0-6.0-0.129","ZDER","2","m","rechts","52","","fixation","","","",""
"1133","img/120_270.png","74","image-keyboard-response","265","272578","0.0-6.0-1.129","ZDER","2","m","rechts","52","","","self","j","120","true"
"null","<div style=""font-size:60px;"">+</div>","null","html-keyboard-response","266","272950","0.0-6.0-0.130","ZDER","2","m","rechts","52","","fixation","","","",""
"1073","img/L90_180.png","70","image-keyboard-response","267","274027","0.0-6.0-1.130","ZDER","2","m","rechts","52","","","self","f","90","true"
"null","<div style=""font-size:60px;"">+</div>","null","html-keyboard-response","268","274437","0.0-6.0-0.131","ZDER","2","m","rechts","52","","fixation","","","",""
"1370","img/30_90.png","74","image-keyboard-response","269","275818","0.0-6.0-1.131","ZDER","2","m","rechts","52","","","self","j","30","true"
"null","<div style=""font-size:60px;"">+</div>","null","html-keyboard-response","270","276179","0.0-6.0-0.132","ZDER","2","m","rechts","52","","fixation","","","",""
"908","img/L150_180.png","70","image-keyboard-response","271","277100","0.0-6.0-1.132","ZDER","2","m","rechts","52","","","self","f","150","true"
"null","<div style=""font-size:60px;"">+</div>","null","html-keyboard-response","272","277556","0.0-6.0-0.133","ZDER","2","m","rechts","52","","fixation","","","",""
"1019","img/120_30.png","74","image-keyboard-response","273","278586","0.0-6.0-1.133","ZDER","2","m","rechts","52","","","self","j","120","true"
"null","<div style=""font-size:60px;"">+</div>","null","html-keyboard-response","274","279040","0.0-6.0-0.134","ZDER","2","m","rechts","52","","fixation","","","",""
"1531","img/90_240.png","74","image-keyboard-response","275","280577","0.0-6.0-1.134","ZDER","2","m","rechts","52","","","self","j","90","true"
"null","<div style=""font-size:60px;"">+</div>","null","html-keyboard-response","276","281008","0.0-6.0-0.135","ZDER","2","m","rechts","52","","fixation","","","",""
"799","img/90_180.png","74","image-keyboard-response","277","281814","0.0-6.0-1.135","ZDER","2","m","rechts","52","","","self","j","90","true"
"null","<div style=""font-size:60px;"">+</div>","null","html-keyboard-response","278","282275","0.0-6.0-0.136","ZDER","2","m","rechts","52","","fixation","","","",""
"823","img/120_210.png","74","image-keyboard-response","279","283108","0.0-6.0-1.136","ZDER","2","m","rechts","52","","","self","j","120","true"
"null","<div style=""font-size:60px;"">+</div>","null","html-keyboard-response","280","283618","0.0-6.0-0.137","ZDER","2","m","rechts","52","","fixation","","","",""
"2260","img/30_60.png","74","image-keyboard-response","281","285891","0.0-6.0-1.137","ZDER","2","m","rechts","52","","","self","j","30","true"
"null","<div style=""font-size:60px;"">+</div>","null","html-keyboard-response","282","286419","0.0-6.0-0.138","ZDER","2","m","rechts","52","","fixation","","","",""
"1150","img/150_270.png","74","image-keyboard-response","283","287584","0.0-6.0-1.138","ZDER","2","m","rechts","52","","","self","j","150","true"
"null","<div style=""font-size:60px;"">+</div>","null","html-keyboard-response","284","288041","0.0-6.0-0.139","ZDER","2","m","rechts","52","","fixation","","","",""
"1173","img/120_90.png","70","image-keyboard-response","285","289218","0.0-6.0-1.139","ZDER","2","m","rechts","52","","","self","f","120","true"
"null","<div style=""font-size:60px;"">+</div>","null","html-keyboard-response","286","289637","0.0-6.0-0.140","ZDER","2","m","rechts","52","","fixation","","","",""
"1096","img/60_180.png","74","image-keyboard-response","287","290747","0.0-6.0-1.140","ZDER","2","m","rechts","52","","","self","j","60","true"
"null","<div style=""font-size:60px;"">+</div>","null","html-keyboard-response","288","291199","0.0-6.0-0.141","ZDER","2","m","rechts","52","","fixation","","","",""
"1187","img/L30_180.png","70","image-keyboard-response","289","292402","0.0-6.0-1.141","ZDER","2","m","rechts","52","","","self","f","30","true"
"null","<div style=""font-size:60px;"">+</div>","null","html-keyboard-response","290","292809","0.0-6.0-0.142","ZDER","2","m","rechts","52","","fixation","","","",""
"883","img/30_180.png","74","image-keyboard-response","291","293705","0.0-6.0-1.142","ZDER","2","m","rechts","52","","","self","j","30","true"
"null","<div style=""font-size:60px;"">+</div>","null","html-keyboard-response","292","294123","0.0-6.0-0.143","ZDER","2","m","rechts","52","","fixation","","","",""
"727","img/0_30.png","74","image-keyboard-response","293","294863","0.0-6.0-1.143","ZDER","2","m","rechts","52","","","self","j","0","true"
"null","<div style=""font-size:60px;"">+</div>","null","html-keyboard-response","294","295216","0.0-6.0-0.144","ZDER","2","m","rechts","52","","fixation","","","",""
"1212","img/150_90.png","70","image-keyboard-response","295","296439","0.0-6.0-1.144","ZDER","2","m","rechts","52","","","self","f","150","true"
"null","<div style=""font-size:60px;"">+</div>","null","html-keyboard-response","296","296969","0.0-6.0-0.145","ZDER","2","m","rechts","52","","fixation","","","",""
"946","img/60_30.png","74","image-keyboard-response","297","297924","0.0-6.0-1.145","ZDER","2","m","rechts","52","","","self","j","60","true"
"null","<div style=""font-size:60px;"">+</div>","null","html-keyboard-response","298","298438","0.0-6.0-0.146","ZDER","2","m","rechts","52","","fixation","","","",""
"756","img/0_90.png","74","image-keyboard-response","299","299207","0.0-6.0-1.146","ZDER","2","m","rechts","52","","","self","j","0","true"
"null","<div style=""font-size:60px;"">+</div>","null","html-keyboard-response","300","299516","0.0-6.0-0.147","ZDER","2","m","rechts","52","","fixation","","","",""
"1983","img/30_270.png","70","image-keyboard-response","301","301513","0.0-6.0-1.147","ZDER","2","m","rechts","52","","","self","f","30","true"
"null","<div style=""font-size:60px;"">+</div>","null","html-keyboard-response","302","302015","0.0-6.0-0.148","ZDER","2","m","rechts","52","","fixation","","","",""
"808","img/0_150.png","74","image-keyboard-response","303","302830","0.0-6.0-1.148","ZDER","2","m","rechts","52","","","self","j","0","true"
"null","<div style=""font-size:60px;"">+</div>","null","html-keyboard-response","304","303205","0.0-6.0-0.149","ZDER","2","m","rechts","52","","fixation","","","",""
"823","img/0_330.png","70","image-keyboard-response","305","304043","0.0-6.0-1.149","ZDER","2","m","rechts","52","","","self","f","0","true"
"null","<div style=""font-size:60px;"">+</div>","null","html-keyboard-response","306","304344","0.0-6.0-0.150","ZDER","2","m","rechts","52","","fixation","","","",""
"946","img/0_270.png","70","image-keyboard-response","307","305304","0.0-6.0-1.150","ZDER","2","m","rechts","52","","","self","f","0","true"
"null","<div style=""font-size:60px;"">+</div>","null","html-keyboard-response","308","305673","0.0-6.0-0.151","ZDER","2","m","rechts","52","","fixation","","","",""
"809","img/0_60.png","74","image-keyboard-response","309","306495","0.0-6.0-1.151","ZDER","2","m","rechts","52","","","self","j","0","true"
"null","<div style=""font-size:60px;"">+</div>","null","html-keyboard-response","310","306954","0.0-6.0-0.152","ZDER","2","m","rechts","52","","fixation","","","",""
"2327","img/90_60.png","74","image-keyboard-response","311","309290","0.0-6.0-1.152","ZDER","2","m","rechts","52","","","self","j","90","true"
"null","<div style=""font-size:60px;"">+</div>","null","html-keyboard-response","312","309690","0.0-6.0-0.153","ZDER","2","m","rechts","52","","fixation","","","",""
"1616","img/60_90.png","70","image-keyboard-response","313","311321","0.0-6.0-1.153","ZDER","2","m","rechts","52","","","self","j","60","false"
"null","<div style=""font-size:60px;"">+</div>","null","html-keyboard-response","314","311753","0.0-6.0-0.154","ZDER","2","m","rechts","52","","fixation","","","",""
"1220","img/60_210.png","74","image-keyboard-response","315","312987","0.0-6.0-1.154","ZDER","2","m","rechts","52","","","self","j","60","true"
"null","<div style=""font-size:60px;"">+</div>","null","html-keyboard-response","316","313347","0.0-6.0-0.155","ZDER","2","m","rechts","52","","fixation","","","",""
"899","img/0_240.png","70","image-keyboard-response","317","314260","0.0-6.0-1.155","ZDER","2","m","rechts","52","","","self","f","0","true"
"null","<div style=""font-size:60px;"">+</div>","null","html-keyboard-response","318","314768","0.0-6.0-0.156","ZDER","2","m","rechts","52","","fixation","","","",""
"886","img/30_180.png","74","image-keyboard-response","319","315666","0.0-6.0-1.156","ZDER","2","m","rechts","52","","","self","j","30","true"
"null","<div style=""font-size:60px;"">+</div>","null","html-keyboard-response","320","315986","0.0-6.0-0.157","ZDER","2","m","rechts","52","","fixation","","","",""
"1185","img/90_330.png","70","image-keyboard-response","321","317174","0.0-6.0-1.157","ZDER","2","m","rechts","52","","","self","f","90","true"
"null","<div style=""font-size:60px;"">+</div>","null","html-keyboard-response","322","317628","0.0-6.0-0.158","ZDER","2","m","rechts","52","","fixation","","","",""
"1741","img/60_90.png","70","image-keyboard-response","323","319378","0.0-6.0-1.158","ZDER","2","m","rechts","52","","","self","j","60","false"
"null","<div style=""font-size:60px;"">+</div>","null","html-keyboard-response","324","319801","0.0-6.0-0.159","ZDER","2","m","rechts","52","","fixation","","","",""
"1523","img/L30_180.png","70","image-keyboard-response","325","321334","0.0-6.0-1.159","ZDER","2","m","rechts","52","","","self","f","30","true"
"null","<div style=""font-size:60px;"">+</div>","null","html-keyboard-response","326","321754","0.0-6.0-0.160","ZDER","2","m","rechts","52","","fixation","","","",""
"796","img/90_180.png","74","image-keyboard-response","327","322562","0.0-6.0-1.160","ZDER","2","m","rechts","52","","","self","j","90","true"
"null","<div style=""font-size:60px;"">+</div>","null","html-keyboard-response","328","322972","0.0-6.0-0.161","ZDER","2","m","rechts","52","","fixation","","","",""
"959","img/60_150.png","70","image-keyboard-response","329","323935","0.0-6.0-1.161","ZDER","2","m","rechts","52","","","self","f","60","true"
"null","<div style=""font-size:60px;"">+</div>","null","html-keyboard-response","330","324348","0.0-6.0-0.162","ZDER","2","m","rechts","52","","fixation","","","",""
"1061","img/60_30.png","74","image-keyboard-response","331","325419","0.0-6.0-1.162","ZDER","2","m","rechts","52","","","self","j","60","true"
"null","<div style=""font-size:60px;"">+</div>","null","html-keyboard-response","332","325831","0.0-6.0-0.163","ZDER","2","m","rechts","52","","fixation","","","",""
"808","img/L60_180.png","70","image-keyboard-response","333","326646","0.0-6.0-1.163","ZDER","2","m","rechts","52","","","self","f","60","true"
"null","<div style=""font-size:60px;"">+</div>","null","html-keyboard-response","334","327066","0.0-6.0-0.164","ZDER","2","m","rechts","52","","fixation","","","",""
"951","img/120_210.png","74","image-keyboard-response","335","328026","0.0-6.0-1.164","ZDER","2","m","rechts","52","","","self","j","120","true"
"null","<div style=""font-size:60px;"">+</div>","null","html-keyboard-response","336","328394","0.0-6.0-0.165","ZDER","2","m","rechts","52","","fixation","","","",""
"932","img/0_90.png","74","image-keyboard-response","337","329335","0.0-6.0-1.165","ZDER","2","m","rechts","52","","","self","j","0","true"
"null","<div style=""font-size:60px;"">+</div>","null","html-keyboard-response","338","329709","0.0-6.0-0.166","ZDER","2","m","rechts","52","","fixation","","","",""
"815","img/150_240.png","74","image-keyboard-response","339","330539","0.0-6.0-1.166","ZDER","2","m","rechts","52","","","self","j","150","true"
"null","<div style=""font-size:60px;"">+</div>","null","html-keyboard-response","340","330944","0.0-6.0-0.167","ZDER","2","m","rechts","52","","fixation","","","",""
"857","img/90_210.png","74","image-keyboard-response","341","331810","0.0-6.0-1.167","ZDER","2","m","rechts","52","","","self","j","90","true"
"null","<div style=""font-size:60px;"">+</div>","null","html-keyboard-response","342","332318","0.0-6.0-0.168","ZDER","2","m","rechts","52","","fixation","","","",""
"1492","img/120_30.png","74","image-keyboard-response","343","333823","0.0-6.0-1.168","ZDER","2","m","rechts","52","","","self","j","120","true"
"null","<div style=""font-size:60px;"">+</div>","null","html-keyboard-response","344","334290","0.0-6.0-0.169","ZDER","2","m","rechts","52","","fixation","","","",""
"2408","img/60_270.png","74","image-keyboard-response","345","336709","0.0-6.0-1.169","ZDER","2","m","rechts","52","","","self","f","60","false"
"null","<div style=""font-size:60px;"">+</div>","null","html-keyboard-response","346","337032","0.0-6.0-0.170","ZDER","2","m","rechts","52","","fixation","","","",""
"1679","img/90_30.png","74","image-keyboard-response","347","338716","0.0-6.0-1.170","ZDER","2","m","rechts","52","","","self","j","90","true"
"null","<div style=""font-size:60px;"">+</div>","null","html-keyboard-response","348","339181","0.0-6.0-0.171","ZDER","2","m","rechts","52","","fixation","","","",""
"1326","img/150_120.png","70","image-keyboard-response","349","340517","0.0-6.0-1.171","ZDER","2","m","rechts","52","","","self","f","150","true"
"null","<div style=""font-size:60px;"">+</div>","null","html-keyboard-response","350","340930","0.0-6.0-0.172","ZDER","2","m","rechts","52","","fixation","","","",""
"567","img/90_60.png","70","image-keyboard-response","351","341507","0.0-6.0-1.172","ZDER","2","m","rechts","52","","","self","j","90","false"
"null","<div style=""font-size:60px;"">+</div>","null","html-keyboard-response","352","342039","0.0-6.0-0.173","ZDER","2","m","rechts","52","","fixation","","","",""
"2134","img/120_330.png","70","image-keyboard-response","353","344179","0.0-6.0-1.173","ZDER","2","m","rechts","52","","","self","f","120","true"
"null","<div style=""font-size:60px;"">+</div>","null","html-keyboard-response","354","344660","0.0-6.0-0.174","ZDER","2","m","rechts","52","","fixation","","","",""
"917","img/120_270.png","74","image-keyboard-response","355","345591","0.0-6.0-1.174","ZDER","2","m","rechts","52","","","self","j","120","true"
"null","<div style=""font-size:60px;"">+</div>","null","html-keyboard-response","356","346002","0.0-6.0-0.175","ZDER","2","m","rechts","52","","fixation","","","",""
"1492","img/150_90.png","70","image-keyboard-response","357","347504","0.0-6.0-1.175","ZDER","2","m","rechts","52","","","self","f","150","true"
"null","<div style=""font-size:60px;"">+</div>","null","html-keyboard-response","358","347956","0.0-6.0-0.176","ZDER","2","m","rechts","52","","fixation","","","",""
"1027","img/L120_180.png","70","image-keyboard-response","359","348999","0.0-6.0-1.176","ZDER","2","m","rechts","52","","","self","f","120","true"
"null","<div style=""font-size:60px;"">+</div>","null","html-keyboard-response","360","349356","0.0-6.0-0.177","ZDER","2","m","rechts","52","","fixation","","","",""
"1823","img/30_300.png","70","image-keyboard-response","361","351194","0.0-6.0-1.177","ZDER","2","m","rechts","52","","","self","f","30","true"
"null","<div style=""font-size:60px;"">+</div>","null","html-keyboard-response","362","351605","0.0-6.0-0.178","ZDER","2","m","rechts","52","","fixation","","","",""
"771","img/0_60.png","74","image-keyboard-response","363","352386","0.0-6.0-1.178","ZDER","2","m","rechts","52","","","self","j","0","true"
"null","<div style=""font-size:60px;"">+</div>","null","html-keyboard-response","364","352839","0.0-6.0-0.179","ZDER","2","m","rechts","52","","fixation","","","",""
"2268","img/30_240.png","70","image-keyboard-response","365","355121","0.0-6.0-1.179","ZDER","2","m","rechts","52","","","self","f","30","true"
"null","<div style=""font-size:60px;"">+</div>","null","html-keyboard-response","366","355586","0.0-6.0-0.180","ZDER","2","m","rechts","52","","fixation","","","",""
"1117","img/150_300.png","74","image-keyboard-response","367","356718","0.0-6.0-1.180","ZDER","2","m","rechts","52","","","self","j","150","true"
"null","<div style=""font-size:60px;"">+</div>","null","html-keyboard-response","368","357074","0.0-6.0-0.181","ZDER","2","m","rechts","52","","fixation","","","",""
"954","img/90_240.png","74","image-keyboard-response","369","358032","0.0-6.0-1.181","ZDER","2","m","rechts","52","","","self","j","90","true"
"null","<div style=""font-size:60px;"">+</div>","null","html-keyboard-response","370","358364","0.0-6.0-0.182","ZDER","2","m","rechts","52","","fixation","","","",""
"1242","img/90_120.png","70","image-keyboard-response","371","359618","0.0-6.0-1.182","ZDER","2","m","rechts","52","","","self","f","90","true"
"null","<div style=""font-size:60px;"">+</div>","null","html-keyboard-response","372","360123","0.0-6.0-0.183","ZDER","2","m","rechts","52","","fixation","","","",""
"991","img/L90_180.png","70","image-keyboard-response","373","361127","0.0-6.0-1.183","ZDER","2","m","rechts","52","","","self","f","90","true"
"null","<div style=""font-size:60px;"">+</div>","null","html-keyboard-response","374","361436","0.0-6.0-0.184","ZDER","2","m","rechts","52","","fixation","","","",""
"1064","img/30_90.png","74","image-keyboard-response","375","362512","0.0-6.0-1.184","ZDER","2","m","rechts","52","","","self","j","30","true"
"null","<div style=""font-size:60px;"">+</div>","null","html-keyboard-response","376","362820","0.0-6.0-0.185","ZDER","2","m","rechts","52","","fixation","","","",""
"861","img/0_270.png","70","image-keyboard-response","377","363693","0.0-6.0-1.185","ZDER","2","m","rechts","52","","","self","f","0","true"
"null","<div style=""font-size:60px;"">+</div>","null","html-keyboard-response","378","364118","0.0-6.0-0.186","ZDER","2","m","rechts","52","","fixation","","","",""
"859","img/90_150.png","74","image-keyboard-response","379","364986","0.0-6.0-1.186","ZDER","2","m","rechts","52","","","self","f","90","false"
"null","<div style=""font-size:60px;"">+</div>","null","html-keyboard-response","380","365289","0.0-6.0-0.187","ZDER","2","m","rechts","52","","fixation","","","",""
"1166","img/150_180.png","74","image-keyboard-response","381","366460","0.0-6.0-1.187","ZDER","2","m","rechts","52","","","self","j","150","true"
"null","<div style=""font-size:60px;"">+</div>","null","html-keyboard-response","382","366774","0.0-6.0-0.188","ZDER","2","m","rechts","52","","fixation","","","",""
"807","img/0_300.png","70","image-keyboard-response","383","367594","0.0-6.0-1.188","ZDER","2","m","rechts","52","","","self","f","0","true"
"null","<div style=""font-size:60px;"">+</div>","null","html-keyboard-response","384","367962","0.0-6.0-0.189","ZDER","2","m","rechts","52","","fixation","","","",""
"1782","img/30_60.png","74","image-keyboard-response","385","369757","0.0-6.0-1.189","ZDER","2","m","rechts","52","","","self","j","30","true"
"null","<div style=""font-size:60px;"">+</div>","null","html-keyboard-response","386","370166","0.0-6.0-0.190","ZDER","2","m","rechts","52","","fixation","","","",""
"1381","img/120_90.png","70","image-keyboard-response","387","371560","0.0-6.0-1.190","ZDER","2","m","rechts","52","","","self","f","120","true"
"null","<div style=""font-size:60px;"">+</div>","null","html-keyboard-response","388","371869","0.0-6.0-0.191","ZDER","2","m","rechts","52","","fixation","","","",""
"1392","img/150_270.png","74","image-keyboard-response","389","373266","0.0-6.0-1.191","ZDER","2","m","rechts","52","","","self","j","150","true"
"null","<div style=""font-size:60px;"">+</div>","null","html-keyboard-response","390","373742","0.0-6.0-0.192","ZDER","2","m","rechts","52","","fixation","","","",""
"848","img/0_30.png","74","image-keyboard-response","391","374606","0.0-6.0-1.192","ZDER","2","m","rechts","52","","","self","j","0","true"
"null","<div style=""font-size:60px;"">+</div>","null","html-keyboard-response","392","375073","0.0-6.0-0.193","ZDER","2","m","rechts","52","","fixation","","","",""
"1384","img/60_330.png","70","image-keyboard-response","393","376463","0.0-6.0-1.193","ZDER","2","m","rechts","52","","","self","f","60","true"
"null","<div style=""font-size:60px;"">+</div>","null","html-keyboard-response","394","376870","0.0-6.0-0.194","ZDER","2","m","rechts","52","","fixation","","","",""
"920","img/0_330.png","70","image-keyboard-response","395","377800","0.0-6.0-1.194","ZDER","2","m","rechts","52","","","self","f","0","true"
"null","<div style=""font-size:60px;"">+</div>","null","html-keyboard-response","396","378216","0.0-6.0-0.195","ZDER","2","m","rechts","52","","fixation","","","",""
"755","img/0_150.png","74","image-keyboard-response","397","378983","0.0-6.0-1.195","ZDER","2","m","rechts","52","","","self","j","0","true"
"null","<div style=""font-size:60px;"">+</div>","null","html-keyboard-response","398","379434","0.0-6.0-0.196","ZDER","2","m","rechts","52","","fixation","","","",""
"947","img/120_150.png","70","image-keyboard-response","399","380398","0.0-6.0-1.196","ZDER","2","m","rechts","52","","","self","f","120","true"
"null","<div style=""font-size:60px;"">+</div>","null","html-keyboard-response","400","380779","0.0-6.0-0.197","ZDER","2","m","rechts","52","","fixation","","","",""
"1497","img/30_270.png","70","image-keyboard-response","401","382290","0.0-6.0-1.197","ZDER","2","m","rechts","52","","","self","f","30","true"
"null","<div style=""font-size:60px;"">+</div>","null","html-keyboard-response","402","382701","0.0-6.0-0.198","ZDER","2","m","rechts","52","","fixation","","","",""
"1149","img/150_60.png","70","image-keyboard-response","403","383863","0.0-6.0-1.198","ZDER","2","m","rechts","52","","","self","f","150","true"
"null","<div style=""font-size:60px;"">+</div>","null","html-keyboard-response","404","384231","0.0-6.0-0.199","ZDER","2","m","rechts","52","","fixation","","","",""
"848","img/0_240.png","70","image-keyboard-response","405","385091","0.0-6.0-1.199","ZDER","2","m","rechts","52","","","self","f","0","true"
"null","<div style=""font-size:60px;"">+</div>","null","html-keyboard-response","406","385499","0.0-6.0-0.200","ZDER","2","m","rechts","52","","fixation","","","",""
"2025","img/90_300.png","70","image-keyboard-response","407","387536","0.0-6.0-1.200","ZDER","2","m","rechts","52","","","self","f","90","true"
"null","<div style=""font-size:60px;"">+</div>","null","html-keyboard-response","408","388049","0.0-6.0-0.201","ZDER","2","m","rechts","52","","fixation","","","",""
"1684","img/60_180.png","74","image-keyboard-response","409","389749","0.0-6.0-1.201","ZDER","2","m","rechts","52","","","self","j","60","true"
"null","<div style=""font-size:60px;"">+</div>","null","html-keyboard-response","410","390126","0.0-6.0-0.202","ZDER","2","m","rechts","52","","fixation","","","",""
"1181","img/60_210.png","74","image-keyboard-response","411","391311","0.0-6.0-1.202","ZDER","2","m","rechts","52","","","self","j","60","true"
"null","<div style=""font-size:60px;"">+</div>","null","html-keyboard-response","412","391673","0.0-6.0-0.203","ZDER","2","m","rechts","52","","fixation","","","",""
"1411","img/L150_180.png","70","image-keyboard-response","413","393099","0.0-6.0-1.203","ZDER","2","m","rechts","52","","","self","f","150","true"
"null","<div style=""font-size:60px;"">+</div>","null","html-keyboard-response","414","393563","0.0-6.0-0.204","ZDER","2","m","rechts","52","","fixation","","","",""
"805","img/0_210.png","70","image-keyboard-response","415","394383","0.0-6.0-1.204","ZDER","2","m","rechts","52","","","self","f","0","true"
"null","<div style=""font-size:60px;"">+</div>","null","html-keyboard-response","416","394695","0.0-6.0-0.205","ZDER","2","m","rechts","52","","fixation","","","",""
"2109","img/30_120.png","74","image-keyboard-response","417","396819","0.0-6.0-1.205","ZDER","2","m","rechts","52","","","self","j","30","true"
"null","<div style=""font-size:60px;"">+</div>","null","html-keyboard-response","418","397237","0.0-6.0-0.206","ZDER","2","m","rechts","52","","fixation","","","",""
"1024","img/0_120.png","74","image-keyboard-response","419","398276","0.0-6.0-1.206","ZDER","2","m","rechts","52","","","self","j","0","true"
"null","<div style=""font-size:60px;"">+</div>","null","html-keyboard-response","420","398738","0.0-6.0-0.207","ZDER","2","m","rechts","52","","fixation","","","",""
"1358","img/120_180.png","74","image-keyboard-response","421","400110","0.0-6.0-1.207","ZDER","2","m","rechts","52","","","self","j","120","true"
"8985","<p>Du hast in 92% der Versuche korrekt entschieden.</p><p>Deine durchschnittliche Reaktionszeit war  1282ms.</p><p>Dr&uuml;cke eine beliebige Taste, um die Session zu beenden. Vielen Dank!</p>","32","html-keyboard-response","422","409103","0.0-7.0","ZDER","2","m","rechts","52","","","","","",""
