"rt","stimulus","key_press","trial_type","trial_index","time_elapsed","internal_node_id","subject","session","sex","handedness","age","responses","test_part","condition","correct_response","angle","correct"
"1009","<p>Mental Rotation Experiment.</p> <p>Dr&uuml;cke eine beliebige Taste, um anzufangen.</p>","70","html-keyboard-response","0","1010","0.0-0.0","ALGO","4","m","rechts","21","","","","","",""
"30959","","","survey-text","1","31970","0.0-1.0","ALGO","4","m","rechts","21","{""Q0"":""ALGO""}","","","","",""
"1668","","","survey-text","2","33639","0.0-2.0","ALGO","4","m","rechts","21","{""Q0"":""4""}","","","","",""
"5873","","","survey-multi-choice","3","39514","0.0-3.0","ALGO","4","m","rechts","21","{""Q0"":""m"",""Q1"":""rechts""}","","","","",""
"4378","","","survey-text","4","43894","0.0-4.0","ALGO","4","m","rechts","21","{""Q0"":""21""}","","","","",""
"266565","<p>Stell dir vor, dass du vor einem runden Tisch stehst, auf dem sich ein blauer Ball am Tischrand befindet. Entlang des Tischrands ist jeweils ein verschieden langer Pfeil. Nun bleibst du an deinem Platz vor dem Tisch und rotierst den Tisch entlang des Pfeils (gleiche Richtung und Länge). </p> <img src='img/30_180.png'></img> <br><p> Nachdem du diese (vorgestellte) Rotation durchgef&uuml;hrt hast, schau in Richtung der Tischmitte, und entscheide dann, ob der Ball links oder rechts von dir liegt.</p> <p>Dr&uuml;cke die <strong>'f'</strong>-Taste f&uuml;r links, die <strong>'j'</strong>-Taste f&uuml;r rechts.</p><br><p> Das Bild wird jeweils 1 Sekunde lang pr&auml;sentiert. Du hast 3 Sekunden Zeit eine Entscheidung zu treffen.</p>","74","html-keyboard-response","5","310459","0.0-5.0","ALGO","4","m","rechts","21","","","","","",""
"null","<div style=""font-size:60px;"">+</div>","null","html-keyboard-response","6","311912","0.0-6.0-0.0","ALGO","4","m","rechts","21","","fixation","","","",""
"767","img/90_60.png","70","image-keyboard-response","7","312681","0.0-6.0-1.0","ALGO","4","m","rechts","21","","","object","f","90","true"
"null","<div style=""font-size:60px;"">+</div>","null","html-keyboard-response","8","313183","0.0-6.0-0.1","ALGO","4","m","rechts","21","","fixation","","","",""
"854","img/90_180.png","70","image-keyboard-response","9","314038","0.0-6.0-1.1","ALGO","4","m","rechts","21","","","object","f","90","true"
"null","<div style=""font-size:60px;"">+</div>","null","html-keyboard-response","10","314490","0.0-6.0-0.2","ALGO","4","m","rechts","21","","fixation","","","",""
"1074","img/L30_180.png","74","image-keyboard-response","11","315565","0.0-6.0-1.2","ALGO","4","m","rechts","21","","","object","j","30","true"
"null","<div style=""font-size:60px;"">+</div>","null","html-keyboard-response","12","315967","0.0-6.0-0.3","ALGO","4","m","rechts","21","","fixation","","","",""
"733","img/0_270.png","70","image-keyboard-response","13","316701","0.0-6.0-1.3","ALGO","4","m","rechts","21","","","object","f","0","true"
"null","<div style=""font-size:60px;"">+</div>","null","html-keyboard-response","14","317203","0.0-6.0-0.4","ALGO","4","m","rechts","21","","fixation","","","",""
"720","img/120_90.png","70","image-keyboard-response","15","317924","0.0-6.0-1.4","ALGO","4","m","rechts","21","","","object","f","120","true"
"null","<div style=""font-size:60px;"">+</div>","null","html-keyboard-response","16","318276","0.0-6.0-0.5","ALGO","4","m","rechts","21","","fixation","","","",""
"791","img/120_270.png","74","image-keyboard-response","17","319068","0.0-6.0-1.5","ALGO","4","m","rechts","21","","","object","j","120","true"
"null","<div style=""font-size:60px;"">+</div>","null","html-keyboard-response","18","319470","0.0-6.0-0.6","ALGO","4","m","rechts","21","","fixation","","","",""
"658","img/30_180.png","70","image-keyboard-response","19","320129","0.0-6.0-1.6","ALGO","4","m","rechts","21","","","object","f","30","true"
"null","<div style=""font-size:60px;"">+</div>","null","html-keyboard-response","20","320631","0.0-6.0-0.7","ALGO","4","m","rechts","21","","fixation","","","",""
"866","img/30_270.png","70","image-keyboard-response","21","321498","0.0-6.0-1.7","ALGO","4","m","rechts","21","","","object","f","30","true"
"null","<div style=""font-size:60px;"">+</div>","null","html-keyboard-response","22","321949","0.0-6.0-0.8","ALGO","4","m","rechts","21","","fixation","","","",""
"683","img/90_300.png","74","image-keyboard-response","23","322633","0.0-6.0-1.8","ALGO","4","m","rechts","21","","","object","j","90","true"
"null","<div style=""font-size:60px;"">+</div>","null","html-keyboard-response","24","323135","0.0-6.0-0.9","ALGO","4","m","rechts","21","","fixation","","","",""
"678","img/30_240.png","70","image-keyboard-response","25","323814","0.0-6.0-1.9","ALGO","4","m","rechts","21","","","object","f","30","true"
"null","<div style=""font-size:60px;"">+</div>","null","html-keyboard-response","26","324116","0.0-6.0-0.10","ALGO","4","m","rechts","21","","fixation","","","",""
"1173","img/60_210.png","70","image-keyboard-response","27","325290","0.0-6.0-1.10","ALGO","4","m","rechts","21","","","object","f","60","true"
"null","<div style=""font-size:60px;"">+</div>","null","html-keyboard-response","28","325792","0.0-6.0-0.11","ALGO","4","m","rechts","21","","fixation","","","",""
"711","img/30_120.png","74","image-keyboard-response","29","326504","0.0-6.0-1.11","ALGO","4","m","rechts","21","","","object","j","30","true"
"null","<div style=""font-size:60px;"">+</div>","null","html-keyboard-response","30","327006","0.0-6.0-0.12","ALGO","4","m","rechts","21","","fixation","","","",""
"1075","img/L90_180.png","74","image-keyboard-response","31","328082","0.0-6.0-1.12","ALGO","4","m","rechts","21","","","object","j","90","true"
"null","<div style=""font-size:60px;"">+</div>","null","html-keyboard-response","32","328534","0.0-6.0-0.13","ALGO","4","m","rechts","21","","fixation","","","",""
"1078","img/30_60.png","70","image-keyboard-response","33","329613","0.0-6.0-1.13","ALGO","4","m","rechts","21","","","object","j","30","false"
"null","<div style=""font-size:60px;"">+</div>","null","html-keyboard-response","34","329964","0.0-6.0-0.14","ALGO","4","m","rechts","21","","fixation","","","",""
"711","img/150_60.png","70","image-keyboard-response","35","330676","0.0-6.0-1.14","ALGO","4","m","rechts","21","","","object","f","150","true"
"null","<div style=""font-size:60px;"">+</div>","null","html-keyboard-response","36","331078","0.0-6.0-0.15","ALGO","4","m","rechts","21","","fixation","","","",""
"605","img/60_30.png","70","image-keyboard-response","37","331683","0.0-6.0-1.15","ALGO","4","m","rechts","21","","","object","f","60","true"
"null","<div style=""font-size:60px;"">+</div>","null","html-keyboard-response","38","332135","0.0-6.0-0.16","ALGO","4","m","rechts","21","","fixation","","","",""
"725","img/0_30.png","74","image-keyboard-response","39","332861","0.0-6.0-1.16","ALGO","4","m","rechts","21","","","object","j","0","true"
"null","<div style=""font-size:60px;"">+</div>","null","html-keyboard-response","40","333363","0.0-6.0-0.17","ALGO","4","m","rechts","21","","fixation","","","",""
"842","img/120_210.png","70","image-keyboard-response","41","334205","0.0-6.0-1.17","ALGO","4","m","rechts","21","","","object","f","120","true"
"null","<div style=""font-size:60px;"">+</div>","null","html-keyboard-response","42","334606","0.0-6.0-0.18","ALGO","4","m","rechts","21","","fixation","","","",""
"690","img/0_150.png","74","image-keyboard-response","43","335297","0.0-6.0-1.18","ALGO","4","m","rechts","21","","","object","j","0","true"
"null","<div style=""font-size:60px;"">+</div>","null","html-keyboard-response","44","335599","0.0-6.0-0.19","ALGO","4","m","rechts","21","","fixation","","","",""
"666","img/120_330.png","74","image-keyboard-response","45","336266","0.0-6.0-1.19","ALGO","4","m","rechts","21","","","object","j","120","true"
"null","<div style=""font-size:60px;"">+</div>","null","html-keyboard-response","46","336718","0.0-6.0-0.20","ALGO","4","m","rechts","21","","fixation","","","",""
"620","img/0_300.png","70","image-keyboard-response","47","337339","0.0-6.0-1.20","ALGO","4","m","rechts","21","","","object","f","0","true"
"null","<div style=""font-size:60px;"">+</div>","null","html-keyboard-response","48","337741","0.0-6.0-0.21","ALGO","4","m","rechts","21","","fixation","","","",""
"557","img/90_30.png","70","image-keyboard-response","49","338299","0.0-6.0-1.21","ALGO","4","m","rechts","21","","","object","f","90","true"
"null","<div style=""font-size:60px;"">+</div>","null","html-keyboard-response","50","338599","0.0-6.0-0.22","ALGO","4","m","rechts","21","","fixation","","","",""
"873","img/120_180.png","70","image-keyboard-response","51","339474","0.0-6.0-1.22","ALGO","4","m","rechts","21","","","object","f","120","true"
"null","<div style=""font-size:60px;"">+</div>","null","html-keyboard-response","52","339775","0.0-6.0-0.23","ALGO","4","m","rechts","21","","fixation","","","",""
"944","img/60_270.png","70","image-keyboard-response","53","340720","0.0-6.0-1.23","ALGO","4","m","rechts","21","","","object","f","60","true"
"null","<div style=""font-size:60px;"">+</div>","null","html-keyboard-response","54","341072","0.0-6.0-0.24","ALGO","4","m","rechts","21","","fixation","","","",""
"702","img/120_30.png","70","image-keyboard-response","55","341774","0.0-6.0-1.24","ALGO","4","m","rechts","21","","","object","f","120","true"
"null","<div style=""font-size:60px;"">+</div>","null","html-keyboard-response","56","342076","0.0-6.0-0.25","ALGO","4","m","rechts","21","","fixation","","","",""
"848","img/90_240.png","74","image-keyboard-response","57","342924","0.0-6.0-1.25","ALGO","4","m","rechts","21","","","object","f","90","false"
"null","<div style=""font-size:60px;"">+</div>","null","html-keyboard-response","58","343275","0.0-6.0-0.26","ALGO","4","m","rechts","21","","fixation","","","",""
"886","img/150_90.png","70","image-keyboard-response","59","344162","0.0-6.0-1.26","ALGO","4","m","rechts","21","","","object","f","150","true"
"null","<div style=""font-size:60px;"">+</div>","null","html-keyboard-response","60","344664","0.0-6.0-0.27","ALGO","4","m","rechts","21","","fixation","","","",""
"837","img/30_300.png","74","image-keyboard-response","61","345501","0.0-6.0-1.27","ALGO","4","m","rechts","21","","","object","f","30","false"
"null","<div style=""font-size:60px;"">+</div>","null","html-keyboard-response","62","345803","0.0-6.0-0.28","ALGO","4","m","rechts","21","","fixation","","","",""
"1301","img/60_90.png","70","image-keyboard-response","63","347106","0.0-6.0-1.28","ALGO","4","m","rechts","21","","","object","j","60","false"
"null","<div style=""font-size:60px;"">+</div>","null","html-keyboard-response","64","347507","0.0-6.0-0.29","ALGO","4","m","rechts","21","","fixation","","","",""
"1071","img/90_150.png","74","image-keyboard-response","65","348579","0.0-6.0-1.29","ALGO","4","m","rechts","21","","","object","j","90","true"
"null","<div style=""font-size:60px;"">+</div>","null","html-keyboard-response","66","349031","0.0-6.0-0.30","ALGO","4","m","rechts","21","","fixation","","","",""
"693","img/90_330.png","74","image-keyboard-response","67","349726","0.0-6.0-1.30","ALGO","4","m","rechts","21","","","object","j","90","true"
"null","<div style=""font-size:60px;"">+</div>","null","html-keyboard-response","68","350077","0.0-6.0-0.31","ALGO","4","m","rechts","21","","fixation","","","",""
"720","img/0_60.png","74","image-keyboard-response","69","350798","0.0-6.0-1.31","ALGO","4","m","rechts","21","","","object","j","0","true"
"null","<div style=""font-size:60px;"">+</div>","null","html-keyboard-response","70","351150","0.0-6.0-0.32","ALGO","4","m","rechts","21","","fixation","","","",""
"669","img/0_120.png","74","image-keyboard-response","71","351821","0.0-6.0-1.32","ALGO","4","m","rechts","21","","","object","j","0","true"
"null","<div style=""font-size:60px;"">+</div>","null","html-keyboard-response","72","352321","0.0-6.0-0.33","ALGO","4","m","rechts","21","","fixation","","","",""
"920","img/150_240.png","74","image-keyboard-response","73","353243","0.0-6.0-1.33","ALGO","4","m","rechts","21","","","object","j","150","true"
"null","<div style=""font-size:60px;"">+</div>","null","html-keyboard-response","74","353644","0.0-6.0-0.34","ALGO","4","m","rechts","21","","fixation","","","",""
"916","img/150_120.png","70","image-keyboard-response","75","354562","0.0-6.0-1.34","ALGO","4","m","rechts","21","","","object","f","150","true"
"null","<div style=""font-size:60px;"">+</div>","null","html-keyboard-response","76","354963","0.0-6.0-0.35","ALGO","4","m","rechts","21","","fixation","","","",""
"874","img/150_300.png","74","image-keyboard-response","77","355839","0.0-6.0-1.35","ALGO","4","m","rechts","21","","","object","j","150","true"
"null","<div style=""font-size:60px;"">+</div>","null","html-keyboard-response","78","356240","0.0-6.0-0.36","ALGO","4","m","rechts","21","","fixation","","","",""
"953","img/L60_180.png","74","image-keyboard-response","79","357194","0.0-6.0-1.36","ALGO","4","m","rechts","21","","","object","j","60","true"
"null","<div style=""font-size:60px;"">+</div>","null","html-keyboard-response","80","357596","0.0-6.0-0.37","ALGO","4","m","rechts","21","","fixation","","","",""
"781","img/L120_180.png","74","image-keyboard-response","81","358378","0.0-6.0-1.37","ALGO","4","m","rechts","21","","","object","j","120","true"
"null","<div style=""font-size:60px;"">+</div>","null","html-keyboard-response","82","358780","0.0-6.0-0.38","ALGO","4","m","rechts","21","","fixation","","","",""
"876","img/150_270.png","74","image-keyboard-response","83","359658","0.0-6.0-1.38","ALGO","4","m","rechts","21","","","object","j","150","true"
"null","<div style=""font-size:60px;"">+</div>","null","html-keyboard-response","84","360009","0.0-6.0-0.39","ALGO","4","m","rechts","21","","fixation","","","",""
"1082","img/90_120.png","70","image-keyboard-response","85","361092","0.0-6.0-1.39","ALGO","4","m","rechts","21","","","object","j","90","false"
"null","<div style=""font-size:60px;"">+</div>","null","html-keyboard-response","86","361444","0.0-6.0-0.40","ALGO","4","m","rechts","21","","fixation","","","",""
"670","img/0_330.png","70","image-keyboard-response","87","362115","0.0-6.0-1.40","ALGO","4","m","rechts","21","","","object","f","0","true"
"null","<div style=""font-size:60px;"">+</div>","null","html-keyboard-response","88","362417","0.0-6.0-0.41","ALGO","4","m","rechts","21","","fixation","","","",""
"889","img/90_210.png","70","image-keyboard-response","89","363307","0.0-6.0-1.41","ALGO","4","m","rechts","21","","","object","f","90","true"
"null","<div style=""font-size:60px;"">+</div>","null","html-keyboard-response","90","363759","0.0-6.0-0.42","ALGO","4","m","rechts","21","","fixation","","","",""
"747","img/120_150.png","74","image-keyboard-response","91","364509","0.0-6.0-1.42","ALGO","4","m","rechts","21","","","object","j","120","true"
"null","<div style=""font-size:60px;"">+</div>","null","html-keyboard-response","92","364809","0.0-6.0-0.43","ALGO","4","m","rechts","21","","fixation","","","",""
"791","img/60_180.png","70","image-keyboard-response","93","365601","0.0-6.0-1.43","ALGO","4","m","rechts","21","","","object","f","60","true"
"null","<div style=""font-size:60px;"">+</div>","null","html-keyboard-response","94","366102","0.0-6.0-0.44","ALGO","4","m","rechts","21","","fixation","","","",""
"840","img/150_180.png","70","image-keyboard-response","95","366943","0.0-6.0-1.44","ALGO","4","m","rechts","21","","","object","f","150","true"
"null","<div style=""font-size:60px;"">+</div>","null","html-keyboard-response","96","367445","0.0-6.0-0.45","ALGO","4","m","rechts","21","","fixation","","","",""
"836","img/60_150.png","70","image-keyboard-response","97","368282","0.0-6.0-1.45","ALGO","4","m","rechts","21","","","object","j","60","false"
"null","<div style=""font-size:60px;"">+</div>","null","html-keyboard-response","98","368784","0.0-6.0-0.46","ALGO","4","m","rechts","21","","fixation","","","",""
"689","img/L150_180.png","74","image-keyboard-response","99","369474","0.0-6.0-1.46","ALGO","4","m","rechts","21","","","object","j","150","true"
"null","<div style=""font-size:60px;"">+</div>","null","html-keyboard-response","100","369876","0.0-6.0-0.47","ALGO","4","m","rechts","21","","fixation","","","",""
"702","img/60_330.png","74","image-keyboard-response","101","370579","0.0-6.0-1.47","ALGO","4","m","rechts","21","","","object","j","60","true"
"null","<div style=""font-size:60px;"">+</div>","null","html-keyboard-response","102","370981","0.0-6.0-0.48","ALGO","4","m","rechts","21","","fixation","","","",""
"836","img/30_90.png","74","image-keyboard-response","103","371818","0.0-6.0-1.48","ALGO","4","m","rechts","21","","","object","j","30","true"
"null","<div style=""font-size:60px;"">+</div>","null","html-keyboard-response","104","372120","0.0-6.0-0.49","ALGO","4","m","rechts","21","","fixation","","","",""
"689","img/0_240.png","70","image-keyboard-response","105","372810","0.0-6.0-1.49","ALGO","4","m","rechts","21","","","object","f","0","true"
"null","<div style=""font-size:60px;"">+</div>","null","html-keyboard-response","106","373312","0.0-6.0-0.50","ALGO","4","m","rechts","21","","fixation","","","",""
"518","img/0_210.png","70","image-keyboard-response","107","373831","0.0-6.0-1.50","ALGO","4","m","rechts","21","","","object","f","0","true"
"null","<div style=""font-size:60px;"">+</div>","null","html-keyboard-response","108","374333","0.0-6.0-0.51","ALGO","4","m","rechts","21","","fixation","","","",""
"672","img/0_90.png","74","image-keyboard-response","109","375006","0.0-6.0-1.51","ALGO","4","m","rechts","21","","","object","j","0","true"
"null","<div style=""font-size:60px;"">+</div>","null","html-keyboard-response","110","375408","0.0-6.0-0.52","ALGO","4","m","rechts","21","","fixation","","","",""
"963","img/30_60.png","74","image-keyboard-response","111","376372","0.0-6.0-1.52","ALGO","4","m","rechts","21","","","object","j","30","true"
"null","<div style=""font-size:60px;"">+</div>","null","html-keyboard-response","112","376873","0.0-6.0-0.53","ALGO","4","m","rechts","21","","fixation","","","",""
"812","img/90_300.png","74","image-keyboard-response","113","377686","0.0-6.0-1.53","ALGO","4","m","rechts","21","","","object","j","90","true"
"null","<div style=""font-size:60px;"">+</div>","null","html-keyboard-response","114","378188","0.0-6.0-0.54","ALGO","4","m","rechts","21","","fixation","","","",""
"751","img/120_180.png","70","image-keyboard-response","115","378939","0.0-6.0-1.54","ALGO","4","m","rechts","21","","","object","f","120","true"
"null","<div style=""font-size:60px;"">+</div>","null","html-keyboard-response","116","379241","0.0-6.0-0.55","ALGO","4","m","rechts","21","","fixation","","","",""
"860","img/60_270.png","70","image-keyboard-response","117","380101","0.0-6.0-1.55","ALGO","4","m","rechts","21","","","object","f","60","true"
"null","<div style=""font-size:60px;"">+</div>","null","html-keyboard-response","118","380503","0.0-6.0-0.56","ALGO","4","m","rechts","21","","fixation","","","",""
"1137","img/60_90.png","70","image-keyboard-response","119","381640","0.0-6.0-1.56","ALGO","4","m","rechts","21","","","object","j","60","false"
"null","<div style=""font-size:60px;"">+</div>","null","html-keyboard-response","120","381992","0.0-6.0-0.57","ALGO","4","m","rechts","21","","fixation","","","",""
"886","img/90_120.png","70","image-keyboard-response","121","382878","0.0-6.0-1.57","ALGO","4","m","rechts","21","","","object","j","90","false"
"null","<div style=""font-size:60px;"">+</div>","null","html-keyboard-response","122","383180","0.0-6.0-0.58","ALGO","4","m","rechts","21","","fixation","","","",""
"953","img/90_240.png","70","image-keyboard-response","123","384133","0.0-6.0-1.58","ALGO","4","m","rechts","21","","","object","f","90","true"
"null","<div style=""font-size:60px;"">+</div>","null","html-keyboard-response","124","384635","0.0-6.0-0.59","ALGO","4","m","rechts","21","","fixation","","","",""
"663","img/0_30.png","74","image-keyboard-response","125","385298","0.0-6.0-1.59","ALGO","4","m","rechts","21","","","object","j","0","true"
"null","<div style=""font-size:60px;"">+</div>","null","html-keyboard-response","126","385650","0.0-6.0-0.60","ALGO","4","m","rechts","21","","fixation","","","",""
"734","img/30_300.png","70","image-keyboard-response","127","386384","0.0-6.0-1.60","ALGO","4","m","rechts","21","","","object","f","30","true"
"null","<div style=""font-size:60px;"">+</div>","null","html-keyboard-response","128","386836","0.0-6.0-0.61","ALGO","4","m","rechts","21","","fixation","","","",""
"914","img/L30_180.png","74","image-keyboard-response","129","387750","0.0-6.0-1.61","ALGO","4","m","rechts","21","","","object","j","30","true"
"null","<div style=""font-size:60px;"">+</div>","null","html-keyboard-response","130","388252","0.0-6.0-0.62","ALGO","4","m","rechts","21","","fixation","","","",""
"642","img/0_210.png","70","image-keyboard-response","131","388894","0.0-6.0-1.62","ALGO","4","m","rechts","21","","","object","f","0","true"
"null","<div style=""font-size:60px;"">+</div>","null","html-keyboard-response","132","389246","0.0-6.0-0.63","ALGO","4","m","rechts","21","","fixation","","","",""
"800","img/30_240.png","70","image-keyboard-response","133","390046","0.0-6.0-1.63","ALGO","4","m","rechts","21","","","object","f","30","true"
"null","<div style=""font-size:60px;"">+</div>","null","html-keyboard-response","134","390347","0.0-6.0-0.64","ALGO","4","m","rechts","21","","fixation","","","",""
"988","img/90_210.png","70","image-keyboard-response","135","391336","0.0-6.0-1.64","ALGO","4","m","rechts","21","","","object","f","90","true"
"null","<div style=""font-size:60px;"">+</div>","null","html-keyboard-response","136","391788","0.0-6.0-0.65","ALGO","4","m","rechts","21","","fixation","","","",""
"763","img/30_270.png","70","image-keyboard-response","137","392552","0.0-6.0-1.65","ALGO","4","m","rechts","21","","","object","f","30","true"
"null","<div style=""font-size:60px;"">+</div>","null","html-keyboard-response","138","392954","0.0-6.0-0.66","ALGO","4","m","rechts","21","","fixation","","","",""
"748","img/L120_180.png","74","image-keyboard-response","139","393702","0.0-6.0-1.66","ALGO","4","m","rechts","21","","","object","j","120","true"
"null","<div style=""font-size:60px;"">+</div>","null","html-keyboard-response","140","394104","0.0-6.0-0.67","ALGO","4","m","rechts","21","","fixation","","","",""
"702","img/120_30.png","70","image-keyboard-response","141","394807","0.0-6.0-1.67","ALGO","4","m","rechts","21","","","object","f","120","true"
"null","<div style=""font-size:60px;"">+</div>","null","html-keyboard-response","142","395257","0.0-6.0-0.68","ALGO","4","m","rechts","21","","fixation","","","",""
"833","img/60_210.png","70","image-keyboard-response","143","396091","0.0-6.0-1.68","ALGO","4","m","rechts","21","","","object","f","60","true"
"null","<div style=""font-size:60px;"">+</div>","null","html-keyboard-response","144","396393","0.0-6.0-0.69","ALGO","4","m","rechts","21","","fixation","","","",""
"701","img/150_180.png","70","image-keyboard-response","145","397095","0.0-6.0-1.69","ALGO","4","m","rechts","21","","","object","f","150","true"
"null","<div style=""font-size:60px;"">+</div>","null","html-keyboard-response","146","397596","0.0-6.0-0.70","ALGO","4","m","rechts","21","","fixation","","","",""
"650","img/60_330.png","74","image-keyboard-response","147","398248","0.0-6.0-1.70","ALGO","4","m","rechts","21","","","object","j","60","true"
"null","<div style=""font-size:60px;"">+</div>","null","html-keyboard-response","148","398749","0.0-6.0-0.71","ALGO","4","m","rechts","21","","fixation","","","",""
"613","img/120_330.png","74","image-keyboard-response","149","399364","0.0-6.0-1.71","ALGO","4","m","rechts","21","","","object","j","120","true"
"null","<div style=""font-size:60px;"">+</div>","null","html-keyboard-response","150","399715","0.0-6.0-0.72","ALGO","4","m","rechts","21","","fixation","","","",""
"624","img/150_240.png","70","image-keyboard-response","151","400340","0.0-6.0-1.72","ALGO","4","m","rechts","21","","","object","j","150","false"
"null","<div style=""font-size:60px;"">+</div>","null","html-keyboard-response","152","400741","0.0-6.0-0.73","ALGO","4","m","rechts","21","","fixation","","","",""
"980","img/150_60.png","70","image-keyboard-response","153","401723","0.0-6.0-1.73","ALGO","4","m","rechts","21","","","object","f","150","true"
"null","<div style=""font-size:60px;"">+</div>","null","html-keyboard-response","154","402124","0.0-6.0-0.74","ALGO","4","m","rechts","21","","fixation","","","",""
"1063","img/L90_180.png","74","image-keyboard-response","155","403188","0.0-6.0-1.74","ALGO","4","m","rechts","21","","","object","j","90","true"
"null","<div style=""font-size:60px;"">+</div>","null","html-keyboard-response","156","403490","0.0-6.0-0.75","ALGO","4","m","rechts","21","","fixation","","","",""
"867","img/L60_180.png","74","image-keyboard-response","157","404358","0.0-6.0-1.75","ALGO","4","m","rechts","21","","","object","j","60","true"
"null","<div style=""font-size:60px;"">+</div>","null","html-keyboard-response","158","404809","0.0-6.0-0.76","ALGO","4","m","rechts","21","","fixation","","","",""
"719","img/90_150.png","70","image-keyboard-response","159","405530","0.0-6.0-1.76","ALGO","4","m","rechts","21","","","object","j","90","false"
"null","<div style=""font-size:60px;"">+</div>","null","html-keyboard-response","160","405881","0.0-6.0-0.77","ALGO","4","m","rechts","21","","fixation","","","",""
"855","img/90_180.png","70","image-keyboard-response","161","406738","0.0-6.0-1.77","ALGO","4","m","rechts","21","","","object","f","90","true"
"null","<div style=""font-size:60px;"">+</div>","null","html-keyboard-response","162","407039","0.0-6.0-0.78","ALGO","4","m","rechts","21","","fixation","","","",""
"1012","img/120_270.png","74","image-keyboard-response","163","408052","0.0-6.0-1.78","ALGO","4","m","rechts","21","","","object","j","120","true"
"null","<div style=""font-size:60px;"">+</div>","null","html-keyboard-response","164","408554","0.0-6.0-0.79","ALGO","4","m","rechts","21","","fixation","","","",""
"865","img/150_270.png","70","image-keyboard-response","165","409420","0.0-6.0-1.79","ALGO","4","m","rechts","21","","","object","j","150","false"
"null","<div style=""font-size:60px;"">+</div>","null","html-keyboard-response","166","409772","0.0-6.0-0.80","ALGO","4","m","rechts","21","","fixation","","","",""
"982","img/120_210.png","70","image-keyboard-response","167","410754","0.0-6.0-1.80","ALGO","4","m","rechts","21","","","object","f","120","true"
"null","<div style=""font-size:60px;"">+</div>","null","html-keyboard-response","168","411256","0.0-6.0-0.81","ALGO","4","m","rechts","21","","fixation","","","",""
"703","img/0_90.png","74","image-keyboard-response","169","411960","0.0-6.0-1.81","ALGO","4","m","rechts","21","","","object","j","0","true"
"null","<div style=""font-size:60px;"">+</div>","null","html-keyboard-response","170","412262","0.0-6.0-0.82","ALGO","4","m","rechts","21","","fixation","","","",""
"656","img/0_330.png","70","image-keyboard-response","171","412919","0.0-6.0-1.82","ALGO","4","m","rechts","21","","","object","f","0","true"
"null","<div style=""font-size:60px;"">+</div>","null","html-keyboard-response","172","413322","0.0-6.0-0.83","ALGO","4","m","rechts","21","","fixation","","","",""
"608","img/0_60.png","74","image-keyboard-response","173","413930","0.0-6.0-1.83","ALGO","4","m","rechts","21","","","object","j","0","true"
"null","<div style=""font-size:60px;"">+</div>","null","html-keyboard-response","174","414332","0.0-6.0-0.84","ALGO","4","m","rechts","21","","fixation","","","",""
"661","img/30_180.png","70","image-keyboard-response","175","414993","0.0-6.0-1.84","ALGO","4","m","rechts","21","","","object","f","30","true"
"null","<div style=""font-size:60px;"">+</div>","null","html-keyboard-response","176","415495","0.0-6.0-0.85","ALGO","4","m","rechts","21","","fixation","","","",""
"655","img/90_30.png","70","image-keyboard-response","177","416150","0.0-6.0-1.85","ALGO","4","m","rechts","21","","","object","f","90","true"
"null","<div style=""font-size:60px;"">+</div>","null","html-keyboard-response","178","416552","0.0-6.0-0.86","ALGO","4","m","rechts","21","","fixation","","","",""
"662","img/L150_180.png","74","image-keyboard-response","179","417215","0.0-6.0-1.86","ALGO","4","m","rechts","21","","","object","j","150","true"
"null","<div style=""font-size:60px;"">+</div>","null","html-keyboard-response","180","417517","0.0-6.0-0.87","ALGO","4","m","rechts","21","","fixation","","","",""
"673","img/0_270.png","70","image-keyboard-response","181","418190","0.0-6.0-1.87","ALGO","4","m","rechts","21","","","object","f","0","true"
"null","<div style=""font-size:60px;"">+</div>","null","html-keyboard-response","182","418491","0.0-6.0-0.88","ALGO","4","m","rechts","21","","fixation","","","",""
"738","img/90_330.png","74","image-keyboard-response","183","419229","0.0-6.0-1.88","ALGO","4","m","rechts","21","","","object","j","90","true"
"null","<div style=""font-size:60px;"">+</div>","null","html-keyboard-response","184","419630","0.0-6.0-0.89","ALGO","4","m","rechts","21","","fixation","","","",""
"1061","img/60_150.png","74","image-keyboard-response","185","420691","0.0-6.0-1.89","ALGO","4","m","rechts","21","","","object","j","60","true"
"null","<div style=""font-size:60px;"">+</div>","null","html-keyboard-response","186","421192","0.0-6.0-0.90","ALGO","4","m","rechts","21","","fixation","","","",""
"678","img/150_300.png","74","image-keyboard-response","187","421870","0.0-6.0-1.90","ALGO","4","m","rechts","21","","","object","j","150","true"
"null","<div style=""font-size:60px;"">+</div>","null","html-keyboard-response","188","422271","0.0-6.0-0.91","ALGO","4","m","rechts","21","","fixation","","","",""
"833","img/120_150.png","74","image-keyboard-response","189","423104","0.0-6.0-1.91","ALGO","4","m","rechts","21","","","object","j","120","true"
"null","<div style=""font-size:60px;"">+</div>","null","html-keyboard-response","190","423506","0.0-6.0-0.92","ALGO","4","m","rechts","21","","fixation","","","",""
"564","img/60_30.png","70","image-keyboard-response","191","424070","0.0-6.0-1.92","ALGO","4","m","rechts","21","","","object","f","60","true"
"null","<div style=""font-size:60px;"">+</div>","null","html-keyboard-response","192","424422","0.0-6.0-0.93","ALGO","4","m","rechts","21","","fixation","","","",""
"726","img/150_120.png","74","image-keyboard-response","193","425148","0.0-6.0-1.93","ALGO","4","m","rechts","21","","","object","f","150","false"
"null","<div style=""font-size:60px;"">+</div>","null","html-keyboard-response","194","425450","0.0-6.0-0.94","ALGO","4","m","rechts","21","","fixation","","","",""
"751","img/0_240.png","70","image-keyboard-response","195","426201","0.0-6.0-1.94","ALGO","4","m","rechts","21","","","object","f","0","true"
"null","<div style=""font-size:60px;"">+</div>","null","html-keyboard-response","196","426502","0.0-6.0-0.95","ALGO","4","m","rechts","21","","fixation","","","",""
"1015","img/30_90.png","74","image-keyboard-response","197","427518","0.0-6.0-1.95","ALGO","4","m","rechts","21","","","object","j","30","true"
"null","<div style=""font-size:60px;"">+</div>","null","html-keyboard-response","198","428019","0.0-6.0-0.96","ALGO","4","m","rechts","21","","fixation","","","",""
"643","img/0_300.png","70","image-keyboard-response","199","428663","0.0-6.0-1.96","ALGO","4","m","rechts","21","","","object","f","0","true"
"null","<div style=""font-size:60px;"">+</div>","null","html-keyboard-response","200","429065","0.0-6.0-0.97","ALGO","4","m","rechts","21","","fixation","","","",""
"661","img/0_150.png","74","image-keyboard-response","201","429726","0.0-6.0-1.97","ALGO","4","m","rechts","21","","","object","j","0","true"
"null","<div style=""font-size:60px;"">+</div>","null","html-keyboard-response","202","430127","0.0-6.0-0.98","ALGO","4","m","rechts","21","","fixation","","","",""
"776","img/120_90.png","70","image-keyboard-response","203","430904","0.0-6.0-1.98","ALGO","4","m","rechts","21","","","object","f","120","true"
"null","<div style=""font-size:60px;"">+</div>","null","html-keyboard-response","204","431406","0.0-6.0-0.99","ALGO","4","m","rechts","21","","fixation","","","",""
"950","img/30_120.png","74","image-keyboard-response","205","432357","0.0-6.0-1.99","ALGO","4","m","rechts","21","","","object","j","30","true"
"null","<div style=""font-size:60px;"">+</div>","null","html-keyboard-response","206","432808","0.0-6.0-0.100","ALGO","4","m","rechts","21","","fixation","","","",""
"649","img/60_180.png","70","image-keyboard-response","207","433458","0.0-6.0-1.100","ALGO","4","m","rechts","21","","","object","f","60","true"
"null","<div style=""font-size:60px;"">+</div>","null","html-keyboard-response","208","433808","0.0-6.0-0.101","ALGO","4","m","rechts","21","","fixation","","","",""
"678","img/0_120.png","74","image-keyboard-response","209","434487","0.0-6.0-1.101","ALGO","4","m","rechts","21","","","object","j","0","true"
"null","<div style=""font-size:60px;"">+</div>","null","html-keyboard-response","210","434838","0.0-6.0-0.102","ALGO","4","m","rechts","21","","fixation","","","",""
"716","img/90_60.png","70","image-keyboard-response","211","435555","0.0-6.0-1.102","ALGO","4","m","rechts","21","","","object","f","90","true"
"null","<div style=""font-size:60px;"">+</div>","null","html-keyboard-response","212","435907","0.0-6.0-0.103","ALGO","4","m","rechts","21","","fixation","","","",""
"1053","img/150_90.png","74","image-keyboard-response","213","436960","0.0-6.0-1.103","ALGO","4","m","rechts","21","","","object","f","150","false"
"null","<div style=""font-size:60px;"">+</div>","null","html-keyboard-response","214","437262","0.0-6.0-0.104","ALGO","4","m","rechts","21","","fixation","","","",""
"848","img/90_210.png","70","image-keyboard-response","215","438110","0.0-6.0-1.104","ALGO","4","m","rechts","21","","","object","f","90","true"
"null","<div style=""font-size:60px;"">+</div>","null","html-keyboard-response","216","438461","0.0-6.0-0.105","ALGO","4","m","rechts","21","","fixation","","","",""
"669","img/0_150.png","74","image-keyboard-response","217","439132","0.0-6.0-1.105","ALGO","4","m","rechts","21","","","object","j","0","true"
"null","<div style=""font-size:60px;"">+</div>","null","html-keyboard-response","218","439533","0.0-6.0-0.106","ALGO","4","m","rechts","21","","fixation","","","",""
"918","img/L30_180.png","74","image-keyboard-response","219","440452","0.0-6.0-1.106","ALGO","4","m","rechts","21","","","object","j","30","true"
"null","<div style=""font-size:60px;"">+</div>","null","html-keyboard-response","220","440853","0.0-6.0-0.107","ALGO","4","m","rechts","21","","fixation","","","",""
"690","img/90_60.png","70","image-keyboard-response","221","441544","0.0-6.0-1.107","ALGO","4","m","rechts","21","","","object","f","90","true"
"null","<div style=""font-size:60px;"">+</div>","null","html-keyboard-response","222","441896","0.0-6.0-0.108","ALGO","4","m","rechts","21","","fixation","","","",""
"646","img/30_180.png","70","image-keyboard-response","223","442542","0.0-6.0-1.108","ALGO","4","m","rechts","21","","","object","f","30","true"
"null","<div style=""font-size:60px;"">+</div>","null","html-keyboard-response","224","443043","0.0-6.0-0.109","ALGO","4","m","rechts","21","","fixation","","","",""
"688","img/120_330.png","74","image-keyboard-response","225","443732","0.0-6.0-1.109","ALGO","4","m","rechts","21","","","object","j","120","true"
"null","<div style=""font-size:60px;"">+</div>","null","html-keyboard-response","226","444183","0.0-6.0-0.110","ALGO","4","m","rechts","21","","fixation","","","",""
"876","img/30_120.png","74","image-keyboard-response","227","445061","0.0-6.0-1.110","ALGO","4","m","rechts","21","","","object","j","30","true"
"null","<div style=""font-size:60px;"">+</div>","null","html-keyboard-response","228","445513","0.0-6.0-0.111","ALGO","4","m","rechts","21","","fixation","","","",""
"690","img/90_30.png","70","image-keyboard-response","229","446204","0.0-6.0-1.111","ALGO","4","m","rechts","21","","","object","f","90","true"
"null","<div style=""font-size:60px;"">+</div>","null","html-keyboard-response","230","446656","0.0-6.0-0.112","ALGO","4","m","rechts","21","","fixation","","","",""
"764","img/60_180.png","70","image-keyboard-response","231","447421","0.0-6.0-1.112","ALGO","4","m","rechts","21","","","object","f","60","true"
"null","<div style=""font-size:60px;"">+</div>","null","html-keyboard-response","232","447922","0.0-6.0-0.113","ALGO","4","m","rechts","21","","fixation","","","",""
"653","img/0_90.png","74","image-keyboard-response","233","448577","0.0-6.0-1.113","ALGO","4","m","rechts","21","","","object","j","0","true"
"null","<div style=""font-size:60px;"">+</div>","null","html-keyboard-response","234","449078","0.0-6.0-0.114","ALGO","4","m","rechts","21","","fixation","","","",""
"755","img/150_240.png","70","image-keyboard-response","235","449835","0.0-6.0-1.114","ALGO","4","m","rechts","21","","","object","j","150","false"
"null","<div style=""font-size:60px;"">+</div>","null","html-keyboard-response","236","450286","0.0-6.0-0.115","ALGO","4","m","rechts","21","","fixation","","","",""
"1074","img/120_90.png","70","image-keyboard-response","237","451361","0.0-6.0-1.115","ALGO","4","m","rechts","21","","","object","f","120","true"
"null","<div style=""font-size:60px;"">+</div>","null","html-keyboard-response","238","451762","0.0-6.0-0.116","ALGO","4","m","rechts","21","","fixation","","","",""
"1193","img/150_120.png","70","image-keyboard-response","239","452956","0.0-6.0-1.116","ALGO","4","m","rechts","21","","","object","f","150","true"
"null","<div style=""font-size:60px;"">+</div>","null","html-keyboard-response","240","453458","0.0-6.0-0.117","ALGO","4","m","rechts","21","","fixation","","","",""
"825","img/90_240.png","74","image-keyboard-response","241","454284","0.0-6.0-1.117","ALGO","4","m","rechts","21","","","object","f","90","false"
"null","<div style=""font-size:60px;"">+</div>","null","html-keyboard-response","242","454736","0.0-6.0-0.118","ALGO","4","m","rechts","21","","fixation","","","",""
"660","img/0_330.png","70","image-keyboard-response","243","455397","0.0-6.0-1.118","ALGO","4","m","rechts","21","","","object","f","0","true"
"null","<div style=""font-size:60px;"">+</div>","null","html-keyboard-response","244","455849","0.0-6.0-0.119","ALGO","4","m","rechts","21","","fixation","","","",""
"555","img/0_240.png","70","image-keyboard-response","245","456405","0.0-6.0-1.119","ALGO","4","m","rechts","21","","","object","f","0","true"
"null","<div style=""font-size:60px;"">+</div>","null","html-keyboard-response","246","456807","0.0-6.0-0.120","ALGO","4","m","rechts","21","","fixation","","","",""
"645","img/L60_180.png","74","image-keyboard-response","247","457453","0.0-6.0-1.120","ALGO","4","m","rechts","21","","","object","j","60","true"
"null","<div style=""font-size:60px;"">+</div>","null","html-keyboard-response","248","457905","0.0-6.0-0.121","ALGO","4","m","rechts","21","","fixation","","","",""
"719","img/150_300.png","74","image-keyboard-response","249","458624","0.0-6.0-1.121","ALGO","4","m","rechts","21","","","object","j","150","true"
"null","<div style=""font-size:60px;"">+</div>","null","html-keyboard-response","250","459026","0.0-6.0-0.122","ALGO","4","m","rechts","21","","fixation","","","",""
"774","img/30_270.png","70","image-keyboard-response","251","459801","0.0-6.0-1.122","ALGO","4","m","rechts","21","","","object","f","30","true"
"null","<div style=""font-size:60px;"">+</div>","null","html-keyboard-response","252","460103","0.0-6.0-0.123","ALGO","4","m","rechts","21","","fixation","","","",""
"671","img/0_30.png","74","image-keyboard-response","253","460775","0.0-6.0-1.123","ALGO","4","m","rechts","21","","","object","j","0","true"
"null","<div style=""font-size:60px;"">+</div>","null","html-keyboard-response","254","461227","0.0-6.0-0.124","ALGO","4","m","rechts","21","","fixation","","","",""
"709","img/150_60.png","70","image-keyboard-response","255","461937","0.0-6.0-1.124","ALGO","4","m","rechts","21","","","object","f","150","true"
"null","<div style=""font-size:60px;"">+</div>","null","html-keyboard-response","256","462289","0.0-6.0-0.125","ALGO","4","m","rechts","21","","fixation","","","",""
"767","img/60_210.png","70","image-keyboard-response","257","463056","0.0-6.0-1.125","ALGO","4","m","rechts","21","","","object","f","60","true"
"null","<div style=""font-size:60px;"">+</div>","null","html-keyboard-response","258","463408","0.0-6.0-0.126","ALGO","4","m","rechts","21","","fixation","","","",""
"602","img/0_120.png","74","image-keyboard-response","259","464010","0.0-6.0-1.126","ALGO","4","m","rechts","21","","","object","j","0","true"
"null","<div style=""font-size:60px;"">+</div>","null","html-keyboard-response","260","464512","0.0-6.0-0.127","ALGO","4","m","rechts","21","","fixation","","","",""
"959","img/120_150.png","74","image-keyboard-response","261","465472","0.0-6.0-1.127","ALGO","4","m","rechts","21","","","object","j","120","true"
"null","<div style=""font-size:60px;"">+</div>","null","html-keyboard-response","262","465973","0.0-6.0-0.128","ALGO","4","m","rechts","21","","fixation","","","",""
"583","img/0_300.png","70","image-keyboard-response","263","466557","0.0-6.0-1.128","ALGO","4","m","rechts","21","","","object","f","0","true"
"null","<div style=""font-size:60px;"">+</div>","null","html-keyboard-response","264","467009","0.0-6.0-0.129","ALGO","4","m","rechts","21","","fixation","","","",""
"765","img/60_270.png","70","image-keyboard-response","265","467775","0.0-6.0-1.129","ALGO","4","m","rechts","21","","","object","f","60","true"
"null","<div style=""font-size:60px;"">+</div>","null","html-keyboard-response","266","468127","0.0-6.0-0.130","ALGO","4","m","rechts","21","","fixation","","","",""
"635","img/150_90.png","70","image-keyboard-response","267","468763","0.0-6.0-1.130","ALGO","4","m","rechts","21","","","object","f","150","true"
"null","<div style=""font-size:60px;"">+</div>","null","html-keyboard-response","268","469065","0.0-6.0-0.131","ALGO","4","m","rechts","21","","fixation","","","",""
"683","img/L90_180.png","74","image-keyboard-response","269","469749","0.0-6.0-1.131","ALGO","4","m","rechts","21","","","object","j","90","true"
"null","<div style=""font-size:60px;"">+</div>","null","html-keyboard-response","270","470251","0.0-6.0-0.132","ALGO","4","m","rechts","21","","fixation","","","",""
"586","img/60_30.png","70","image-keyboard-response","271","470838","0.0-6.0-1.132","ALGO","4","m","rechts","21","","","object","f","60","true"
"null","<div style=""font-size:60px;"">+</div>","null","html-keyboard-response","272","471240","0.0-6.0-0.133","ALGO","4","m","rechts","21","","fixation","","","",""
"839","img/90_120.png","74","image-keyboard-response","273","472080","0.0-6.0-1.133","ALGO","4","m","rechts","21","","","object","j","90","true"
"null","<div style=""font-size:60px;"">+</div>","null","html-keyboard-response","274","472532","0.0-6.0-0.134","ALGO","4","m","rechts","21","","fixation","","","",""
"630","img/90_300.png","74","image-keyboard-response","275","473163","0.0-6.0-1.134","ALGO","4","m","rechts","21","","","object","j","90","true"
"null","<div style=""font-size:60px;"">+</div>","null","html-keyboard-response","276","473615","0.0-6.0-0.135","ALGO","4","m","rechts","21","","fixation","","","",""
"607","img/90_330.png","74","image-keyboard-response","277","474223","0.0-6.0-1.135","ALGO","4","m","rechts","21","","","object","j","90","true"
"null","<div style=""font-size:60px;"">+</div>","null","html-keyboard-response","278","474724","0.0-6.0-0.136","ALGO","4","m","rechts","21","","fixation","","","",""
"598","img/0_270.png","70","image-keyboard-response","279","475323","0.0-6.0-1.136","ALGO","4","m","rechts","21","","","object","f","0","true"
"null","<div style=""font-size:60px;"">+</div>","null","html-keyboard-response","280","475725","0.0-6.0-0.137","ALGO","4","m","rechts","21","","fixation","","","",""
"591","img/0_60.png","74","image-keyboard-response","281","476316","0.0-6.0-1.137","ALGO","4","m","rechts","21","","","object","j","0","true"
"null","<div style=""font-size:60px;"">+</div>","null","html-keyboard-response","282","476668","0.0-6.0-0.138","ALGO","4","m","rechts","21","","fixation","","","",""
"608","img/60_330.png","74","image-keyboard-response","283","477277","0.0-6.0-1.138","ALGO","4","m","rechts","21","","","object","j","60","true"
"null","<div style=""font-size:60px;"">+</div>","null","html-keyboard-response","284","477679","0.0-6.0-0.139","ALGO","4","m","rechts","21","","fixation","","","",""
"837","img/L120_180.png","74","image-keyboard-response","285","478516","0.0-6.0-1.139","ALGO","4","m","rechts","21","","","object","j","120","true"
"null","<div style=""font-size:60px;"">+</div>","null","html-keyboard-response","286","478968","0.0-6.0-0.140","ALGO","4","m","rechts","21","","fixation","","","",""
"714","img/120_210.png","70","image-keyboard-response","287","479682","0.0-6.0-1.140","ALGO","4","m","rechts","21","","","object","f","120","true"
"null","<div style=""font-size:60px;"">+</div>","null","html-keyboard-response","288","479984","0.0-6.0-0.141","ALGO","4","m","rechts","21","","fixation","","","",""
"680","img/60_150.png","74","image-keyboard-response","289","480664","0.0-6.0-1.141","ALGO","4","m","rechts","21","","","object","j","60","true"
"null","<div style=""font-size:60px;"">+</div>","null","html-keyboard-response","290","481166","0.0-6.0-0.142","ALGO","4","m","rechts","21","","fixation","","","",""
"720","img/L150_180.png","74","image-keyboard-response","291","481886","0.0-6.0-1.142","ALGO","4","m","rechts","21","","","object","j","150","true"
"null","<div style=""font-size:60px;"">+</div>","null","html-keyboard-response","292","482337","0.0-6.0-0.143","ALGO","4","m","rechts","21","","fixation","","","",""
"637","img/0_210.png","70","image-keyboard-response","293","482975","0.0-6.0-1.143","ALGO","4","m","rechts","21","","","object","f","0","true"
"null","<div style=""font-size:60px;"">+</div>","null","html-keyboard-response","294","483326","0.0-6.0-0.144","ALGO","4","m","rechts","21","","fixation","","","",""
"644","img/120_30.png","70","image-keyboard-response","295","483970","0.0-6.0-1.144","ALGO","4","m","rechts","21","","","object","f","120","true"
"null","<div style=""font-size:60px;"">+</div>","null","html-keyboard-response","296","484322","0.0-6.0-0.145","ALGO","4","m","rechts","21","","fixation","","","",""
"926","img/30_300.png","70","image-keyboard-response","297","485249","0.0-6.0-1.145","ALGO","4","m","rechts","21","","","object","f","30","true"
"null","<div style=""font-size:60px;"">+</div>","null","html-keyboard-response","298","485700","0.0-6.0-0.146","ALGO","4","m","rechts","21","","fixation","","","",""
"887","img/90_150.png","74","image-keyboard-response","299","486588","0.0-6.0-1.146","ALGO","4","m","rechts","21","","","object","j","90","true"
"null","<div style=""font-size:60px;"">+</div>","null","html-keyboard-response","300","486990","0.0-6.0-0.147","ALGO","4","m","rechts","21","","fixation","","","",""
"892","img/30_90.png","74","image-keyboard-response","301","487883","0.0-6.0-1.147","ALGO","4","m","rechts","21","","","object","j","30","true"
"null","<div style=""font-size:60px;"">+</div>","null","html-keyboard-response","302","488234","0.0-6.0-0.148","ALGO","4","m","rechts","21","","fixation","","","",""
"905","img/60_90.png","74","image-keyboard-response","303","489140","0.0-6.0-1.148","ALGO","4","m","rechts","21","","","object","j","60","true"
"null","<div style=""font-size:60px;"">+</div>","null","html-keyboard-response","304","489491","0.0-6.0-0.149","ALGO","4","m","rechts","21","","fixation","","","",""
"787","img/90_180.png","70","image-keyboard-response","305","490279","0.0-6.0-1.149","ALGO","4","m","rechts","21","","","object","f","90","true"
"null","<div style=""font-size:60px;"">+</div>","null","html-keyboard-response","306","490581","0.0-6.0-0.150","ALGO","4","m","rechts","21","","fixation","","","",""
"840","img/120_180.png","70","image-keyboard-response","307","491421","0.0-6.0-1.150","ALGO","4","m","rechts","21","","","object","f","120","true"
"null","<div style=""font-size:60px;"">+</div>","null","html-keyboard-response","308","491823","0.0-6.0-0.151","ALGO","4","m","rechts","21","","fixation","","","",""
"760","img/30_240.png","70","image-keyboard-response","309","492584","0.0-6.0-1.151","ALGO","4","m","rechts","21","","","object","f","30","true"
"null","<div style=""font-size:60px;"">+</div>","null","html-keyboard-response","310","492985","0.0-6.0-0.152","ALGO","4","m","rechts","21","","fixation","","","",""
"1065","img/120_270.png","74","image-keyboard-response","311","494052","0.0-6.0-1.152","ALGO","4","m","rechts","21","","","object","j","120","true"
"null","<div style=""font-size:60px;"">+</div>","null","html-keyboard-response","312","494403","0.0-6.0-0.153","ALGO","4","m","rechts","21","","fixation","","","",""
"583","img/150_180.png","70","image-keyboard-response","313","494988","0.0-6.0-1.153","ALGO","4","m","rechts","21","","","object","f","150","true"
"null","<div style=""font-size:60px;"">+</div>","null","html-keyboard-response","314","495339","0.0-6.0-0.154","ALGO","4","m","rechts","21","","fixation","","","",""
"782","img/150_270.png","74","image-keyboard-response","315","496123","0.0-6.0-1.154","ALGO","4","m","rechts","21","","","object","j","150","true"
"null","<div style=""font-size:60px;"">+</div>","null","html-keyboard-response","316","496474","0.0-6.0-0.155","ALGO","4","m","rechts","21","","fixation","","","",""
"917","img/30_60.png","70","image-keyboard-response","317","497392","0.0-6.0-1.155","ALGO","4","m","rechts","21","","","object","j","30","false"
"null","<div style=""font-size:60px;"">+</div>","null","html-keyboard-response","318","497794","0.0-6.0-0.156","ALGO","4","m","rechts","21","","fixation","","","",""
"722","img/L90_180.png","74","image-keyboard-response","319","498518","0.0-6.0-1.156","ALGO","4","m","rechts","21","","","object","j","90","true"
"null","<div style=""font-size:60px;"">+</div>","null","html-keyboard-response","320","498919","0.0-6.0-0.157","ALGO","4","m","rechts","21","","fixation","","","",""
"642","img/0_210.png","70","image-keyboard-response","321","499563","0.0-6.0-1.157","ALGO","4","m","rechts","21","","","object","f","0","true"
"null","<div style=""font-size:60px;"">+</div>","null","html-keyboard-response","322","499914","0.0-6.0-0.158","ALGO","4","m","rechts","21","","fixation","","","",""
"653","img/L30_180.png","74","image-keyboard-response","323","500569","0.0-6.0-1.158","ALGO","4","m","rechts","21","","","object","j","30","true"
"null","<div style=""font-size:60px;"">+</div>","null","html-keyboard-response","324","500920","0.0-6.0-0.159","ALGO","4","m","rechts","21","","fixation","","","",""
"665","img/30_120.png","74","image-keyboard-response","325","501587","0.0-6.0-1.159","ALGO","4","m","rechts","21","","","object","j","30","true"
"null","<div style=""font-size:60px;"">+</div>","null","html-keyboard-response","326","501888","0.0-6.0-0.160","ALGO","4","m","rechts","21","","fixation","","","",""
"610","img/120_210.png","70","image-keyboard-response","327","502499","0.0-6.0-1.160","ALGO","4","m","rechts","21","","","object","f","120","true"
"null","<div style=""font-size:60px;"">+</div>","null","html-keyboard-response","328","502951","0.0-6.0-0.161","ALGO","4","m","rechts","21","","fixation","","","",""
"635","img/120_180.png","70","image-keyboard-response","329","503588","0.0-6.0-1.161","ALGO","4","m","rechts","21","","","object","f","120","true"
"null","<div style=""font-size:60px;"">+</div>","null","html-keyboard-response","330","503989","0.0-6.0-0.162","ALGO","4","m","rechts","21","","fixation","","","",""
"676","img/60_210.png","70","image-keyboard-response","331","504666","0.0-6.0-1.162","ALGO","4","m","rechts","21","","","object","f","60","true"
"null","<div style=""font-size:60px;"">+</div>","null","html-keyboard-response","332","505018","0.0-6.0-0.163","ALGO","4","m","rechts","21","","fixation","","","",""
"805","img/120_270.png","70","image-keyboard-response","333","505824","0.0-6.0-1.163","ALGO","4","m","rechts","21","","","object","j","120","false"
"null","<div style=""font-size:60px;"">+</div>","null","html-keyboard-response","334","506275","0.0-6.0-0.164","ALGO","4","m","rechts","21","","fixation","","","",""
"850","img/120_30.png","70","image-keyboard-response","335","507126","0.0-6.0-1.164","ALGO","4","m","rechts","21","","","object","f","120","true"
"null","<div style=""font-size:60px;"">+</div>","null","html-keyboard-response","336","507428","0.0-6.0-0.165","ALGO","4","m","rechts","21","","fixation","","","",""
"697","img/0_30.png","74","image-keyboard-response","337","508126","0.0-6.0-1.165","ALGO","4","m","rechts","21","","","object","j","0","true"
"null","<div style=""font-size:60px;"">+</div>","null","html-keyboard-response","338","508628","0.0-6.0-0.166","ALGO","4","m","rechts","21","","fixation","","","",""
"796","img/90_60.png","70","image-keyboard-response","339","509425","0.0-6.0-1.166","ALGO","4","m","rechts","21","","","object","f","90","true"
"null","<div style=""font-size:60px;"">+</div>","null","html-keyboard-response","340","509877","0.0-6.0-0.167","ALGO","4","m","rechts","21","","fixation","","","",""
"682","img/30_270.png","70","image-keyboard-response","341","510560","0.0-6.0-1.167","ALGO","4","m","rechts","21","","","object","f","30","true"
"null","<div style=""font-size:60px;"">+</div>","null","html-keyboard-response","342","510862","0.0-6.0-0.168","ALGO","4","m","rechts","21","","fixation","","","",""
"1156","img/150_300.png","74","image-keyboard-response","343","512019","0.0-6.0-1.168","ALGO","4","m","rechts","21","","","object","j","150","true"
"null","<div style=""font-size:60px;"">+</div>","null","html-keyboard-response","344","512421","0.0-6.0-0.169","ALGO","4","m","rechts","21","","fixation","","","",""
"866","img/120_150.png","74","image-keyboard-response","345","513288","0.0-6.0-1.169","ALGO","4","m","rechts","21","","","object","j","120","true"
"null","<div style=""font-size:60px;"">+</div>","null","html-keyboard-response","346","513690","0.0-6.0-0.170","ALGO","4","m","rechts","21","","fixation","","","",""
"687","img/0_60.png","74","image-keyboard-response","347","514378","0.0-6.0-1.170","ALGO","4","m","rechts","21","","","object","j","0","true"
"null","<div style=""font-size:60px;"">+</div>","null","html-keyboard-response","348","514780","0.0-6.0-0.171","ALGO","4","m","rechts","21","","fixation","","","",""
"649","img/60_180.png","70","image-keyboard-response","349","515430","0.0-6.0-1.171","ALGO","4","m","rechts","21","","","object","f","60","true"
"null","<div style=""font-size:60px;"">+</div>","null","html-keyboard-response","350","515932","0.0-6.0-0.172","ALGO","4","m","rechts","21","","fixation","","","",""
"730","img/90_180.png","70","image-keyboard-response","351","516663","0.0-6.0-1.172","ALGO","4","m","rechts","21","","","object","f","90","true"
"null","<div style=""font-size:60px;"">+</div>","null","html-keyboard-response","352","517164","0.0-6.0-0.173","ALGO","4","m","rechts","21","","fixation","","","",""
"593","img/L120_180.png","74","image-keyboard-response","353","517758","0.0-6.0-1.173","ALGO","4","m","rechts","21","","","object","j","120","true"
"null","<div style=""font-size:60px;"">+</div>","null","html-keyboard-response","354","518259","0.0-6.0-0.174","ALGO","4","m","rechts","21","","fixation","","","",""
"636","img/150_60.png","70","image-keyboard-response","355","518897","0.0-6.0-1.174","ALGO","4","m","rechts","21","","","object","f","150","true"
"null","<div style=""font-size:60px;"">+</div>","null","html-keyboard-response","356","519399","0.0-6.0-0.175","ALGO","4","m","rechts","21","","fixation","","","",""
"707","img/L60_180.png","74","image-keyboard-response","357","520106","0.0-6.0-1.175","ALGO","4","m","rechts","21","","","object","j","60","true"
"null","<div style=""font-size:60px;"">+</div>","null","html-keyboard-response","358","520608","0.0-6.0-0.176","ALGO","4","m","rechts","21","","fixation","","","",""
"912","img/30_60.png","74","image-keyboard-response","359","521522","0.0-6.0-1.176","ALGO","4","m","rechts","21","","","object","j","30","true"
"null","<div style=""font-size:60px;"">+</div>","null","html-keyboard-response","360","521824","0.0-6.0-0.177","ALGO","4","m","rechts","21","","fixation","","","",""
"622","img/150_180.png","70","image-keyboard-response","361","522446","0.0-6.0-1.177","ALGO","4","m","rechts","21","","","object","f","150","true"
"null","<div style=""font-size:60px;"">+</div>","null","html-keyboard-response","362","522748","0.0-6.0-0.178","ALGO","4","m","rechts","21","","fixation","","","",""
"667","img/30_180.png","70","image-keyboard-response","363","523416","0.0-6.0-1.178","ALGO","4","m","rechts","21","","","object","f","30","true"
"null","<div style=""font-size:60px;"">+</div>","null","html-keyboard-response","364","523767","0.0-6.0-0.179","ALGO","4","m","rechts","21","","fixation","","","",""
"630","img/90_300.png","74","image-keyboard-response","365","524398","0.0-6.0-1.179","ALGO","4","m","rechts","21","","","object","j","90","true"
"null","<div style=""font-size:60px;"">+</div>","null","html-keyboard-response","366","524750","0.0-6.0-0.180","ALGO","4","m","rechts","21","","fixation","","","",""
"616","img/0_240.png","70","image-keyboard-response","367","525367","0.0-6.0-1.180","ALGO","4","m","rechts","21","","","object","f","0","true"
"null","<div style=""font-size:60px;"">+</div>","null","html-keyboard-response","368","525669","0.0-6.0-0.181","ALGO","4","m","rechts","21","","fixation","","","",""
"761","img/30_300.png","74","image-keyboard-response","369","526432","0.0-6.0-1.181","ALGO","4","m","rechts","21","","","object","f","30","false"
"null","<div style=""font-size:60px;"">+</div>","null","html-keyboard-response","370","526933","0.0-6.0-0.182","ALGO","4","m","rechts","21","","fixation","","","",""
"782","img/30_90.png","74","image-keyboard-response","371","527716","0.0-6.0-1.182","ALGO","4","m","rechts","21","","","object","j","30","true"
"null","<div style=""font-size:60px;"">+</div>","null","html-keyboard-response","372","528018","0.0-6.0-0.183","ALGO","4","m","rechts","21","","fixation","","","",""
"841","img/90_240.png","74","image-keyboard-response","373","528859","0.0-6.0-1.183","ALGO","4","m","rechts","21","","","object","f","90","false"
"null","<div style=""font-size:60px;"">+</div>","null","html-keyboard-response","374","529361","0.0-6.0-0.184","ALGO","4","m","rechts","21","","fixation","","","",""
"647","img/0_330.png","70","image-keyboard-response","375","530009","0.0-6.0-1.184","ALGO","4","m","rechts","21","","","object","f","0","true"
"null","<div style=""font-size:60px;"">+</div>","null","html-keyboard-response","376","530310","0.0-6.0-0.185","ALGO","4","m","rechts","21","","fixation","","","",""
"788","img/90_120.png","74","image-keyboard-response","377","531099","0.0-6.0-1.185","ALGO","4","m","rechts","21","","","object","j","90","true"
"null","<div style=""font-size:60px;"">+</div>","null","html-keyboard-response","378","531550","0.0-6.0-0.186","ALGO","4","m","rechts","21","","fixation","","","",""
"619","img/0_300.png","70","image-keyboard-response","379","532169","0.0-6.0-1.186","ALGO","4","m","rechts","21","","","object","f","0","true"
"null","<div style=""font-size:60px;"">+</div>","null","html-keyboard-response","380","532671","0.0-6.0-0.187","ALGO","4","m","rechts","21","","fixation","","","",""
"603","img/60_30.png","70","image-keyboard-response","381","533275","0.0-6.0-1.187","ALGO","4","m","rechts","21","","","object","f","60","true"
"null","<div style=""font-size:60px;"">+</div>","null","html-keyboard-response","382","533727","0.0-6.0-0.188","ALGO","4","m","rechts","21","","fixation","","","",""
"521","img/90_30.png","70","image-keyboard-response","383","534249","0.0-6.0-1.188","ALGO","4","m","rechts","21","","","object","f","90","true"
"null","<div style=""font-size:60px;"">+</div>","null","html-keyboard-response","384","534701","0.0-6.0-0.189","ALGO","4","m","rechts","21","","fixation","","","",""
"829","img/90_150.png","70","image-keyboard-response","385","535532","0.0-6.0-1.189","ALGO","4","m","rechts","21","","","object","j","90","false"
"null","<div style=""font-size:60px;"">+</div>","null","html-keyboard-response","386","535933","0.0-6.0-0.190","ALGO","4","m","rechts","21","","fixation","","","",""
"916","img/150_120.png","74","image-keyboard-response","387","536850","0.0-6.0-1.190","ALGO","4","m","rechts","21","","","object","f","150","false"
"null","<div style=""font-size:60px;"">+</div>","null","html-keyboard-response","388","537302","0.0-6.0-0.191","ALGO","4","m","rechts","21","","fixation","","","",""
"765","img/30_240.png","70","image-keyboard-response","389","538067","0.0-6.0-1.191","ALGO","4","m","rechts","21","","","object","f","30","true"
"null","<div style=""font-size:60px;"">+</div>","null","html-keyboard-response","390","538569","0.0-6.0-0.192","ALGO","4","m","rechts","21","","fixation","","","",""
"586","img/90_330.png","74","image-keyboard-response","391","539156","0.0-6.0-1.192","ALGO","4","m","rechts","21","","","object","j","90","true"
"null","<div style=""font-size:60px;"">+</div>","null","html-keyboard-response","392","539658","0.0-6.0-0.193","ALGO","4","m","rechts","21","","fixation","","","",""
"608","img/0_270.png","70","image-keyboard-response","393","540267","0.0-6.0-1.193","ALGO","4","m","rechts","21","","","object","f","0","true"
"null","<div style=""font-size:60px;"">+</div>","null","html-keyboard-response","394","540669","0.0-6.0-0.194","ALGO","4","m","rechts","21","","fixation","","","",""
"745","img/60_270.png","70","image-keyboard-response","395","541415","0.0-6.0-1.194","ALGO","4","m","rechts","21","","","object","f","60","true"
"null","<div style=""font-size:60px;"">+</div>","null","html-keyboard-response","396","541867","0.0-6.0-0.195","ALGO","4","m","rechts","21","","fixation","","","",""
"597","img/0_150.png","74","image-keyboard-response","397","542466","0.0-6.0-1.195","ALGO","4","m","rechts","21","","","object","j","0","true"
"null","<div style=""font-size:60px;"">+</div>","null","html-keyboard-response","398","542867","0.0-6.0-0.196","ALGO","4","m","rechts","21","","fixation","","","",""
"897","img/150_270.png","74","image-keyboard-response","399","543765","0.0-6.0-1.196","ALGO","4","m","rechts","21","","","object","j","150","true"
"null","<div style=""font-size:60px;"">+</div>","null","html-keyboard-response","400","544067","0.0-6.0-0.197","ALGO","4","m","rechts","21","","fixation","","","",""
"654","img/0_90.png","74","image-keyboard-response","401","544722","0.0-6.0-1.197","ALGO","4","m","rechts","21","","","object","j","0","true"
"null","<div style=""font-size:60px;"">+</div>","null","html-keyboard-response","402","545224","0.0-6.0-0.198","ALGO","4","m","rechts","21","","fixation","","","",""
"688","img/120_330.png","74","image-keyboard-response","403","545912","0.0-6.0-1.198","ALGO","4","m","rechts","21","","","object","j","120","true"
"null","<div style=""font-size:60px;"">+</div>","null","html-keyboard-response","404","546414","0.0-6.0-0.199","ALGO","4","m","rechts","21","","fixation","","","",""
"554","img/60_330.png","74","image-keyboard-response","405","546968","0.0-6.0-1.199","ALGO","4","m","rechts","21","","","object","j","60","true"
"null","<div style=""font-size:60px;"">+</div>","null","html-keyboard-response","406","547319","0.0-6.0-0.200","ALGO","4","m","rechts","21","","fixation","","","",""
"947","img/120_90.png","70","image-keyboard-response","407","548267","0.0-6.0-1.200","ALGO","4","m","rechts","21","","","object","f","120","true"
"null","<div style=""font-size:60px;"">+</div>","null","html-keyboard-response","408","548619","0.0-6.0-0.201","ALGO","4","m","rechts","21","","fixation","","","",""
"1096","img/150_240.png","74","image-keyboard-response","409","549716","0.0-6.0-1.201","ALGO","4","m","rechts","21","","","object","j","150","true"
"null","<div style=""font-size:60px;"">+</div>","null","html-keyboard-response","410","550068","0.0-6.0-0.202","ALGO","4","m","rechts","21","","fixation","","","",""
"644","img/0_120.png","74","image-keyboard-response","411","550713","0.0-6.0-1.202","ALGO","4","m","rechts","21","","","object","j","0","true"
"null","<div style=""font-size:60px;"">+</div>","null","html-keyboard-response","412","551215","0.0-6.0-0.203","ALGO","4","m","rechts","21","","fixation","","","",""
"579","img/150_90.png","70","image-keyboard-response","413","551795","0.0-6.0-1.203","ALGO","4","m","rechts","21","","","object","f","150","true"
"null","<div style=""font-size:60px;"">+</div>","null","html-keyboard-response","414","552197","0.0-6.0-0.204","ALGO","4","m","rechts","21","","fixation","","","",""
"754","img/60_150.png","74","image-keyboard-response","415","552952","0.0-6.0-1.204","ALGO","4","m","rechts","21","","","object","j","60","true"
"null","<div style=""font-size:60px;"">+</div>","null","html-keyboard-response","416","553404","0.0-6.0-0.205","ALGO","4","m","rechts","21","","fixation","","","",""
"627","img/L150_180.png","74","image-keyboard-response","417","554032","0.0-6.0-1.205","ALGO","4","m","rechts","21","","","object","j","150","true"
"null","<div style=""font-size:60px;"">+</div>","null","html-keyboard-response","418","554334","0.0-6.0-0.206","ALGO","4","m","rechts","21","","fixation","","","",""
"655","img/90_210.png","70","image-keyboard-response","419","554990","0.0-6.0-1.206","ALGO","4","m","rechts","21","","","object","f","90","true"
"null","<div style=""font-size:60px;"">+</div>","null","html-keyboard-response","420","555342","0.0-6.0-0.207","ALGO","4","m","rechts","21","","fixation","","","",""
"795","img/60_90.png","70","image-keyboard-response","421","556138","0.0-6.0-1.207","ALGO","4","m","rechts","21","","","object","j","60","false"
"30586","<p>Du hast in 87% der Versuche korrekt entschieden.</p><p>Deine durchschnittliche Reaktionszeit war  754ms.</p><p>Dr&uuml;cke eine beliebige Taste, um die Session zu beenden. Vielen Dank!</p>","71","html-keyboard-response","422","586725","0.0-7.0","ALGO","4","m","rechts","21","","","","","",""
