"rt","stimulus","key_press","trial_type","trial_index","time_elapsed","internal_node_id","subject","session","sex","handedness","age","responses","test_part","condition","correct_response","angle","correct"
"1257","<p>Mental Rotation Experiment.</p> <p>Dr&uuml;cke eine beliebige Taste, um anzufangen.</p>","71","html-keyboard-response","0","1257","0.0-0.0","ALGO","3","m","rechts","21","","","","","",""
"11192","","","survey-text","1","12451","0.0-1.0","ALGO","3","m","rechts","21","{""Q0"":""ALGO""}","","","","",""
"4778","","","survey-text","2","17231","0.0-2.0","ALGO","3","m","rechts","21","{""Q0"":""3""}","","","","",""
"6546","","","survey-multi-choice","3","23779","0.0-3.0","ALGO","3","m","rechts","21","{""Q0"":""m"",""Q1"":""rechts""}","","","","",""
"3064","","","survey-text","4","26843","0.0-4.0","ALGO","3","m","rechts","21","{""Q0"":""21""}","","","","",""
"193482","<p>Stell dir vor, dass du vor einem runden Tisch stehst, auf dem sich ein blauer Ball am Tischrand befindet. Entlang des Tischrands ist jeweils ein verschieden langer Pfeil. Nun bleibst du an deinem Platz vor dem Tisch und rotierst den Tisch entlang des Pfeils (gleiche Richtung und Länge). </p> <img src='img/30_180.png'></img> <br><p> Nachdem du diese (vorgestellte) Rotation durchgef&uuml;hrt hast, schau in Richtung der Tischmitte, und entscheide dann, ob der Ball links oder rechts von dir liegt.</p> <p>Dr&uuml;cke die <strong>'f'</strong>-Taste f&uuml;r links, die <strong>'j'</strong>-Taste f&uuml;r rechts.</p><br><p> Das Bild wird jeweils 1 Sekunde lang pr&auml;sentiert. Du hast 3 Sekunden Zeit eine Entscheidung zu treffen.</p>","74","html-keyboard-response","5","220328","0.0-5.0","ALGO","3","m","rechts","21","","","","","",""
"null","<div style=""font-size:60px;"">+</div>","null","html-keyboard-response","6","221832","0.0-6.0-0.0","ALGO","3","m","rechts","21","","fixation","","","",""
"859","img/30_300.png","70","image-keyboard-response","7","222693","0.0-6.0-1.0","ALGO","3","m","rechts","21","","","object","f","30","true"
"null","<div style=""font-size:60px;"">+</div>","null","html-keyboard-response","8","223094","0.0-6.0-0.1","ALGO","3","m","rechts","21","","fixation","","","",""
"858","img/60_90.png","70","image-keyboard-response","9","223953","0.0-6.0-1.1","ALGO","3","m","rechts","21","","","object","j","60","false"
"null","<div style=""font-size:60px;"">+</div>","null","html-keyboard-response","10","224455","0.0-6.0-0.2","ALGO","3","m","rechts","21","","fixation","","","",""
"790","img/60_270.png","74","image-keyboard-response","11","225246","0.0-6.0-1.2","ALGO","3","m","rechts","21","","","object","f","60","false"
"null","<div style=""font-size:60px;"">+</div>","null","html-keyboard-response","12","225548","0.0-6.0-0.3","ALGO","3","m","rechts","21","","fixation","","","",""
"891","img/120_90.png","70","image-keyboard-response","13","226440","0.0-6.0-1.3","ALGO","3","m","rechts","21","","","object","f","120","true"
"null","<div style=""font-size:60px;"">+</div>","null","html-keyboard-response","14","226892","0.0-6.0-0.4","ALGO","3","m","rechts","21","","fixation","","","",""
"903","img/L90_180.png","74","image-keyboard-response","15","227798","0.0-6.0-1.4","ALGO","3","m","rechts","21","","","object","j","90","true"
"null","<div style=""font-size:60px;"">+</div>","null","html-keyboard-response","16","228149","0.0-6.0-0.5","ALGO","3","m","rechts","21","","fixation","","","",""
"797","img/0_30.png","74","image-keyboard-response","17","228947","0.0-6.0-1.5","ALGO","3","m","rechts","21","","","object","j","0","true"
"null","<div style=""font-size:60px;"">+</div>","null","html-keyboard-response","18","229249","0.0-6.0-0.6","ALGO","3","m","rechts","21","","fixation","","","",""
"878","img/L150_180.png","74","image-keyboard-response","19","230128","0.0-6.0-1.6","ALGO","3","m","rechts","21","","","object","j","150","true"
"null","<div style=""font-size:60px;"">+</div>","null","html-keyboard-response","20","230480","0.0-6.0-0.7","ALGO","3","m","rechts","21","","fixation","","","",""
"816","img/0_90.png","74","image-keyboard-response","21","231298","0.0-6.0-1.7","ALGO","3","m","rechts","21","","","object","j","0","true"
"null","<div style=""font-size:60px;"">+</div>","null","html-keyboard-response","22","231649","0.0-6.0-0.8","ALGO","3","m","rechts","21","","fixation","","","",""
"764","img/0_150.png","74","image-keyboard-response","23","232414","0.0-6.0-1.8","ALGO","3","m","rechts","21","","","object","j","0","true"
"null","<div style=""font-size:60px;"">+</div>","null","html-keyboard-response","24","232916","0.0-6.0-0.9","ALGO","3","m","rechts","21","","fixation","","","",""
"800","img/60_150.png","74","image-keyboard-response","25","233717","0.0-6.0-1.9","ALGO","3","m","rechts","21","","","object","j","60","true"
"null","<div style=""font-size:60px;"">+</div>","null","html-keyboard-response","26","234019","0.0-6.0-0.10","ALGO","3","m","rechts","21","","fixation","","","",""
"825","img/90_300.png","74","image-keyboard-response","27","234845","0.0-6.0-1.10","ALGO","3","m","rechts","21","","","object","j","90","true"
"null","<div style=""font-size:60px;"">+</div>","null","html-keyboard-response","28","235297","0.0-6.0-0.11","ALGO","3","m","rechts","21","","fixation","","","",""
"838","img/90_150.png","74","image-keyboard-response","29","236136","0.0-6.0-1.11","ALGO","3","m","rechts","21","","","object","j","90","true"
"null","<div style=""font-size:60px;"">+</div>","null","html-keyboard-response","30","236437","0.0-6.0-0.12","ALGO","3","m","rechts","21","","fixation","","","",""
"1095","img/90_240.png","74","image-keyboard-response","31","237533","0.0-6.0-1.12","ALGO","3","m","rechts","21","","","object","f","90","false"
"null","<div style=""font-size:60px;"">+</div>","null","html-keyboard-response","32","237885","0.0-6.0-0.13","ALGO","3","m","rechts","21","","fixation","","","",""
"908","img/30_180.png","70","image-keyboard-response","33","238794","0.0-6.0-1.13","ALGO","3","m","rechts","21","","","object","f","30","true"
"null","<div style=""font-size:60px;"">+</div>","null","html-keyboard-response","34","239096","0.0-6.0-0.14","ALGO","3","m","rechts","21","","fixation","","","",""
"1140","img/150_120.png","70","image-keyboard-response","35","240237","0.0-6.0-1.14","ALGO","3","m","rechts","21","","","object","f","150","true"
"null","<div style=""font-size:60px;"">+</div>","null","html-keyboard-response","36","240639","0.0-6.0-0.15","ALGO","3","m","rechts","21","","fixation","","","",""
"696","img/0_240.png","70","image-keyboard-response","37","241337","0.0-6.0-1.15","ALGO","3","m","rechts","21","","","object","f","0","true"
"null","<div style=""font-size:60px;"">+</div>","null","html-keyboard-response","38","241689","0.0-6.0-0.16","ALGO","3","m","rechts","21","","fixation","","","",""
"644","img/0_270.png","70","image-keyboard-response","39","242334","0.0-6.0-1.16","ALGO","3","m","rechts","21","","","object","f","0","true"
"null","<div style=""font-size:60px;"">+</div>","null","html-keyboard-response","40","242686","0.0-6.0-0.17","ALGO","3","m","rechts","21","","fixation","","","",""
"870","img/90_180.png","70","image-keyboard-response","41","243557","0.0-6.0-1.17","ALGO","3","m","rechts","21","","","object","f","90","true"
"null","<div style=""font-size:60px;"">+</div>","null","html-keyboard-response","42","243909","0.0-6.0-0.18","ALGO","3","m","rechts","21","","fixation","","","",""
"1066","img/150_90.png","70","image-keyboard-response","43","244975","0.0-6.0-1.18","ALGO","3","m","rechts","21","","","object","f","150","true"
"null","<div style=""font-size:60px;"">+</div>","null","html-keyboard-response","44","245276","0.0-6.0-0.19","ALGO","3","m","rechts","21","","fixation","","","",""
"742","img/90_60.png","70","image-keyboard-response","45","246019","0.0-6.0-1.19","ALGO","3","m","rechts","21","","","object","f","90","true"
"null","<div style=""font-size:60px;"">+</div>","null","html-keyboard-response","46","246370","0.0-6.0-0.20","ALGO","3","m","rechts","21","","fixation","","","",""
"931","img/60_180.png","70","image-keyboard-response","47","247302","0.0-6.0-1.20","ALGO","3","m","rechts","21","","","object","f","60","true"
"null","<div style=""font-size:60px;"">+</div>","null","html-keyboard-response","48","247654","0.0-6.0-0.21","ALGO","3","m","rechts","21","","fixation","","","",""
"773","img/0_330.png","70","image-keyboard-response","49","248428","0.0-6.0-1.21","ALGO","3","m","rechts","21","","","object","f","0","true"
"null","<div style=""font-size:60px;"">+</div>","null","html-keyboard-response","50","248930","0.0-6.0-0.22","ALGO","3","m","rechts","21","","fixation","","","",""
"713","img/120_330.png","74","image-keyboard-response","51","249644","0.0-6.0-1.22","ALGO","3","m","rechts","21","","","object","j","120","true"
"null","<div style=""font-size:60px;"">+</div>","null","html-keyboard-response","52","250146","0.0-6.0-0.23","ALGO","3","m","rechts","21","","fixation","","","",""
"742","img/0_60.png","74","image-keyboard-response","53","250889","0.0-6.0-1.23","ALGO","3","m","rechts","21","","","object","j","0","true"
"null","<div style=""font-size:60px;"">+</div>","null","html-keyboard-response","54","251291","0.0-6.0-0.24","ALGO","3","m","rechts","21","","fixation","","","",""
"664","img/90_330.png","74","image-keyboard-response","55","251956","0.0-6.0-1.24","ALGO","3","m","rechts","21","","","object","j","90","true"
"null","<div style=""font-size:60px;"">+</div>","null","html-keyboard-response","56","252458","0.0-6.0-0.25","ALGO","3","m","rechts","21","","fixation","","","",""
"641","img/0_210.png","70","image-keyboard-response","57","253100","0.0-6.0-1.25","ALGO","3","m","rechts","21","","","object","f","0","true"
"null","<div style=""font-size:60px;"">+</div>","null","html-keyboard-response","58","253602","0.0-6.0-0.26","ALGO","3","m","rechts","21","","fixation","","","",""
"602","img/60_30.png","70","image-keyboard-response","59","254206","0.0-6.0-1.26","ALGO","3","m","rechts","21","","","object","f","60","true"
"null","<div style=""font-size:60px;"">+</div>","null","html-keyboard-response","60","254658","0.0-6.0-0.27","ALGO","3","m","rechts","21","","fixation","","","",""
"602","img/0_300.png","70","image-keyboard-response","61","255261","0.0-6.0-1.27","ALGO","3","m","rechts","21","","","object","f","0","true"
"null","<div style=""font-size:60px;"">+</div>","null","html-keyboard-response","62","255763","0.0-6.0-0.28","ALGO","3","m","rechts","21","","fixation","","","",""
"726","img/120_150.png","74","image-keyboard-response","63","256490","0.0-6.0-1.28","ALGO","3","m","rechts","21","","","object","j","120","true"
"null","<div style=""font-size:60px;"">+</div>","null","html-keyboard-response","64","256892","0.0-6.0-0.29","ALGO","3","m","rechts","21","","fixation","","","",""
"670","img/0_120.png","74","image-keyboard-response","65","257563","0.0-6.0-1.29","ALGO","3","m","rechts","21","","","object","j","0","true"
"null","<div style=""font-size:60px;"">+</div>","null","html-keyboard-response","66","258065","0.0-6.0-0.30","ALGO","3","m","rechts","21","","fixation","","","",""
"773","img/150_240.png","70","image-keyboard-response","67","258839","0.0-6.0-1.30","ALGO","3","m","rechts","21","","","object","j","150","false"
"null","<div style=""font-size:60px;"">+</div>","null","html-keyboard-response","68","259341","0.0-6.0-0.31","ALGO","3","m","rechts","21","","fixation","","","",""
"941","img/30_60.png","74","image-keyboard-response","69","260283","0.0-6.0-1.31","ALGO","3","m","rechts","21","","","object","j","30","true"
"null","<div style=""font-size:60px;"">+</div>","null","html-keyboard-response","70","260634","0.0-6.0-0.32","ALGO","3","m","rechts","21","","fixation","","","",""
"916","img/L60_180.png","74","image-keyboard-response","71","261551","0.0-6.0-1.32","ALGO","3","m","rechts","21","","","object","j","60","true"
"null","<div style=""font-size:60px;"">+</div>","null","html-keyboard-response","72","262003","0.0-6.0-0.33","ALGO","3","m","rechts","21","","fixation","","","",""
"810","img/30_90.png","74","image-keyboard-response","73","262814","0.0-6.0-1.33","ALGO","3","m","rechts","21","","","object","j","30","true"
"null","<div style=""font-size:60px;"">+</div>","null","html-keyboard-response","74","263115","0.0-6.0-0.34","ALGO","3","m","rechts","21","","fixation","","","",""
"888","img/150_300.png","74","image-keyboard-response","75","264005","0.0-6.0-1.34","ALGO","3","m","rechts","21","","","object","j","150","true"
"null","<div style=""font-size:60px;"">+</div>","null","html-keyboard-response","76","264306","0.0-6.0-0.35","ALGO","3","m","rechts","21","","fixation","","","",""
"761","img/90_30.png","70","image-keyboard-response","77","265069","0.0-6.0-1.35","ALGO","3","m","rechts","21","","","object","f","90","true"
"null","<div style=""font-size:60px;"">+</div>","null","html-keyboard-response","78","265420","0.0-6.0-0.36","ALGO","3","m","rechts","21","","fixation","","","",""
"811","img/120_270.png","74","image-keyboard-response","79","266232","0.0-6.0-1.36","ALGO","3","m","rechts","21","","","object","j","120","true"
"null","<div style=""font-size:60px;"">+</div>","null","html-keyboard-response","80","266733","0.0-6.0-0.37","ALGO","3","m","rechts","21","","fixation","","","",""
"669","img/150_180.png","70","image-keyboard-response","81","267403","0.0-6.0-1.37","ALGO","3","m","rechts","21","","","object","f","150","true"
"null","<div style=""font-size:60px;"">+</div>","null","html-keyboard-response","82","267804","0.0-6.0-0.38","ALGO","3","m","rechts","21","","fixation","","","",""
"750","img/30_240.png","70","image-keyboard-response","83","268556","0.0-6.0-1.38","ALGO","3","m","rechts","21","","","object","f","30","true"
"null","<div style=""font-size:60px;"">+</div>","null","html-keyboard-response","84","268857","0.0-6.0-0.39","ALGO","3","m","rechts","21","","fixation","","","",""
"934","img/L30_180.png","74","image-keyboard-response","85","269793","0.0-6.0-1.39","ALGO","3","m","rechts","21","","","object","j","30","true"
"null","<div style=""font-size:60px;"">+</div>","null","html-keyboard-response","86","270094","0.0-6.0-0.40","ALGO","3","m","rechts","21","","fixation","","","",""
"840","img/90_210.png","70","image-keyboard-response","87","270935","0.0-6.0-1.40","ALGO","3","m","rechts","21","","","object","f","90","true"
"null","<div style=""font-size:60px;"">+</div>","null","html-keyboard-response","88","271437","0.0-6.0-0.41","ALGO","3","m","rechts","21","","fixation","","","",""
"805","img/150_60.png","70","image-keyboard-response","89","272244","0.0-6.0-1.41","ALGO","3","m","rechts","21","","","object","f","150","true"
"null","<div style=""font-size:60px;"">+</div>","null","html-keyboard-response","90","272645","0.0-6.0-0.42","ALGO","3","m","rechts","21","","fixation","","","",""
"808","img/L120_180.png","74","image-keyboard-response","91","273457","0.0-6.0-1.42","ALGO","3","m","rechts","21","","","object","j","120","true"
"null","<div style=""font-size:60px;"">+</div>","null","html-keyboard-response","92","273909","0.0-6.0-0.43","ALGO","3","m","rechts","21","","fixation","","","",""
"813","img/30_270.png","74","image-keyboard-response","93","274724","0.0-6.0-1.43","ALGO","3","m","rechts","21","","","object","f","30","false"
"null","<div style=""font-size:60px;"">+</div>","null","html-keyboard-response","94","275175","0.0-6.0-0.44","ALGO","3","m","rechts","21","","fixation","","","",""
"863","img/120_210.png","70","image-keyboard-response","95","276040","0.0-6.0-1.44","ALGO","3","m","rechts","21","","","object","f","120","true"
"null","<div style=""font-size:60px;"">+</div>","null","html-keyboard-response","96","276391","0.0-6.0-0.45","ALGO","3","m","rechts","21","","fixation","","","",""
"929","img/90_120.png","74","image-keyboard-response","97","277322","0.0-6.0-1.45","ALGO","3","m","rechts","21","","","object","j","90","true"
"null","<div style=""font-size:60px;"">+</div>","null","html-keyboard-response","98","277823","0.0-6.0-0.46","ALGO","3","m","rechts","21","","fixation","","","",""
"787","img/150_270.png","74","image-keyboard-response","99","278611","0.0-6.0-1.46","ALGO","3","m","rechts","21","","","object","j","150","true"
"null","<div style=""font-size:60px;"">+</div>","null","html-keyboard-response","100","279113","0.0-6.0-0.47","ALGO","3","m","rechts","21","","fixation","","","",""
"755","img/120_30.png","70","image-keyboard-response","101","279869","0.0-6.0-1.47","ALGO","3","m","rechts","21","","","object","f","120","true"
"null","<div style=""font-size:60px;"">+</div>","null","html-keyboard-response","102","280371","0.0-6.0-0.48","ALGO","3","m","rechts","21","","fixation","","","",""
"684","img/60_330.png","74","image-keyboard-response","103","281056","0.0-6.0-1.48","ALGO","3","m","rechts","21","","","object","j","60","true"
"null","<div style=""font-size:60px;"">+</div>","null","html-keyboard-response","104","281358","0.0-6.0-0.49","ALGO","3","m","rechts","21","","fixation","","","",""
"810","img/60_210.png","70","image-keyboard-response","105","282169","0.0-6.0-1.49","ALGO","3","m","rechts","21","","","object","f","60","true"
"null","<div style=""font-size:60px;"">+</div>","null","html-keyboard-response","106","282671","0.0-6.0-0.50","ALGO","3","m","rechts","21","","fixation","","","",""
"735","img/30_120.png","74","image-keyboard-response","107","283408","0.0-6.0-1.50","ALGO","3","m","rechts","21","","","object","j","30","true"
"null","<div style=""font-size:60px;"">+</div>","null","html-keyboard-response","108","283809","0.0-6.0-0.51","ALGO","3","m","rechts","21","","fixation","","","",""
"730","img/120_180.png","70","image-keyboard-response","109","284542","0.0-6.0-1.51","ALGO","3","m","rechts","21","","","object","f","120","true"
"null","<div style=""font-size:60px;"">+</div>","null","html-keyboard-response","110","285044","0.0-6.0-0.52","ALGO","3","m","rechts","21","","fixation","","","",""
"684","img/60_30.png","70","image-keyboard-response","111","285728","0.0-6.0-1.52","ALGO","3","m","rechts","21","","","object","f","60","true"
"null","<div style=""font-size:60px;"">+</div>","null","html-keyboard-response","112","286230","0.0-6.0-0.53","ALGO","3","m","rechts","21","","fixation","","","",""
"819","img/30_300.png","70","image-keyboard-response","113","287050","0.0-6.0-1.53","ALGO","3","m","rechts","21","","","object","f","30","true"
"null","<div style=""font-size:60px;"">+</div>","null","html-keyboard-response","114","287502","0.0-6.0-0.54","ALGO","3","m","rechts","21","","fixation","","","",""
"684","img/60_330.png","74","image-keyboard-response","115","288187","0.0-6.0-1.54","ALGO","3","m","rechts","21","","","object","j","60","true"
"null","<div style=""font-size:60px;"">+</div>","null","html-keyboard-response","116","288589","0.0-6.0-0.55","ALGO","3","m","rechts","21","","fixation","","","",""
"872","img/60_270.png","70","image-keyboard-response","117","289462","0.0-6.0-1.55","ALGO","3","m","rechts","21","","","object","f","60","true"
"null","<div style=""font-size:60px;"">+</div>","null","html-keyboard-response","118","289964","0.0-6.0-0.56","ALGO","3","m","rechts","21","","fixation","","","",""
"687","img/120_90.png","70","image-keyboard-response","119","290652","0.0-6.0-1.56","ALGO","3","m","rechts","21","","","object","f","120","true"
"null","<div style=""font-size:60px;"">+</div>","null","html-keyboard-response","120","291054","0.0-6.0-0.57","ALGO","3","m","rechts","21","","fixation","","","",""
"735","img/0_30.png","74","image-keyboard-response","121","291790","0.0-6.0-1.57","ALGO","3","m","rechts","21","","","object","j","0","true"
"null","<div style=""font-size:60px;"">+</div>","null","html-keyboard-response","122","292292","0.0-6.0-0.58","ALGO","3","m","rechts","21","","fixation","","","",""
"708","img/0_90.png","74","image-keyboard-response","123","293001","0.0-6.0-1.58","ALGO","3","m","rechts","21","","","object","j","0","true"
"null","<div style=""font-size:60px;"">+</div>","null","html-keyboard-response","124","293403","0.0-6.0-0.59","ALGO","3","m","rechts","21","","fixation","","","",""
"744","img/90_300.png","74","image-keyboard-response","125","294149","0.0-6.0-1.59","ALGO","3","m","rechts","21","","","object","j","90","true"
"null","<div style=""font-size:60px;"">+</div>","null","html-keyboard-response","126","294501","0.0-6.0-0.60","ALGO","3","m","rechts","21","","fixation","","","",""
"849","img/L90_180.png","74","image-keyboard-response","127","295351","0.0-6.0-1.60","ALGO","3","m","rechts","21","","","object","j","90","true"
"null","<div style=""font-size:60px;"">+</div>","null","html-keyboard-response","128","295652","0.0-6.0-0.61","ALGO","3","m","rechts","21","","fixation","","","",""
"834","img/0_300.png","70","image-keyboard-response","129","296487","0.0-6.0-1.61","ALGO","3","m","rechts","21","","","object","f","0","true"
"null","<div style=""font-size:60px;"">+</div>","null","html-keyboard-response","130","296939","0.0-6.0-0.62","ALGO","3","m","rechts","21","","fixation","","","",""
"687","img/90_330.png","74","image-keyboard-response","131","297626","0.0-6.0-1.62","ALGO","3","m","rechts","21","","","object","j","90","true"
"null","<div style=""font-size:60px;"">+</div>","null","html-keyboard-response","132","298128","0.0-6.0-0.63","ALGO","3","m","rechts","21","","fixation","","","",""
"592","img/120_30.png","70","image-keyboard-response","133","298720","0.0-6.0-1.63","ALGO","3","m","rechts","21","","","object","f","120","true"
"null","<div style=""font-size:60px;"">+</div>","null","html-keyboard-response","134","299071","0.0-6.0-0.64","ALGO","3","m","rechts","21","","fixation","","","",""
"613","img/90_30.png","70","image-keyboard-response","135","299684","0.0-6.0-1.64","ALGO","3","m","rechts","21","","","object","f","90","true"
"null","<div style=""font-size:60px;"">+</div>","null","html-keyboard-response","136","300035","0.0-6.0-0.65","ALGO","3","m","rechts","21","","fixation","","","",""
"706","img/30_60.png","74","image-keyboard-response","137","300742","0.0-6.0-1.65","ALGO","3","m","rechts","21","","","object","j","30","true"
"null","<div style=""font-size:60px;"">+</div>","null","html-keyboard-response","138","301244","0.0-6.0-0.66","ALGO","3","m","rechts","21","","fixation","","","",""
"991","img/90_120.png","74","image-keyboard-response","139","302237","0.0-6.0-1.66","ALGO","3","m","rechts","21","","","object","j","90","true"
"null","<div style=""font-size:60px;"">+</div>","null","html-keyboard-response","140","302539","0.0-6.0-0.67","ALGO","3","m","rechts","21","","fixation","","","",""
"882","img/30_180.png","70","image-keyboard-response","141","303421","0.0-6.0-1.67","ALGO","3","m","rechts","21","","","object","f","30","true"
"null","<div style=""font-size:60px;"">+</div>","null","html-keyboard-response","142","303773","0.0-6.0-0.68","ALGO","3","m","rechts","21","","fixation","","","",""
"668","img/0_330.png","70","image-keyboard-response","143","304441","0.0-6.0-1.68","ALGO","3","m","rechts","21","","","object","f","0","true"
"null","<div style=""font-size:60px;"">+</div>","null","html-keyboard-response","144","304843","0.0-6.0-0.69","ALGO","3","m","rechts","21","","fixation","","","",""
"689","img/150_300.png","74","image-keyboard-response","145","305532","0.0-6.0-1.69","ALGO","3","m","rechts","21","","","object","j","150","true"
"null","<div style=""font-size:60px;"">+</div>","null","html-keyboard-response","146","305834","0.0-6.0-0.70","ALGO","3","m","rechts","21","","fixation","","","",""
"713","img/0_240.png","70","image-keyboard-response","147","306547","0.0-6.0-1.70","ALGO","3","m","rechts","21","","","object","f","0","true"
"null","<div style=""font-size:60px;"">+</div>","null","html-keyboard-response","148","306849","0.0-6.0-0.71","ALGO","3","m","rechts","21","","fixation","","","",""
"828","img/90_180.png","70","image-keyboard-response","149","307678","0.0-6.0-1.71","ALGO","3","m","rechts","21","","","object","f","90","true"
"null","<div style=""font-size:60px;"">+</div>","null","html-keyboard-response","150","308079","0.0-6.0-0.72","ALGO","3","m","rechts","21","","fixation","","","",""
"746","img/30_120.png","74","image-keyboard-response","151","308825","0.0-6.0-1.72","ALGO","3","m","rechts","21","","","object","j","30","true"
"null","<div style=""font-size:60px;"">+</div>","null","html-keyboard-response","152","309126","0.0-6.0-0.73","ALGO","3","m","rechts","21","","fixation","","","",""
"918","img/120_150.png","74","image-keyboard-response","153","310046","0.0-6.0-1.73","ALGO","3","m","rechts","21","","","object","j","120","true"
"null","<div style=""font-size:60px;"">+</div>","null","html-keyboard-response","154","310497","0.0-6.0-0.74","ALGO","3","m","rechts","21","","fixation","","","",""
"639","img/120_180.png","70","image-keyboard-response","155","311138","0.0-6.0-1.74","ALGO","3","m","rechts","21","","","object","f","120","true"
"null","<div style=""font-size:60px;"">+</div>","null","html-keyboard-response","156","311539","0.0-6.0-0.75","ALGO","3","m","rechts","21","","fixation","","","",""
"923","img/L60_180.png","74","image-keyboard-response","157","312464","0.0-6.0-1.75","ALGO","3","m","rechts","21","","","object","j","60","true"
"null","<div style=""font-size:60px;"">+</div>","null","html-keyboard-response","158","312915","0.0-6.0-0.76","ALGO","3","m","rechts","21","","fixation","","","",""
"675","img/0_60.png","74","image-keyboard-response","159","313592","0.0-6.0-1.76","ALGO","3","m","rechts","21","","","object","j","0","true"
"null","<div style=""font-size:60px;"">+</div>","null","html-keyboard-response","160","314093","0.0-6.0-0.77","ALGO","3","m","rechts","21","","fixation","","","",""
"679","img/90_210.png","70","image-keyboard-response","161","314774","0.0-6.0-1.77","ALGO","3","m","rechts","21","","","object","f","90","true"
"null","<div style=""font-size:60px;"">+</div>","null","html-keyboard-response","162","315225","0.0-6.0-0.78","ALGO","3","m","rechts","21","","fixation","","","",""
"656","img/150_240.png","74","image-keyboard-response","163","315883","0.0-6.0-1.78","ALGO","3","m","rechts","21","","","object","j","150","true"
"null","<div style=""font-size:60px;"">+</div>","null","html-keyboard-response","164","316285","0.0-6.0-0.79","ALGO","3","m","rechts","21","","fixation","","","",""
"812","img/90_60.png","70","image-keyboard-response","165","317099","0.0-6.0-1.79","ALGO","3","m","rechts","21","","","object","f","90","true"
"null","<div style=""font-size:60px;"">+</div>","null","html-keyboard-response","166","317400","0.0-6.0-0.80","ALGO","3","m","rechts","21","","fixation","","","",""
"723","img/150_60.png","70","image-keyboard-response","167","318125","0.0-6.0-1.80","ALGO","3","m","rechts","21","","","object","f","150","true"
"null","<div style=""font-size:60px;"">+</div>","null","html-keyboard-response","168","318526","0.0-6.0-0.81","ALGO","3","m","rechts","21","","fixation","","","",""
"803","img/L120_180.png","74","image-keyboard-response","169","319332","0.0-6.0-1.81","ALGO","3","m","rechts","21","","","object","j","120","true"
"null","<div style=""font-size:60px;"">+</div>","null","html-keyboard-response","170","319734","0.0-6.0-0.82","ALGO","3","m","rechts","21","","fixation","","","",""
"632","img/60_90.png","70","image-keyboard-response","171","320368","0.0-6.0-1.82","ALGO","3","m","rechts","21","","","object","j","60","false"
"null","<div style=""font-size:60px;"">+</div>","null","html-keyboard-response","172","320719","0.0-6.0-0.83","ALGO","3","m","rechts","21","","fixation","","","",""
"776","img/150_90.png","70","image-keyboard-response","173","321497","0.0-6.0-1.83","ALGO","3","m","rechts","21","","","object","f","150","true"
"null","<div style=""font-size:60px;"">+</div>","null","html-keyboard-response","174","321998","0.0-6.0-0.84","ALGO","3","m","rechts","21","","fixation","","","",""
"966","img/60_210.png","70","image-keyboard-response","175","322966","0.0-6.0-1.84","ALGO","3","m","rechts","21","","","object","f","60","true"
"null","<div style=""font-size:60px;"">+</div>","null","html-keyboard-response","176","323367","0.0-6.0-0.85","ALGO","3","m","rechts","21","","fixation","","","",""
"847","img/150_270.png","74","image-keyboard-response","177","324215","0.0-6.0-1.85","ALGO","3","m","rechts","21","","","object","j","150","true"
"null","<div style=""font-size:60px;"">+</div>","null","html-keyboard-response","178","324617","0.0-6.0-0.86","ALGO","3","m","rechts","21","","fixation","","","",""
"695","img/30_270.png","70","image-keyboard-response","179","325314","0.0-6.0-1.86","ALGO","3","m","rechts","21","","","object","f","30","true"
"null","<div style=""font-size:60px;"">+</div>","null","html-keyboard-response","180","325815","0.0-6.0-0.87","ALGO","3","m","rechts","21","","fixation","","","",""
"653","img/30_240.png","70","image-keyboard-response","181","326469","0.0-6.0-1.87","ALGO","3","m","rechts","21","","","object","f","30","true"
"null","<div style=""font-size:60px;"">+</div>","null","html-keyboard-response","182","326771","0.0-6.0-0.88","ALGO","3","m","rechts","21","","fixation","","","",""
"738","img/0_270.png","70","image-keyboard-response","183","327509","0.0-6.0-1.88","ALGO","3","m","rechts","21","","","object","f","0","true"
"null","<div style=""font-size:60px;"">+</div>","null","html-keyboard-response","184","327911","0.0-6.0-0.89","ALGO","3","m","rechts","21","","fixation","","","",""
"697","img/L150_180.png","74","image-keyboard-response","185","328611","0.0-6.0-1.89","ALGO","3","m","rechts","21","","","object","j","150","true"
"null","<div style=""font-size:60px;"">+</div>","null","html-keyboard-response","186","328962","0.0-6.0-0.90","ALGO","3","m","rechts","21","","fixation","","","",""
"704","img/120_330.png","74","image-keyboard-response","187","329667","0.0-6.0-1.90","ALGO","3","m","rechts","21","","","object","j","120","true"
"null","<div style=""font-size:60px;"">+</div>","null","html-keyboard-response","188","330069","0.0-6.0-0.91","ALGO","3","m","rechts","21","","fixation","","","",""
"639","img/60_180.png","70","image-keyboard-response","189","330709","0.0-6.0-1.91","ALGO","3","m","rechts","21","","","object","f","60","true"
"null","<div style=""font-size:60px;"">+</div>","null","html-keyboard-response","190","331160","0.0-6.0-0.92","ALGO","3","m","rechts","21","","fixation","","","",""
"610","img/0_210.png","70","image-keyboard-response","191","331771","0.0-6.0-1.92","ALGO","3","m","rechts","21","","","object","f","0","true"
"null","<div style=""font-size:60px;"">+</div>","null","html-keyboard-response","192","332223","0.0-6.0-0.93","ALGO","3","m","rechts","21","","fixation","","","",""
"531","img/90_150.png","74","image-keyboard-response","193","332755","0.0-6.0-1.93","ALGO","3","m","rechts","21","","","object","j","90","true"
"null","<div style=""font-size:60px;"">+</div>","null","html-keyboard-response","194","333057","0.0-6.0-0.94","ALGO","3","m","rechts","21","","fixation","","","",""
"731","img/0_120.png","74","image-keyboard-response","195","333789","0.0-6.0-1.94","ALGO","3","m","rechts","21","","","object","j","0","true"
"null","<div style=""font-size:60px;"">+</div>","null","html-keyboard-response","196","334241","0.0-6.0-0.95","ALGO","3","m","rechts","21","","fixation","","","",""
"598","img/90_240.png","70","image-keyboard-response","197","334840","0.0-6.0-1.95","ALGO","3","m","rechts","21","","","object","f","90","true"
"null","<div style=""font-size:60px;"">+</div>","null","html-keyboard-response","198","335193","0.0-6.0-0.96","ALGO","3","m","rechts","21","","fixation","","","",""
"688","img/120_210.png","70","image-keyboard-response","199","335882","0.0-6.0-1.96","ALGO","3","m","rechts","21","","","object","f","120","true"
"null","<div style=""font-size:60px;"">+</div>","null","html-keyboard-response","200","336384","0.0-6.0-0.97","ALGO","3","m","rechts","21","","fixation","","","",""
"787","img/L30_180.png","74","image-keyboard-response","201","337172","0.0-6.0-1.97","ALGO","3","m","rechts","21","","","object","j","30","true"
"null","<div style=""font-size:60px;"">+</div>","null","html-keyboard-response","202","337473","0.0-6.0-0.98","ALGO","3","m","rechts","21","","fixation","","","",""
"1078","img/60_150.png","74","image-keyboard-response","203","338552","0.0-6.0-1.98","ALGO","3","m","rechts","21","","","object","j","60","true"
"null","<div style=""font-size:60px;"">+</div>","null","html-keyboard-response","204","338854","0.0-6.0-0.99","ALGO","3","m","rechts","21","","fixation","","","",""
"813","img/150_180.png","70","image-keyboard-response","205","339667","0.0-6.0-1.99","ALGO","3","m","rechts","21","","","object","f","150","true"
"null","<div style=""font-size:60px;"">+</div>","null","html-keyboard-response","206","340169","0.0-6.0-0.100","ALGO","3","m","rechts","21","","fixation","","","",""
"904","img/30_90.png","74","image-keyboard-response","207","341074","0.0-6.0-1.100","ALGO","3","m","rechts","21","","","object","j","30","true"
"null","<div style=""font-size:60px;"">+</div>","null","html-keyboard-response","208","341526","0.0-6.0-0.101","ALGO","3","m","rechts","21","","fixation","","","",""
"679","img/0_150.png","74","image-keyboard-response","209","342206","0.0-6.0-1.101","ALGO","3","m","rechts","21","","","object","j","0","true"
"null","<div style=""font-size:60px;"">+</div>","null","html-keyboard-response","210","342508","0.0-6.0-0.102","ALGO","3","m","rechts","21","","fixation","","","",""
"758","img/120_270.png","74","image-keyboard-response","211","343267","0.0-6.0-1.102","ALGO","3","m","rechts","21","","","object","j","120","true"
"null","<div style=""font-size:60px;"">+</div>","null","html-keyboard-response","212","343669","0.0-6.0-0.103","ALGO","3","m","rechts","21","","fixation","","","",""
"651","img/150_120.png","70","image-keyboard-response","213","344322","0.0-6.0-1.103","ALGO","3","m","rechts","21","","","object","f","150","true"
"null","<div style=""font-size:60px;"">+</div>","null","html-keyboard-response","214","344724","0.0-6.0-0.104","ALGO","3","m","rechts","21","","fixation","","","",""
"857","img/90_60.png","70","image-keyboard-response","215","345582","0.0-6.0-1.104","ALGO","3","m","rechts","21","","","object","f","90","true"
"null","<div style=""font-size:60px;"">+</div>","null","html-keyboard-response","216","345884","0.0-6.0-0.105","ALGO","3","m","rechts","21","","fixation","","","",""
"727","img/0_90.png","74","image-keyboard-response","217","346612","0.0-6.0-1.105","ALGO","3","m","rechts","21","","","object","j","0","true"
"null","<div style=""font-size:60px;"">+</div>","null","html-keyboard-response","218","346963","0.0-6.0-0.106","ALGO","3","m","rechts","21","","fixation","","","",""
"564","img/0_150.png","74","image-keyboard-response","219","347528","0.0-6.0-1.106","ALGO","3","m","rechts","21","","","object","j","0","true"
"null","<div style=""font-size:60px;"">+</div>","null","html-keyboard-response","220","348030","0.0-6.0-0.107","ALGO","3","m","rechts","21","","fixation","","","",""
"899","img/30_300.png","70","image-keyboard-response","221","348930","0.0-6.0-1.107","ALGO","3","m","rechts","21","","","object","f","30","true"
"null","<div style=""font-size:60px;"">+</div>","null","html-keyboard-response","222","349431","0.0-6.0-0.108","ALGO","3","m","rechts","21","","fixation","","","",""
"545","img/0_210.png","70","image-keyboard-response","223","349977","0.0-6.0-1.108","ALGO","3","m","rechts","21","","","object","f","0","true"
"null","<div style=""font-size:60px;"">+</div>","null","html-keyboard-response","224","350429","0.0-6.0-0.109","ALGO","3","m","rechts","21","","fixation","","","",""
"696","img/30_180.png","70","image-keyboard-response","225","351126","0.0-6.0-1.109","ALGO","3","m","rechts","21","","","object","f","30","true"
"null","<div style=""font-size:60px;"">+</div>","null","html-keyboard-response","226","351628","0.0-6.0-0.110","ALGO","3","m","rechts","21","","fixation","","","",""
"618","img/0_270.png","70","image-keyboard-response","227","352248","0.0-6.0-1.110","ALGO","3","m","rechts","21","","","object","f","0","true"
"null","<div style=""font-size:60px;"">+</div>","null","html-keyboard-response","228","352550","0.0-6.0-0.111","ALGO","3","m","rechts","21","","fixation","","","",""
"687","img/90_330.png","74","image-keyboard-response","229","353238","0.0-6.0-1.111","ALGO","3","m","rechts","21","","","object","j","90","true"
"null","<div style=""font-size:60px;"">+</div>","null","html-keyboard-response","230","353640","0.0-6.0-0.112","ALGO","3","m","rechts","21","","fixation","","","",""
"876","img/L60_180.png","74","image-keyboard-response","231","354516","0.0-6.0-1.112","ALGO","3","m","rechts","21","","","object","j","60","true"
"null","<div style=""font-size:60px;"">+</div>","null","html-keyboard-response","232","354917","0.0-6.0-0.113","ALGO","3","m","rechts","21","","fixation","","","",""
"793","img/120_90.png","70","image-keyboard-response","233","355711","0.0-6.0-1.113","ALGO","3","m","rechts","21","","","object","f","120","true"
"null","<div style=""font-size:60px;"">+</div>","null","html-keyboard-response","234","356013","0.0-6.0-0.114","ALGO","3","m","rechts","21","","fixation","","","",""
"1064","img/90_150.png","74","image-keyboard-response","235","357078","0.0-6.0-1.114","ALGO","3","m","rechts","21","","","object","j","90","true"
"null","<div style=""font-size:60px;"">+</div>","null","html-keyboard-response","236","357380","0.0-6.0-0.115","ALGO","3","m","rechts","21","","fixation","","","",""
"932","img/90_240.png","70","image-keyboard-response","237","358313","0.0-6.0-1.115","ALGO","3","m","rechts","21","","","object","f","90","true"
"null","<div style=""font-size:60px;"">+</div>","null","html-keyboard-response","238","358765","0.0-6.0-0.116","ALGO","3","m","rechts","21","","fixation","","","",""
"861","img/150_120.png","70","image-keyboard-response","239","359626","0.0-6.0-1.116","ALGO","3","m","rechts","21","","","object","f","150","true"
"null","<div style=""font-size:60px;"">+</div>","null","html-keyboard-response","240","359927","0.0-6.0-0.117","ALGO","3","m","rechts","21","","fixation","","","",""
"948","img/30_270.png","74","image-keyboard-response","241","360876","0.0-6.0-1.117","ALGO","3","m","rechts","21","","","object","f","30","false"
"null","<div style=""font-size:60px;"">+</div>","null","html-keyboard-response","242","361178","0.0-6.0-0.118","ALGO","3","m","rechts","21","","fixation","","","",""
"665","img/30_240.png","70","image-keyboard-response","243","361843","0.0-6.0-1.118","ALGO","3","m","rechts","21","","","object","f","30","true"
"null","<div style=""font-size:60px;"">+</div>","null","html-keyboard-response","244","362144","0.0-6.0-0.119","ALGO","3","m","rechts","21","","fixation","","","",""
"743","img/0_60.png","74","image-keyboard-response","245","362888","0.0-6.0-1.119","ALGO","3","m","rechts","21","","","object","j","0","true"
"null","<div style=""font-size:60px;"">+</div>","null","html-keyboard-response","246","363190","0.0-6.0-0.120","ALGO","3","m","rechts","21","","fixation","","","",""
"1075","img/60_90.png","74","image-keyboard-response","247","364266","0.0-6.0-1.120","ALGO","3","m","rechts","21","","","object","j","60","true"
"null","<div style=""font-size:60px;"">+</div>","null","html-keyboard-response","248","364568","0.0-6.0-0.121","ALGO","3","m","rechts","21","","fixation","","","",""
"744","img/120_330.png","74","image-keyboard-response","249","365314","0.0-6.0-1.121","ALGO","3","m","rechts","21","","","object","j","120","true"
"null","<div style=""font-size:60px;"">+</div>","null","html-keyboard-response","250","365615","0.0-6.0-0.122","ALGO","3","m","rechts","21","","fixation","","","",""
"794","img/150_300.png","74","image-keyboard-response","251","366411","0.0-6.0-1.122","ALGO","3","m","rechts","21","","","object","j","150","true"
"null","<div style=""font-size:60px;"">+</div>","null","html-keyboard-response","252","366813","0.0-6.0-0.123","ALGO","3","m","rechts","21","","fixation","","","",""
"714","img/60_30.png","70","image-keyboard-response","253","367528","0.0-6.0-1.123","ALGO","3","m","rechts","21","","","object","f","60","true"
"null","<div style=""font-size:60px;"">+</div>","null","html-keyboard-response","254","367879","0.0-6.0-0.124","ALGO","3","m","rechts","21","","fixation","","","",""
"874","img/150_270.png","70","image-keyboard-response","255","368755","0.0-6.0-1.124","ALGO","3","m","rechts","21","","","object","j","150","false"
"null","<div style=""font-size:60px;"">+</div>","null","html-keyboard-response","256","369106","0.0-6.0-0.125","ALGO","3","m","rechts","21","","fixation","","","",""
"963","img/90_120.png","74","image-keyboard-response","257","370071","0.0-6.0-1.125","ALGO","3","m","rechts","21","","","object","j","90","true"
"null","<div style=""font-size:60px;"">+</div>","null","html-keyboard-response","258","370372","0.0-6.0-0.126","ALGO","3","m","rechts","21","","fixation","","","",""
"966","img/120_210.png","70","image-keyboard-response","259","371339","0.0-6.0-1.126","ALGO","3","m","rechts","21","","","object","f","120","true"
"null","<div style=""font-size:60px;"">+</div>","null","html-keyboard-response","260","371640","0.0-6.0-0.127","ALGO","3","m","rechts","21","","fixation","","","",""
"702","img/0_120.png","74","image-keyboard-response","261","372344","0.0-6.0-1.127","ALGO","3","m","rechts","21","","","object","j","0","true"
"null","<div style=""font-size:60px;"">+</div>","null","html-keyboard-response","262","372797","0.0-6.0-0.128","ALGO","3","m","rechts","21","","fixation","","","",""
"736","img/150_90.png","70","image-keyboard-response","263","373534","0.0-6.0-1.128","ALGO","3","m","rechts","21","","","object","f","150","true"
"null","<div style=""font-size:60px;"">+</div>","null","html-keyboard-response","264","373936","0.0-6.0-0.129","ALGO","3","m","rechts","21","","fixation","","","",""
"840","img/60_180.png","70","image-keyboard-response","265","374778","0.0-6.0-1.129","ALGO","3","m","rechts","21","","","object","f","60","true"
"null","<div style=""font-size:60px;"">+</div>","null","html-keyboard-response","266","375229","0.0-6.0-0.130","ALGO","3","m","rechts","21","","fixation","","","",""
"805","img/30_60.png","74","image-keyboard-response","267","376035","0.0-6.0-1.130","ALGO","3","m","rechts","21","","","object","j","30","true"
"null","<div style=""font-size:60px;"">+</div>","null","html-keyboard-response","268","376437","0.0-6.0-0.131","ALGO","3","m","rechts","21","","fixation","","","",""
"641","img/0_300.png","70","image-keyboard-response","269","377080","0.0-6.0-1.131","ALGO","3","m","rechts","21","","","object","f","0","true"
"null","<div style=""font-size:60px;"">+</div>","null","html-keyboard-response","270","377431","0.0-6.0-0.132","ALGO","3","m","rechts","21","","fixation","","","",""
"1065","img/120_150.png","70","image-keyboard-response","271","378497","0.0-6.0-1.132","ALGO","3","m","rechts","21","","","object","j","120","false"
"null","<div style=""font-size:60px;"">+</div>","null","html-keyboard-response","272","378849","0.0-6.0-0.133","ALGO","3","m","rechts","21","","fixation","","","",""
"786","img/30_120.png","74","image-keyboard-response","273","379637","0.0-6.0-1.133","ALGO","3","m","rechts","21","","","object","j","30","true"
"null","<div style=""font-size:60px;"">+</div>","null","html-keyboard-response","274","379989","0.0-6.0-0.134","ALGO","3","m","rechts","21","","fixation","","","",""
"869","img/150_180.png","70","image-keyboard-response","275","380859","0.0-6.0-1.134","ALGO","3","m","rechts","21","","","object","f","150","true"
"null","<div style=""font-size:60px;"">+</div>","null","html-keyboard-response","276","381361","0.0-6.0-0.135","ALGO","3","m","rechts","21","","fixation","","","",""
"862","img/90_180.png","70","image-keyboard-response","277","382224","0.0-6.0-1.135","ALGO","3","m","rechts","21","","","object","f","90","true"
"null","<div style=""font-size:60px;"">+</div>","null","html-keyboard-response","278","382626","0.0-6.0-0.136","ALGO","3","m","rechts","21","","fixation","","","",""
"727","img/60_330.png","74","image-keyboard-response","279","383354","0.0-6.0-1.136","ALGO","3","m","rechts","21","","","object","j","60","true"
"null","<div style=""font-size:60px;"">+</div>","null","html-keyboard-response","280","383856","0.0-6.0-0.137","ALGO","3","m","rechts","21","","fixation","","","",""
"912","img/120_270.png","74","image-keyboard-response","281","384769","0.0-6.0-1.137","ALGO","3","m","rechts","21","","","object","j","120","true"
"null","<div style=""font-size:60px;"">+</div>","null","html-keyboard-response","282","385221","0.0-6.0-0.138","ALGO","3","m","rechts","21","","fixation","","","",""
"771","img/60_210.png","70","image-keyboard-response","283","385993","0.0-6.0-1.138","ALGO","3","m","rechts","21","","","object","f","60","true"
"null","<div style=""font-size:60px;"">+</div>","null","html-keyboard-response","284","386395","0.0-6.0-0.139","ALGO","3","m","rechts","21","","fixation","","","",""
"909","img/60_150.png","70","image-keyboard-response","285","387307","0.0-6.0-1.139","ALGO","3","m","rechts","21","","","object","j","60","false"
"null","<div style=""font-size:60px;"">+</div>","null","html-keyboard-response","286","387709","0.0-6.0-0.140","ALGO","3","m","rechts","21","","fixation","","","",""
"866","img/90_210.png","74","image-keyboard-response","287","388576","0.0-6.0-1.140","ALGO","3","m","rechts","21","","","object","f","90","false"
"null","<div style=""font-size:60px;"">+</div>","null","html-keyboard-response","288","388978","0.0-6.0-0.141","ALGO","3","m","rechts","21","","fixation","","","",""
"831","img/0_30.png","74","image-keyboard-response","289","389810","0.0-6.0-1.141","ALGO","3","m","rechts","21","","","object","j","0","true"
"null","<div style=""font-size:60px;"">+</div>","null","html-keyboard-response","290","390312","0.0-6.0-0.142","ALGO","3","m","rechts","21","","fixation","","","",""
"578","img/90_30.png","70","image-keyboard-response","291","390891","0.0-6.0-1.142","ALGO","3","m","rechts","21","","","object","f","90","true"
"null","<div style=""font-size:60px;"">+</div>","null","html-keyboard-response","292","391293","0.0-6.0-0.143","ALGO","3","m","rechts","21","","fixation","","","",""
"788","img/L30_180.png","74","image-keyboard-response","293","392082","0.0-6.0-1.143","ALGO","3","m","rechts","21","","","object","j","30","true"
"null","<div style=""font-size:60px;"">+</div>","null","html-keyboard-response","294","392383","0.0-6.0-0.144","ALGO","3","m","rechts","21","","fixation","","","",""
"781","img/90_300.png","74","image-keyboard-response","295","393165","0.0-6.0-1.144","ALGO","3","m","rechts","21","","","object","j","90","true"
"null","<div style=""font-size:60px;"">+</div>","null","html-keyboard-response","296","393617","0.0-6.0-0.145","ALGO","3","m","rechts","21","","fixation","","","",""
"734","img/30_90.png","74","image-keyboard-response","297","394352","0.0-6.0-1.145","ALGO","3","m","rechts","21","","","object","j","30","true"
"null","<div style=""font-size:60px;"">+</div>","null","html-keyboard-response","298","394804","0.0-6.0-0.146","ALGO","3","m","rechts","21","","fixation","","","",""
"895","img/150_240.png","74","image-keyboard-response","299","395701","0.0-6.0-1.146","ALGO","3","m","rechts","21","","","object","j","150","true"
"null","<div style=""font-size:60px;"">+</div>","null","html-keyboard-response","300","396003","0.0-6.0-0.147","ALGO","3","m","rechts","21","","fixation","","","",""
"824","img/60_270.png","70","image-keyboard-response","301","396828","0.0-6.0-1.147","ALGO","3","m","rechts","21","","","object","f","60","true"
"null","<div style=""font-size:60px;"">+</div>","null","html-keyboard-response","302","397230","0.0-6.0-0.148","ALGO","3","m","rechts","21","","fixation","","","",""
"815","img/120_180.png","70","image-keyboard-response","303","398046","0.0-6.0-1.148","ALGO","3","m","rechts","21","","","object","f","120","true"
"null","<div style=""font-size:60px;"">+</div>","null","html-keyboard-response","304","398498","0.0-6.0-0.149","ALGO","3","m","rechts","21","","fixation","","","",""
"807","img/120_30.png","70","image-keyboard-response","305","399306","0.0-6.0-1.149","ALGO","3","m","rechts","21","","","object","f","120","true"
"null","<div style=""font-size:60px;"">+</div>","null","html-keyboard-response","306","399809","0.0-6.0-0.150","ALGO","3","m","rechts","21","","fixation","","","",""
"746","img/L150_180.png","74","image-keyboard-response","307","400556","0.0-6.0-1.150","ALGO","3","m","rechts","21","","","object","j","150","true"
"null","<div style=""font-size:60px;"">+</div>","null","html-keyboard-response","308","400908","0.0-6.0-0.151","ALGO","3","m","rechts","21","","fixation","","","",""
"633","img/0_330.png","70","image-keyboard-response","309","401543","0.0-6.0-1.151","ALGO","3","m","rechts","21","","","object","f","0","true"
"null","<div style=""font-size:60px;"">+</div>","null","html-keyboard-response","310","401944","0.0-6.0-0.152","ALGO","3","m","rechts","21","","fixation","","","",""
"713","img/150_60.png","70","image-keyboard-response","311","402658","0.0-6.0-1.152","ALGO","3","m","rechts","21","","","object","f","150","true"
"null","<div style=""font-size:60px;"">+</div>","null","html-keyboard-response","312","402960","0.0-6.0-0.153","ALGO","3","m","rechts","21","","fixation","","","",""
"978","img/L120_180.png","74","image-keyboard-response","313","403939","0.0-6.0-1.153","ALGO","3","m","rechts","21","","","object","j","120","true"
"null","<div style=""font-size:60px;"">+</div>","null","html-keyboard-response","314","404291","0.0-6.0-0.154","ALGO","3","m","rechts","21","","fixation","","","",""
"746","img/L90_180.png","74","image-keyboard-response","315","405038","0.0-6.0-1.154","ALGO","3","m","rechts","21","","","object","j","90","true"
"null","<div style=""font-size:60px;"">+</div>","null","html-keyboard-response","316","405340","0.0-6.0-0.155","ALGO","3","m","rechts","21","","fixation","","","",""
"750","img/0_240.png","70","image-keyboard-response","317","406091","0.0-6.0-1.155","ALGO","3","m","rechts","21","","","object","f","0","true"
"null","<div style=""font-size:60px;"">+</div>","null","html-keyboard-response","318","406493","0.0-6.0-0.156","ALGO","3","m","rechts","21","","fixation","","","",""
"736","img/150_180.png","70","image-keyboard-response","319","407230","0.0-6.0-1.156","ALGO","3","m","rechts","21","","","object","f","150","true"
"null","<div style=""font-size:60px;"">+</div>","null","html-keyboard-response","320","407681","0.0-6.0-0.157","ALGO","3","m","rechts","21","","fixation","","","",""
"710","img/0_30.png","74","image-keyboard-response","321","408391","0.0-6.0-1.157","ALGO","3","m","rechts","21","","","object","j","0","true"
"null","<div style=""font-size:60px;"">+</div>","null","html-keyboard-response","322","408793","0.0-6.0-0.158","ALGO","3","m","rechts","21","","fixation","","","",""
"650","img/0_240.png","70","image-keyboard-response","323","409444","0.0-6.0-1.158","ALGO","3","m","rechts","21","","","object","f","0","true"
"null","<div style=""font-size:60px;"">+</div>","null","html-keyboard-response","324","409946","0.0-6.0-0.159","ALGO","3","m","rechts","21","","fixation","","","",""
"901","img/150_120.png","74","image-keyboard-response","325","410848","0.0-6.0-1.159","ALGO","3","m","rechts","21","","","object","f","150","false"
"null","<div style=""font-size:60px;"">+</div>","null","html-keyboard-response","326","411150","0.0-6.0-0.160","ALGO","3","m","rechts","21","","fixation","","","",""
"837","img/30_90.png","74","image-keyboard-response","327","411988","0.0-6.0-1.160","ALGO","3","m","rechts","21","","","object","j","30","true"
"null","<div style=""font-size:60px;"">+</div>","null","html-keyboard-response","328","412290","0.0-6.0-0.161","ALGO","3","m","rechts","21","","fixation","","","",""
"1065","img/150_270.png","74","image-keyboard-response","329","413356","0.0-6.0-1.161","ALGO","3","m","rechts","21","","","object","j","150","true"
"null","<div style=""font-size:60px;"">+</div>","null","html-keyboard-response","330","413658","0.0-6.0-0.162","ALGO","3","m","rechts","21","","fixation","","","",""
"1004","img/L90_180.png","74","image-keyboard-response","331","414663","0.0-6.0-1.162","ALGO","3","m","rechts","21","","","object","j","90","true"
"null","<div style=""font-size:60px;"">+</div>","null","html-keyboard-response","332","415015","0.0-6.0-0.163","ALGO","3","m","rechts","21","","fixation","","","",""
"821","img/150_300.png","74","image-keyboard-response","333","415839","0.0-6.0-1.163","ALGO","3","m","rechts","21","","","object","j","150","true"
"null","<div style=""font-size:60px;"">+</div>","null","html-keyboard-response","334","416340","0.0-6.0-0.164","ALGO","3","m","rechts","21","","fixation","","","",""
"728","img/60_210.png","70","image-keyboard-response","335","417070","0.0-6.0-1.164","ALGO","3","m","rechts","21","","","object","f","60","true"
"null","<div style=""font-size:60px;"">+</div>","null","html-keyboard-response","336","417471","0.0-6.0-0.165","ALGO","3","m","rechts","21","","fixation","","","",""
"840","img/90_210.png","70","image-keyboard-response","337","418313","0.0-6.0-1.165","ALGO","3","m","rechts","21","","","object","f","90","true"
"null","<div style=""font-size:60px;"">+</div>","null","html-keyboard-response","338","418715","0.0-6.0-0.166","ALGO","3","m","rechts","21","","fixation","","","",""
"711","img/L120_180.png","74","image-keyboard-response","339","419426","0.0-6.0-1.166","ALGO","3","m","rechts","21","","","object","j","120","true"
"null","<div style=""font-size:60px;"">+</div>","null","html-keyboard-response","340","419778","0.0-6.0-0.167","ALGO","3","m","rechts","21","","fixation","","","",""
"799","img/30_60.png","74","image-keyboard-response","341","420578","0.0-6.0-1.167","ALGO","3","m","rechts","21","","","object","j","30","true"
"null","<div style=""font-size:60px;"">+</div>","null","html-keyboard-response","342","421031","0.0-6.0-0.168","ALGO","3","m","rechts","21","","fixation","","","",""
"887","img/90_120.png","74","image-keyboard-response","343","421920","0.0-6.0-1.168","ALGO","3","m","rechts","21","","","object","j","90","true"
"null","<div style=""font-size:60px;"">+</div>","null","html-keyboard-response","344","422371","0.0-6.0-0.169","ALGO","3","m","rechts","21","","fixation","","","",""
"884","img/L150_180.png","74","image-keyboard-response","345","423257","0.0-6.0-1.169","ALGO","3","m","rechts","21","","","object","j","150","true"
"null","<div style=""font-size:60px;"">+</div>","null","html-keyboard-response","346","423757","0.0-6.0-0.170","ALGO","3","m","rechts","21","","fixation","","","",""
"979","img/60_150.png","74","image-keyboard-response","347","424737","0.0-6.0-1.170","ALGO","3","m","rechts","21","","","object","j","60","true"
"null","<div style=""font-size:60px;"">+</div>","null","html-keyboard-response","348","425039","0.0-6.0-0.171","ALGO","3","m","rechts","21","","fixation","","","",""
"896","img/150_60.png","70","image-keyboard-response","349","425936","0.0-6.0-1.171","ALGO","3","m","rechts","21","","","object","f","150","true"
"null","<div style=""font-size:60px;"">+</div>","null","html-keyboard-response","350","426388","0.0-6.0-0.172","ALGO","3","m","rechts","21","","fixation","","","",""
"639","img/90_60.png","70","image-keyboard-response","351","427030","0.0-6.0-1.172","ALGO","3","m","rechts","21","","","object","f","90","true"
"null","<div style=""font-size:60px;"">+</div>","null","html-keyboard-response","352","427431","0.0-6.0-0.173","ALGO","3","m","rechts","21","","fixation","","","",""
"664","img/0_60.png","74","image-keyboard-response","353","428096","0.0-6.0-1.173","ALGO","3","m","rechts","21","","","object","j","0","true"
"null","<div style=""font-size:60px;"">+</div>","null","html-keyboard-response","354","428499","0.0-6.0-0.174","ALGO","3","m","rechts","21","","fixation","","","",""
"648","img/0_270.png","70","image-keyboard-response","355","429148","0.0-6.0-1.174","ALGO","3","m","rechts","21","","","object","f","0","true"
"null","<div style=""font-size:60px;"">+</div>","null","html-keyboard-response","356","429650","0.0-6.0-0.175","ALGO","3","m","rechts","21","","fixation","","","",""
"646","img/60_30.png","70","image-keyboard-response","357","430297","0.0-6.0-1.175","ALGO","3","m","rechts","21","","","object","f","60","true"
"null","<div style=""font-size:60px;"">+</div>","null","html-keyboard-response","358","430799","0.0-6.0-0.176","ALGO","3","m","rechts","21","","fixation","","","",""
"988","img/150_240.png","74","image-keyboard-response","359","431788","0.0-6.0-1.176","ALGO","3","m","rechts","21","","","object","j","150","true"
"null","<div style=""font-size:60px;"">+</div>","null","html-keyboard-response","360","432290","0.0-6.0-0.177","ALGO","3","m","rechts","21","","fixation","","","",""
"912","img/150_90.png","70","image-keyboard-response","361","433203","0.0-6.0-1.177","ALGO","3","m","rechts","21","","","object","f","150","true"
"null","<div style=""font-size:60px;"">+</div>","null","html-keyboard-response","362","433605","0.0-6.0-0.178","ALGO","3","m","rechts","21","","fixation","","","",""
"1094","img/L30_180.png","74","image-keyboard-response","363","434700","0.0-6.0-1.178","ALGO","3","m","rechts","21","","","object","j","30","true"
"null","<div style=""font-size:60px;"">+</div>","null","html-keyboard-response","364","435003","0.0-6.0-0.179","ALGO","3","m","rechts","21","","fixation","","","",""
"713","img/90_300.png","74","image-keyboard-response","365","435717","0.0-6.0-1.179","ALGO","3","m","rechts","21","","","object","j","90","true"
"null","<div style=""font-size:60px;"">+</div>","null","html-keyboard-response","366","436219","0.0-6.0-0.180","ALGO","3","m","rechts","21","","fixation","","","",""
"700","img/90_150.png","74","image-keyboard-response","367","436920","0.0-6.0-1.180","ALGO","3","m","rechts","21","","","object","j","90","true"
"null","<div style=""font-size:60px;"">+</div>","null","html-keyboard-response","368","437222","0.0-6.0-0.181","ALGO","3","m","rechts","21","","fixation","","","",""
"1069","img/L60_180.png","74","image-keyboard-response","369","438293","0.0-6.0-1.181","ALGO","3","m","rechts","21","","","object","j","60","true"
"null","<div style=""font-size:60px;"">+</div>","null","html-keyboard-response","370","438644","0.0-6.0-0.182","ALGO","3","m","rechts","21","","fixation","","","",""
"797","img/30_270.png","74","image-keyboard-response","371","439442","0.0-6.0-1.182","ALGO","3","m","rechts","21","","","object","f","30","false"
"null","<div style=""font-size:60px;"">+</div>","null","html-keyboard-response","372","439944","0.0-6.0-0.183","ALGO","3","m","rechts","21","","fixation","","","",""
"990","img/120_150.png","74","image-keyboard-response","373","440935","0.0-6.0-1.183","ALGO","3","m","rechts","21","","","object","j","120","true"
"null","<div style=""font-size:60px;"">+</div>","null","html-keyboard-response","374","441288","0.0-6.0-0.184","ALGO","3","m","rechts","21","","fixation","","","",""
"738","img/0_90.png","74","image-keyboard-response","375","442027","0.0-6.0-1.184","ALGO","3","m","rechts","21","","","object","j","0","true"
"null","<div style=""font-size:60px;"">+</div>","null","html-keyboard-response","376","442429","0.0-6.0-0.185","ALGO","3","m","rechts","21","","fixation","","","",""
"661","img/0_300.png","70","image-keyboard-response","377","443091","0.0-6.0-1.185","ALGO","3","m","rechts","21","","","object","f","0","true"
"null","<div style=""font-size:60px;"">+</div>","null","html-keyboard-response","378","443593","0.0-6.0-0.186","ALGO","3","m","rechts","21","","fixation","","","",""
"859","img/60_90.png","70","image-keyboard-response","379","444454","0.0-6.0-1.186","ALGO","3","m","rechts","21","","","object","j","60","false"
"null","<div style=""font-size:60px;"">+</div>","null","html-keyboard-response","380","444805","0.0-6.0-0.187","ALGO","3","m","rechts","21","","fixation","","","",""
"1090","img/120_180.png","70","image-keyboard-response","381","445896","0.0-6.0-1.187","ALGO","3","m","rechts","21","","","object","f","120","true"
"null","<div style=""font-size:60px;"">+</div>","null","html-keyboard-response","382","446399","0.0-6.0-0.188","ALGO","3","m","rechts","21","","fixation","","","",""
"1103","img/60_180.png","74","image-keyboard-response","383","447503","0.0-6.0-1.188","ALGO","3","m","rechts","21","","","object","f","60","false"
"null","<div style=""font-size:60px;"">+</div>","null","html-keyboard-response","384","447903","0.0-6.0-0.189","ALGO","3","m","rechts","21","","fixation","","","",""
"720","img/0_120.png","74","image-keyboard-response","385","448624","0.0-6.0-1.189","ALGO","3","m","rechts","21","","","object","j","0","true"
"null","<div style=""font-size:60px;"">+</div>","null","html-keyboard-response","386","448975","0.0-6.0-0.190","ALGO","3","m","rechts","21","","fixation","","","",""
"669","img/90_30.png","70","image-keyboard-response","387","449645","0.0-6.0-1.190","ALGO","3","m","rechts","21","","","object","f","90","true"
"null","<div style=""font-size:60px;"">+</div>","null","html-keyboard-response","388","449997","0.0-6.0-0.191","ALGO","3","m","rechts","21","","fixation","","","",""
"966","img/60_270.png","70","image-keyboard-response","389","450964","0.0-6.0-1.191","ALGO","3","m","rechts","21","","","object","f","60","true"
"null","<div style=""font-size:60px;"">+</div>","null","html-keyboard-response","390","451267","0.0-6.0-0.192","ALGO","3","m","rechts","21","","fixation","","","",""
"686","img/0_210.png","70","image-keyboard-response","391","451954","0.0-6.0-1.192","ALGO","3","m","rechts","21","","","object","f","0","true"
"null","<div style=""font-size:60px;"">+</div>","null","html-keyboard-response","392","452256","0.0-6.0-0.193","ALGO","3","m","rechts","21","","fixation","","","",""
"935","img/30_180.png","70","image-keyboard-response","393","453192","0.0-6.0-1.193","ALGO","3","m","rechts","21","","","object","f","30","true"
"null","<div style=""font-size:60px;"">+</div>","null","html-keyboard-response","394","453494","0.0-6.0-0.194","ALGO","3","m","rechts","21","","fixation","","","",""
"686","img/120_30.png","74","image-keyboard-response","395","454181","0.0-6.0-1.194","ALGO","3","m","rechts","21","","","object","f","120","false"
"null","<div style=""font-size:60px;"">+</div>","null","html-keyboard-response","396","454683","0.0-6.0-0.195","ALGO","3","m","rechts","21","","fixation","","","",""
"864","img/90_180.png","70","image-keyboard-response","397","455547","0.0-6.0-1.195","ALGO","3","m","rechts","21","","","object","f","90","true"
"null","<div style=""font-size:60px;"">+</div>","null","html-keyboard-response","398","455849","0.0-6.0-0.196","ALGO","3","m","rechts","21","","fixation","","","",""
"1167","img/120_90.png","70","image-keyboard-response","399","457017","0.0-6.0-1.196","ALGO","3","m","rechts","21","","","object","f","120","true"
"null","<div style=""font-size:60px;"">+</div>","null","html-keyboard-response","400","457518","0.0-6.0-0.197","ALGO","3","m","rechts","21","","fixation","","","",""
"746","img/30_240.png","70","image-keyboard-response","401","458265","0.0-6.0-1.197","ALGO","3","m","rechts","21","","","object","f","30","true"
"null","<div style=""font-size:60px;"">+</div>","null","html-keyboard-response","402","458767","0.0-6.0-0.198","ALGO","3","m","rechts","21","","fixation","","","",""
"828","img/120_210.png","70","image-keyboard-response","403","459596","0.0-6.0-1.198","ALGO","3","m","rechts","21","","","object","f","120","true"
"null","<div style=""font-size:60px;"">+</div>","null","html-keyboard-response","404","459898","0.0-6.0-0.199","ALGO","3","m","rechts","21","","fixation","","","",""
"986","img/90_330.png","74","image-keyboard-response","405","460887","0.0-6.0-1.199","ALGO","3","m","rechts","21","","","object","j","90","true"
"null","<div style=""font-size:60px;"">+</div>","null","html-keyboard-response","406","461388","0.0-6.0-0.200","ALGO","3","m","rechts","21","","fixation","","","",""
"772","img/30_300.png","70","image-keyboard-response","407","462161","0.0-6.0-1.200","ALGO","3","m","rechts","21","","","object","f","30","true"
"null","<div style=""font-size:60px;"">+</div>","null","html-keyboard-response","408","462512","0.0-6.0-0.201","ALGO","3","m","rechts","21","","fixation","","","",""
"1074","img/30_120.png","70","image-keyboard-response","409","463587","0.0-6.0-1.201","ALGO","3","m","rechts","21","","","object","j","30","false"
"null","<div style=""font-size:60px;"">+</div>","null","html-keyboard-response","410","463939","0.0-6.0-0.202","ALGO","3","m","rechts","21","","fixation","","","",""
"811","img/120_330.png","74","image-keyboard-response","411","464752","0.0-6.0-1.202","ALGO","3","m","rechts","21","","","object","j","120","true"
"null","<div style=""font-size:60px;"">+</div>","null","html-keyboard-response","412","465103","0.0-6.0-0.203","ALGO","3","m","rechts","21","","fixation","","","",""
"594","img/0_330.png","70","image-keyboard-response","413","465698","0.0-6.0-1.203","ALGO","3","m","rechts","21","","","object","f","0","true"
"null","<div style=""font-size:60px;"">+</div>","null","html-keyboard-response","414","466050","0.0-6.0-0.204","ALGO","3","m","rechts","21","","fixation","","","",""
"762","img/60_330.png","74","image-keyboard-response","415","466812","0.0-6.0-1.204","ALGO","3","m","rechts","21","","","object","j","60","true"
"null","<div style=""font-size:60px;"">+</div>","null","html-keyboard-response","416","467314","0.0-6.0-0.205","ALGO","3","m","rechts","21","","fixation","","","",""
"706","img/90_240.png","70","image-keyboard-response","417","468021","0.0-6.0-1.205","ALGO","3","m","rechts","21","","","object","f","90","true"
"null","<div style=""font-size:60px;"">+</div>","null","html-keyboard-response","418","468373","0.0-6.0-0.206","ALGO","3","m","rechts","21","","fixation","","","",""
"727","img/0_150.png","74","image-keyboard-response","419","469101","0.0-6.0-1.206","ALGO","3","m","rechts","21","","","object","j","0","true"
"null","<div style=""font-size:60px;"">+</div>","null","html-keyboard-response","420","469602","0.0-6.0-0.207","ALGO","3","m","rechts","21","","fixation","","","",""
"960","img/120_270.png","74","image-keyboard-response","421","470564","0.0-6.0-1.207","ALGO","3","m","rechts","21","","","object","j","120","true"
"9291","<p>Du hast in 89% der Versuche korrekt entschieden.</p><p>Deine durchschnittliche Reaktionszeit war  790ms.</p><p>Dr&uuml;cke eine beliebige Taste, um die Session zu beenden. Vielen Dank!</p>","68","html-keyboard-response","422","479856","0.0-7.0","ALGO","3","m","rechts","21","","","","","",""
