"rt","stimulus","key_press","trial_type","trial_index","time_elapsed","internal_node_id","subject","session","sex","handedness","age","responses","test_part","condition","correct_response","angle","correct"
"2990","<p>Mental Rotation Experiment.</p> <p>Dr&uuml;cke eine beliebige Taste, um anzufangen.</p>","71","html-keyboard-response","0","2992","0.0-0.0","ALGO","2","m","rechts","21","","","","","",""
"3540","","","survey-text","1","6534","0.0-1.0","ALGO","2","m","rechts","21","{""Q0"":""ALGO""}","","","","",""
"1536","","","survey-text","2","8070","0.0-2.0","ALGO","2","m","rechts","21","{""Q0"":""2""}","","","","",""
"3530","","","survey-multi-choice","3","11603","0.0-3.0","ALGO","2","m","rechts","21","{""Q0"":""m"",""Q1"":""rechts""}","","","","",""
"4265","","","survey-text","4","15869","0.0-4.0","ALGO","2","m","rechts","21","{""Q0"":""21""}","","","","",""
"123432","<p>Stell dir vor, dass du vor einem runden Tisch stehst, auf dem sich ein blauer Ball am Tischrand befindet. Entlang des Tischrands ist jeweils ein verschieden langer Pfeil. Nun bleibst du an deinem Platz vor dem Tisch und rotierst den Tisch entlang des Pfeils (gleiche Richtung und Länge). </p> <img src='img/30_180.png'></img> <br><p> Nachdem du diese (vorgestellte) Rotation durchgef&uuml;hrt hast, schau in Richtung der Tischmitte, und entscheide dann, ob der Ball links oder rechts von dir liegt.</p> <p>Dr&uuml;cke die <strong>'f'</strong>-Taste f&uuml;r links, die <strong>'j'</strong>-Taste f&uuml;r rechts.</p><br><p> Das Bild wird jeweils 1 Sekunde lang pr&auml;sentiert. Du hast 3 Sekunden Zeit eine Entscheidung zu treffen.</p>","32","html-keyboard-response","5","139303","0.0-5.0","ALGO","2","m","rechts","21","","","","","",""
"null","<div style=""font-size:60px;"">+</div>","null","html-keyboard-response","6","140757","0.0-6.0-0.0","ALGO","2","m","rechts","21","","fixation","","","",""
"612","img/60_330.png","74","image-keyboard-response","7","141370","0.0-6.0-1.0","ALGO","2","m","rechts","21","","","object","j","60","true"
"null","<div style=""font-size:60px;"">+</div>","null","html-keyboard-response","8","141672","0.0-6.0-0.1","ALGO","2","m","rechts","21","","fixation","","","",""
"1003","img/L60_180.png","74","image-keyboard-response","9","142676","0.0-6.0-1.1","ALGO","2","m","rechts","21","","","object","j","60","true"
"null","<div style=""font-size:60px;"">+</div>","null","html-keyboard-response","10","143178","0.0-6.0-0.2","ALGO","2","m","rechts","21","","fixation","","","",""
"797","img/120_30.png","70","image-keyboard-response","11","143977","0.0-6.0-1.2","ALGO","2","m","rechts","21","","","object","f","120","true"
"null","<div style=""font-size:60px;"">+</div>","null","html-keyboard-response","12","144328","0.0-6.0-0.3","ALGO","2","m","rechts","21","","fixation","","","",""
"798","img/0_330.png","70","image-keyboard-response","13","145127","0.0-6.0-1.3","ALGO","2","m","rechts","21","","","object","f","0","true"
"null","<div style=""font-size:60px;"">+</div>","null","html-keyboard-response","14","145429","0.0-6.0-0.4","ALGO","2","m","rechts","21","","fixation","","","",""
"900","img/90_210.png","70","image-keyboard-response","15","146330","0.0-6.0-1.4","ALGO","2","m","rechts","21","","","object","f","90","true"
"null","<div style=""font-size:60px;"">+</div>","null","html-keyboard-response","16","146681","0.0-6.0-0.5","ALGO","2","m","rechts","21","","fixation","","","",""
"790","img/0_90.png","74","image-keyboard-response","17","147472","0.0-6.0-1.5","ALGO","2","m","rechts","21","","","object","j","0","true"
"null","<div style=""font-size:60px;"">+</div>","null","html-keyboard-response","18","147874","0.0-6.0-0.6","ALGO","2","m","rechts","21","","fixation","","","",""
"768","img/90_300.png","74","image-keyboard-response","19","148643","0.0-6.0-1.6","ALGO","2","m","rechts","21","","","object","j","90","true"
"null","<div style=""font-size:60px;"">+</div>","null","html-keyboard-response","20","149144","0.0-6.0-0.7","ALGO","2","m","rechts","21","","fixation","","","",""
"780","img/0_150.png","74","image-keyboard-response","21","149925","0.0-6.0-1.7","ALGO","2","m","rechts","21","","","object","j","0","true"
"null","<div style=""font-size:60px;"">+</div>","null","html-keyboard-response","22","150327","0.0-6.0-0.8","ALGO","2","m","rechts","21","","fixation","","","",""
"743","img/120_270.png","74","image-keyboard-response","23","151072","0.0-6.0-1.8","ALGO","2","m","rechts","21","","","object","j","120","true"
"null","<div style=""font-size:60px;"">+</div>","null","html-keyboard-response","24","151373","0.0-6.0-0.9","ALGO","2","m","rechts","21","","fixation","","","",""
"825","img/0_240.png","70","image-keyboard-response","25","152200","0.0-6.0-1.9","ALGO","2","m","rechts","21","","","object","f","0","true"
"null","<div style=""font-size:60px;"">+</div>","null","html-keyboard-response","26","152651","0.0-6.0-0.10","ALGO","2","m","rechts","21","","fixation","","","",""
"757","img/120_90.png","70","image-keyboard-response","27","153410","0.0-6.0-1.10","ALGO","2","m","rechts","21","","","object","f","120","true"
"null","<div style=""font-size:60px;"">+</div>","null","html-keyboard-response","28","153911","0.0-6.0-0.11","ALGO","2","m","rechts","21","","fixation","","","",""
"818","img/30_180.png","74","image-keyboard-response","29","154730","0.0-6.0-1.11","ALGO","2","m","rechts","21","","","object","f","30","false"
"null","<div style=""font-size:60px;"">+</div>","null","html-keyboard-response","30","155081","0.0-6.0-0.12","ALGO","2","m","rechts","21","","fixation","","","",""
"885","img/60_210.png","70","image-keyboard-response","31","155967","0.0-6.0-1.12","ALGO","2","m","rechts","21","","","object","f","60","true"
"null","<div style=""font-size:60px;"">+</div>","null","html-keyboard-response","32","156269","0.0-6.0-0.13","ALGO","2","m","rechts","21","","fixation","","","",""
"1068","img/60_180.png","70","image-keyboard-response","33","157338","0.0-6.0-1.13","ALGO","2","m","rechts","21","","","object","f","60","true"
"null","<div style=""font-size:60px;"">+</div>","null","html-keyboard-response","34","157690","0.0-6.0-0.14","ALGO","2","m","rechts","21","","fixation","","","",""
"889","img/30_90.png","74","image-keyboard-response","35","158581","0.0-6.0-1.14","ALGO","2","m","rechts","21","","","object","j","30","true"
"null","<div style=""font-size:60px;"">+</div>","null","html-keyboard-response","36","158882","0.0-6.0-0.15","ALGO","2","m","rechts","21","","fixation","","","",""
"901","img/150_60.png","70","image-keyboard-response","37","159785","0.0-6.0-1.15","ALGO","2","m","rechts","21","","","object","f","150","true"
"null","<div style=""font-size:60px;"">+</div>","null","html-keyboard-response","38","160136","0.0-6.0-0.16","ALGO","2","m","rechts","21","","fixation","","","",""
"864","img/90_240.png","74","image-keyboard-response","39","161002","0.0-6.0-1.16","ALGO","2","m","rechts","21","","","object","f","90","false"
"null","<div style=""font-size:60px;"">+</div>","null","html-keyboard-response","40","161453","0.0-6.0-0.17","ALGO","2","m","rechts","21","","fixation","","","",""
"794","img/0_60.png","74","image-keyboard-response","41","162248","0.0-6.0-1.17","ALGO","2","m","rechts","21","","","object","j","0","true"
"null","<div style=""font-size:60px;"">+</div>","null","html-keyboard-response","42","162550","0.0-6.0-0.18","ALGO","2","m","rechts","21","","fixation","","","",""
"1008","img/150_120.png","70","image-keyboard-response","43","163559","0.0-6.0-1.18","ALGO","2","m","rechts","21","","","object","f","150","true"
"null","<div style=""font-size:60px;"">+</div>","null","html-keyboard-response","44","164060","0.0-6.0-0.19","ALGO","2","m","rechts","21","","fixation","","","",""
"694","img/90_30.png","70","image-keyboard-response","45","164757","0.0-6.0-1.19","ALGO","2","m","rechts","21","","","object","f","90","true"
"null","<div style=""font-size:60px;"">+</div>","null","html-keyboard-response","46","165058","0.0-6.0-0.20","ALGO","2","m","rechts","21","","fixation","","","",""
"833","img/0_210.png","70","image-keyboard-response","47","165892","0.0-6.0-1.20","ALGO","2","m","rechts","21","","","object","f","0","true"
"null","<div style=""font-size:60px;"">+</div>","null","html-keyboard-response","48","166394","0.0-6.0-0.21","ALGO","2","m","rechts","21","","fixation","","","",""
"693","img/120_330.png","74","image-keyboard-response","49","167088","0.0-6.0-1.21","ALGO","2","m","rechts","21","","","object","j","120","true"
"null","<div style=""font-size:60px;"">+</div>","null","html-keyboard-response","50","167390","0.0-6.0-0.22","ALGO","2","m","rechts","21","","fixation","","","",""
"746","img/90_120.png","70","image-keyboard-response","51","168138","0.0-6.0-1.22","ALGO","2","m","rechts","21","","","object","j","90","false"
"null","<div style=""font-size:60px;"">+</div>","null","html-keyboard-response","52","168540","0.0-6.0-0.23","ALGO","2","m","rechts","21","","fixation","","","",""
"881","img/L90_180.png","74","image-keyboard-response","53","169422","0.0-6.0-1.23","ALGO","2","m","rechts","21","","","object","j","90","true"
"null","<div style=""font-size:60px;"">+</div>","null","html-keyboard-response","54","169774","0.0-6.0-0.24","ALGO","2","m","rechts","21","","fixation","","","",""
"926","img/60_150.png","70","image-keyboard-response","55","170701","0.0-6.0-1.24","ALGO","2","m","rechts","21","","","object","j","60","false"
"null","<div style=""font-size:60px;"">+</div>","null","html-keyboard-response","56","171153","0.0-6.0-0.25","ALGO","2","m","rechts","21","","fixation","","","",""
"773","img/150_300.png","74","image-keyboard-response","57","171927","0.0-6.0-1.25","ALGO","2","m","rechts","21","","","object","j","150","true"
"null","<div style=""font-size:60px;"">+</div>","null","html-keyboard-response","58","172279","0.0-6.0-0.26","ALGO","2","m","rechts","21","","fixation","","","",""
"1004","img/30_60.png","74","image-keyboard-response","59","173285","0.0-6.0-1.26","ALGO","2","m","rechts","21","","","object","j","30","true"
"null","<div style=""font-size:60px;"">+</div>","null","html-keyboard-response","60","173785","0.0-6.0-0.27","ALGO","2","m","rechts","21","","fixation","","","",""
"732","img/150_90.png","70","image-keyboard-response","61","174518","0.0-6.0-1.27","ALGO","2","m","rechts","21","","","object","f","150","true"
"null","<div style=""font-size:60px;"">+</div>","null","html-keyboard-response","62","174870","0.0-6.0-0.28","ALGO","2","m","rechts","21","","fixation","","","",""
"1075","img/150_180.png","74","image-keyboard-response","63","175946","0.0-6.0-1.28","ALGO","2","m","rechts","21","","","object","f","150","false"
"null","<div style=""font-size:60px;"">+</div>","null","html-keyboard-response","64","176298","0.0-6.0-0.29","ALGO","2","m","rechts","21","","fixation","","","",""
"1092","img/90_150.png","74","image-keyboard-response","65","177391","0.0-6.0-1.29","ALGO","2","m","rechts","21","","","object","j","90","true"
"null","<div style=""font-size:60px;"">+</div>","null","html-keyboard-response","66","177843","0.0-6.0-0.30","ALGO","2","m","rechts","21","","fixation","","","",""
"939","img/30_300.png","74","image-keyboard-response","67","178783","0.0-6.0-1.30","ALGO","2","m","rechts","21","","","object","f","30","false"
"null","<div style=""font-size:60px;"">+</div>","null","html-keyboard-response","68","179235","0.0-6.0-0.31","ALGO","2","m","rechts","21","","fixation","","","",""
"845","img/L150_180.png","74","image-keyboard-response","69","180081","0.0-6.0-1.31","ALGO","2","m","rechts","21","","","object","j","150","true"
"null","<div style=""font-size:60px;"">+</div>","null","html-keyboard-response","70","180483","0.0-6.0-0.32","ALGO","2","m","rechts","21","","fixation","","","",""
"714","img/0_300.png","70","image-keyboard-response","71","181198","0.0-6.0-1.32","ALGO","2","m","rechts","21","","","object","f","0","true"
"null","<div style=""font-size:60px;"">+</div>","null","html-keyboard-response","72","181700","0.0-6.0-0.33","ALGO","2","m","rechts","21","","fixation","","","",""
"798","img/0_30.png","74","image-keyboard-response","73","182499","0.0-6.0-1.33","ALGO","2","m","rechts","21","","","object","j","0","true"
"null","<div style=""font-size:60px;"">+</div>","null","html-keyboard-response","74","183001","0.0-6.0-0.34","ALGO","2","m","rechts","21","","fixation","","","",""
"751","img/90_180.png","70","image-keyboard-response","75","183753","0.0-6.0-1.34","ALGO","2","m","rechts","21","","","object","f","90","true"
"null","<div style=""font-size:60px;"">+</div>","null","html-keyboard-response","76","184105","0.0-6.0-0.35","ALGO","2","m","rechts","21","","fixation","","","",""
"846","img/90_330.png","74","image-keyboard-response","77","184952","0.0-6.0-1.35","ALGO","2","m","rechts","21","","","object","j","90","true"
"null","<div style=""font-size:60px;"">+</div>","null","html-keyboard-response","78","185304","0.0-6.0-0.36","ALGO","2","m","rechts","21","","fixation","","","",""
"811","img/0_270.png","70","image-keyboard-response","79","186116","0.0-6.0-1.36","ALGO","2","m","rechts","21","","","object","f","0","true"
"null","<div style=""font-size:60px;"">+</div>","null","html-keyboard-response","80","186518","0.0-6.0-0.37","ALGO","2","m","rechts","21","","fixation","","","",""
"876","img/L30_180.png","74","image-keyboard-response","81","187395","0.0-6.0-1.37","ALGO","2","m","rechts","21","","","object","j","30","true"
"null","<div style=""font-size:60px;"">+</div>","null","html-keyboard-response","82","187897","0.0-6.0-0.38","ALGO","2","m","rechts","21","","fixation","","","",""
"716","img/90_60.png","70","image-keyboard-response","83","188615","0.0-6.0-1.38","ALGO","2","m","rechts","21","","","object","f","90","true"
"null","<div style=""font-size:60px;"">+</div>","null","html-keyboard-response","84","188967","0.0-6.0-0.39","ALGO","2","m","rechts","21","","fixation","","","",""
"792","img/30_120.png","74","image-keyboard-response","85","189760","0.0-6.0-1.39","ALGO","2","m","rechts","21","","","object","j","30","true"
"null","<div style=""font-size:60px;"">+</div>","null","html-keyboard-response","86","190112","0.0-6.0-0.40","ALGO","2","m","rechts","21","","fixation","","","",""
"837","img/150_270.png","74","image-keyboard-response","87","190950","0.0-6.0-1.40","ALGO","2","m","rechts","21","","","object","j","150","true"
"null","<div style=""font-size:60px;"">+</div>","null","html-keyboard-response","88","191352","0.0-6.0-0.41","ALGO","2","m","rechts","21","","fixation","","","",""
"761","img/120_210.png","70","image-keyboard-response","89","192114","0.0-6.0-1.41","ALGO","2","m","rechts","21","","","object","f","120","true"
"null","<div style=""font-size:60px;"">+</div>","null","html-keyboard-response","90","192466","0.0-6.0-0.42","ALGO","2","m","rechts","21","","fixation","","","",""
"784","img/0_120.png","74","image-keyboard-response","91","193252","0.0-6.0-1.42","ALGO","2","m","rechts","21","","","object","j","0","true"
"null","<div style=""font-size:60px;"">+</div>","null","html-keyboard-response","92","193654","0.0-6.0-0.43","ALGO","2","m","rechts","21","","fixation","","","",""
"644","img/60_30.png","70","image-keyboard-response","93","194299","0.0-6.0-1.43","ALGO","2","m","rechts","21","","","object","f","60","true"
"null","<div style=""font-size:60px;"">+</div>","null","html-keyboard-response","94","194701","0.0-6.0-0.44","ALGO","2","m","rechts","21","","fixation","","","",""
"960","img/30_270.png","74","image-keyboard-response","95","195663","0.0-6.0-1.44","ALGO","2","m","rechts","21","","","object","f","30","false"
"null","<div style=""font-size:60px;"">+</div>","null","html-keyboard-response","96","196164","0.0-6.0-0.45","ALGO","2","m","rechts","21","","fixation","","","",""
"920","img/120_150.png","74","image-keyboard-response","97","197085","0.0-6.0-1.45","ALGO","2","m","rechts","21","","","object","j","120","true"
"null","<div style=""font-size:60px;"">+</div>","null","html-keyboard-response","98","197487","0.0-6.0-0.46","ALGO","2","m","rechts","21","","fixation","","","",""
"863","img/L120_180.png","74","image-keyboard-response","99","198352","0.0-6.0-1.46","ALGO","2","m","rechts","21","","","object","j","120","true"
"null","<div style=""font-size:60px;"">+</div>","null","html-keyboard-response","100","198753","0.0-6.0-0.47","ALGO","2","m","rechts","21","","fixation","","","",""
"863","img/60_90.png","70","image-keyboard-response","101","199618","0.0-6.0-1.47","ALGO","2","m","rechts","21","","","object","j","60","false"
"null","<div style=""font-size:60px;"">+</div>","null","html-keyboard-response","102","200069","0.0-6.0-0.48","ALGO","2","m","rechts","21","","fixation","","","",""
"1072","img/150_240.png","70","image-keyboard-response","103","201142","0.0-6.0-1.48","ALGO","2","m","rechts","21","","","object","j","150","false"
"null","<div style=""font-size:60px;"">+</div>","null","html-keyboard-response","104","201444","0.0-6.0-0.49","ALGO","2","m","rechts","21","","fixation","","","",""
"1068","img/60_270.png","70","image-keyboard-response","105","202513","0.0-6.0-1.49","ALGO","2","m","rechts","21","","","object","f","60","true"
"null","<div style=""font-size:60px;"">+</div>","null","html-keyboard-response","106","203015","0.0-6.0-0.50","ALGO","2","m","rechts","21","","fixation","","","",""
"1061","img/120_180.png","70","image-keyboard-response","107","204077","0.0-6.0-1.50","ALGO","2","m","rechts","21","","","object","f","120","true"
"null","<div style=""font-size:60px;"">+</div>","null","html-keyboard-response","108","204378","0.0-6.0-0.51","ALGO","2","m","rechts","21","","fixation","","","",""
"933","img/30_240.png","70","image-keyboard-response","109","205313","0.0-6.0-1.51","ALGO","2","m","rechts","21","","","object","f","30","true"
"null","<div style=""font-size:60px;"">+</div>","null","html-keyboard-response","110","205817","0.0-6.0-0.52","ALGO","2","m","rechts","21","","fixation","","","",""
"805","img/0_150.png","74","image-keyboard-response","111","206623","0.0-6.0-1.52","ALGO","2","m","rechts","21","","","object","j","0","true"
"null","<div style=""font-size:60px;"">+</div>","null","html-keyboard-response","112","207125","0.0-6.0-0.53","ALGO","2","m","rechts","21","","fixation","","","",""
"757","img/150_60.png","70","image-keyboard-response","113","207884","0.0-6.0-1.53","ALGO","2","m","rechts","21","","","object","f","150","true"
"null","<div style=""font-size:60px;"">+</div>","null","html-keyboard-response","114","208185","0.0-6.0-0.54","ALGO","2","m","rechts","21","","fixation","","","",""
"844","img/90_150.png","74","image-keyboard-response","115","209030","0.0-6.0-1.54","ALGO","2","m","rechts","21","","","object","j","90","true"
"null","<div style=""font-size:60px;"">+</div>","null","html-keyboard-response","116","209532","0.0-6.0-0.55","ALGO","2","m","rechts","21","","fixation","","","",""
"792","img/150_300.png","74","image-keyboard-response","117","210325","0.0-6.0-1.55","ALGO","2","m","rechts","21","","","object","j","150","true"
"null","<div style=""font-size:60px;"">+</div>","null","html-keyboard-response","118","210677","0.0-6.0-0.56","ALGO","2","m","rechts","21","","fixation","","","",""
"959","img/60_270.png","74","image-keyboard-response","119","211636","0.0-6.0-1.56","ALGO","2","m","rechts","21","","","object","f","60","false"
"null","<div style=""font-size:60px;"">+</div>","null","html-keyboard-response","120","211988","0.0-6.0-0.57","ALGO","2","m","rechts","21","","fixation","","","",""
"763","img/60_210.png","70","image-keyboard-response","121","212752","0.0-6.0-1.57","ALGO","2","m","rechts","21","","","object","f","60","true"
"null","<div style=""font-size:60px;"">+</div>","null","html-keyboard-response","122","213054","0.0-6.0-0.58","ALGO","2","m","rechts","21","","fixation","","","",""
"1006","img/150_180.png","70","image-keyboard-response","123","214060","0.0-6.0-1.58","ALGO","2","m","rechts","21","","","object","f","150","true"
"null","<div style=""font-size:60px;"">+</div>","null","html-keyboard-response","124","214412","0.0-6.0-0.59","ALGO","2","m","rechts","21","","fixation","","","",""
"981","img/L60_180.png","70","image-keyboard-response","125","215394","0.0-6.0-1.59","ALGO","2","m","rechts","21","","","object","j","60","false"
"null","<div style=""font-size:60px;"">+</div>","null","html-keyboard-response","126","215745","0.0-6.0-0.60","ALGO","2","m","rechts","21","","fixation","","","",""
"934","img/120_210.png","70","image-keyboard-response","127","216680","0.0-6.0-1.60","ALGO","2","m","rechts","21","","","object","f","120","true"
"null","<div style=""font-size:60px;"">+</div>","null","html-keyboard-response","128","217182","0.0-6.0-0.61","ALGO","2","m","rechts","21","","fixation","","","",""
"933","img/120_180.png","70","image-keyboard-response","129","218116","0.0-6.0-1.61","ALGO","2","m","rechts","21","","","object","f","120","true"
"null","<div style=""font-size:60px;"">+</div>","null","html-keyboard-response","130","218468","0.0-6.0-0.62","ALGO","2","m","rechts","21","","fixation","","","",""
"878","img/L120_180.png","74","image-keyboard-response","131","219347","0.0-6.0-1.62","ALGO","2","m","rechts","21","","","object","j","120","true"
"null","<div style=""font-size:60px;"">+</div>","null","html-keyboard-response","132","219799","0.0-6.0-0.63","ALGO","2","m","rechts","21","","fixation","","","",""
"713","img/120_30.png","70","image-keyboard-response","133","220513","0.0-6.0-1.63","ALGO","2","m","rechts","21","","","object","f","120","true"
"null","<div style=""font-size:60px;"">+</div>","null","html-keyboard-response","134","221015","0.0-6.0-0.64","ALGO","2","m","rechts","21","","fixation","","","",""
"798","img/30_180.png","70","image-keyboard-response","135","221814","0.0-6.0-1.64","ALGO","2","m","rechts","21","","","object","f","30","true"
"null","<div style=""font-size:60px;"">+</div>","null","html-keyboard-response","136","222217","0.0-6.0-0.65","ALGO","2","m","rechts","21","","fixation","","","",""
"807","img/0_240.png","70","image-keyboard-response","137","223025","0.0-6.0-1.65","ALGO","2","m","rechts","21","","","object","f","0","true"
"null","<div style=""font-size:60px;"">+</div>","null","html-keyboard-response","138","223427","0.0-6.0-0.66","ALGO","2","m","rechts","21","","fixation","","","",""
"817","img/120_90.png","70","image-keyboard-response","139","224245","0.0-6.0-1.66","ALGO","2","m","rechts","21","","","object","f","120","true"
"null","<div style=""font-size:60px;"">+</div>","null","html-keyboard-response","140","224697","0.0-6.0-0.67","ALGO","2","m","rechts","21","","fixation","","","",""
"795","img/150_270.png","74","image-keyboard-response","141","225493","0.0-6.0-1.67","ALGO","2","m","rechts","21","","","object","j","150","true"
"null","<div style=""font-size:60px;"">+</div>","null","html-keyboard-response","142","225945","0.0-6.0-0.68","ALGO","2","m","rechts","21","","fixation","","","",""
"865","img/90_180.png","70","image-keyboard-response","143","226811","0.0-6.0-1.68","ALGO","2","m","rechts","21","","","object","f","90","true"
"null","<div style=""font-size:60px;"">+</div>","null","html-keyboard-response","144","227213","0.0-6.0-0.69","ALGO","2","m","rechts","21","","fixation","","","",""
"758","img/60_150.png","74","image-keyboard-response","145","227972","0.0-6.0-1.69","ALGO","2","m","rechts","21","","","object","j","60","true"
"null","<div style=""font-size:60px;"">+</div>","null","html-keyboard-response","146","228423","0.0-6.0-0.70","ALGO","2","m","rechts","21","","fixation","","","",""
"806","img/150_240.png","70","image-keyboard-response","147","229230","0.0-6.0-1.70","ALGO","2","m","rechts","21","","","object","j","150","false"
"null","<div style=""font-size:60px;"">+</div>","null","html-keyboard-response","148","229732","0.0-6.0-0.71","ALGO","2","m","rechts","21","","fixation","","","",""
"749","img/0_270.png","70","image-keyboard-response","149","230481","0.0-6.0-1.71","ALGO","2","m","rechts","21","","","object","f","0","true"
"null","<div style=""font-size:60px;"">+</div>","null","html-keyboard-response","150","230784","0.0-6.0-0.72","ALGO","2","m","rechts","21","","fixation","","","",""
"888","img/L30_180.png","74","image-keyboard-response","151","231673","0.0-6.0-1.72","ALGO","2","m","rechts","21","","","object","j","30","true"
"null","<div style=""font-size:60px;"">+</div>","null","html-keyboard-response","152","232125","0.0-6.0-0.73","ALGO","2","m","rechts","21","","fixation","","","",""
"736","img/30_300.png","74","image-keyboard-response","153","232862","0.0-6.0-1.73","ALGO","2","m","rechts","21","","","object","f","30","false"
"null","<div style=""font-size:60px;"">+</div>","null","html-keyboard-response","154","233164","0.0-6.0-0.74","ALGO","2","m","rechts","21","","fixation","","","",""
"798","img/90_330.png","74","image-keyboard-response","155","233962","0.0-6.0-1.74","ALGO","2","m","rechts","21","","","object","j","90","true"
"null","<div style=""font-size:60px;"">+</div>","null","html-keyboard-response","156","234364","0.0-6.0-0.75","ALGO","2","m","rechts","21","","fixation","","","",""
"763","img/60_90.png","70","image-keyboard-response","157","235127","0.0-6.0-1.75","ALGO","2","m","rechts","21","","","object","j","60","false"
"null","<div style=""font-size:60px;"">+</div>","null","html-keyboard-response","158","235579","0.0-6.0-0.76","ALGO","2","m","rechts","21","","fixation","","","",""
"865","img/60_180.png","70","image-keyboard-response","159","236445","0.0-6.0-1.76","ALGO","2","m","rechts","21","","","object","f","60","true"
"null","<div style=""font-size:60px;"">+</div>","null","html-keyboard-response","160","236897","0.0-6.0-0.77","ALGO","2","m","rechts","21","","fixation","","","",""
"926","img/30_270.png","74","image-keyboard-response","161","237823","0.0-6.0-1.77","ALGO","2","m","rechts","21","","","object","f","30","false"
"null","<div style=""font-size:60px;"">+</div>","null","html-keyboard-response","162","238225","0.0-6.0-0.78","ALGO","2","m","rechts","21","","fixation","","","",""
"1102","img/L90_180.png","70","image-keyboard-response","163","239328","0.0-6.0-1.78","ALGO","2","m","rechts","21","","","object","j","90","false"
"null","<div style=""font-size:60px;"">+</div>","null","html-keyboard-response","164","239730","0.0-6.0-0.79","ALGO","2","m","rechts","21","","fixation","","","",""
"867","img/90_210.png","70","image-keyboard-response","165","240598","0.0-6.0-1.79","ALGO","2","m","rechts","21","","","object","f","90","true"
"null","<div style=""font-size:60px;"">+</div>","null","html-keyboard-response","166","241099","0.0-6.0-0.80","ALGO","2","m","rechts","21","","fixation","","","",""
"943","img/30_240.png","70","image-keyboard-response","167","242043","0.0-6.0-1.80","ALGO","2","m","rechts","21","","","object","f","30","true"
"null","<div style=""font-size:60px;"">+</div>","null","html-keyboard-response","168","242345","0.0-6.0-0.81","ALGO","2","m","rechts","21","","fixation","","","",""
"961","img/90_300.png","74","image-keyboard-response","169","243306","0.0-6.0-1.81","ALGO","2","m","rechts","21","","","object","j","90","true"
"null","<div style=""font-size:60px;"">+</div>","null","html-keyboard-response","170","243807","0.0-6.0-0.82","ALGO","2","m","rechts","21","","fixation","","","",""
"818","img/0_210.png","70","image-keyboard-response","171","244626","0.0-6.0-1.82","ALGO","2","m","rechts","21","","","object","f","0","true"
"null","<div style=""font-size:60px;"">+</div>","null","html-keyboard-response","172","245026","0.0-6.0-0.83","ALGO","2","m","rechts","21","","fixation","","","",""
"860","img/30_60.png","70","image-keyboard-response","173","245888","0.0-6.0-1.83","ALGO","2","m","rechts","21","","","object","j","30","false"
"null","<div style=""font-size:60px;"">+</div>","null","html-keyboard-response","174","246340","0.0-6.0-0.84","ALGO","2","m","rechts","21","","fixation","","","",""
"805","img/L150_180.png","74","image-keyboard-response","175","247146","0.0-6.0-1.84","ALGO","2","m","rechts","21","","","object","j","150","true"
"null","<div style=""font-size:60px;"">+</div>","null","html-keyboard-response","176","247597","0.0-6.0-0.85","ALGO","2","m","rechts","21","","fixation","","","",""
"1166","img/150_90.png","70","image-keyboard-response","177","248764","0.0-6.0-1.85","ALGO","2","m","rechts","21","","","object","f","150","true"
"null","<div style=""font-size:60px;"">+</div>","null","html-keyboard-response","178","249215","0.0-6.0-0.86","ALGO","2","m","rechts","21","","fixation","","","",""
"741","img/60_330.png","74","image-keyboard-response","179","249958","0.0-6.0-1.86","ALGO","2","m","rechts","21","","","object","j","60","true"
"null","<div style=""font-size:60px;"">+</div>","null","html-keyboard-response","180","250459","0.0-6.0-0.87","ALGO","2","m","rechts","21","","fixation","","","",""
"697","img/0_330.png","70","image-keyboard-response","181","251157","0.0-6.0-1.87","ALGO","2","m","rechts","21","","","object","f","0","true"
"null","<div style=""font-size:60px;"">+</div>","null","html-keyboard-response","182","251609","0.0-6.0-0.88","ALGO","2","m","rechts","21","","fixation","","","",""
"957","img/120_270.png","74","image-keyboard-response","183","252567","0.0-6.0-1.88","ALGO","2","m","rechts","21","","","object","j","120","true"
"null","<div style=""font-size:60px;"">+</div>","null","html-keyboard-response","184","252918","0.0-6.0-0.89","ALGO","2","m","rechts","21","","fixation","","","",""
"700","img/0_300.png","70","image-keyboard-response","185","253619","0.0-6.0-1.89","ALGO","2","m","rechts","21","","","object","f","0","true"
"null","<div style=""font-size:60px;"">+</div>","null","html-keyboard-response","186","254121","0.0-6.0-0.90","ALGO","2","m","rechts","21","","fixation","","","",""
"887","img/150_120.png","70","image-keyboard-response","187","255009","0.0-6.0-1.90","ALGO","2","m","rechts","21","","","object","f","150","true"
"null","<div style=""font-size:60px;"">+</div>","null","html-keyboard-response","188","255311","0.0-6.0-0.91","ALGO","2","m","rechts","21","","fixation","","","",""
"820","img/0_120.png","74","image-keyboard-response","189","256134","0.0-6.0-1.91","ALGO","2","m","rechts","21","","","object","j","0","true"
"null","<div style=""font-size:60px;"">+</div>","null","html-keyboard-response","190","256585","0.0-6.0-0.92","ALGO","2","m","rechts","21","","fixation","","","",""
"672","img/90_30.png","70","image-keyboard-response","191","257259","0.0-6.0-1.92","ALGO","2","m","rechts","21","","","object","f","90","true"
"null","<div style=""font-size:60px;"">+</div>","null","html-keyboard-response","192","257760","0.0-6.0-0.93","ALGO","2","m","rechts","21","","fixation","","","",""
"638","img/60_30.png","70","image-keyboard-response","193","258400","0.0-6.0-1.93","ALGO","2","m","rechts","21","","","object","f","60","true"
"null","<div style=""font-size:60px;"">+</div>","null","html-keyboard-response","194","258751","0.0-6.0-0.94","ALGO","2","m","rechts","21","","fixation","","","",""
"774","img/120_330.png","74","image-keyboard-response","195","259526","0.0-6.0-1.94","ALGO","2","m","rechts","21","","","object","j","120","true"
"null","<div style=""font-size:60px;"">+</div>","null","html-keyboard-response","196","260028","0.0-6.0-0.95","ALGO","2","m","rechts","21","","fixation","","","",""
"1011","img/90_120.png","74","image-keyboard-response","197","261040","0.0-6.0-1.95","ALGO","2","m","rechts","21","","","object","j","90","true"
"null","<div style=""font-size:60px;"">+</div>","null","html-keyboard-response","198","261392","0.0-6.0-0.96","ALGO","2","m","rechts","21","","fixation","","","",""
"861","img/90_60.png","70","image-keyboard-response","199","262254","0.0-6.0-1.96","ALGO","2","m","rechts","21","","","object","f","90","true"
"null","<div style=""font-size:60px;"">+</div>","null","html-keyboard-response","200","262656","0.0-6.0-0.97","ALGO","2","m","rechts","21","","fixation","","","",""
"1083","img/120_150.png","74","image-keyboard-response","201","263740","0.0-6.0-1.97","ALGO","2","m","rechts","21","","","object","j","120","true"
"null","<div style=""font-size:60px;"">+</div>","null","html-keyboard-response","202","264042","0.0-6.0-0.98","ALGO","2","m","rechts","21","","fixation","","","",""
"863","img/0_60.png","74","image-keyboard-response","203","264906","0.0-6.0-1.98","ALGO","2","m","rechts","21","","","object","j","0","true"
"null","<div style=""font-size:60px;"">+</div>","null","html-keyboard-response","204","265258","0.0-6.0-0.99","ALGO","2","m","rechts","21","","fixation","","","",""
"931","img/30_120.png","74","image-keyboard-response","205","266192","0.0-6.0-1.99","ALGO","2","m","rechts","21","","","object","j","30","true"
"null","<div style=""font-size:60px;"">+</div>","null","html-keyboard-response","206","266543","0.0-6.0-0.100","ALGO","2","m","rechts","21","","fixation","","","",""
"812","img/90_240.png","70","image-keyboard-response","207","267356","0.0-6.0-1.100","ALGO","2","m","rechts","21","","","object","f","90","true"
"null","<div style=""font-size:60px;"">+</div>","null","html-keyboard-response","208","267858","0.0-6.0-0.101","ALGO","2","m","rechts","21","","fixation","","","",""
"767","img/0_90.png","74","image-keyboard-response","209","268626","0.0-6.0-1.101","ALGO","2","m","rechts","21","","","object","j","0","true"
"null","<div style=""font-size:60px;"">+</div>","null","html-keyboard-response","210","269028","0.0-6.0-0.102","ALGO","2","m","rechts","21","","fixation","","","",""
"863","img/30_90.png","74","image-keyboard-response","211","269892","0.0-6.0-1.102","ALGO","2","m","rechts","21","","","object","j","30","true"
"null","<div style=""font-size:60px;"">+</div>","null","html-keyboard-response","212","270294","0.0-6.0-0.103","ALGO","2","m","rechts","21","","fixation","","","",""
"809","img/0_30.png","74","image-keyboard-response","213","271105","0.0-6.0-1.103","ALGO","2","m","rechts","21","","","object","j","0","true"
"null","<div style=""font-size:60px;"">+</div>","null","html-keyboard-response","214","271507","0.0-6.0-0.104","ALGO","2","m","rechts","21","","fixation","","","",""
"682","img/90_30.png","70","image-keyboard-response","215","272190","0.0-6.0-1.104","ALGO","2","m","rechts","21","","","object","f","90","true"
"null","<div style=""font-size:60px;"">+</div>","null","html-keyboard-response","216","272692","0.0-6.0-0.105","ALGO","2","m","rechts","21","","fixation","","","",""
"880","img/L60_180.png","74","image-keyboard-response","217","273573","0.0-6.0-1.105","ALGO","2","m","rechts","21","","","object","j","60","true"
"null","<div style=""font-size:60px;"">+</div>","null","html-keyboard-response","218","274075","0.0-6.0-0.106","ALGO","2","m","rechts","21","","fixation","","","",""
"703","img/L150_180.png","74","image-keyboard-response","219","274778","0.0-6.0-1.106","ALGO","2","m","rechts","21","","","object","j","150","true"
"null","<div style=""font-size:60px;"">+</div>","null","html-keyboard-response","220","275130","0.0-6.0-0.107","ALGO","2","m","rechts","21","","fixation","","","",""
"824","img/0_30.png","74","image-keyboard-response","221","275955","0.0-6.0-1.107","ALGO","2","m","rechts","21","","","object","j","0","true"
"null","<div style=""font-size:60px;"">+</div>","null","html-keyboard-response","222","276457","0.0-6.0-0.108","ALGO","2","m","rechts","21","","fixation","","","",""
"726","img/L90_180.png","74","image-keyboard-response","223","277184","0.0-6.0-1.108","ALGO","2","m","rechts","21","","","object","j","90","true"
"null","<div style=""font-size:60px;"">+</div>","null","html-keyboard-response","224","277586","0.0-6.0-0.109","ALGO","2","m","rechts","21","","fixation","","","",""
"982","img/0_150.png","74","image-keyboard-response","225","278569","0.0-6.0-1.109","ALGO","2","m","rechts","21","","","object","j","0","true"
"null","<div style=""font-size:60px;"">+</div>","null","html-keyboard-response","226","278971","0.0-6.0-0.110","ALGO","2","m","rechts","21","","fixation","","","",""
"788","img/60_330.png","74","image-keyboard-response","227","279760","0.0-6.0-1.110","ALGO","2","m","rechts","21","","","object","j","60","true"
"null","<div style=""font-size:60px;"">+</div>","null","html-keyboard-response","228","280262","0.0-6.0-0.111","ALGO","2","m","rechts","21","","fixation","","","",""
"810","img/150_270.png","70","image-keyboard-response","229","281074","0.0-6.0-1.111","ALGO","2","m","rechts","21","","","object","j","150","false"
"null","<div style=""font-size:60px;"">+</div>","null","html-keyboard-response","230","281476","0.0-6.0-0.112","ALGO","2","m","rechts","21","","fixation","","","",""
"834","img/90_300.png","74","image-keyboard-response","231","282311","0.0-6.0-1.112","ALGO","2","m","rechts","21","","","object","j","90","true"
"null","<div style=""font-size:60px;"">+</div>","null","html-keyboard-response","232","282763","0.0-6.0-0.113","ALGO","2","m","rechts","21","","fixation","","","",""
"911","img/30_300.png","70","image-keyboard-response","233","283675","0.0-6.0-1.113","ALGO","2","m","rechts","21","","","object","f","30","true"
"null","<div style=""font-size:60px;"">+</div>","null","html-keyboard-response","234","284027","0.0-6.0-0.114","ALGO","2","m","rechts","21","","fixation","","","",""
"1130","img/60_90.png","70","image-keyboard-response","235","285158","0.0-6.0-1.114","ALGO","2","m","rechts","21","","","object","j","60","false"
"null","<div style=""font-size:60px;"">+</div>","null","html-keyboard-response","236","285560","0.0-6.0-0.115","ALGO","2","m","rechts","21","","fixation","","","",""
"810","img/0_300.png","70","image-keyboard-response","237","286370","0.0-6.0-1.115","ALGO","2","m","rechts","21","","","object","f","0","true"
"null","<div style=""font-size:60px;"">+</div>","null","html-keyboard-response","238","286872","0.0-6.0-0.116","ALGO","2","m","rechts","21","","fixation","","","",""
"917","img/150_180.png","70","image-keyboard-response","239","287790","0.0-6.0-1.116","ALGO","2","m","rechts","21","","","object","f","150","true"
"null","<div style=""font-size:60px;"">+</div>","null","html-keyboard-response","240","288141","0.0-6.0-0.117","ALGO","2","m","rechts","21","","fixation","","","",""
"862","img/120_270.png","74","image-keyboard-response","241","289005","0.0-6.0-1.117","ALGO","2","m","rechts","21","","","object","j","120","true"
"null","<div style=""font-size:60px;"">+</div>","null","html-keyboard-response","242","289357","0.0-6.0-0.118","ALGO","2","m","rechts","21","","fixation","","","",""
"847","img/120_180.png","70","image-keyboard-response","243","290205","0.0-6.0-1.118","ALGO","2","m","rechts","21","","","object","f","120","true"
"null","<div style=""font-size:60px;"">+</div>","null","html-keyboard-response","244","290707","0.0-6.0-0.119","ALGO","2","m","rechts","21","","fixation","","","",""
"939","img/30_120.png","74","image-keyboard-response","245","291647","0.0-6.0-1.119","ALGO","2","m","rechts","21","","","object","j","30","true"
"null","<div style=""font-size:60px;"">+</div>","null","html-keyboard-response","246","292098","0.0-6.0-0.120","ALGO","2","m","rechts","21","","fixation","","","",""
"989","img/120_150.png","74","image-keyboard-response","247","293088","0.0-6.0-1.120","ALGO","2","m","rechts","21","","","object","j","120","true"
"null","<div style=""font-size:60px;"">+</div>","null","html-keyboard-response","248","293440","0.0-6.0-0.121","ALGO","2","m","rechts","21","","fixation","","","",""
"789","img/0_210.png","70","image-keyboard-response","249","294229","0.0-6.0-1.121","ALGO","2","m","rechts","21","","","object","f","0","true"
"null","<div style=""font-size:60px;"">+</div>","null","html-keyboard-response","250","294730","0.0-6.0-0.122","ALGO","2","m","rechts","21","","fixation","","","",""
"870","img/120_30.png","70","image-keyboard-response","251","295602","0.0-6.0-1.122","ALGO","2","m","rechts","21","","","object","f","120","true"
"null","<div style=""font-size:60px;"">+</div>","null","html-keyboard-response","252","295904","0.0-6.0-0.123","ALGO","2","m","rechts","21","","fixation","","","",""
"838","img/60_30.png","70","image-keyboard-response","253","296743","0.0-6.0-1.123","ALGO","2","m","rechts","21","","","object","f","60","true"
"null","<div style=""font-size:60px;"">+</div>","null","html-keyboard-response","254","297245","0.0-6.0-0.124","ALGO","2","m","rechts","21","","fixation","","","",""
"883","img/60_180.png","70","image-keyboard-response","255","298128","0.0-6.0-1.124","ALGO","2","m","rechts","21","","","object","f","60","true"
"null","<div style=""font-size:60px;"">+</div>","null","html-keyboard-response","256","298530","0.0-6.0-0.125","ALGO","2","m","rechts","21","","fixation","","","",""
"1064","img/30_240.png","70","image-keyboard-response","257","299595","0.0-6.0-1.125","ALGO","2","m","rechts","21","","","object","f","30","true"
"null","<div style=""font-size:60px;"">+</div>","null","html-keyboard-response","258","299896","0.0-6.0-0.126","ALGO","2","m","rechts","21","","fixation","","","",""
"931","img/90_150.png","74","image-keyboard-response","259","300829","0.0-6.0-1.126","ALGO","2","m","rechts","21","","","object","j","90","true"
"null","<div style=""font-size:60px;"">+</div>","null","html-keyboard-response","260","301232","0.0-6.0-0.127","ALGO","2","m","rechts","21","","fixation","","","",""
"691","img/60_210.png","70","image-keyboard-response","261","301925","0.0-6.0-1.127","ALGO","2","m","rechts","21","","","object","f","60","true"
"null","<div style=""font-size:60px;"">+</div>","null","html-keyboard-response","262","302376","0.0-6.0-0.128","ALGO","2","m","rechts","21","","fixation","","","",""
"759","img/90_210.png","70","image-keyboard-response","263","303136","0.0-6.0-1.128","ALGO","2","m","rechts","21","","","object","f","90","true"
"null","<div style=""font-size:60px;"">+</div>","null","html-keyboard-response","264","303638","0.0-6.0-0.129","ALGO","2","m","rechts","21","","fixation","","","",""
"1067","img/30_270.png","70","image-keyboard-response","265","304706","0.0-6.0-1.129","ALGO","2","m","rechts","21","","","object","f","30","true"
"null","<div style=""font-size:60px;"">+</div>","null","html-keyboard-response","266","305057","0.0-6.0-0.130","ALGO","2","m","rechts","21","","fixation","","","",""
"1100","img/120_90.png","70","image-keyboard-response","267","306159","0.0-6.0-1.130","ALGO","2","m","rechts","21","","","object","f","120","true"
"null","<div style=""font-size:60px;"">+</div>","null","html-keyboard-response","268","306610","0.0-6.0-0.131","ALGO","2","m","rechts","21","","fixation","","","",""
"820","img/150_90.png","70","image-keyboard-response","269","307432","0.0-6.0-1.131","ALGO","2","m","rechts","21","","","object","f","150","true"
"null","<div style=""font-size:60px;"">+</div>","null","html-keyboard-response","270","307933","0.0-6.0-0.132","ALGO","2","m","rechts","21","","fixation","","","",""
"874","img/0_120.png","74","image-keyboard-response","271","308811","0.0-6.0-1.132","ALGO","2","m","rechts","21","","","object","j","0","true"
"null","<div style=""font-size:60px;"">+</div>","null","html-keyboard-response","272","309312","0.0-6.0-0.133","ALGO","2","m","rechts","21","","fixation","","","",""
"1088","img/L30_180.png","74","image-keyboard-response","273","310401","0.0-6.0-1.133","ALGO","2","m","rechts","21","","","object","j","30","true"
"null","<div style=""font-size:60px;"">+</div>","null","html-keyboard-response","274","310753","0.0-6.0-0.134","ALGO","2","m","rechts","21","","fixation","","","",""
"737","img/90_120.png","70","image-keyboard-response","275","311491","0.0-6.0-1.134","ALGO","2","m","rechts","21","","","object","j","90","false"
"null","<div style=""font-size:60px;"">+</div>","null","html-keyboard-response","276","311892","0.0-6.0-0.135","ALGO","2","m","rechts","21","","fixation","","","",""
"901","img/120_330.png","74","image-keyboard-response","277","312794","0.0-6.0-1.135","ALGO","2","m","rechts","21","","","object","j","120","true"
"null","<div style=""font-size:60px;"">+</div>","null","html-keyboard-response","278","313296","0.0-6.0-0.136","ALGO","2","m","rechts","21","","fixation","","","",""
"685","img/120_210.png","70","image-keyboard-response","279","313982","0.0-6.0-1.136","ALGO","2","m","rechts","21","","","object","f","120","true"
"null","<div style=""font-size:60px;"">+</div>","null","html-keyboard-response","280","314283","0.0-6.0-0.137","ALGO","2","m","rechts","21","","fixation","","","",""
"738","img/0_270.png","70","image-keyboard-response","281","315022","0.0-6.0-1.137","ALGO","2","m","rechts","21","","","object","f","0","true"
"null","<div style=""font-size:60px;"">+</div>","null","html-keyboard-response","282","315374","0.0-6.0-0.138","ALGO","2","m","rechts","21","","fixation","","","",""
"1076","img/90_180.png","70","image-keyboard-response","283","316453","0.0-6.0-1.138","ALGO","2","m","rechts","21","","","object","f","90","true"
"null","<div style=""font-size:60px;"">+</div>","null","html-keyboard-response","284","316904","0.0-6.0-0.139","ALGO","2","m","rechts","21","","fixation","","","",""
"871","img/150_120.png","70","image-keyboard-response","285","317778","0.0-6.0-1.139","ALGO","2","m","rechts","21","","","object","f","150","true"
"null","<div style=""font-size:60px;"">+</div>","null","html-keyboard-response","286","318130","0.0-6.0-0.140","ALGO","2","m","rechts","21","","fixation","","","",""
"971","img/90_60.png","70","image-keyboard-response","287","319102","0.0-6.0-1.140","ALGO","2","m","rechts","21","","","object","f","90","true"
"null","<div style=""font-size:60px;"">+</div>","null","html-keyboard-response","288","319454","0.0-6.0-0.141","ALGO","2","m","rechts","21","","fixation","","","",""
"1072","img/150_60.png","70","image-keyboard-response","289","320527","0.0-6.0-1.141","ALGO","2","m","rechts","21","","","object","f","150","true"
"null","<div style=""font-size:60px;"">+</div>","null","html-keyboard-response","290","321029","0.0-6.0-0.142","ALGO","2","m","rechts","21","","fixation","","","",""
"823","img/60_270.png","74","image-keyboard-response","291","321853","0.0-6.0-1.142","ALGO","2","m","rechts","21","","","object","f","60","false"
"null","<div style=""font-size:60px;"">+</div>","null","html-keyboard-response","292","323406","0.0-6.0-0.143","ALGO","2","m","rechts","21","","fixation","","","",""
"803","img/30_180.png","70","image-keyboard-response","293","324211","0.0-6.0-1.143","ALGO","2","m","rechts","21","","","object","f","30","true"
"null","<div style=""font-size:60px;"">+</div>","null","html-keyboard-response","294","324513","0.0-6.0-0.144","ALGO","2","m","rechts","21","","fixation","","","",""
"1070","img/90_240.png","70","image-keyboard-response","295","325584","0.0-6.0-1.144","ALGO","2","m","rechts","21","","","object","f","90","true"
"null","<div style=""font-size:60px;"">+</div>","null","html-keyboard-response","296","325886","0.0-6.0-0.145","ALGO","2","m","rechts","21","","fixation","","","",""
"919","img/0_330.png","70","image-keyboard-response","297","326807","0.0-6.0-1.145","ALGO","2","m","rechts","21","","","object","f","0","true"
"null","<div style=""font-size:60px;"">+</div>","null","html-keyboard-response","298","327258","0.0-6.0-0.146","ALGO","2","m","rechts","21","","fixation","","","",""
"748","img/150_300.png","74","image-keyboard-response","299","328008","0.0-6.0-1.146","ALGO","2","m","rechts","21","","","object","j","150","true"
"null","<div style=""font-size:60px;"">+</div>","null","html-keyboard-response","300","328408","0.0-6.0-0.147","ALGO","2","m","rechts","21","","fixation","","","",""
"1305","img/60_150.png","74","image-keyboard-response","301","329715","0.0-6.0-1.147","ALGO","2","m","rechts","21","","","object","j","60","true"
"null","<div style=""font-size:60px;"">+</div>","null","html-keyboard-response","302","330216","0.0-6.0-0.148","ALGO","2","m","rechts","21","","fixation","","","",""
"786","img/L120_180.png","74","image-keyboard-response","303","331004","0.0-6.0-1.148","ALGO","2","m","rechts","21","","","object","j","120","true"
"null","<div style=""font-size:60px;"">+</div>","null","html-keyboard-response","304","331305","0.0-6.0-0.149","ALGO","2","m","rechts","21","","fixation","","","",""
"1097","img/0_90.png","74","image-keyboard-response","305","332403","0.0-6.0-1.149","ALGO","2","m","rechts","21","","","object","j","0","true"
"null","<div style=""font-size:60px;"">+</div>","null","html-keyboard-response","306","332805","0.0-6.0-0.150","ALGO","2","m","rechts","21","","fixation","","","",""
"922","img/150_240.png","70","image-keyboard-response","307","333729","0.0-6.0-1.150","ALGO","2","m","rechts","21","","","object","j","150","false"
"null","<div style=""font-size:60px;"">+</div>","null","html-keyboard-response","308","334080","0.0-6.0-0.151","ALGO","2","m","rechts","21","","fixation","","","",""
"907","img/30_60.png","70","image-keyboard-response","309","334988","0.0-6.0-1.151","ALGO","2","m","rechts","21","","","object","j","30","false"
"null","<div style=""font-size:60px;"">+</div>","null","html-keyboard-response","310","335290","0.0-6.0-0.152","ALGO","2","m","rechts","21","","fixation","","","",""
"815","img/0_60.png","74","image-keyboard-response","311","336106","0.0-6.0-1.152","ALGO","2","m","rechts","21","","","object","j","0","true"
"null","<div style=""font-size:60px;"">+</div>","null","html-keyboard-response","312","336509","0.0-6.0-0.153","ALGO","2","m","rechts","21","","fixation","","","",""
"751","img/90_330.png","74","image-keyboard-response","313","337261","0.0-6.0-1.153","ALGO","2","m","rechts","21","","","object","j","90","true"
"null","<div style=""font-size:60px;"">+</div>","null","html-keyboard-response","314","337763","0.0-6.0-0.154","ALGO","2","m","rechts","21","","fixation","","","",""
"612","img/0_240.png","70","image-keyboard-response","315","338377","0.0-6.0-1.154","ALGO","2","m","rechts","21","","","object","f","0","true"
"null","<div style=""font-size:60px;"">+</div>","null","html-keyboard-response","316","338778","0.0-6.0-0.155","ALGO","2","m","rechts","21","","fixation","","","",""
"859","img/30_90.png","74","image-keyboard-response","317","339638","0.0-6.0-1.155","ALGO","2","m","rechts","21","","","object","j","30","true"
"null","<div style=""font-size:60px;"">+</div>","null","html-keyboard-response","318","340142","0.0-6.0-0.156","ALGO","2","m","rechts","21","","fixation","","","",""
"812","img/90_240.png","74","image-keyboard-response","319","340956","0.0-6.0-1.156","ALGO","2","m","rechts","21","","","object","f","90","false"
"null","<div style=""font-size:60px;"">+</div>","null","html-keyboard-response","320","341307","0.0-6.0-0.157","ALGO","2","m","rechts","21","","fixation","","","",""
"1070","img/L150_180.png","74","image-keyboard-response","321","342378","0.0-6.0-1.157","ALGO","2","m","rechts","21","","","object","j","150","true"
"null","<div style=""font-size:60px;"">+</div>","null","html-keyboard-response","322","342729","0.0-6.0-0.158","ALGO","2","m","rechts","21","","fixation","","","",""
"1065","img/L30_180.png","74","image-keyboard-response","323","343796","0.0-6.0-1.158","ALGO","2","m","rechts","21","","","object","j","30","true"
"null","<div style=""font-size:60px;"">+</div>","null","html-keyboard-response","324","344197","0.0-6.0-0.159","ALGO","2","m","rechts","21","","fixation","","","",""
"839","img/90_60.png","70","image-keyboard-response","325","345037","0.0-6.0-1.159","ALGO","2","m","rechts","21","","","object","f","90","true"
"null","<div style=""font-size:60px;"">+</div>","null","html-keyboard-response","326","345539","0.0-6.0-0.160","ALGO","2","m","rechts","21","","fixation","","","",""
"758","img/120_270.png","74","image-keyboard-response","327","346300","0.0-6.0-1.160","ALGO","2","m","rechts","21","","","object","j","120","true"
"null","<div style=""font-size:60px;"">+</div>","null","html-keyboard-response","328","346652","0.0-6.0-0.161","ALGO","2","m","rechts","21","","fixation","","","",""
"928","img/L60_180.png","74","image-keyboard-response","329","347580","0.0-6.0-1.161","ALGO","2","m","rechts","21","","","object","j","60","true"
"null","<div style=""font-size:60px;"">+</div>","null","html-keyboard-response","330","347932","0.0-6.0-0.162","ALGO","2","m","rechts","21","","fixation","","","",""
"1186","img/30_90.png","74","image-keyboard-response","331","349119","0.0-6.0-1.162","ALGO","2","m","rechts","21","","","object","j","30","true"
"null","<div style=""font-size:60px;"">+</div>","null","html-keyboard-response","332","349571","0.0-6.0-0.163","ALGO","2","m","rechts","21","","fixation","","","",""
"761","img/90_330.png","74","image-keyboard-response","333","350333","0.0-6.0-1.163","ALGO","2","m","rechts","21","","","object","j","90","true"
"null","<div style=""font-size:60px;"">+</div>","null","html-keyboard-response","334","350635","0.0-6.0-0.164","ALGO","2","m","rechts","21","","fixation","","","",""
"781","img/0_240.png","70","image-keyboard-response","335","351417","0.0-6.0-1.164","ALGO","2","m","rechts","21","","","object","f","0","true"
"null","<div style=""font-size:60px;"">+</div>","null","html-keyboard-response","336","351819","0.0-6.0-0.165","ALGO","2","m","rechts","21","","fixation","","","",""
"921","img/90_180.png","70","image-keyboard-response","337","352742","0.0-6.0-1.165","ALGO","2","m","rechts","21","","","object","f","90","true"
"null","<div style=""font-size:60px;"">+</div>","null","html-keyboard-response","338","353194","0.0-6.0-0.166","ALGO","2","m","rechts","21","","fixation","","","",""
"787","img/30_180.png","70","image-keyboard-response","339","353982","0.0-6.0-1.166","ALGO","2","m","rechts","21","","","object","f","30","true"
"null","<div style=""font-size:60px;"">+</div>","null","html-keyboard-response","340","354383","0.0-6.0-0.167","ALGO","2","m","rechts","21","","fixation","","","",""
"821","img/90_150.png","74","image-keyboard-response","341","355205","0.0-6.0-1.167","ALGO","2","m","rechts","21","","","object","j","90","true"
"null","<div style=""font-size:60px;"">+</div>","null","html-keyboard-response","342","355607","0.0-6.0-0.168","ALGO","2","m","rechts","21","","fixation","","","",""
"928","img/150_300.png","74","image-keyboard-response","343","356536","0.0-6.0-1.168","ALGO","2","m","rechts","21","","","object","j","150","true"
"null","<div style=""font-size:60px;"">+</div>","null","html-keyboard-response","344","356988","0.0-6.0-0.169","ALGO","2","m","rechts","21","","fixation","","","",""
"984","img/150_120.png","74","image-keyboard-response","345","357973","0.0-6.0-1.169","ALGO","2","m","rechts","21","","","object","f","150","false"
"null","<div style=""font-size:60px;"">+</div>","null","html-keyboard-response","346","358326","0.0-6.0-0.170","ALGO","2","m","rechts","21","","fixation","","","",""
"1121","img/30_270.png","70","image-keyboard-response","347","359448","0.0-6.0-1.170","ALGO","2","m","rechts","21","","","object","f","30","true"
"null","<div style=""font-size:60px;"">+</div>","null","html-keyboard-response","348","359750","0.0-6.0-0.171","ALGO","2","m","rechts","21","","fixation","","","",""
"1071","img/30_240.png","70","image-keyboard-response","349","360822","0.0-6.0-1.171","ALGO","2","m","rechts","21","","","object","f","30","true"
"null","<div style=""font-size:60px;"">+</div>","null","html-keyboard-response","350","361174","0.0-6.0-0.172","ALGO","2","m","rechts","21","","fixation","","","",""
"1086","img/L90_180.png","74","image-keyboard-response","351","362260","0.0-6.0-1.172","ALGO","2","m","rechts","21","","","object","j","90","true"
"null","<div style=""font-size:60px;"">+</div>","null","html-keyboard-response","352","362712","0.0-6.0-0.173","ALGO","2","m","rechts","21","","fixation","","","",""
"880","img/120_330.png","74","image-keyboard-response","353","363593","0.0-6.0-1.173","ALGO","2","m","rechts","21","","","object","j","120","true"
"null","<div style=""font-size:60px;"">+</div>","null","html-keyboard-response","354","364045","0.0-6.0-0.174","ALGO","2","m","rechts","21","","fixation","","","",""
"890","img/90_210.png","70","image-keyboard-response","355","364938","0.0-6.0-1.174","ALGO","2","m","rechts","21","","","object","f","90","true"
"null","<div style=""font-size:60px;"">+</div>","null","html-keyboard-response","356","365339","0.0-6.0-0.175","ALGO","2","m","rechts","21","","fixation","","","",""
"1144","img/60_150.png","74","image-keyboard-response","357","366483","0.0-6.0-1.175","ALGO","2","m","rechts","21","","","object","j","60","true"
"null","<div style=""font-size:60px;"">+</div>","null","html-keyboard-response","358","366885","0.0-6.0-0.176","ALGO","2","m","rechts","21","","fixation","","","",""
"757","img/60_210.png","70","image-keyboard-response","359","367643","0.0-6.0-1.176","ALGO","2","m","rechts","21","","","object","f","60","true"
"null","<div style=""font-size:60px;"">+</div>","null","html-keyboard-response","360","368045","0.0-6.0-0.177","ALGO","2","m","rechts","21","","fixation","","","",""
"875","img/120_150.png","74","image-keyboard-response","361","368921","0.0-6.0-1.177","ALGO","2","m","rechts","21","","","object","j","120","true"
"null","<div style=""font-size:60px;"">+</div>","null","html-keyboard-response","362","369223","0.0-6.0-0.178","ALGO","2","m","rechts","21","","fixation","","","",""
"966","img/60_270.png","74","image-keyboard-response","363","370189","0.0-6.0-1.178","ALGO","2","m","rechts","21","","","object","f","60","false"
"null","<div style=""font-size:60px;"">+</div>","null","html-keyboard-response","364","370591","0.0-6.0-0.179","ALGO","2","m","rechts","21","","fixation","","","",""
"1075","img/150_270.png","74","image-keyboard-response","365","371667","0.0-6.0-1.179","ALGO","2","m","rechts","21","","","object","j","150","true"
"null","<div style=""font-size:60px;"">+</div>","null","html-keyboard-response","366","372119","0.0-6.0-0.180","ALGO","2","m","rechts","21","","fixation","","","",""
"971","img/90_300.png","74","image-keyboard-response","367","373091","0.0-6.0-1.180","ALGO","2","m","rechts","21","","","object","j","90","true"
"null","<div style=""font-size:60px;"">+</div>","null","html-keyboard-response","368","373543","0.0-6.0-0.181","ALGO","2","m","rechts","21","","fixation","","","",""
"793","img/150_180.png","70","image-keyboard-response","369","374337","0.0-6.0-1.181","ALGO","2","m","rechts","21","","","object","f","150","true"
"null","<div style=""font-size:60px;"">+</div>","null","html-keyboard-response","370","374688","0.0-6.0-0.182","ALGO","2","m","rechts","21","","fixation","","","",""
"1067","img/150_240.png","70","image-keyboard-response","371","375756","0.0-6.0-1.182","ALGO","2","m","rechts","21","","","object","j","150","false"
"null","<div style=""font-size:60px;"">+</div>","null","html-keyboard-response","372","376058","0.0-6.0-0.183","ALGO","2","m","rechts","21","","fixation","","","",""
"938","img/120_180.png","70","image-keyboard-response","373","376997","0.0-6.0-1.183","ALGO","2","m","rechts","21","","","object","f","120","true"
"null","<div style=""font-size:60px;"">+</div>","null","html-keyboard-response","374","377299","0.0-6.0-0.184","ALGO","2","m","rechts","21","","fixation","","","",""
"1273","img/L120_180.png","74","image-keyboard-response","375","378572","0.0-6.0-1.184","ALGO","2","m","rechts","21","","","object","j","120","true"
"null","<div style=""font-size:60px;"">+</div>","null","html-keyboard-response","376","378924","0.0-6.0-0.185","ALGO","2","m","rechts","21","","fixation","","","",""
"1382","img/60_90.png","74","image-keyboard-response","377","380308","0.0-6.0-1.185","ALGO","2","m","rechts","21","","","object","j","60","true"
"null","<div style=""font-size:60px;"">+</div>","null","html-keyboard-response","378","380610","0.0-6.0-0.186","ALGO","2","m","rechts","21","","fixation","","","",""
"762","img/0_270.png","70","image-keyboard-response","379","381374","0.0-6.0-1.186","ALGO","2","m","rechts","21","","","object","f","0","true"
"null","<div style=""font-size:60px;"">+</div>","null","html-keyboard-response","380","381875","0.0-6.0-0.187","ALGO","2","m","rechts","21","","fixation","","","",""
"768","img/0_150.png","74","image-keyboard-response","381","382644","0.0-6.0-1.187","ALGO","2","m","rechts","21","","","object","j","0","true"
"null","<div style=""font-size:60px;"">+</div>","null","html-keyboard-response","382","382946","0.0-6.0-0.188","ALGO","2","m","rechts","21","","fixation","","","",""
"1064","img/90_120.png","74","image-keyboard-response","383","384010","0.0-6.0-1.188","ALGO","2","m","rechts","21","","","object","j","90","true"
"null","<div style=""font-size:60px;"">+</div>","null","html-keyboard-response","384","384412","0.0-6.0-0.189","ALGO","2","m","rechts","21","","fixation","","","",""
"897","img/120_210.png","70","image-keyboard-response","385","385310","0.0-6.0-1.189","ALGO","2","m","rechts","21","","","object","f","120","true"
"null","<div style=""font-size:60px;"">+</div>","null","html-keyboard-response","386","385712","0.0-6.0-0.190","ALGO","2","m","rechts","21","","fixation","","","",""
"827","img/60_30.png","70","image-keyboard-response","387","386541","0.0-6.0-1.190","ALGO","2","m","rechts","21","","","object","f","60","true"
"null","<div style=""font-size:60px;"">+</div>","null","html-keyboard-response","388","387042","0.0-6.0-0.191","ALGO","2","m","rechts","21","","fixation","","","",""
"732","img/30_60.png","74","image-keyboard-response","389","387776","0.0-6.0-1.191","ALGO","2","m","rechts","21","","","object","j","30","true"
"null","<div style=""font-size:60px;"">+</div>","null","html-keyboard-response","390","388227","0.0-6.0-0.192","ALGO","2","m","rechts","21","","fixation","","","",""
"710","img/0_210.png","70","image-keyboard-response","391","388939","0.0-6.0-1.192","ALGO","2","m","rechts","21","","","object","f","0","true"
"null","<div style=""font-size:60px;"">+</div>","null","html-keyboard-response","392","389290","0.0-6.0-0.193","ALGO","2","m","rechts","21","","fixation","","","",""
"925","img/0_60.png","74","image-keyboard-response","393","390216","0.0-6.0-1.193","ALGO","2","m","rechts","21","","","object","j","0","true"
"null","<div style=""font-size:60px;"">+</div>","null","html-keyboard-response","394","390518","0.0-6.0-0.194","ALGO","2","m","rechts","21","","fixation","","","",""
"1006","img/120_90.png","74","image-keyboard-response","395","391527","0.0-6.0-1.194","ALGO","2","m","rechts","21","","","object","f","120","false"
"null","<div style=""font-size:60px;"">+</div>","null","html-keyboard-response","396","392029","0.0-6.0-0.195","ALGO","2","m","rechts","21","","fixation","","","",""
"877","img/0_90.png","74","image-keyboard-response","397","392908","0.0-6.0-1.195","ALGO","2","m","rechts","21","","","object","j","0","true"
"null","<div style=""font-size:60px;"">+</div>","null","html-keyboard-response","398","393409","0.0-6.0-0.196","ALGO","2","m","rechts","21","","fixation","","","",""
"785","img/150_60.png","70","image-keyboard-response","399","394195","0.0-6.0-1.196","ALGO","2","m","rechts","21","","","object","f","150","true"
"null","<div style=""font-size:60px;"">+</div>","null","html-keyboard-response","400","394547","0.0-6.0-0.197","ALGO","2","m","rechts","21","","fixation","","","",""
"729","img/90_30.png","70","image-keyboard-response","401","395277","0.0-6.0-1.197","ALGO","2","m","rechts","21","","","object","f","90","true"
"null","<div style=""font-size:60px;"">+</div>","null","html-keyboard-response","402","395629","0.0-6.0-0.198","ALGO","2","m","rechts","21","","fixation","","","",""
"908","img/150_90.png","70","image-keyboard-response","403","396539","0.0-6.0-1.198","ALGO","2","m","rechts","21","","","object","f","150","true"
"null","<div style=""font-size:60px;"">+</div>","null","html-keyboard-response","404","397040","0.0-6.0-0.199","ALGO","2","m","rechts","21","","fixation","","","",""
"722","img/120_30.png","70","image-keyboard-response","405","397763","0.0-6.0-1.199","ALGO","2","m","rechts","21","","","object","f","120","true"
"null","<div style=""font-size:60px;"">+</div>","null","html-keyboard-response","406","398116","0.0-6.0-0.200","ALGO","2","m","rechts","21","","fixation","","","",""
"722","img/0_120.png","74","image-keyboard-response","407","398839","0.0-6.0-1.200","ALGO","2","m","rechts","21","","","object","j","0","true"
"null","<div style=""font-size:60px;"">+</div>","null","html-keyboard-response","408","399141","0.0-6.0-0.201","ALGO","2","m","rechts","21","","fixation","","","",""
"689","img/0_30.png","74","image-keyboard-response","409","399831","0.0-6.0-1.201","ALGO","2","m","rechts","21","","","object","j","0","true"
"null","<div style=""font-size:60px;"">+</div>","null","html-keyboard-response","410","400283","0.0-6.0-0.202","ALGO","2","m","rechts","21","","fixation","","","",""
"653","img/0_300.png","70","image-keyboard-response","411","400937","0.0-6.0-1.202","ALGO","2","m","rechts","21","","","object","f","0","true"
"null","<div style=""font-size:60px;"">+</div>","null","html-keyboard-response","412","401439","0.0-6.0-0.203","ALGO","2","m","rechts","21","","fixation","","","",""
"1074","img/30_300.png","70","image-keyboard-response","413","402514","0.0-6.0-1.203","ALGO","2","m","rechts","21","","","object","f","30","true"
"null","<div style=""font-size:60px;"">+</div>","null","html-keyboard-response","414","402916","0.0-6.0-0.204","ALGO","2","m","rechts","21","","fixation","","","",""
"691","img/0_330.png","70","image-keyboard-response","415","403609","0.0-6.0-1.204","ALGO","2","m","rechts","21","","","object","f","0","true"
"null","<div style=""font-size:60px;"">+</div>","null","html-keyboard-response","416","403961","0.0-6.0-0.205","ALGO","2","m","rechts","21","","fixation","","","",""
"865","img/60_180.png","70","image-keyboard-response","417","404827","0.0-6.0-1.205","ALGO","2","m","rechts","21","","","object","f","60","true"
"null","<div style=""font-size:60px;"">+</div>","null","html-keyboard-response","418","405329","0.0-6.0-0.206","ALGO","2","m","rechts","21","","fixation","","","",""
"672","img/30_120.png","74","image-keyboard-response","419","406002","0.0-6.0-1.206","ALGO","2","m","rechts","21","","","object","j","30","true"
"null","<div style=""font-size:60px;"">+</div>","null","html-keyboard-response","420","406503","0.0-6.0-0.207","ALGO","2","m","rechts","21","","fixation","","","",""
"763","img/60_330.png","74","image-keyboard-response","421","407267","0.0-6.0-1.207","ALGO","2","m","rechts","21","","","object","j","60","true"
"8907","<p>Du hast in 84% der Versuche korrekt entschieden.</p><p>Deine durchschnittliche Reaktionszeit war  864ms.</p><p>Dr&uuml;cke eine beliebige Taste, um die Session zu beenden. Vielen Dank!</p>","70","html-keyboard-response","422","416177","0.0-7.0","ALGO","2","m","rechts","21","","","","","",""
