"rt","stimulus","key_press","trial_type","trial_index","time_elapsed","internal_node_id","subject","session","sex","handedness","age","responses","test_part","condition","correct_response","angle","correct"
"2503","<p>Mental Rotation Experiment.</p> <p>Dr&uuml;cke eine beliebige Taste, um anzufangen.</p>","70","html-keyboard-response","0","2509","0.0-0.0","ALGO","1","m","rechts","21","","","","","",""
"4938","","","survey-text","1","7449","0.0-1.0","ALGO","1","m","rechts","21","{""Q0"":""ALGO""}","","","","",""
"2248","","","survey-text","2","9697","0.0-2.0","ALGO","1","m","rechts","21","{""Q0"":""1""}","","","","",""
"4628","","","survey-multi-choice","3","14331","0.0-3.0","ALGO","1","m","rechts","21","{""Q0"":""m"",""Q1"":""rechts""}","","","","",""
"2748","","","survey-text","4","17079","0.0-4.0","ALGO","1","m","rechts","21","{""Q0"":""21""}","","","","",""
"19567","<p>Stell dir vor, dass du vor einem runden Tisch stehst, auf dem sich ein blauer Ball am Tischrand befindet. Entlang des Tischrands ist jeweils ein verschieden langer Pfeil. Nun bleibst du an deinem Platz vor dem Tisch und rotierst den Tisch entlang des Pfeils (gleiche Richtung und Länge). </p> <img src='img/30_180.png'></img> <br><p> Nachdem du diese (vorgestellte) Rotation durchgef&uuml;hrt hast, schau in Richtung der Tischmitte, und entscheide dann, ob der Ball links oder rechts von dir liegt.</p> <p>Dr&uuml;cke die <strong>'f'</strong>-Taste f&uuml;r links, die <strong>'j'</strong>-Taste f&uuml;r rechts.</p><br><p> Das Bild wird jeweils 1 Sekunde lang pr&auml;sentiert. Du hast 3 Sekunden Zeit eine Entscheidung zu treffen.</p>","32","html-keyboard-response","5","36647","0.0-5.0","ALGO","1","m","rechts","21","","","","","",""
"null","<div style=""font-size:60px;"">+</div>","null","html-keyboard-response","6","38051","0.0-6.0-0.0","ALGO","1","m","rechts","21","","fixation","","","",""
"1112","img/0_210.png","70","image-keyboard-response","7","39165","0.0-6.0-1.0","ALGO","1","m","rechts","21","","","object","f","0","true"
"null","<div style=""font-size:60px;"">+</div>","null","html-keyboard-response","8","39467","0.0-6.0-0.1","ALGO","1","m","rechts","21","","fixation","","","",""
"976","img/0_60.png","74","image-keyboard-response","9","40444","0.0-6.0-1.1","ALGO","1","m","rechts","21","","","object","j","0","true"
"null","<div style=""font-size:60px;"">+</div>","null","html-keyboard-response","10","40896","0.0-6.0-0.2","ALGO","1","m","rechts","21","","fixation","","","",""
"918","img/0_300.png","70","image-keyboard-response","11","41815","0.0-6.0-1.2","ALGO","1","m","rechts","21","","","object","f","0","true"
"null","<div style=""font-size:60px;"">+</div>","null","html-keyboard-response","12","42317","0.0-6.0-0.3","ALGO","1","m","rechts","21","","fixation","","","",""
"912","img/60_210.png","74","image-keyboard-response","13","43230","0.0-6.0-1.3","ALGO","1","m","rechts","21","","","object","f","60","false"
"null","<div style=""font-size:60px;"">+</div>","null","html-keyboard-response","14","43632","0.0-6.0-0.4","ALGO","1","m","rechts","21","","fixation","","","",""
"789","img/60_30.png","70","image-keyboard-response","15","44422","0.0-6.0-1.4","ALGO","1","m","rechts","21","","","object","f","60","true"
"null","<div style=""font-size:60px;"">+</div>","null","html-keyboard-response","16","44824","0.0-6.0-0.5","ALGO","1","m","rechts","21","","fixation","","","",""
"793","img/120_150.png","74","image-keyboard-response","17","45618","0.0-6.0-1.5","ALGO","1","m","rechts","21","","","object","j","120","true"
"null","<div style=""font-size:60px;"">+</div>","null","html-keyboard-response","18","46070","0.0-6.0-0.6","ALGO","1","m","rechts","21","","fixation","","","",""
"819","img/150_180.png","70","image-keyboard-response","19","46890","0.0-6.0-1.6","ALGO","1","m","rechts","21","","","object","f","150","true"
"null","<div style=""font-size:60px;"">+</div>","null","html-keyboard-response","20","47242","0.0-6.0-0.7","ALGO","1","m","rechts","21","","fixation","","","",""
"1082","img/0_240.png","70","image-keyboard-response","21","48325","0.0-6.0-1.7","ALGO","1","m","rechts","21","","","object","f","0","true"
"null","<div style=""font-size:60px;"">+</div>","null","html-keyboard-response","22","48777","0.0-6.0-0.8","ALGO","1","m","rechts","21","","fixation","","","",""
"834","img/90_30.png","70","image-keyboard-response","23","49612","0.0-6.0-1.8","ALGO","1","m","rechts","21","","","object","f","90","true"
"null","<div style=""font-size:60px;"">+</div>","null","html-keyboard-response","24","49964","0.0-6.0-0.9","ALGO","1","m","rechts","21","","fixation","","","",""
"957","img/30_300.png","70","image-keyboard-response","25","50922","0.0-6.0-1.9","ALGO","1","m","rechts","21","","","object","f","30","true"
"null","<div style=""font-size:60px;"">+</div>","null","html-keyboard-response","26","51423","0.0-6.0-0.10","ALGO","1","m","rechts","21","","fixation","","","",""
"971","img/0_150.png","74","image-keyboard-response","27","52395","0.0-6.0-1.10","ALGO","1","m","rechts","21","","","object","j","0","true"
"null","<div style=""font-size:60px;"">+</div>","null","html-keyboard-response","28","52847","0.0-6.0-0.11","ALGO","1","m","rechts","21","","fixation","","","",""
"856","img/0_30.png","74","image-keyboard-response","29","53704","0.0-6.0-1.11","ALGO","1","m","rechts","21","","","object","j","0","true"
"null","<div style=""font-size:60px;"">+</div>","null","html-keyboard-response","30","54056","0.0-6.0-0.12","ALGO","1","m","rechts","21","","fixation","","","",""
"1216","img/150_120.png","70","image-keyboard-response","31","55273","0.0-6.0-1.12","ALGO","1","m","rechts","21","","","object","f","150","true"
"null","<div style=""font-size:60px;"">+</div>","null","html-keyboard-response","32","55774","0.0-6.0-0.13","ALGO","1","m","rechts","21","","fixation","","","",""
"1063","img/30_240.png","70","image-keyboard-response","33","56838","0.0-6.0-1.13","ALGO","1","m","rechts","21","","","object","f","30","true"
"null","<div style=""font-size:60px;"">+</div>","null","html-keyboard-response","34","57140","0.0-6.0-0.14","ALGO","1","m","rechts","21","","fixation","","","",""
"1098","img/150_300.png","74","image-keyboard-response","35","58239","0.0-6.0-1.14","ALGO","1","m","rechts","21","","","object","j","150","true"
"null","<div style=""font-size:60px;"">+</div>","null","html-keyboard-response","36","58541","0.0-6.0-0.15","ALGO","1","m","rechts","21","","fixation","","","",""
"1148","img/L90_180.png","74","image-keyboard-response","37","59691","0.0-6.0-1.15","ALGO","1","m","rechts","21","","","object","j","90","true"
"null","<div style=""font-size:60px;"">+</div>","null","html-keyboard-response","38","60042","0.0-6.0-0.16","ALGO","1","m","rechts","21","","fixation","","","",""
"840","img/120_180.png","70","image-keyboard-response","39","60884","0.0-6.0-1.16","ALGO","1","m","rechts","21","","","object","f","120","true"
"null","<div style=""font-size:60px;"">+</div>","null","html-keyboard-response","40","61235","0.0-6.0-0.17","ALGO","1","m","rechts","21","","fixation","","","",""
"884","img/120_90.png","74","image-keyboard-response","41","62120","0.0-6.0-1.17","ALGO","1","m","rechts","21","","","object","f","120","false"
"null","<div style=""font-size:60px;"">+</div>","null","html-keyboard-response","42","62622","0.0-6.0-0.18","ALGO","1","m","rechts","21","","fixation","","","",""
"1406","img/150_90.png","74","image-keyboard-response","43","64029","0.0-6.0-1.18","ALGO","1","m","rechts","21","","","object","f","150","false"
"null","<div style=""font-size:60px;"">+</div>","null","html-keyboard-response","44","64431","0.0-6.0-0.19","ALGO","1","m","rechts","21","","fixation","","","",""
"1216","img/L150_180.png","74","image-keyboard-response","45","65649","0.0-6.0-1.19","ALGO","1","m","rechts","21","","","object","j","150","true"
"null","<div style=""font-size:60px;"">+</div>","null","html-keyboard-response","46","66050","0.0-6.0-0.20","ALGO","1","m","rechts","21","","fixation","","","",""
"972","img/120_330.png","74","image-keyboard-response","47","67024","0.0-6.0-1.20","ALGO","1","m","rechts","21","","","object","j","120","true"
"null","<div style=""font-size:60px;"">+</div>","null","html-keyboard-response","48","67526","0.0-6.0-0.21","ALGO","1","m","rechts","21","","fixation","","","",""
"968","img/60_330.png","74","image-keyboard-response","49","68496","0.0-6.0-1.21","ALGO","1","m","rechts","21","","","object","j","60","true"
"null","<div style=""font-size:60px;"">+</div>","null","html-keyboard-response","50","68847","0.0-6.0-0.22","ALGO","1","m","rechts","21","","fixation","","","",""
"1399","img/L60_180.png","70","image-keyboard-response","51","70248","0.0-6.0-1.22","ALGO","1","m","rechts","21","","","object","j","60","false"
"null","<div style=""font-size:60px;"">+</div>","null","html-keyboard-response","52","70599","0.0-6.0-0.23","ALGO","1","m","rechts","21","","fixation","","","",""
"916","img/L30_180.png","70","image-keyboard-response","53","71516","0.0-6.0-1.23","ALGO","1","m","rechts","21","","","object","j","30","false"
"null","<div style=""font-size:60px;"">+</div>","null","html-keyboard-response","54","71818","0.0-6.0-0.24","ALGO","1","m","rechts","21","","fixation","","","",""
"1162","img/150_60.png","70","image-keyboard-response","55","72982","0.0-6.0-1.24","ALGO","1","m","rechts","21","","","object","f","150","true"
"null","<div style=""font-size:60px;"">+</div>","null","html-keyboard-response","56","73333","0.0-6.0-0.25","ALGO","1","m","rechts","21","","fixation","","","",""
"884","img/L120_180.png","74","image-keyboard-response","57","74219","0.0-6.0-1.25","ALGO","1","m","rechts","21","","","object","j","120","true"
"null","<div style=""font-size:60px;"">+</div>","null","html-keyboard-response","58","74670","0.0-6.0-0.26","ALGO","1","m","rechts","21","","fixation","","","",""
"774","img/90_330.png","74","image-keyboard-response","59","75446","0.0-6.0-1.26","ALGO","1","m","rechts","21","","","object","j","90","true"
"null","<div style=""font-size:60px;"">+</div>","null","html-keyboard-response","60","75848","0.0-6.0-0.27","ALGO","1","m","rechts","21","","fixation","","","",""
"930","img/0_330.png","74","image-keyboard-response","61","76780","0.0-6.0-1.27","ALGO","1","m","rechts","21","","","object","f","0","false"
"null","<div style=""font-size:60px;"">+</div>","null","html-keyboard-response","62","77181","0.0-6.0-0.28","ALGO","1","m","rechts","21","","fixation","","","",""
"1329","img/120_210.png","70","image-keyboard-response","63","78512","0.0-6.0-1.28","ALGO","1","m","rechts","21","","","object","f","120","true"
"null","<div style=""font-size:60px;"">+</div>","null","html-keyboard-response","64","78963","0.0-6.0-0.29","ALGO","1","m","rechts","21","","fixation","","","",""
"1192","img/30_120.png","74","image-keyboard-response","65","80156","0.0-6.0-1.29","ALGO","1","m","rechts","21","","","object","j","30","true"
"null","<div style=""font-size:60px;"">+</div>","null","html-keyboard-response","66","80458","0.0-6.0-0.30","ALGO","1","m","rechts","21","","fixation","","","",""
"923","img/30_270.png","74","image-keyboard-response","67","81382","0.0-6.0-1.30","ALGO","1","m","rechts","21","","","object","f","30","false"
"null","<div style=""font-size:60px;"">+</div>","null","html-keyboard-response","68","81884","0.0-6.0-0.31","ALGO","1","m","rechts","21","","fixation","","","",""
"1078","img/90_180.png","70","image-keyboard-response","69","82963","0.0-6.0-1.31","ALGO","1","m","rechts","21","","","object","f","90","true"
"null","<div style=""font-size:60px;"">+</div>","null","html-keyboard-response","70","83265","0.0-6.0-0.32","ALGO","1","m","rechts","21","","fixation","","","",""
"1147","img/90_120.png","70","image-keyboard-response","71","84413","0.0-6.0-1.32","ALGO","1","m","rechts","21","","","object","j","90","false"
"null","<div style=""font-size:60px;"">+</div>","null","html-keyboard-response","72","84915","0.0-6.0-0.33","ALGO","1","m","rechts","21","","fixation","","","",""
"1311","img/90_150.png","74","image-keyboard-response","73","86227","0.0-6.0-1.33","ALGO","1","m","rechts","21","","","object","j","90","true"
"null","<div style=""font-size:60px;"">+</div>","null","html-keyboard-response","74","86579","0.0-6.0-0.34","ALGO","1","m","rechts","21","","fixation","","","",""
"1598","img/150_270.png","74","image-keyboard-response","75","88178","0.0-6.0-1.34","ALGO","1","m","rechts","21","","","object","j","150","true"
"null","<div style=""font-size:60px;"">+</div>","null","html-keyboard-response","76","88530","0.0-6.0-0.35","ALGO","1","m","rechts","21","","fixation","","","",""
"992","img/90_210.png","70","image-keyboard-response","77","89523","0.0-6.0-1.35","ALGO","1","m","rechts","21","","","object","f","90","true"
"null","<div style=""font-size:60px;"">+</div>","null","html-keyboard-response","78","89924","0.0-6.0-0.36","ALGO","1","m","rechts","21","","fixation","","","",""
"882","img/0_270.png","70","image-keyboard-response","79","90807","0.0-6.0-1.36","ALGO","1","m","rechts","21","","","object","f","0","true"
"null","<div style=""font-size:60px;"">+</div>","null","html-keyboard-response","80","91109","0.0-6.0-0.37","ALGO","1","m","rechts","21","","fixation","","","",""
"1063","img/60_90.png","70","image-keyboard-response","81","92174","0.0-6.0-1.37","ALGO","1","m","rechts","21","","","object","j","60","false"
"null","<div style=""font-size:60px;"">+</div>","null","html-keyboard-response","82","92576","0.0-6.0-0.38","ALGO","1","m","rechts","21","","fixation","","","",""
"1066","img/0_90.png","74","image-keyboard-response","83","93643","0.0-6.0-1.38","ALGO","1","m","rechts","21","","","object","j","0","true"
"null","<div style=""font-size:60px;"">+</div>","null","html-keyboard-response","84","93944","0.0-6.0-0.39","ALGO","1","m","rechts","21","","fixation","","","",""
"1204","img/90_240.png","70","image-keyboard-response","85","95149","0.0-6.0-1.39","ALGO","1","m","rechts","21","","","object","f","90","true"
"null","<div style=""font-size:60px;"">+</div>","null","html-keyboard-response","86","95500","0.0-6.0-0.40","ALGO","1","m","rechts","21","","fixation","","","",""
"1171","img/150_240.png","74","image-keyboard-response","87","96672","0.0-6.0-1.40","ALGO","1","m","rechts","21","","","object","j","150","true"
"null","<div style=""font-size:60px;"">+</div>","null","html-keyboard-response","88","97123","0.0-6.0-0.41","ALGO","1","m","rechts","21","","fixation","","","",""
"1085","img/60_270.png","70","image-keyboard-response","89","98209","0.0-6.0-1.41","ALGO","1","m","rechts","21","","","object","f","60","true"
"null","<div style=""font-size:60px;"">+</div>","null","html-keyboard-response","90","98561","0.0-6.0-0.42","ALGO","1","m","rechts","21","","fixation","","","",""
"1176","img/30_180.png","74","image-keyboard-response","91","99738","0.0-6.0-1.42","ALGO","1","m","rechts","21","","","object","f","30","false"
"null","<div style=""font-size:60px;"">+</div>","null","html-keyboard-response","92","100090","0.0-6.0-0.43","ALGO","1","m","rechts","21","","fixation","","","",""
"1072","img/60_150.png","70","image-keyboard-response","93","101163","0.0-6.0-1.43","ALGO","1","m","rechts","21","","","object","j","60","false"
"null","<div style=""font-size:60px;"">+</div>","null","html-keyboard-response","94","101565","0.0-6.0-0.44","ALGO","1","m","rechts","21","","fixation","","","",""
"1280","img/30_60.png","74","image-keyboard-response","95","102846","0.0-6.0-1.44","ALGO","1","m","rechts","21","","","object","j","30","true"
"null","<div style=""font-size:60px;"">+</div>","null","html-keyboard-response","96","103198","0.0-6.0-0.45","ALGO","1","m","rechts","21","","fixation","","","",""
"821","img/120_30.png","70","image-keyboard-response","97","104020","0.0-6.0-1.45","ALGO","1","m","rechts","21","","","object","f","120","true"
"null","<div style=""font-size:60px;"">+</div>","null","html-keyboard-response","98","104322","0.0-6.0-0.46","ALGO","1","m","rechts","21","","fixation","","","",""
"1101","img/60_180.png","70","image-keyboard-response","99","105424","0.0-6.0-1.46","ALGO","1","m","rechts","21","","","object","f","60","true"
"null","<div style=""font-size:60px;"">+</div>","null","html-keyboard-response","100","105826","0.0-6.0-0.47","ALGO","1","m","rechts","21","","fixation","","","",""
"718","img/120_270.png","74","image-keyboard-response","101","106545","0.0-6.0-1.47","ALGO","1","m","rechts","21","","","object","j","120","true"
"null","<div style=""font-size:60px;"">+</div>","null","html-keyboard-response","102","106997","0.0-6.0-0.48","ALGO","1","m","rechts","21","","fixation","","","",""
"938","img/0_120.png","74","image-keyboard-response","103","107936","0.0-6.0-1.48","ALGO","1","m","rechts","21","","","object","j","0","true"
"null","<div style=""font-size:60px;"">+</div>","null","html-keyboard-response","104","108387","0.0-6.0-0.49","ALGO","1","m","rechts","21","","fixation","","","",""
"773","img/90_60.png","70","image-keyboard-response","105","109162","0.0-6.0-1.49","ALGO","1","m","rechts","21","","","object","f","90","true"
"null","<div style=""font-size:60px;"">+</div>","null","html-keyboard-response","106","109614","0.0-6.0-0.50","ALGO","1","m","rechts","21","","fixation","","","",""
"825","img/30_90.png","70","image-keyboard-response","107","110440","0.0-6.0-1.50","ALGO","1","m","rechts","21","","","object","j","30","false"
"null","<div style=""font-size:60px;"">+</div>","null","html-keyboard-response","108","110941","0.0-6.0-0.51","ALGO","1","m","rechts","21","","fixation","","","",""
"759","img/90_300.png","74","image-keyboard-response","109","111701","0.0-6.0-1.51","ALGO","1","m","rechts","21","","","object","j","90","true"
"null","<div style=""font-size:60px;"">+</div>","null","html-keyboard-response","110","112203","0.0-6.0-0.52","ALGO","1","m","rechts","21","","fixation","","","",""
"950","img/90_240.png","74","image-keyboard-response","111","113153","0.0-6.0-1.52","ALGO","1","m","rechts","21","","","object","f","90","false"
"null","<div style=""font-size:60px;"">+</div>","null","html-keyboard-response","112","113605","0.0-6.0-0.53","ALGO","1","m","rechts","21","","fixation","","","",""
"861","img/90_180.png","70","image-keyboard-response","113","114466","0.0-6.0-1.53","ALGO","1","m","rechts","21","","","object","f","90","true"
"null","<div style=""font-size:60px;"">+</div>","null","html-keyboard-response","114","114967","0.0-6.0-0.54","ALGO","1","m","rechts","21","","fixation","","","",""
"796","img/90_30.png","70","image-keyboard-response","115","115765","0.0-6.0-1.54","ALGO","1","m","rechts","21","","","object","f","90","true"
"null","<div style=""font-size:60px;"">+</div>","null","html-keyboard-response","116","116116","0.0-6.0-0.55","ALGO","1","m","rechts","21","","fixation","","","",""
"1627","img/120_210.png","74","image-keyboard-response","117","117745","0.0-6.0-1.55","ALGO","1","m","rechts","21","","","object","f","120","false"
"null","<div style=""font-size:60px;"">+</div>","null","html-keyboard-response","118","118246","0.0-6.0-0.56","ALGO","1","m","rechts","21","","fixation","","","",""
"1189","img/L60_180.png","74","image-keyboard-response","119","119436","0.0-6.0-1.56","ALGO","1","m","rechts","21","","","object","j","60","true"
"null","<div style=""font-size:60px;"">+</div>","null","html-keyboard-response","120","119738","0.0-6.0-0.57","ALGO","1","m","rechts","21","","fixation","","","",""
"1123","img/L30_180.png","74","image-keyboard-response","121","120863","0.0-6.0-1.57","ALGO","1","m","rechts","21","","","object","j","30","true"
"null","<div style=""font-size:60px;"">+</div>","null","html-keyboard-response","122","121164","0.0-6.0-0.58","ALGO","1","m","rechts","21","","fixation","","","",""
"1400","img/30_270.png","70","image-keyboard-response","123","122566","0.0-6.0-1.58","ALGO","1","m","rechts","21","","","object","f","30","true"
"null","<div style=""font-size:60px;"">+</div>","null","html-keyboard-response","124","123067","0.0-6.0-0.59","ALGO","1","m","rechts","21","","fixation","","","",""
"841","img/90_330.png","74","image-keyboard-response","125","123910","0.0-6.0-1.59","ALGO","1","m","rechts","21","","","object","j","90","true"
"null","<div style=""font-size:60px;"">+</div>","null","html-keyboard-response","126","124361","0.0-6.0-0.60","ALGO","1","m","rechts","21","","fixation","","","",""
"884","img/0_330.png","70","image-keyboard-response","127","125246","0.0-6.0-1.60","ALGO","1","m","rechts","21","","","object","f","0","true"
"null","<div style=""font-size:60px;"">+</div>","null","html-keyboard-response","128","125548","0.0-6.0-0.61","ALGO","1","m","rechts","21","","fixation","","","",""
"847","img/0_210.png","70","image-keyboard-response","129","126396","0.0-6.0-1.61","ALGO","1","m","rechts","21","","","object","f","0","true"
"null","<div style=""font-size:60px;"">+</div>","null","html-keyboard-response","130","126748","0.0-6.0-0.62","ALGO","1","m","rechts","21","","fixation","","","",""
"993","img/60_150.png","74","image-keyboard-response","131","127741","0.0-6.0-1.62","ALGO","1","m","rechts","21","","","object","j","60","true"
"null","<div style=""font-size:60px;"">+</div>","null","html-keyboard-response","132","128093","0.0-6.0-0.63","ALGO","1","m","rechts","21","","fixation","","","",""
"1066","img/L150_180.png","74","image-keyboard-response","133","129161","0.0-6.0-1.63","ALGO","1","m","rechts","21","","","object","j","150","true"
"null","<div style=""font-size:60px;"">+</div>","null","html-keyboard-response","134","129662","0.0-6.0-0.64","ALGO","1","m","rechts","21","","fixation","","","",""
"1125","img/90_150.png","74","image-keyboard-response","135","130788","0.0-6.0-1.64","ALGO","1","m","rechts","21","","","object","j","90","true"
"null","<div style=""font-size:60px;"">+</div>","null","html-keyboard-response","136","131090","0.0-6.0-0.65","ALGO","1","m","rechts","21","","fixation","","","",""
"865","img/60_180.png","70","image-keyboard-response","137","131956","0.0-6.0-1.65","ALGO","1","m","rechts","21","","","object","f","60","true"
"null","<div style=""font-size:60px;"">+</div>","null","html-keyboard-response","138","132258","0.0-6.0-0.66","ALGO","1","m","rechts","21","","fixation","","","",""
"1018","img/150_60.png","70","image-keyboard-response","139","133277","0.0-6.0-1.66","ALGO","1","m","rechts","21","","","object","f","150","true"
"null","<div style=""font-size:60px;"">+</div>","null","html-keyboard-response","140","133579","0.0-6.0-0.67","ALGO","1","m","rechts","21","","fixation","","","",""
"847","img/60_30.png","70","image-keyboard-response","141","134427","0.0-6.0-1.67","ALGO","1","m","rechts","21","","","object","f","60","true"
"null","<div style=""font-size:60px;"">+</div>","null","html-keyboard-response","142","134729","0.0-6.0-0.68","ALGO","1","m","rechts","21","","fixation","","","",""
"966","img/150_300.png","74","image-keyboard-response","143","135696","0.0-6.0-1.68","ALGO","1","m","rechts","21","","","object","j","150","true"
"null","<div style=""font-size:60px;"">+</div>","null","html-keyboard-response","144","135998","0.0-6.0-0.69","ALGO","1","m","rechts","21","","fixation","","","",""
"1065","img/0_90.png","74","image-keyboard-response","145","137063","0.0-6.0-1.69","ALGO","1","m","rechts","21","","","object","j","0","true"
"null","<div style=""font-size:60px;"">+</div>","null","html-keyboard-response","146","137565","0.0-6.0-0.70","ALGO","1","m","rechts","21","","fixation","","","",""
"855","img/30_300.png","74","image-keyboard-response","147","138420","0.0-6.0-1.70","ALGO","1","m","rechts","21","","","object","f","30","false"
"null","<div style=""font-size:60px;"">+</div>","null","html-keyboard-response","148","138872","0.0-6.0-0.71","ALGO","1","m","rechts","21","","fixation","","","",""
"803","img/30_240.png","70","image-keyboard-response","149","139676","0.0-6.0-1.71","ALGO","1","m","rechts","21","","","object","f","30","true"
"null","<div style=""font-size:60px;"">+</div>","null","html-keyboard-response","150","139977","0.0-6.0-0.72","ALGO","1","m","rechts","21","","fixation","","","",""
"982","img/120_30.png","70","image-keyboard-response","151","140960","0.0-6.0-1.72","ALGO","1","m","rechts","21","","","object","f","120","true"
"null","<div style=""font-size:60px;"">+</div>","null","html-keyboard-response","152","141361","0.0-6.0-0.73","ALGO","1","m","rechts","21","","fixation","","","",""
"877","img/L90_180.png","74","image-keyboard-response","153","142239","0.0-6.0-1.73","ALGO","1","m","rechts","21","","","object","j","90","true"
"null","<div style=""font-size:60px;"">+</div>","null","html-keyboard-response","154","142591","0.0-6.0-0.74","ALGO","1","m","rechts","21","","fixation","","","",""
"821","img/120_270.png","74","image-keyboard-response","155","143413","0.0-6.0-1.74","ALGO","1","m","rechts","21","","","object","j","120","true"
"null","<div style=""font-size:60px;"">+</div>","null","html-keyboard-response","156","143915","0.0-6.0-0.75","ALGO","1","m","rechts","21","","fixation","","","",""
"887","img/90_300.png","74","image-keyboard-response","157","144802","0.0-6.0-1.75","ALGO","1","m","rechts","21","","","object","j","90","true"
"null","<div style=""font-size:60px;"">+</div>","null","html-keyboard-response","158","145304","0.0-6.0-0.76","ALGO","1","m","rechts","21","","fixation","","","",""
"827","img/0_270.png","70","image-keyboard-response","159","146131","0.0-6.0-1.76","ALGO","1","m","rechts","21","","","object","f","0","true"
"null","<div style=""font-size:60px;"">+</div>","null","html-keyboard-response","160","146433","0.0-6.0-0.77","ALGO","1","m","rechts","21","","fixation","","","",""
"904","img/90_60.png","70","image-keyboard-response","161","147337","0.0-6.0-1.77","ALGO","1","m","rechts","21","","","object","f","90","true"
"null","<div style=""font-size:60px;"">+</div>","null","html-keyboard-response","162","147839","0.0-6.0-0.78","ALGO","1","m","rechts","21","","fixation","","","",""
"833","img/0_120.png","74","image-keyboard-response","163","148672","0.0-6.0-1.78","ALGO","1","m","rechts","21","","","object","j","0","true"
"null","<div style=""font-size:60px;"">+</div>","null","html-keyboard-response","164","149174","0.0-6.0-0.79","ALGO","1","m","rechts","21","","fixation","","","",""
"921","img/30_120.png","70","image-keyboard-response","165","150095","0.0-6.0-1.79","ALGO","1","m","rechts","21","","","object","j","30","false"
"null","<div style=""font-size:60px;"">+</div>","null","html-keyboard-response","166","150547","0.0-6.0-0.80","ALGO","1","m","rechts","21","","fixation","","","",""
"881","img/0_150.png","74","image-keyboard-response","167","151428","0.0-6.0-1.80","ALGO","1","m","rechts","21","","","object","j","0","true"
"null","<div style=""font-size:60px;"">+</div>","null","html-keyboard-response","168","151880","0.0-6.0-0.81","ALGO","1","m","rechts","21","","fixation","","","",""
"802","img/0_240.png","70","image-keyboard-response","169","152682","0.0-6.0-1.81","ALGO","1","m","rechts","21","","","object","f","0","true"
"null","<div style=""font-size:60px;"">+</div>","null","html-keyboard-response","170","153134","0.0-6.0-0.82","ALGO","1","m","rechts","21","","fixation","","","",""
"916","img/150_180.png","70","image-keyboard-response","171","154050","0.0-6.0-1.82","ALGO","1","m","rechts","21","","","object","f","150","true"
"null","<div style=""font-size:60px;"">+</div>","null","html-keyboard-response","172","154351","0.0-6.0-0.83","ALGO","1","m","rechts","21","","fixation","","","",""
"914","img/120_150.png","74","image-keyboard-response","173","155265","0.0-6.0-1.83","ALGO","1","m","rechts","21","","","object","j","120","true"
"null","<div style=""font-size:60px;"">+</div>","null","html-keyboard-response","174","155617","0.0-6.0-0.84","ALGO","1","m","rechts","21","","fixation","","","",""
"901","img/0_300.png","70","image-keyboard-response","175","156518","0.0-6.0-1.84","ALGO","1","m","rechts","21","","","object","f","0","true"
"null","<div style=""font-size:60px;"">+</div>","null","html-keyboard-response","176","156870","0.0-6.0-0.85","ALGO","1","m","rechts","21","","fixation","","","",""
"872","img/120_330.png","74","image-keyboard-response","177","157742","0.0-6.0-1.85","ALGO","1","m","rechts","21","","","object","j","120","true"
"null","<div style=""font-size:60px;"">+</div>","null","html-keyboard-response","178","158194","0.0-6.0-0.86","ALGO","1","m","rechts","21","","fixation","","","",""
"1010","img/30_90.png","74","image-keyboard-response","179","159206","0.0-6.0-1.86","ALGO","1","m","rechts","21","","","object","j","30","true"
"null","<div style=""font-size:60px;"">+</div>","null","html-keyboard-response","180","159507","0.0-6.0-0.87","ALGO","1","m","rechts","21","","fixation","","","",""
"1089","img/0_30.png","74","image-keyboard-response","181","160597","0.0-6.0-1.87","ALGO","1","m","rechts","21","","","object","j","0","true"
"null","<div style=""font-size:60px;"">+</div>","null","html-keyboard-response","182","161099","0.0-6.0-0.88","ALGO","1","m","rechts","21","","fixation","","","",""
"909","img/L120_180.png","74","image-keyboard-response","183","162010","0.0-6.0-1.88","ALGO","1","m","rechts","21","","","object","j","120","true"
"null","<div style=""font-size:60px;"">+</div>","null","html-keyboard-response","184","162411","0.0-6.0-0.89","ALGO","1","m","rechts","21","","fixation","","","",""
"1005","img/30_180.png","70","image-keyboard-response","185","163417","0.0-6.0-1.89","ALGO","1","m","rechts","21","","","object","f","30","true"
"null","<div style=""font-size:60px;"">+</div>","null","html-keyboard-response","186","163769","0.0-6.0-0.90","ALGO","1","m","rechts","21","","fixation","","","",""
"983","img/60_330.png","74","image-keyboard-response","187","164754","0.0-6.0-1.90","ALGO","1","m","rechts","21","","","object","j","60","true"
"null","<div style=""font-size:60px;"">+</div>","null","html-keyboard-response","188","165205","0.0-6.0-0.91","ALGO","1","m","rechts","21","","fixation","","","",""
"1211","img/150_90.png","70","image-keyboard-response","189","166418","0.0-6.0-1.91","ALGO","1","m","rechts","21","","","object","f","150","true"
"null","<div style=""font-size:60px;"">+</div>","null","html-keyboard-response","190","166769","0.0-6.0-0.92","ALGO","1","m","rechts","21","","fixation","","","",""
"863","img/0_60.png","74","image-keyboard-response","191","167634","0.0-6.0-1.92","ALGO","1","m","rechts","21","","","object","j","0","true"
"null","<div style=""font-size:60px;"">+</div>","null","html-keyboard-response","192","168035","0.0-6.0-0.93","ALGO","1","m","rechts","21","","fixation","","","",""
"974","img/60_210.png","74","image-keyboard-response","193","169011","0.0-6.0-1.93","ALGO","1","m","rechts","21","","","object","f","60","false"
"null","<div style=""font-size:60px;"">+</div>","null","html-keyboard-response","194","169362","0.0-6.0-0.94","ALGO","1","m","rechts","21","","fixation","","","",""
"1073","img/120_180.png","70","image-keyboard-response","195","170436","0.0-6.0-1.94","ALGO","1","m","rechts","21","","","object","f","120","true"
"null","<div style=""font-size:60px;"">+</div>","null","html-keyboard-response","196","170888","0.0-6.0-0.95","ALGO","1","m","rechts","21","","fixation","","","",""
"1104","img/150_240.png","74","image-keyboard-response","197","171993","0.0-6.0-1.95","ALGO","1","m","rechts","21","","","object","j","150","true"
"null","<div style=""font-size:60px;"">+</div>","null","html-keyboard-response","198","172494","0.0-6.0-0.96","ALGO","1","m","rechts","21","","fixation","","","",""
"1214","img/90_210.png","74","image-keyboard-response","199","173709","0.0-6.0-1.96","ALGO","1","m","rechts","21","","","object","f","90","false"
"null","<div style=""font-size:60px;"">+</div>","null","html-keyboard-response","200","174060","0.0-6.0-0.97","ALGO","1","m","rechts","21","","fixation","","","",""
"875","img/150_270.png","74","image-keyboard-response","201","174936","0.0-6.0-1.97","ALGO","1","m","rechts","21","","","object","j","150","true"
"null","<div style=""font-size:60px;"">+</div>","null","html-keyboard-response","202","175288","0.0-6.0-0.98","ALGO","1","m","rechts","21","","fixation","","","",""
"1425","img/60_270.png","70","image-keyboard-response","203","176714","0.0-6.0-1.98","ALGO","1","m","rechts","21","","","object","f","60","true"
"null","<div style=""font-size:60px;"">+</div>","null","html-keyboard-response","204","177066","0.0-6.0-0.99","ALGO","1","m","rechts","21","","fixation","","","",""
"941","img/120_90.png","70","image-keyboard-response","205","178008","0.0-6.0-1.99","ALGO","1","m","rechts","21","","","object","f","120","true"
"null","<div style=""font-size:60px;"">+</div>","null","html-keyboard-response","206","178360","0.0-6.0-0.100","ALGO","1","m","rechts","21","","fixation","","","",""
"1075","img/30_60.png","74","image-keyboard-response","207","179436","0.0-6.0-1.100","ALGO","1","m","rechts","21","","","object","j","30","true"
"null","<div style=""font-size:60px;"">+</div>","null","html-keyboard-response","208","179737","0.0-6.0-0.101","ALGO","1","m","rechts","21","","fixation","","","",""
"1441","img/90_120.png","70","image-keyboard-response","209","181179","0.0-6.0-1.101","ALGO","1","m","rechts","21","","","object","j","90","false"
"null","<div style=""font-size:60px;"">+</div>","null","html-keyboard-response","210","181481","0.0-6.0-0.102","ALGO","1","m","rechts","21","","fixation","","","",""
"918","img/150_120.png","74","image-keyboard-response","211","182400","0.0-6.0-1.102","ALGO","1","m","rechts","21","","","object","f","150","false"
"null","<div style=""font-size:60px;"">+</div>","null","html-keyboard-response","212","182802","0.0-6.0-0.103","ALGO","1","m","rechts","21","","fixation","","","",""
"1004","img/60_90.png","70","image-keyboard-response","213","183808","0.0-6.0-1.103","ALGO","1","m","rechts","21","","","object","j","60","false"
"null","<div style=""font-size:60px;"">+</div>","null","html-keyboard-response","214","184309","0.0-6.0-0.104","ALGO","1","m","rechts","21","","fixation","","","",""
"941","img/30_120.png","74","image-keyboard-response","215","185251","0.0-6.0-1.104","ALGO","1","m","rechts","21","","","object","j","30","true"
"null","<div style=""font-size:60px;"">+</div>","null","html-keyboard-response","216","185602","0.0-6.0-0.105","ALGO","1","m","rechts","21","","fixation","","","",""
"1046","img/120_180.png","70","image-keyboard-response","217","186649","0.0-6.0-1.105","ALGO","1","m","rechts","21","","","object","f","120","true"
"null","<div style=""font-size:60px;"">+</div>","null","html-keyboard-response","218","186951","0.0-6.0-0.106","ALGO","1","m","rechts","21","","fixation","","","",""
"1077","img/150_120.png","74","image-keyboard-response","219","188028","0.0-6.0-1.106","ALGO","1","m","rechts","21","","","object","f","150","false"
"null","<div style=""font-size:60px;"">+</div>","null","html-keyboard-response","220","188530","0.0-6.0-0.107","ALGO","1","m","rechts","21","","fixation","","","",""
"848","img/L150_180.png","74","image-keyboard-response","221","189378","0.0-6.0-1.107","ALGO","1","m","rechts","21","","","object","j","150","true"
"null","<div style=""font-size:60px;"">+</div>","null","html-keyboard-response","222","189730","0.0-6.0-0.108","ALGO","1","m","rechts","21","","fixation","","","",""
"1242","img/60_210.png","70","image-keyboard-response","223","190972","0.0-6.0-1.108","ALGO","1","m","rechts","21","","","object","f","60","true"
"null","<div style=""font-size:60px;"">+</div>","null","html-keyboard-response","224","191474","0.0-6.0-0.109","ALGO","1","m","rechts","21","","fixation","","","",""
"935","img/120_30.png","70","image-keyboard-response","225","192409","0.0-6.0-1.109","ALGO","1","m","rechts","21","","","object","f","120","true"
"null","<div style=""font-size:60px;"">+</div>","null","html-keyboard-response","226","192861","0.0-6.0-0.110","ALGO","1","m","rechts","21","","fixation","","","",""
"895","img/120_270.png","74","image-keyboard-response","227","193756","0.0-6.0-1.110","ALGO","1","m","rechts","21","","","object","j","120","true"
"null","<div style=""font-size:60px;"">+</div>","null","html-keyboard-response","228","194058","0.0-6.0-0.111","ALGO","1","m","rechts","21","","fixation","","","",""
"1077","img/30_300.png","70","image-keyboard-response","229","195136","0.0-6.0-1.111","ALGO","1","m","rechts","21","","","object","f","30","true"
"null","<div style=""font-size:60px;"">+</div>","null","html-keyboard-response","230","195637","0.0-6.0-0.112","ALGO","1","m","rechts","21","","fixation","","","",""
"1120","img/L90_180.png","70","image-keyboard-response","231","196758","0.0-6.0-1.112","ALGO","1","m","rechts","21","","","object","j","90","false"
"null","<div style=""font-size:60px;"">+</div>","null","html-keyboard-response","232","197259","0.0-6.0-0.113","ALGO","1","m","rechts","21","","fixation","","","",""
"851","img/60_180.png","70","image-keyboard-response","233","198111","0.0-6.0-1.113","ALGO","1","m","rechts","21","","","object","f","60","true"
"null","<div style=""font-size:60px;"">+</div>","null","html-keyboard-response","234","198562","0.0-6.0-0.114","ALGO","1","m","rechts","21","","fixation","","","",""
"1096","img/30_60.png","74","image-keyboard-response","235","199659","0.0-6.0-1.114","ALGO","1","m","rechts","21","","","object","j","30","true"
"null","<div style=""font-size:60px;"">+</div>","null","html-keyboard-response","236","200061","0.0-6.0-0.115","ALGO","1","m","rechts","21","","fixation","","","",""
"990","img/150_300.png","74","image-keyboard-response","237","201051","0.0-6.0-1.115","ALGO","1","m","rechts","21","","","object","j","150","true"
"null","<div style=""font-size:60px;"">+</div>","null","html-keyboard-response","238","201553","0.0-6.0-0.116","ALGO","1","m","rechts","21","","fixation","","","",""
"1218","img/150_60.png","70","image-keyboard-response","239","202771","0.0-6.0-1.116","ALGO","1","m","rechts","21","","","object","f","150","true"
"null","<div style=""font-size:60px;"">+</div>","null","html-keyboard-response","240","203072","0.0-6.0-0.117","ALGO","1","m","rechts","21","","fixation","","","",""
"946","img/0_30.png","74","image-keyboard-response","241","204019","0.0-6.0-1.117","ALGO","1","m","rechts","21","","","object","j","0","true"
"null","<div style=""font-size:60px;"">+</div>","null","html-keyboard-response","242","204321","0.0-6.0-0.118","ALGO","1","m","rechts","21","","fixation","","","",""
"989","img/0_60.png","74","image-keyboard-response","243","205311","0.0-6.0-1.118","ALGO","1","m","rechts","21","","","object","j","0","true"
"null","<div style=""font-size:60px;"">+</div>","null","html-keyboard-response","244","205813","0.0-6.0-0.119","ALGO","1","m","rechts","21","","fixation","","","",""
"842","img/120_90.png","70","image-keyboard-response","245","206655","0.0-6.0-1.119","ALGO","1","m","rechts","21","","","object","f","120","true"
"null","<div style=""font-size:60px;"">+</div>","null","html-keyboard-response","246","207156","0.0-6.0-0.120","ALGO","1","m","rechts","21","","fixation","","","",""
"877","img/0_90.png","74","image-keyboard-response","247","208034","0.0-6.0-1.120","ALGO","1","m","rechts","21","","","object","j","0","true"
"null","<div style=""font-size:60px;"">+</div>","null","html-keyboard-response","248","208436","0.0-6.0-0.121","ALGO","1","m","rechts","21","","fixation","","","",""
"1072","img/L30_180.png","70","image-keyboard-response","249","209508","0.0-6.0-1.121","ALGO","1","m","rechts","21","","","object","j","30","false"
"null","<div style=""font-size:60px;"">+</div>","null","html-keyboard-response","250","209909","0.0-6.0-0.122","ALGO","1","m","rechts","21","","fixation","","","",""
"1130","img/90_240.png","70","image-keyboard-response","251","211041","0.0-6.0-1.122","ALGO","1","m","rechts","21","","","object","f","90","true"
"null","<div style=""font-size:60px;"">+</div>","null","html-keyboard-response","252","211392","0.0-6.0-0.123","ALGO","1","m","rechts","21","","fixation","","","",""
"1086","img/60_150.png","74","image-keyboard-response","253","212480","0.0-6.0-1.123","ALGO","1","m","rechts","21","","","object","j","60","true"
"null","<div style=""font-size:60px;"">+</div>","null","html-keyboard-response","254","212931","0.0-6.0-0.124","ALGO","1","m","rechts","21","","fixation","","","",""
"970","img/120_150.png","74","image-keyboard-response","255","213902","0.0-6.0-1.124","ALGO","1","m","rechts","21","","","object","j","120","true"
"null","<div style=""font-size:60px;"">+</div>","null","html-keyboard-response","256","214204","0.0-6.0-0.125","ALGO","1","m","rechts","21","","fixation","","","",""
"958","img/0_300.png","70","image-keyboard-response","257","215162","0.0-6.0-1.125","ALGO","1","m","rechts","21","","","object","f","0","true"
"null","<div style=""font-size:60px;"">+</div>","null","html-keyboard-response","258","215564","0.0-6.0-0.126","ALGO","1","m","rechts","21","","fixation","","","",""
"1129","img/150_90.png","70","image-keyboard-response","259","216695","0.0-6.0-1.126","ALGO","1","m","rechts","21","","","object","f","150","true"
"null","<div style=""font-size:60px;"">+</div>","null","html-keyboard-response","260","217046","0.0-6.0-0.127","ALGO","1","m","rechts","21","","fixation","","","",""
"978","img/30_90.png","74","image-keyboard-response","261","218026","0.0-6.0-1.127","ALGO","1","m","rechts","21","","","object","j","30","true"
"null","<div style=""font-size:60px;"">+</div>","null","html-keyboard-response","262","218377","0.0-6.0-0.128","ALGO","1","m","rechts","21","","fixation","","","",""
"1071","img/0_150.png","74","image-keyboard-response","263","219449","0.0-6.0-1.128","ALGO","1","m","rechts","21","","","object","j","0","true"
"null","<div style=""font-size:60px;"">+</div>","null","html-keyboard-response","264","219751","0.0-6.0-0.129","ALGO","1","m","rechts","21","","fixation","","","",""
"927","img/60_90.png","70","image-keyboard-response","265","220680","0.0-6.0-1.129","ALGO","1","m","rechts","21","","","object","j","60","false"
"null","<div style=""font-size:60px;"">+</div>","null","html-keyboard-response","266","220981","0.0-6.0-0.130","ALGO","1","m","rechts","21","","fixation","","","",""
"1168","img/90_120.png","74","image-keyboard-response","267","222150","0.0-6.0-1.130","ALGO","1","m","rechts","21","","","object","j","90","true"
"null","<div style=""font-size:60px;"">+</div>","null","html-keyboard-response","268","222602","0.0-6.0-0.131","ALGO","1","m","rechts","21","","fixation","","","",""
"963","img/150_270.png","74","image-keyboard-response","269","223566","0.0-6.0-1.131","ALGO","1","m","rechts","21","","","object","j","150","true"
"null","<div style=""font-size:60px;"">+</div>","null","html-keyboard-response","270","223968","0.0-6.0-0.132","ALGO","1","m","rechts","21","","fixation","","","",""
"929","img/0_240.png","70","image-keyboard-response","271","224899","0.0-6.0-1.132","ALGO","1","m","rechts","21","","","object","f","0","true"
"null","<div style=""font-size:60px;"">+</div>","null","html-keyboard-response","272","225350","0.0-6.0-0.133","ALGO","1","m","rechts","21","","fixation","","","",""
"750","img/0_210.png","70","image-keyboard-response","273","226101","0.0-6.0-1.133","ALGO","1","m","rechts","21","","","object","f","0","true"
"null","<div style=""font-size:60px;"">+</div>","null","html-keyboard-response","274","226503","0.0-6.0-0.134","ALGO","1","m","rechts","21","","fixation","","","",""
"956","img/60_330.png","74","image-keyboard-response","275","227460","0.0-6.0-1.134","ALGO","1","m","rechts","21","","","object","j","60","true"
"null","<div style=""font-size:60px;"">+</div>","null","html-keyboard-response","276","227862","0.0-6.0-0.135","ALGO","1","m","rechts","21","","fixation","","","",""
"989","img/90_300.png","74","image-keyboard-response","277","228852","0.0-6.0-1.135","ALGO","1","m","rechts","21","","","object","j","90","true"
"null","<div style=""font-size:60px;"">+</div>","null","html-keyboard-response","278","229354","0.0-6.0-0.136","ALGO","1","m","rechts","21","","fixation","","","",""
"1470","img/L60_180.png","74","image-keyboard-response","279","230824","0.0-6.0-1.136","ALGO","1","m","rechts","21","","","object","j","60","true"
"null","<div style=""font-size:60px;"">+</div>","null","html-keyboard-response","280","231276","0.0-6.0-0.137","ALGO","1","m","rechts","21","","fixation","","","",""
"1084","img/150_240.png","74","image-keyboard-response","281","232361","0.0-6.0-1.137","ALGO","1","m","rechts","21","","","object","j","150","true"
"null","<div style=""font-size:60px;"">+</div>","null","html-keyboard-response","282","232663","0.0-6.0-0.138","ALGO","1","m","rechts","21","","fixation","","","",""
"1144","img/90_30.png","70","image-keyboard-response","283","233808","0.0-6.0-1.138","ALGO","1","m","rechts","21","","","object","f","90","true"
"null","<div style=""font-size:60px;"">+</div>","null","html-keyboard-response","284","234310","0.0-6.0-0.139","ALGO","1","m","rechts","21","","fixation","","","",""
"1157","img/90_210.png","70","image-keyboard-response","285","235468","0.0-6.0-1.139","ALGO","1","m","rechts","21","","","object","f","90","true"
"null","<div style=""font-size:60px;"">+</div>","null","html-keyboard-response","286","235770","0.0-6.0-0.140","ALGO","1","m","rechts","21","","fixation","","","",""
"1248","img/90_180.png","74","image-keyboard-response","287","237018","0.0-6.0-1.140","ALGO","1","m","rechts","21","","","object","f","90","false"
"null","<div style=""font-size:60px;"">+</div>","null","html-keyboard-response","288","237470","0.0-6.0-0.141","ALGO","1","m","rechts","21","","fixation","","","",""
"885","img/60_270.png","74","image-keyboard-response","289","238355","0.0-6.0-1.141","ALGO","1","m","rechts","21","","","object","f","60","false"
"null","<div style=""font-size:60px;"">+</div>","null","html-keyboard-response","290","238707","0.0-6.0-0.142","ALGO","1","m","rechts","21","","fixation","","","",""
"875","img/0_270.png","70","image-keyboard-response","291","239582","0.0-6.0-1.142","ALGO","1","m","rechts","21","","","object","f","0","true"
"null","<div style=""font-size:60px;"">+</div>","null","html-keyboard-response","292","239984","0.0-6.0-0.143","ALGO","1","m","rechts","21","","fixation","","","",""
"898","img/60_30.png","70","image-keyboard-response","293","240883","0.0-6.0-1.143","ALGO","1","m","rechts","21","","","object","f","60","true"
"null","<div style=""font-size:60px;"">+</div>","null","html-keyboard-response","294","241285","0.0-6.0-0.144","ALGO","1","m","rechts","21","","fixation","","","",""
"943","img/90_60.png","70","image-keyboard-response","295","242228","0.0-6.0-1.144","ALGO","1","m","rechts","21","","","object","f","90","true"
"null","<div style=""font-size:60px;"">+</div>","null","html-keyboard-response","296","242580","0.0-6.0-0.145","ALGO","1","m","rechts","21","","fixation","","","",""
"980","img/30_180.png","70","image-keyboard-response","297","243560","0.0-6.0-1.145","ALGO","1","m","rechts","21","","","object","f","30","true"
"null","<div style=""font-size:60px;"">+</div>","null","html-keyboard-response","298","244062","0.0-6.0-0.146","ALGO","1","m","rechts","21","","fixation","","","",""
"932","img/120_210.png","74","image-keyboard-response","299","244994","0.0-6.0-1.146","ALGO","1","m","rechts","21","","","object","f","120","false"
"null","<div style=""font-size:60px;"">+</div>","null","html-keyboard-response","300","245296","0.0-6.0-0.147","ALGO","1","m","rechts","21","","fixation","","","",""
"826","img/0_330.png","70","image-keyboard-response","301","246122","0.0-6.0-1.147","ALGO","1","m","rechts","21","","","object","f","0","true"
"null","<div style=""font-size:60px;"">+</div>","null","html-keyboard-response","302","246524","0.0-6.0-0.148","ALGO","1","m","rechts","21","","fixation","","","",""
"1078","img/30_240.png","74","image-keyboard-response","303","247602","0.0-6.0-1.148","ALGO","1","m","rechts","21","","","object","f","30","false"
"null","<div style=""font-size:60px;"">+</div>","null","html-keyboard-response","304","248103","0.0-6.0-0.149","ALGO","1","m","rechts","21","","fixation","","","",""
"823","img/L120_180.png","74","image-keyboard-response","305","248927","0.0-6.0-1.149","ALGO","1","m","rechts","21","","","object","j","120","true"
"null","<div style=""font-size:60px;"">+</div>","null","html-keyboard-response","306","249279","0.0-6.0-0.150","ALGO","1","m","rechts","21","","fixation","","","",""
"981","img/120_330.png","74","image-keyboard-response","307","250260","0.0-6.0-1.150","ALGO","1","m","rechts","21","","","object","j","120","true"
"null","<div style=""font-size:60px;"">+</div>","null","html-keyboard-response","308","250712","0.0-6.0-0.151","ALGO","1","m","rechts","21","","fixation","","","",""
"853","img/90_330.png","74","image-keyboard-response","309","251565","0.0-6.0-1.151","ALGO","1","m","rechts","21","","","object","j","90","true"
"null","<div style=""font-size:60px;"">+</div>","null","html-keyboard-response","310","251867","0.0-6.0-0.152","ALGO","1","m","rechts","21","","fixation","","","",""
"893","img/30_270.png","70","image-keyboard-response","311","252760","0.0-6.0-1.152","ALGO","1","m","rechts","21","","","object","f","30","true"
"null","<div style=""font-size:60px;"">+</div>","null","html-keyboard-response","312","253262","0.0-6.0-0.153","ALGO","1","m","rechts","21","","fixation","","","",""
"855","img/0_120.png","74","image-keyboard-response","313","254117","0.0-6.0-1.153","ALGO","1","m","rechts","21","","","object","j","0","true"
"null","<div style=""font-size:60px;"">+</div>","null","html-keyboard-response","314","254469","0.0-6.0-0.154","ALGO","1","m","rechts","21","","fixation","","","",""
"1240","img/90_150.png","74","image-keyboard-response","315","255710","0.0-6.0-1.154","ALGO","1","m","rechts","21","","","object","j","90","true"
"null","<div style=""font-size:60px;"">+</div>","null","html-keyboard-response","316","256111","0.0-6.0-0.155","ALGO","1","m","rechts","21","","fixation","","","",""
"834","img/150_180.png","70","image-keyboard-response","317","256946","0.0-6.0-1.155","ALGO","1","m","rechts","21","","","object","f","150","true"
"null","<div style=""font-size:60px;"">+</div>","null","html-keyboard-response","318","257448","0.0-6.0-0.156","ALGO","1","m","rechts","21","","fixation","","","",""
"795","img/0_300.png","70","image-keyboard-response","319","258243","0.0-6.0-1.156","ALGO","1","m","rechts","21","","","object","f","0","true"
"null","<div style=""font-size:60px;"">+</div>","null","html-keyboard-response","320","258595","0.0-6.0-0.157","ALGO","1","m","rechts","21","","fixation","","","",""
"1076","img/90_60.png","70","image-keyboard-response","321","259671","0.0-6.0-1.157","ALGO","1","m","rechts","21","","","object","f","90","true"
"null","<div style=""font-size:60px;"">+</div>","null","html-keyboard-response","322","259973","0.0-6.0-0.158","ALGO","1","m","rechts","21","","fixation","","","",""
"1225","img/120_210.png","70","image-keyboard-response","323","261199","0.0-6.0-1.158","ALGO","1","m","rechts","21","","","object","f","120","true"
"null","<div style=""font-size:60px;"">+</div>","null","html-keyboard-response","324","261550","0.0-6.0-0.159","ALGO","1","m","rechts","21","","fixation","","","",""
"1034","img/120_150.png","74","image-keyboard-response","325","262586","0.0-6.0-1.159","ALGO","1","m","rechts","21","","","object","j","120","true"
"null","<div style=""font-size:60px;"">+</div>","null","html-keyboard-response","326","262887","0.0-6.0-0.160","ALGO","1","m","rechts","21","","fixation","","","",""
"931","img/0_30.png","74","image-keyboard-response","327","263820","0.0-6.0-1.160","ALGO","1","m","rechts","21","","","object","j","0","true"
"null","<div style=""font-size:60px;"">+</div>","null","html-keyboard-response","328","264172","0.0-6.0-0.161","ALGO","1","m","rechts","21","","fixation","","","",""
"954","img/0_120.png","74","image-keyboard-response","329","265127","0.0-6.0-1.161","ALGO","1","m","rechts","21","","","object","j","0","true"
"null","<div style=""font-size:60px;"">+</div>","null","html-keyboard-response","330","265528","0.0-6.0-0.162","ALGO","1","m","rechts","21","","fixation","","","",""
"840","img/0_210.png","70","image-keyboard-response","331","266370","0.0-6.0-1.162","ALGO","1","m","rechts","21","","","object","f","0","true"
"null","<div style=""font-size:60px;"">+</div>","null","html-keyboard-response","332","266821","0.0-6.0-0.163","ALGO","1","m","rechts","21","","fixation","","","",""
"811","img/30_270.png","70","image-keyboard-response","333","267634","0.0-6.0-1.163","ALGO","1","m","rechts","21","","","object","f","30","true"
"null","<div style=""font-size:60px;"">+</div>","null","html-keyboard-response","334","267985","0.0-6.0-0.164","ALGO","1","m","rechts","21","","fixation","","","",""
"1105","img/90_120.png","70","image-keyboard-response","335","269091","0.0-6.0-1.164","ALGO","1","m","rechts","21","","","object","j","90","false"
"null","<div style=""font-size:60px;"">+</div>","null","html-keyboard-response","336","269443","0.0-6.0-0.165","ALGO","1","m","rechts","21","","fixation","","","",""
"967","img/120_180.png","74","image-keyboard-response","337","270411","0.0-6.0-1.165","ALGO","1","m","rechts","21","","","object","f","120","false"
"null","<div style=""font-size:60px;"">+</div>","null","html-keyboard-response","338","270813","0.0-6.0-0.166","ALGO","1","m","rechts","21","","fixation","","","",""
"911","img/L90_180.png","74","image-keyboard-response","339","271725","0.0-6.0-1.166","ALGO","1","m","rechts","21","","","object","j","90","true"
"null","<div style=""font-size:60px;"">+</div>","null","html-keyboard-response","340","272076","0.0-6.0-0.167","ALGO","1","m","rechts","21","","fixation","","","",""
"1074","img/90_150.png","74","image-keyboard-response","341","273151","0.0-6.0-1.167","ALGO","1","m","rechts","21","","","object","j","90","true"
"null","<div style=""font-size:60px;"">+</div>","null","html-keyboard-response","342","273553","0.0-6.0-0.168","ALGO","1","m","rechts","21","","fixation","","","",""
"899","img/60_30.png","70","image-keyboard-response","343","274453","0.0-6.0-1.168","ALGO","1","m","rechts","21","","","object","f","60","true"
"null","<div style=""font-size:60px;"">+</div>","null","html-keyboard-response","344","274855","0.0-6.0-0.169","ALGO","1","m","rechts","21","","fixation","","","",""
"937","img/150_180.png","70","image-keyboard-response","345","275793","0.0-6.0-1.169","ALGO","1","m","rechts","21","","","object","f","150","true"
"null","<div style=""font-size:60px;"">+</div>","null","html-keyboard-response","346","276295","0.0-6.0-0.170","ALGO","1","m","rechts","21","","fixation","","","",""
"944","img/30_60.png","74","image-keyboard-response","347","277240","0.0-6.0-1.170","ALGO","1","m","rechts","21","","","object","j","30","true"
"null","<div style=""font-size:60px;"">+</div>","null","html-keyboard-response","348","277642","0.0-6.0-0.171","ALGO","1","m","rechts","21","","fixation","","","",""
"953","img/120_30.png","70","image-keyboard-response","349","278596","0.0-6.0-1.171","ALGO","1","m","rechts","21","","","object","f","120","true"
"null","<div style=""font-size:60px;"">+</div>","null","html-keyboard-response","350","279098","0.0-6.0-0.172","ALGO","1","m","rechts","21","","fixation","","","",""
"920","img/120_90.png","70","image-keyboard-response","351","280019","0.0-6.0-1.172","ALGO","1","m","rechts","21","","","object","f","120","true"
"null","<div style=""font-size:60px;"">+</div>","null","html-keyboard-response","352","280521","0.0-6.0-0.173","ALGO","1","m","rechts","21","","fixation","","","",""
"861","img/90_330.png","74","image-keyboard-response","353","281383","0.0-6.0-1.173","ALGO","1","m","rechts","21","","","object","j","90","true"
"null","<div style=""font-size:60px;"">+</div>","null","html-keyboard-response","354","281884","0.0-6.0-0.174","ALGO","1","m","rechts","21","","fixation","","","",""
"883","img/30_90.png","74","image-keyboard-response","355","282768","0.0-6.0-1.174","ALGO","1","m","rechts","21","","","object","j","30","true"
"null","<div style=""font-size:60px;"">+</div>","null","html-keyboard-response","356","283120","0.0-6.0-0.175","ALGO","1","m","rechts","21","","fixation","","","",""
"911","img/150_60.png","70","image-keyboard-response","357","284032","0.0-6.0-1.175","ALGO","1","m","rechts","21","","","object","f","150","true"
"null","<div style=""font-size:60px;"">+</div>","null","html-keyboard-response","358","284484","0.0-6.0-0.176","ALGO","1","m","rechts","21","","fixation","","","",""
"829","img/60_270.png","74","image-keyboard-response","359","285314","0.0-6.0-1.176","ALGO","1","m","rechts","21","","","object","f","60","false"
"null","<div style=""font-size:60px;"">+</div>","null","html-keyboard-response","360","285666","0.0-6.0-0.177","ALGO","1","m","rechts","21","","fixation","","","",""
"827","img/0_60.png","74","image-keyboard-response","361","286494","0.0-6.0-1.177","ALGO","1","m","rechts","21","","","object","j","0","true"
"null","<div style=""font-size:60px;"">+</div>","null","html-keyboard-response","362","286846","0.0-6.0-0.178","ALGO","1","m","rechts","21","","fixation","","","",""
"697","img/0_240.png","70","image-keyboard-response","363","287544","0.0-6.0-1.178","ALGO","1","m","rechts","21","","","object","f","0","true"
"null","<div style=""font-size:60px;"">+</div>","null","html-keyboard-response","364","287846","0.0-6.0-0.179","ALGO","1","m","rechts","21","","fixation","","","",""
"1071","img/90_210.png","70","image-keyboard-response","365","288918","0.0-6.0-1.179","ALGO","1","m","rechts","21","","","object","f","90","true"
"null","<div style=""font-size:60px;"">+</div>","null","html-keyboard-response","366","289419","0.0-6.0-0.180","ALGO","1","m","rechts","21","","fixation","","","",""
"766","img/120_270.png","74","image-keyboard-response","367","290186","0.0-6.0-1.180","ALGO","1","m","rechts","21","","","object","j","120","true"
"null","<div style=""font-size:60px;"">+</div>","null","html-keyboard-response","368","290638","0.0-6.0-0.181","ALGO","1","m","rechts","21","","fixation","","","",""
"982","img/150_270.png","74","image-keyboard-response","369","291621","0.0-6.0-1.181","ALGO","1","m","rechts","21","","","object","j","150","true"
"null","<div style=""font-size:60px;"">+</div>","null","html-keyboard-response","370","291923","0.0-6.0-0.182","ALGO","1","m","rechts","21","","fixation","","","",""
"1180","img/60_330.png","70","image-keyboard-response","371","293103","0.0-6.0-1.182","ALGO","1","m","rechts","21","","","object","j","60","false"
"null","<div style=""font-size:60px;"">+</div>","null","html-keyboard-response","372","293405","0.0-6.0-0.183","ALGO","1","m","rechts","21","","fixation","","","",""
"775","img/90_30.png","70","image-keyboard-response","373","294180","0.0-6.0-1.183","ALGO","1","m","rechts","21","","","object","f","90","true"
"null","<div style=""font-size:60px;"">+</div>","null","html-keyboard-response","374","294532","0.0-6.0-0.184","ALGO","1","m","rechts","21","","fixation","","","",""
"891","img/90_300.png","74","image-keyboard-response","375","295424","0.0-6.0-1.184","ALGO","1","m","rechts","21","","","object","j","90","true"
"null","<div style=""font-size:60px;"">+</div>","null","html-keyboard-response","376","295726","0.0-6.0-0.185","ALGO","1","m","rechts","21","","fixation","","","",""
"1065","img/150_240.png","74","image-keyboard-response","377","296792","0.0-6.0-1.185","ALGO","1","m","rechts","21","","","object","j","150","true"
"null","<div style=""font-size:60px;"">+</div>","null","html-keyboard-response","378","297243","0.0-6.0-0.186","ALGO","1","m","rechts","21","","fixation","","","",""
"712","img/60_180.png","70","image-keyboard-response","379","297956","0.0-6.0-1.186","ALGO","1","m","rechts","21","","","object","f","60","true"
"null","<div style=""font-size:60px;"">+</div>","null","html-keyboard-response","380","298357","0.0-6.0-0.187","ALGO","1","m","rechts","21","","fixation","","","",""
"857","img/0_150.png","74","image-keyboard-response","381","299215","0.0-6.0-1.187","ALGO","1","m","rechts","21","","","object","j","0","true"
"null","<div style=""font-size:60px;"">+</div>","null","html-keyboard-response","382","299567","0.0-6.0-0.188","ALGO","1","m","rechts","21","","fixation","","","",""
"824","img/150_300.png","74","image-keyboard-response","383","300391","0.0-6.0-1.188","ALGO","1","m","rechts","21","","","object","j","150","true"
"null","<div style=""font-size:60px;"">+</div>","null","html-keyboard-response","384","300693","0.0-6.0-0.189","ALGO","1","m","rechts","21","","fixation","","","",""
"754","img/0_270.png","70","image-keyboard-response","385","301447","0.0-6.0-1.189","ALGO","1","m","rechts","21","","","object","f","0","true"
"null","<div style=""font-size:60px;"">+</div>","null","html-keyboard-response","386","301799","0.0-6.0-0.190","ALGO","1","m","rechts","21","","fixation","","","",""
"815","img/150_90.png","70","image-keyboard-response","387","302614","0.0-6.0-1.190","ALGO","1","m","rechts","21","","","object","f","150","true"
"null","<div style=""font-size:60px;"">+</div>","null","html-keyboard-response","388","303115","0.0-6.0-0.191","ALGO","1","m","rechts","21","","fixation","","","",""
"851","img/90_240.png","70","image-keyboard-response","389","303967","0.0-6.0-1.191","ALGO","1","m","rechts","21","","","object","f","90","true"
"null","<div style=""font-size:60px;"">+</div>","null","html-keyboard-response","390","304269","0.0-6.0-0.192","ALGO","1","m","rechts","21","","fixation","","","",""
"816","img/30_240.png","70","image-keyboard-response","391","305086","0.0-6.0-1.192","ALGO","1","m","rechts","21","","","object","f","30","true"
"null","<div style=""font-size:60px;"">+</div>","null","html-keyboard-response","392","305487","0.0-6.0-0.193","ALGO","1","m","rechts","21","","fixation","","","",""
"789","img/0_330.png","70","image-keyboard-response","393","306277","0.0-6.0-1.193","ALGO","1","m","rechts","21","","","object","f","0","true"
"null","<div style=""font-size:60px;"">+</div>","null","html-keyboard-response","394","306679","0.0-6.0-0.194","ALGO","1","m","rechts","21","","fixation","","","",""
"793","img/120_330.png","74","image-keyboard-response","395","307472","0.0-6.0-1.194","ALGO","1","m","rechts","21","","","object","j","120","true"
"null","<div style=""font-size:60px;"">+</div>","null","html-keyboard-response","396","307874","0.0-6.0-0.195","ALGO","1","m","rechts","21","","fixation","","","",""
"1066","img/L150_180.png","74","image-keyboard-response","397","308940","0.0-6.0-1.195","ALGO","1","m","rechts","21","","","object","j","150","true"
"null","<div style=""font-size:60px;"">+</div>","null","html-keyboard-response","398","309342","0.0-6.0-0.196","ALGO","1","m","rechts","21","","fixation","","","",""
"825","img/0_90.png","74","image-keyboard-response","399","310168","0.0-6.0-1.196","ALGO","1","m","rechts","21","","","object","j","0","true"
"null","<div style=""font-size:60px;"">+</div>","null","html-keyboard-response","400","310569","0.0-6.0-0.197","ALGO","1","m","rechts","21","","fixation","","","",""
"1008","img/150_120.png","74","image-keyboard-response","401","311578","0.0-6.0-1.197","ALGO","1","m","rechts","21","","","object","f","150","false"
"null","<div style=""font-size:60px;"">+</div>","null","html-keyboard-response","402","312030","0.0-6.0-0.198","ALGO","1","m","rechts","21","","fixation","","","",""
"1140","img/60_90.png","74","image-keyboard-response","403","313171","0.0-6.0-1.198","ALGO","1","m","rechts","21","","","object","j","60","true"
"null","<div style=""font-size:60px;"">+</div>","null","html-keyboard-response","404","313673","0.0-6.0-0.199","ALGO","1","m","rechts","21","","fixation","","","",""
"1073","img/30_180.png","70","image-keyboard-response","405","314747","0.0-6.0-1.199","ALGO","1","m","rechts","21","","","object","f","30","true"
"null","<div style=""font-size:60px;"">+</div>","null","html-keyboard-response","406","315198","0.0-6.0-0.200","ALGO","1","m","rechts","21","","fixation","","","",""
"931","img/L30_180.png","74","image-keyboard-response","407","316131","0.0-6.0-1.200","ALGO","1","m","rechts","21","","","object","j","30","true"
"null","<div style=""font-size:60px;"">+</div>","null","html-keyboard-response","408","316532","0.0-6.0-0.201","ALGO","1","m","rechts","21","","fixation","","","",""
"1176","img/30_120.png","70","image-keyboard-response","409","317709","0.0-6.0-1.201","ALGO","1","m","rechts","21","","","object","j","30","false"
"null","<div style=""font-size:60px;"">+</div>","null","html-keyboard-response","410","318011","0.0-6.0-0.202","ALGO","1","m","rechts","21","","fixation","","","",""
"1159","img/60_210.png","74","image-keyboard-response","411","319171","0.0-6.0-1.202","ALGO","1","m","rechts","21","","","object","f","60","false"
"null","<div style=""font-size:60px;"">+</div>","null","html-keyboard-response","412","319573","0.0-6.0-0.203","ALGO","1","m","rechts","21","","fixation","","","",""
"1065","img/90_180.png","70","image-keyboard-response","413","320639","0.0-6.0-1.203","ALGO","1","m","rechts","21","","","object","f","90","true"
"null","<div style=""font-size:60px;"">+</div>","null","html-keyboard-response","414","320942","0.0-6.0-0.204","ALGO","1","m","rechts","21","","fixation","","","",""
"952","img/30_300.png","70","image-keyboard-response","415","321894","0.0-6.0-1.204","ALGO","1","m","rechts","21","","","object","f","30","true"
"null","<div style=""font-size:60px;"">+</div>","null","html-keyboard-response","416","322396","0.0-6.0-0.205","ALGO","1","m","rechts","21","","fixation","","","",""
"776","img/60_150.png","74","image-keyboard-response","417","323173","0.0-6.0-1.205","ALGO","1","m","rechts","21","","","object","j","60","true"
"null","<div style=""font-size:60px;"">+</div>","null","html-keyboard-response","418","323675","0.0-6.0-0.206","ALGO","1","m","rechts","21","","fixation","","","",""
"951","img/L60_180.png","74","image-keyboard-response","419","324627","0.0-6.0-1.206","ALGO","1","m","rechts","21","","","object","j","60","true"
"null","<div style=""font-size:60px;"">+</div>","null","html-keyboard-response","420","324979","0.0-6.0-0.207","ALGO","1","m","rechts","21","","fixation","","","",""
"1067","img/L120_180.png","74","image-keyboard-response","421","326047","0.0-6.0-1.207","ALGO","1","m","rechts","21","","","object","j","120","true"
"28266","<p>Du hast in 80% der Versuche korrekt entschieden.</p><p>Deine durchschnittliche Reaktionszeit war  972ms.</p><p>Dr&uuml;cke eine beliebige Taste, um die Session zu beenden. Vielen Dank!</p>","71","html-keyboard-response","422","354314","0.0-7.0","ALGO","1","m","rechts","21","","","","","",""
