"rt","stimulus","key_press","trial_type","trial_index","time_elapsed","internal_node_id","subject","session","sex","handedness","age","responses","test_part","condition","correct_response","angle","correct"
"7873","<p>Mental Rotation Experiment.</p> <p>Dr&uuml;cke eine beliebige Taste, um anzufangen.</p>","71","html-keyboard-response","0","7874","0.0-0.0","ALGO","2","m","rechts","21","","","","","",""
"4187","","","survey-text","1","12063","0.0-1.0","ALGO","2","m","rechts","21","{""Q0"":""ALGO""}","","","","",""
"1647","","","survey-text","2","13712","0.0-2.0","ALGO","2","m","rechts","21","{""Q0"":""2""}","","","","",""
"13433","","","survey-multi-choice","3","27148","0.0-3.0","ALGO","2","m","rechts","21","{""Q0"":""m"",""Q1"":""rechts""}","","","","",""
"2068","","","survey-text","4","29216","0.0-4.0","ALGO","2","m","rechts","21","{""Q0"":""21""}","","","","",""
"259611","<p> Stell dir vor, dass du vor einem runden Tisch stehst, auf dem sich ein blauer Ball am Tischrand befindet. Entlang des Tischrands ist jeweils ein verschieden langer Pfeil. Nun bewegst du dich entlang dieses Pfeils bis an seine Spitze. Wenn du am Ende des Pfeils angekommen bist, schau zur Tischmitte. </p> <img src='img/90_180.png'></img> <br> <p>Entscheide dann, ob der Ball von deiner neuen (vorgestellten) Position links oder rechts von dir liegt.</p> <p>Dr&uuml;cke die <strong>'f'</strong>-Taste f&uuml;r links, die <strong>'j'</strong>-Taste f&uuml;r rechts.</p> <br><p> Das Bild wird jeweils 1 Sekunde lang pr&auml;sentiert. Du hast 3 Sekunden Zeit eine Entscheidung zu treffen.</p>","74","html-keyboard-response","5","288828","0.0-5.0","ALGO","2","m","rechts","21","","","","","",""
"null","<div style=""font-size:60px;"">+</div>","null","html-keyboard-response","6","290282","0.0-6.0-0.0","ALGO","2","m","rechts","21","","fixation","","","",""
"1793","img/90_60.png","74","image-keyboard-response","7","292077","0.0-6.0-1.0","ALGO","2","m","rechts","21","","","self","j","90","true"
"null","<div style=""font-size:60px;"">+</div>","null","html-keyboard-response","8","292479","0.0-6.0-0.1","ALGO","2","m","rechts","21","","fixation","","","",""
"1457","img/30_300.png","70","image-keyboard-response","9","293937","0.0-6.0-1.1","ALGO","2","m","rechts","21","","","self","f","30","true"
"null","<div style=""font-size:60px;"">+</div>","null","html-keyboard-response","10","294289","0.0-6.0-0.2","ALGO","2","m","rechts","21","","fixation","","","",""
"1167","img/30_90.png","70","image-keyboard-response","11","295457","0.0-6.0-1.2","ALGO","2","m","rechts","21","","","self","j","30","false"
"null","<div style=""font-size:60px;"">+</div>","null","html-keyboard-response","12","295909","0.0-6.0-0.3","ALGO","2","m","rechts","21","","fixation","","","",""
"1091","img/L60_180.png","70","image-keyboard-response","13","297001","0.0-6.0-1.3","ALGO","2","m","rechts","21","","","self","f","60","true"
"null","<div style=""font-size:60px;"">+</div>","null","html-keyboard-response","14","297353","0.0-6.0-0.4","ALGO","2","m","rechts","21","","fixation","","","",""
"1191","img/120_30.png","74","image-keyboard-response","15","298545","0.0-6.0-1.4","ALGO","2","m","rechts","21","","","self","j","120","true"
"null","<div style=""font-size:60px;"">+</div>","null","html-keyboard-response","16","298897","0.0-6.0-0.5","ALGO","2","m","rechts","21","","fixation","","","",""
"848","img/30_270.png","70","image-keyboard-response","17","299746","0.0-6.0-1.5","ALGO","2","m","rechts","21","","","self","f","30","true"
"null","<div style=""font-size:60px;"">+</div>","null","html-keyboard-response","18","300248","0.0-6.0-0.6","ALGO","2","m","rechts","21","","fixation","","","",""
"996","img/150_90.png","70","image-keyboard-response","19","301245","0.0-6.0-1.6","ALGO","2","m","rechts","21","","","self","f","150","true"
"null","<div style=""font-size:60px;"">+</div>","null","html-keyboard-response","20","301647","0.0-6.0-0.7","ALGO","2","m","rechts","21","","fixation","","","",""
"908","img/L30_180.png","70","image-keyboard-response","21","302556","0.0-6.0-1.7","ALGO","2","m","rechts","21","","","self","f","30","true"
"null","<div style=""font-size:60px;"">+</div>","null","html-keyboard-response","22","303058","0.0-6.0-0.8","ALGO","2","m","rechts","21","","fixation","","","",""
"818","img/60_150.png","70","image-keyboard-response","23","303877","0.0-6.0-1.8","ALGO","2","m","rechts","21","","","self","f","60","true"
"null","<div style=""font-size:60px;"">+</div>","null","html-keyboard-response","24","304178","0.0-6.0-0.9","ALGO","2","m","rechts","21","","fixation","","","",""
"863","img/0_270.png","70","image-keyboard-response","25","305042","0.0-6.0-1.9","ALGO","2","m","rechts","21","","","self","f","0","true"
"null","<div style=""font-size:60px;"">+</div>","null","html-keyboard-response","26","305393","0.0-6.0-0.10","ALGO","2","m","rechts","21","","fixation","","","",""
"1633","img/30_240.png","74","image-keyboard-response","27","307026","0.0-6.0-1.10","ALGO","2","m","rechts","21","","","self","f","30","false"
"null","<div style=""font-size:60px;"">+</div>","null","html-keyboard-response","28","307328","0.0-6.0-0.11","ALGO","2","m","rechts","21","","fixation","","","",""
"1014","img/30_120.png","70","image-keyboard-response","29","308343","0.0-6.0-1.11","ALGO","2","m","rechts","21","","","self","j","30","false"
"null","<div style=""font-size:60px;"">+</div>","null","html-keyboard-response","30","308795","0.0-6.0-0.12","ALGO","2","m","rechts","21","","fixation","","","",""
"796","img/0_330.png","70","image-keyboard-response","31","309592","0.0-6.0-1.12","ALGO","2","m","rechts","21","","","self","f","0","true"
"null","<div style=""font-size:60px;"">+</div>","null","html-keyboard-response","32","309994","0.0-6.0-0.13","ALGO","2","m","rechts","21","","fixation","","","",""
"989","img/60_270.png","70","image-keyboard-response","33","310984","0.0-6.0-1.13","ALGO","2","m","rechts","21","","","self","f","60","true"
"null","<div style=""font-size:60px;"">+</div>","null","html-keyboard-response","34","311436","0.0-6.0-0.14","ALGO","2","m","rechts","21","","fixation","","","",""
"736","img/0_30.png","74","image-keyboard-response","35","312173","0.0-6.0-1.14","ALGO","2","m","rechts","21","","","self","j","0","true"
"null","<div style=""font-size:60px;"">+</div>","null","html-keyboard-response","36","312575","0.0-6.0-0.15","ALGO","2","m","rechts","21","","fixation","","","",""
"872","img/120_90.png","70","image-keyboard-response","37","313449","0.0-6.0-1.15","ALGO","2","m","rechts","21","","","self","f","120","true"
"null","<div style=""font-size:60px;"">+</div>","null","html-keyboard-response","38","313949","0.0-6.0-0.16","ALGO","2","m","rechts","21","","fixation","","","",""
"948","img/150_180.png","74","image-keyboard-response","39","314898","0.0-6.0-1.16","ALGO","2","m","rechts","21","","","self","j","150","true"
"null","<div style=""font-size:60px;"">+</div>","null","html-keyboard-response","40","315400","0.0-6.0-0.17","ALGO","2","m","rechts","21","","fixation","","","",""
"1070","img/L120_180.png","70","image-keyboard-response","41","316471","0.0-6.0-1.17","ALGO","2","m","rechts","21","","","self","f","120","true"
"null","<div style=""font-size:60px;"">+</div>","null","html-keyboard-response","42","316923","0.0-6.0-0.18","ALGO","2","m","rechts","21","","fixation","","","",""
"1093","img/90_30.png","74","image-keyboard-response","43","318018","0.0-6.0-1.18","ALGO","2","m","rechts","21","","","self","j","90","true"
"null","<div style=""font-size:60px;"">+</div>","null","html-keyboard-response","44","318420","0.0-6.0-0.19","ALGO","2","m","rechts","21","","fixation","","","",""
"1073","img/90_180.png","70","image-keyboard-response","45","319494","0.0-6.0-1.19","ALGO","2","m","rechts","21","","","self","j","90","false"
"null","<div style=""font-size:60px;"">+</div>","null","html-keyboard-response","46","319895","0.0-6.0-0.20","ALGO","2","m","rechts","21","","fixation","","","",""
"903","img/30_180.png","74","image-keyboard-response","47","320800","0.0-6.0-1.20","ALGO","2","m","rechts","21","","","self","j","30","true"
"null","<div style=""font-size:60px;"">+</div>","null","html-keyboard-response","48","321102","0.0-6.0-0.21","ALGO","2","m","rechts","21","","fixation","","","",""
"1261","img/120_330.png","74","image-keyboard-response","49","322365","0.0-6.0-1.21","ALGO","2","m","rechts","21","","","self","f","120","false"
"null","<div style=""font-size:60px;"">+</div>","null","html-keyboard-response","50","322766","0.0-6.0-0.22","ALGO","2","m","rechts","21","","fixation","","","",""
"1102","img/0_90.png","74","image-keyboard-response","51","323870","0.0-6.0-1.22","ALGO","2","m","rechts","21","","","self","j","0","true"
"null","<div style=""font-size:60px;"">+</div>","null","html-keyboard-response","52","324221","0.0-6.0-0.23","ALGO","2","m","rechts","21","","fixation","","","",""
"654","img/0_120.png","74","image-keyboard-response","53","324878","0.0-6.0-1.23","ALGO","2","m","rechts","21","","","self","j","0","true"
"null","<div style=""font-size:60px;"">+</div>","null","html-keyboard-response","54","325329","0.0-6.0-0.24","ALGO","2","m","rechts","21","","fixation","","","",""
"908","img/120_270.png","70","image-keyboard-response","55","326239","0.0-6.0-1.24","ALGO","2","m","rechts","21","","","self","j","120","false"
"null","<div style=""font-size:60px;"">+</div>","null","html-keyboard-response","56","326540","0.0-6.0-0.25","ALGO","2","m","rechts","21","","fixation","","","",""
"1247","img/90_330.png","70","image-keyboard-response","57","327788","0.0-6.0-1.25","ALGO","2","m","rechts","21","","","self","f","90","true"
"null","<div style=""font-size:60px;"">+</div>","null","html-keyboard-response","58","328291","0.0-6.0-0.26","ALGO","2","m","rechts","21","","fixation","","","",""
"1770","img/150_240.png","70","image-keyboard-response","59","330063","0.0-6.0-1.26","ALGO","2","m","rechts","21","","","self","j","150","false"
"null","<div style=""font-size:60px;"">+</div>","null","html-keyboard-response","60","330564","0.0-6.0-0.27","ALGO","2","m","rechts","21","","fixation","","","",""
"1239","img/30_60.png","70","image-keyboard-response","61","331804","0.0-6.0-1.27","ALGO","2","m","rechts","21","","","self","j","30","false"
"null","<div style=""font-size:60px;"">+</div>","null","html-keyboard-response","62","332306","0.0-6.0-0.28","ALGO","2","m","rechts","21","","fixation","","","",""
"1071","img/L90_180.png","70","image-keyboard-response","63","333378","0.0-6.0-1.28","ALGO","2","m","rechts","21","","","self","f","90","true"
"null","<div style=""font-size:60px;"">+</div>","null","html-keyboard-response","64","333880","0.0-6.0-0.29","ALGO","2","m","rechts","21","","fixation","","","",""
"828","img/60_180.png","74","image-keyboard-response","65","334709","0.0-6.0-1.29","ALGO","2","m","rechts","21","","","self","j","60","true"
"null","<div style=""font-size:60px;"">+</div>","null","html-keyboard-response","66","335161","0.0-6.0-0.30","ALGO","2","m","rechts","21","","fixation","","","",""
"666","img/0_150.png","74","image-keyboard-response","67","335828","0.0-6.0-1.30","ALGO","2","m","rechts","21","","","self","j","0","true"
"null","<div style=""font-size:60px;"">+</div>","null","html-keyboard-response","68","336229","0.0-6.0-0.31","ALGO","2","m","rechts","21","","fixation","","","",""
"916","img/120_210.png","74","image-keyboard-response","69","337146","0.0-6.0-1.31","ALGO","2","m","rechts","21","","","self","j","120","true"
"null","<div style=""font-size:60px;"">+</div>","null","html-keyboard-response","70","337548","0.0-6.0-0.32","ALGO","2","m","rechts","21","","fixation","","","",""
"845","img/L150_180.png","70","image-keyboard-response","71","338394","0.0-6.0-1.32","ALGO","2","m","rechts","21","","","self","f","150","true"
"null","<div style=""font-size:60px;"">+</div>","null","html-keyboard-response","72","338696","0.0-6.0-0.33","ALGO","2","m","rechts","21","","fixation","","","",""
"1082","img/90_150.png","70","image-keyboard-response","73","339779","0.0-6.0-1.33","ALGO","2","m","rechts","21","","","self","f","90","true"
"null","<div style=""font-size:60px;"">+</div>","null","html-keyboard-response","74","340231","0.0-6.0-0.34","ALGO","2","m","rechts","21","","fixation","","","",""
"648","img/0_240.png","70","image-keyboard-response","75","340880","0.0-6.0-1.34","ALGO","2","m","rechts","21","","","self","f","0","true"
"null","<div style=""font-size:60px;"">+</div>","null","html-keyboard-response","76","341282","0.0-6.0-0.35","ALGO","2","m","rechts","21","","fixation","","","",""
"803","img/90_240.png","74","image-keyboard-response","77","342086","0.0-6.0-1.35","ALGO","2","m","rechts","21","","","self","j","90","true"
"null","<div style=""font-size:60px;"">+</div>","null","html-keyboard-response","78","342388","0.0-6.0-0.36","ALGO","2","m","rechts","21","","fixation","","","",""
"1077","img/60_30.png","74","image-keyboard-response","79","343466","0.0-6.0-1.36","ALGO","2","m","rechts","21","","","self","j","60","true"
"null","<div style=""font-size:60px;"">+</div>","null","html-keyboard-response","80","343868","0.0-6.0-0.37","ALGO","2","m","rechts","21","","fixation","","","",""
"870","img/150_270.png","70","image-keyboard-response","81","344739","0.0-6.0-1.37","ALGO","2","m","rechts","21","","","self","j","150","false"
"null","<div style=""font-size:60px;"">+</div>","null","html-keyboard-response","82","345141","0.0-6.0-0.38","ALGO","2","m","rechts","21","","fixation","","","",""
"898","img/60_330.png","70","image-keyboard-response","83","346040","0.0-6.0-1.38","ALGO","2","m","rechts","21","","","self","f","60","true"
"null","<div style=""font-size:60px;"">+</div>","null","html-keyboard-response","84","346542","0.0-6.0-0.39","ALGO","2","m","rechts","21","","fixation","","","",""
"815","img/90_300.png","70","image-keyboard-response","85","347358","0.0-6.0-1.39","ALGO","2","m","rechts","21","","","self","f","90","true"
"null","<div style=""font-size:60px;"">+</div>","null","html-keyboard-response","86","347860","0.0-6.0-0.40","ALGO","2","m","rechts","21","","fixation","","","",""
"847","img/60_210.png","74","image-keyboard-response","87","348708","0.0-6.0-1.40","ALGO","2","m","rechts","21","","","self","j","60","true"
"null","<div style=""font-size:60px;"">+</div>","null","html-keyboard-response","88","349009","0.0-6.0-0.41","ALGO","2","m","rechts","21","","fixation","","","",""
"788","img/120_180.png","74","image-keyboard-response","89","349799","0.0-6.0-1.41","ALGO","2","m","rechts","21","","","self","j","120","true"
"null","<div style=""font-size:60px;"">+</div>","null","html-keyboard-response","90","350151","0.0-6.0-0.42","ALGO","2","m","rechts","21","","fixation","","","",""
"711","img/0_210.png","70","image-keyboard-response","91","350863","0.0-6.0-1.42","ALGO","2","m","rechts","21","","","self","f","0","true"
"null","<div style=""font-size:60px;"">+</div>","null","html-keyboard-response","92","351265","0.0-6.0-0.43","ALGO","2","m","rechts","21","","fixation","","","",""
"822","img/150_300.png","74","image-keyboard-response","93","352088","0.0-6.0-1.43","ALGO","2","m","rechts","21","","","self","j","150","true"
"null","<div style=""font-size:60px;"">+</div>","null","html-keyboard-response","94","352540","0.0-6.0-0.44","ALGO","2","m","rechts","21","","fixation","","","",""
"621","img/0_60.png","74","image-keyboard-response","95","353162","0.0-6.0-1.44","ALGO","2","m","rechts","21","","","self","j","0","true"
"null","<div style=""font-size:60px;"">+</div>","null","html-keyboard-response","96","353613","0.0-6.0-0.45","ALGO","2","m","rechts","21","","fixation","","","",""
"901","img/120_150.png","70","image-keyboard-response","97","354515","0.0-6.0-1.45","ALGO","2","m","rechts","21","","","self","f","120","true"
"null","<div style=""font-size:60px;"">+</div>","null","html-keyboard-response","98","354817","0.0-6.0-0.46","ALGO","2","m","rechts","21","","fixation","","","",""
"996","img/60_90.png","74","image-keyboard-response","99","355814","0.0-6.0-1.46","ALGO","2","m","rechts","21","","","self","j","60","true"
"null","<div style=""font-size:60px;"">+</div>","null","html-keyboard-response","100","356215","0.0-6.0-0.47","ALGO","2","m","rechts","21","","fixation","","","",""
"1072","img/150_60.png","70","image-keyboard-response","101","357289","0.0-6.0-1.47","ALGO","2","m","rechts","21","","","self","f","150","true"
"null","<div style=""font-size:60px;"">+</div>","null","html-keyboard-response","102","357740","0.0-6.0-0.48","ALGO","2","m","rechts","21","","fixation","","","",""
"977","img/90_120.png","70","image-keyboard-response","103","358719","0.0-6.0-1.48","ALGO","2","m","rechts","21","","","self","f","90","true"
"null","<div style=""font-size:60px;"">+</div>","null","html-keyboard-response","104","359121","0.0-6.0-0.49","ALGO","2","m","rechts","21","","fixation","","","",""
"760","img/150_120.png","70","image-keyboard-response","105","359882","0.0-6.0-1.49","ALGO","2","m","rechts","21","","","self","f","150","true"
"null","<div style=""font-size:60px;"">+</div>","null","html-keyboard-response","106","360284","0.0-6.0-0.50","ALGO","2","m","rechts","21","","fixation","","","",""
"780","img/90_210.png","74","image-keyboard-response","107","361065","0.0-6.0-1.50","ALGO","2","m","rechts","21","","","self","j","90","true"
"null","<div style=""font-size:60px;"">+</div>","null","html-keyboard-response","108","361567","0.0-6.0-0.51","ALGO","2","m","rechts","21","","fixation","","","",""
"682","img/0_300.png","70","image-keyboard-response","109","362250","0.0-6.0-1.51","ALGO","2","m","rechts","21","","","self","f","0","true"
"null","<div style=""font-size:60px;"">+</div>","null","html-keyboard-response","110","362552","0.0-6.0-0.52","ALGO","2","m","rechts","21","","fixation","","","",""
"892","img/120_180.png","74","image-keyboard-response","111","363445","0.0-6.0-1.52","ALGO","2","m","rechts","21","","","self","j","120","true"
"null","<div style=""font-size:60px;"">+</div>","null","html-keyboard-response","112","363946","0.0-6.0-0.53","ALGO","2","m","rechts","21","","fixation","","","",""
"701","img/60_150.png","70","image-keyboard-response","113","364648","0.0-6.0-1.53","ALGO","2","m","rechts","21","","","self","f","60","true"
"null","<div style=""font-size:60px;"">+</div>","null","html-keyboard-response","114","364949","0.0-6.0-0.54","ALGO","2","m","rechts","21","","fixation","","","",""
"802","img/0_120.png","74","image-keyboard-response","115","365753","0.0-6.0-1.54","ALGO","2","m","rechts","21","","","self","j","0","true"
"null","<div style=""font-size:60px;"">+</div>","null","html-keyboard-response","116","366253","0.0-6.0-0.55","ALGO","2","m","rechts","21","","fixation","","","",""
"714","img/L150_180.png","70","image-keyboard-response","117","366968","0.0-6.0-1.55","ALGO","2","m","rechts","21","","","self","f","150","true"
"null","<div style=""font-size:60px;"">+</div>","null","html-keyboard-response","118","367420","0.0-6.0-0.56","ALGO","2","m","rechts","21","","fixation","","","",""
"638","img/L120_180.png","70","image-keyboard-response","119","368059","0.0-6.0-1.56","ALGO","2","m","rechts","21","","","self","f","120","true"
"null","<div style=""font-size:60px;"">+</div>","null","html-keyboard-response","120","368360","0.0-6.0-0.57","ALGO","2","m","rechts","21","","fixation","","","",""
"659","img/0_270.png","70","image-keyboard-response","121","369021","0.0-6.0-1.57","ALGO","2","m","rechts","21","","","self","f","0","true"
"null","<div style=""font-size:60px;"">+</div>","null","html-keyboard-response","122","369472","0.0-6.0-0.58","ALGO","2","m","rechts","21","","fixation","","","",""
"779","img/150_60.png","70","image-keyboard-response","123","370253","0.0-6.0-1.58","ALGO","2","m","rechts","21","","","self","f","150","true"
"null","<div style=""font-size:60px;"">+</div>","null","html-keyboard-response","124","370654","0.0-6.0-0.59","ALGO","2","m","rechts","21","","fixation","","","",""
"651","img/0_30.png","74","image-keyboard-response","125","371307","0.0-6.0-1.59","ALGO","2","m","rechts","21","","","self","j","0","true"
"null","<div style=""font-size:60px;"">+</div>","null","html-keyboard-response","126","371707","0.0-6.0-0.60","ALGO","2","m","rechts","21","","fixation","","","",""
"747","img/120_90.png","70","image-keyboard-response","127","372456","0.0-6.0-1.60","ALGO","2","m","rechts","21","","","self","f","120","true"
"null","<div style=""font-size:60px;"">+</div>","null","html-keyboard-response","128","372857","0.0-6.0-0.61","ALGO","2","m","rechts","21","","fixation","","","",""
"878","img/60_90.png","74","image-keyboard-response","129","373737","0.0-6.0-1.61","ALGO","2","m","rechts","21","","","self","j","60","true"
"null","<div style=""font-size:60px;"">+</div>","null","html-keyboard-response","130","374138","0.0-6.0-0.62","ALGO","2","m","rechts","21","","fixation","","","",""
"905","img/90_330.png","70","image-keyboard-response","131","375045","0.0-6.0-1.62","ALGO","2","m","rechts","21","","","self","f","90","true"
"null","<div style=""font-size:60px;"">+</div>","null","html-keyboard-response","132","375496","0.0-6.0-0.63","ALGO","2","m","rechts","21","","fixation","","","",""
"849","img/0_330.png","70","image-keyboard-response","133","376347","0.0-6.0-1.63","ALGO","2","m","rechts","21","","","self","f","0","true"
"null","<div style=""font-size:60px;"">+</div>","null","html-keyboard-response","134","376748","0.0-6.0-0.64","ALGO","2","m","rechts","21","","fixation","","","",""
"833","img/60_270.png","70","image-keyboard-response","135","377583","0.0-6.0-1.64","ALGO","2","m","rechts","21","","","self","f","60","true"
"null","<div style=""font-size:60px;"">+</div>","null","html-keyboard-response","136","378035","0.0-6.0-0.65","ALGO","2","m","rechts","21","","fixation","","","",""
"887","img/120_330.png","70","image-keyboard-response","137","378922","0.0-6.0-1.65","ALGO","2","m","rechts","21","","","self","f","120","true"
"null","<div style=""font-size:60px;"">+</div>","null","html-keyboard-response","138","379374","0.0-6.0-0.66","ALGO","2","m","rechts","21","","fixation","","","",""
"729","img/L60_180.png","70","image-keyboard-response","139","380104","0.0-6.0-1.66","ALGO","2","m","rechts","21","","","self","f","60","true"
"null","<div style=""font-size:60px;"">+</div>","null","html-keyboard-response","140","380606","0.0-6.0-0.67","ALGO","2","m","rechts","21","","fixation","","","",""
"933","img/L30_180.png","70","image-keyboard-response","141","381539","0.0-6.0-1.67","ALGO","2","m","rechts","21","","","self","f","30","true"
"null","<div style=""font-size:60px;"">+</div>","null","html-keyboard-response","142","381941","0.0-6.0-0.68","ALGO","2","m","rechts","21","","fixation","","","",""
"929","img/150_240.png","74","image-keyboard-response","143","382871","0.0-6.0-1.68","ALGO","2","m","rechts","21","","","self","j","150","true"
"null","<div style=""font-size:60px;"">+</div>","null","html-keyboard-response","144","383173","0.0-6.0-0.69","ALGO","2","m","rechts","21","","fixation","","","",""
"764","img/120_270.png","74","image-keyboard-response","145","383938","0.0-6.0-1.69","ALGO","2","m","rechts","21","","","self","j","120","true"
"null","<div style=""font-size:60px;"">+</div>","null","html-keyboard-response","146","384239","0.0-6.0-0.70","ALGO","2","m","rechts","21","","fixation","","","",""
"761","img/150_120.png","70","image-keyboard-response","147","385001","0.0-6.0-1.70","ALGO","2","m","rechts","21","","","self","f","150","true"
"null","<div style=""font-size:60px;"">+</div>","null","html-keyboard-response","148","385453","0.0-6.0-0.71","ALGO","2","m","rechts","21","","fixation","","","",""
"712","img/120_210.png","74","image-keyboard-response","149","386166","0.0-6.0-1.71","ALGO","2","m","rechts","21","","","self","j","120","true"
"null","<div style=""font-size:60px;"">+</div>","null","html-keyboard-response","150","386468","0.0-6.0-0.72","ALGO","2","m","rechts","21","","fixation","","","",""
"999","img/30_240.png","70","image-keyboard-response","151","387468","0.0-6.0-1.72","ALGO","2","m","rechts","21","","","self","f","30","true"
"null","<div style=""font-size:60px;"">+</div>","null","html-keyboard-response","152","387820","0.0-6.0-0.73","ALGO","2","m","rechts","21","","fixation","","","",""
"699","img/150_90.png","70","image-keyboard-response","153","388519","0.0-6.0-1.73","ALGO","2","m","rechts","21","","","self","f","150","true"
"null","<div style=""font-size:60px;"">+</div>","null","html-keyboard-response","154","389021","0.0-6.0-0.74","ALGO","2","m","rechts","21","","fixation","","","",""
"765","img/90_240.png","74","image-keyboard-response","155","389787","0.0-6.0-1.74","ALGO","2","m","rechts","21","","","self","j","90","true"
"null","<div style=""font-size:60px;"">+</div>","null","html-keyboard-response","156","390289","0.0-6.0-0.75","ALGO","2","m","rechts","21","","fixation","","","",""
"1077","img/30_90.png","74","image-keyboard-response","157","391367","0.0-6.0-1.75","ALGO","2","m","rechts","21","","","self","j","30","true"
"null","<div style=""font-size:60px;"">+</div>","null","html-keyboard-response","158","391769","0.0-6.0-0.76","ALGO","2","m","rechts","21","","fixation","","","",""
"1003","img/150_300.png","70","image-keyboard-response","159","392773","0.0-6.0-1.76","ALGO","2","m","rechts","21","","","self","j","150","false"
"null","<div style=""font-size:60px;"">+</div>","null","html-keyboard-response","160","393275","0.0-6.0-0.77","ALGO","2","m","rechts","21","","fixation","","","",""
"1049","img/90_30.png","70","image-keyboard-response","161","394324","0.0-6.0-1.77","ALGO","2","m","rechts","21","","","self","j","90","false"
"null","<div style=""font-size:60px;"">+</div>","null","html-keyboard-response","162","394626","0.0-6.0-0.78","ALGO","2","m","rechts","21","","fixation","","","",""
"948","img/60_30.png","70","image-keyboard-response","163","395574","0.0-6.0-1.78","ALGO","2","m","rechts","21","","","self","j","60","false"
"null","<div style=""font-size:60px;"">+</div>","null","html-keyboard-response","164","395926","0.0-6.0-0.79","ALGO","2","m","rechts","21","","fixation","","","",""
"1064","img/120_30.png","70","image-keyboard-response","165","396990","0.0-6.0-1.79","ALGO","2","m","rechts","21","","","self","j","120","false"
"null","<div style=""font-size:60px;"">+</div>","null","html-keyboard-response","166","397442","0.0-6.0-0.80","ALGO","2","m","rechts","21","","fixation","","","",""
"925","img/60_180.png","74","image-keyboard-response","167","398367","0.0-6.0-1.80","ALGO","2","m","rechts","21","","","self","j","60","true"
"null","<div style=""font-size:60px;"">+</div>","null","html-keyboard-response","168","398769","0.0-6.0-0.81","ALGO","2","m","rechts","21","","fixation","","","",""
"839","img/60_330.png","70","image-keyboard-response","169","399609","0.0-6.0-1.81","ALGO","2","m","rechts","21","","","self","f","60","true"
"null","<div style=""font-size:60px;"">+</div>","null","html-keyboard-response","170","400111","0.0-6.0-0.82","ALGO","2","m","rechts","21","","fixation","","","",""
"621","img/0_90.png","74","image-keyboard-response","171","400732","0.0-6.0-1.82","ALGO","2","m","rechts","21","","","self","j","0","true"
"null","<div style=""font-size:60px;"">+</div>","null","html-keyboard-response","172","401134","0.0-6.0-0.83","ALGO","2","m","rechts","21","","fixation","","","",""
"683","img/120_150.png","70","image-keyboard-response","173","401817","0.0-6.0-1.83","ALGO","2","m","rechts","21","","","self","f","120","true"
"null","<div style=""font-size:60px;"">+</div>","null","html-keyboard-response","174","402219","0.0-6.0-0.84","ALGO","2","m","rechts","21","","fixation","","","",""
"621","img/0_60.png","74","image-keyboard-response","175","402840","0.0-6.0-1.84","ALGO","2","m","rechts","21","","","self","j","0","true"
"null","<div style=""font-size:60px;"">+</div>","null","html-keyboard-response","176","403291","0.0-6.0-0.85","ALGO","2","m","rechts","21","","fixation","","","",""
"830","img/L90_180.png","70","image-keyboard-response","177","404121","0.0-6.0-1.85","ALGO","2","m","rechts","21","","","self","f","90","true"
"null","<div style=""font-size:60px;"">+</div>","null","html-keyboard-response","178","404623","0.0-6.0-0.86","ALGO","2","m","rechts","21","","fixation","","","",""
"583","img/0_150.png","74","image-keyboard-response","179","405206","0.0-6.0-1.86","ALGO","2","m","rechts","21","","","self","j","0","true"
"null","<div style=""font-size:60px;"">+</div>","null","html-keyboard-response","180","405608","0.0-6.0-0.87","ALGO","2","m","rechts","21","","fixation","","","",""
"765","img/0_300.png","70","image-keyboard-response","181","406373","0.0-6.0-1.87","ALGO","2","m","rechts","21","","","self","f","0","true"
"null","<div style=""font-size:60px;"">+</div>","null","html-keyboard-response","182","406825","0.0-6.0-0.88","ALGO","2","m","rechts","21","","fixation","","","",""
"568","img/0_240.png","70","image-keyboard-response","183","407394","0.0-6.0-1.88","ALGO","2","m","rechts","21","","","self","f","0","true"
"null","<div style=""font-size:60px;"">+</div>","null","html-keyboard-response","184","407845","0.0-6.0-0.89","ALGO","2","m","rechts","21","","fixation","","","",""
"908","img/30_180.png","74","image-keyboard-response","185","408754","0.0-6.0-1.89","ALGO","2","m","rechts","21","","","self","j","30","true"
"null","<div style=""font-size:60px;"">+</div>","null","html-keyboard-response","186","409056","0.0-6.0-0.90","ALGO","2","m","rechts","21","","fixation","","","",""
"744","img/90_120.png","70","image-keyboard-response","187","409800","0.0-6.0-1.90","ALGO","2","m","rechts","21","","","self","f","90","true"
"null","<div style=""font-size:60px;"">+</div>","null","html-keyboard-response","188","410252","0.0-6.0-0.91","ALGO","2","m","rechts","21","","fixation","","","",""
"760","img/90_210.png","74","image-keyboard-response","189","411012","0.0-6.0-1.91","ALGO","2","m","rechts","21","","","self","j","90","true"
"null","<div style=""font-size:60px;"">+</div>","null","html-keyboard-response","190","411314","0.0-6.0-0.92","ALGO","2","m","rechts","21","","fixation","","","",""
"585","img/90_150.png","70","image-keyboard-response","191","411899","0.0-6.0-1.92","ALGO","2","m","rechts","21","","","self","f","90","true"
"null","<div style=""font-size:60px;"">+</div>","null","html-keyboard-response","192","412250","0.0-6.0-0.93","ALGO","2","m","rechts","21","","fixation","","","",""
"761","img/30_270.png","74","image-keyboard-response","193","413012","0.0-6.0-1.93","ALGO","2","m","rechts","21","","","self","f","30","false"
"null","<div style=""font-size:60px;"">+</div>","null","html-keyboard-response","194","413463","0.0-6.0-0.94","ALGO","2","m","rechts","21","","fixation","","","",""
"879","img/60_210.png","74","image-keyboard-response","195","414343","0.0-6.0-1.94","ALGO","2","m","rechts","21","","","self","j","60","true"
"null","<div style=""font-size:60px;"">+</div>","null","html-keyboard-response","196","414644","0.0-6.0-0.95","ALGO","2","m","rechts","21","","fixation","","","",""
"688","img/0_210.png","70","image-keyboard-response","197","415333","0.0-6.0-1.95","ALGO","2","m","rechts","21","","","self","f","0","true"
"null","<div style=""font-size:60px;"">+</div>","null","html-keyboard-response","198","415735","0.0-6.0-0.96","ALGO","2","m","rechts","21","","fixation","","","",""
"1065","img/90_60.png","74","image-keyboard-response","199","416800","0.0-6.0-1.96","ALGO","2","m","rechts","21","","","self","j","90","true"
"null","<div style=""font-size:60px;"">+</div>","null","html-keyboard-response","200","417201","0.0-6.0-0.97","ALGO","2","m","rechts","21","","fixation","","","",""
"1064","img/150_180.png","74","image-keyboard-response","201","418266","0.0-6.0-1.97","ALGO","2","m","rechts","21","","","self","j","150","true"
"null","<div style=""font-size:60px;"">+</div>","null","html-keyboard-response","202","418668","0.0-6.0-0.98","ALGO","2","m","rechts","21","","fixation","","","",""
"907","img/150_270.png","74","image-keyboard-response","203","419577","0.0-6.0-1.98","ALGO","2","m","rechts","21","","","self","j","150","true"
"null","<div style=""font-size:60px;"">+</div>","null","html-keyboard-response","204","420028","0.0-6.0-0.99","ALGO","2","m","rechts","21","","fixation","","","",""
"855","img/90_180.png","74","image-keyboard-response","205","420885","0.0-6.0-1.99","ALGO","2","m","rechts","21","","","self","j","90","true"
"null","<div style=""font-size:60px;"">+</div>","null","html-keyboard-response","206","421186","0.0-6.0-0.100","ALGO","2","m","rechts","21","","fixation","","","",""
"796","img/30_300.png","74","image-keyboard-response","207","421984","0.0-6.0-1.100","ALGO","2","m","rechts","21","","","self","f","30","false"
"null","<div style=""font-size:60px;"">+</div>","null","html-keyboard-response","208","422385","0.0-6.0-0.101","ALGO","2","m","rechts","21","","fixation","","","",""
"908","img/30_60.png","74","image-keyboard-response","209","423294","0.0-6.0-1.101","ALGO","2","m","rechts","21","","","self","j","30","true"
"null","<div style=""font-size:60px;"">+</div>","null","html-keyboard-response","210","423745","0.0-6.0-0.102","ALGO","2","m","rechts","21","","fixation","","","",""
"1096","img/30_120.png","74","image-keyboard-response","211","424843","0.0-6.0-1.102","ALGO","2","m","rechts","21","","","self","j","30","true"
"null","<div style=""font-size:60px;"">+</div>","null","html-keyboard-response","212","425194","0.0-6.0-0.103","ALGO","2","m","rechts","21","","fixation","","","",""
"844","img/90_300.png","70","image-keyboard-response","213","426040","0.0-6.0-1.103","ALGO","2","m","rechts","21","","","self","f","90","true"
"null","<div style=""font-size:60px;"">+</div>","null","html-keyboard-response","214","426341","0.0-6.0-0.104","ALGO","2","m","rechts","21","","fixation","","","",""
"721","img/90_300.png","70","image-keyboard-response","215","427063","0.0-6.0-1.104","ALGO","2","m","rechts","21","","","self","f","90","true"
"null","<div style=""font-size:60px;"">+</div>","null","html-keyboard-response","216","427364","0.0-6.0-0.105","ALGO","2","m","rechts","21","","fixation","","","",""
"894","img/30_180.png","74","image-keyboard-response","217","428259","0.0-6.0-1.105","ALGO","2","m","rechts","21","","","self","j","30","true"
"null","<div style=""font-size:60px;"">+</div>","null","html-keyboard-response","218","428661","0.0-6.0-0.106","ALGO","2","m","rechts","21","","fixation","","","",""
"696","img/0_30.png","74","image-keyboard-response","219","429359","0.0-6.0-1.106","ALGO","2","m","rechts","21","","","self","j","0","true"
"null","<div style=""font-size:60px;"">+</div>","null","html-keyboard-response","220","429710","0.0-6.0-0.107","ALGO","2","m","rechts","21","","fixation","","","",""
"724","img/0_120.png","74","image-keyboard-response","221","430435","0.0-6.0-1.107","ALGO","2","m","rechts","21","","","self","j","0","true"
"null","<div style=""font-size:60px;"">+</div>","null","html-keyboard-response","222","430887","0.0-6.0-0.108","ALGO","2","m","rechts","21","","fixation","","","",""
"850","img/90_330.png","70","image-keyboard-response","223","431738","0.0-6.0-1.108","ALGO","2","m","rechts","21","","","self","f","90","true"
"null","<div style=""font-size:60px;"">+</div>","null","html-keyboard-response","224","432190","0.0-6.0-0.109","ALGO","2","m","rechts","21","","fixation","","","",""
"650","img/0_270.png","70","image-keyboard-response","225","432840","0.0-6.0-1.109","ALGO","2","m","rechts","21","","","self","f","0","true"
"null","<div style=""font-size:60px;"">+</div>","null","html-keyboard-response","226","433192","0.0-6.0-0.110","ALGO","2","m","rechts","21","","fixation","","","",""
"702","img/0_60.png","74","image-keyboard-response","227","433895","0.0-6.0-1.110","ALGO","2","m","rechts","21","","","self","j","0","true"
"null","<div style=""font-size:60px;"">+</div>","null","html-keyboard-response","228","434297","0.0-6.0-0.111","ALGO","2","m","rechts","21","","fixation","","","",""
"1128","img/120_30.png","70","image-keyboard-response","229","435426","0.0-6.0-1.111","ALGO","2","m","rechts","21","","","self","j","120","false"
"null","<div style=""font-size:60px;"">+</div>","null","html-keyboard-response","230","435728","0.0-6.0-0.112","ALGO","2","m","rechts","21","","fixation","","","",""
"1063","img/60_90.png","74","image-keyboard-response","231","436791","0.0-6.0-1.112","ALGO","2","m","rechts","21","","","self","j","60","true"
"null","<div style=""font-size:60px;"">+</div>","null","html-keyboard-response","232","437143","0.0-6.0-0.113","ALGO","2","m","rechts","21","","fixation","","","",""
"788","img/0_150.png","74","image-keyboard-response","233","437931","0.0-6.0-1.113","ALGO","2","m","rechts","21","","","self","j","0","true"
"null","<div style=""font-size:60px;"">+</div>","null","html-keyboard-response","234","438433","0.0-6.0-0.114","ALGO","2","m","rechts","21","","fixation","","","",""
"761","img/L90_180.png","70","image-keyboard-response","235","439195","0.0-6.0-1.114","ALGO","2","m","rechts","21","","","self","f","90","true"
"null","<div style=""font-size:60px;"">+</div>","null","html-keyboard-response","236","439697","0.0-6.0-0.115","ALGO","2","m","rechts","21","","fixation","","","",""
"791","img/150_300.png","70","image-keyboard-response","237","440488","0.0-6.0-1.115","ALGO","2","m","rechts","21","","","self","j","150","false"
"null","<div style=""font-size:60px;"">+</div>","null","html-keyboard-response","238","440790","0.0-6.0-0.116","ALGO","2","m","rechts","21","","fixation","","","",""
"869","img/60_210.png","74","image-keyboard-response","239","441660","0.0-6.0-1.116","ALGO","2","m","rechts","21","","","self","j","60","true"
"null","<div style=""font-size:60px;"">+</div>","null","html-keyboard-response","240","442062","0.0-6.0-0.117","ALGO","2","m","rechts","21","","fixation","","","",""
"895","img/90_60.png","74","image-keyboard-response","241","442958","0.0-6.0-1.117","ALGO","2","m","rechts","21","","","self","j","90","true"
"null","<div style=""font-size:60px;"">+</div>","null","html-keyboard-response","242","443260","0.0-6.0-0.118","ALGO","2","m","rechts","21","","fixation","","","",""
"864","img/90_150.png","74","image-keyboard-response","243","444124","0.0-6.0-1.118","ALGO","2","m","rechts","21","","","self","f","90","false"
"null","<div style=""font-size:60px;"">+</div>","null","html-keyboard-response","244","444526","0.0-6.0-0.119","ALGO","2","m","rechts","21","","fixation","","","",""
"716","img/L60_180.png","70","image-keyboard-response","245","445242","0.0-6.0-1.119","ALGO","2","m","rechts","21","","","self","f","60","true"
"null","<div style=""font-size:60px;"">+</div>","null","html-keyboard-response","246","445594","0.0-6.0-0.120","ALGO","2","m","rechts","21","","fixation","","","",""
"834","img/60_270.png","70","image-keyboard-response","247","446429","0.0-6.0-1.120","ALGO","2","m","rechts","21","","","self","f","60","true"
"null","<div style=""font-size:60px;"">+</div>","null","html-keyboard-response","248","446731","0.0-6.0-0.121","ALGO","2","m","rechts","21","","fixation","","","",""
"909","img/120_210.png","74","image-keyboard-response","249","447641","0.0-6.0-1.121","ALGO","2","m","rechts","21","","","self","j","120","true"
"null","<div style=""font-size:60px;"">+</div>","null","html-keyboard-response","250","448093","0.0-6.0-0.122","ALGO","2","m","rechts","21","","fixation","","","",""
"967","img/150_270.png","74","image-keyboard-response","251","449061","0.0-6.0-1.122","ALGO","2","m","rechts","21","","","self","j","150","true"
"null","<div style=""font-size:60px;"">+</div>","null","html-keyboard-response","252","449463","0.0-6.0-0.123","ALGO","2","m","rechts","21","","fixation","","","",""
"831","img/0_330.png","70","image-keyboard-response","253","450295","0.0-6.0-1.123","ALGO","2","m","rechts","21","","","self","f","0","true"
"null","<div style=""font-size:60px;"">+</div>","null","html-keyboard-response","254","450696","0.0-6.0-0.124","ALGO","2","m","rechts","21","","fixation","","","",""
"899","img/120_150.png","70","image-keyboard-response","255","451596","0.0-6.0-1.124","ALGO","2","m","rechts","21","","","self","f","120","true"
"null","<div style=""font-size:60px;"">+</div>","null","html-keyboard-response","256","451998","0.0-6.0-0.125","ALGO","2","m","rechts","21","","fixation","","","",""
"958","img/90_30.png","74","image-keyboard-response","257","452956","0.0-6.0-1.125","ALGO","2","m","rechts","21","","","self","j","90","true"
"null","<div style=""font-size:60px;"">+</div>","null","html-keyboard-response","258","453308","0.0-6.0-0.126","ALGO","2","m","rechts","21","","fixation","","","",""
"865","img/0_90.png","74","image-keyboard-response","259","454173","0.0-6.0-1.126","ALGO","2","m","rechts","21","","","self","j","0","true"
"null","<div style=""font-size:60px;"">+</div>","null","html-keyboard-response","260","454575","0.0-6.0-0.127","ALGO","2","m","rechts","21","","fixation","","","",""
"818","img/150_90.png","70","image-keyboard-response","261","455393","0.0-6.0-1.127","ALGO","2","m","rechts","21","","","self","f","150","true"
"null","<div style=""font-size:60px;"">+</div>","null","html-keyboard-response","262","455845","0.0-6.0-0.128","ALGO","2","m","rechts","21","","fixation","","","",""
"818","img/120_270.png","74","image-keyboard-response","263","456663","0.0-6.0-1.128","ALGO","2","m","rechts","21","","","self","j","120","true"
"null","<div style=""font-size:60px;"">+</div>","null","html-keyboard-response","264","457015","0.0-6.0-0.129","ALGO","2","m","rechts","21","","fixation","","","",""
"882","img/30_60.png","74","image-keyboard-response","265","457897","0.0-6.0-1.129","ALGO","2","m","rechts","21","","","self","j","30","true"
"null","<div style=""font-size:60px;"">+</div>","null","html-keyboard-response","266","458298","0.0-6.0-0.130","ALGO","2","m","rechts","21","","fixation","","","",""
"908","img/L150_180.png","70","image-keyboard-response","267","459207","0.0-6.0-1.130","ALGO","2","m","rechts","21","","","self","f","150","true"
"null","<div style=""font-size:60px;"">+</div>","null","html-keyboard-response","268","459707","0.0-6.0-0.131","ALGO","2","m","rechts","21","","fixation","","","",""
"683","img/0_210.png","70","image-keyboard-response","269","460391","0.0-6.0-1.131","ALGO","2","m","rechts","21","","","self","f","0","true"
"null","<div style=""font-size:60px;"">+</div>","null","html-keyboard-response","270","460892","0.0-6.0-0.132","ALGO","2","m","rechts","21","","fixation","","","",""
"640","img/0_300.png","70","image-keyboard-response","271","461533","0.0-6.0-1.132","ALGO","2","m","rechts","21","","","self","f","0","true"
"null","<div style=""font-size:60px;"">+</div>","null","html-keyboard-response","272","462035","0.0-6.0-0.133","ALGO","2","m","rechts","21","","fixation","","","",""
"767","img/150_120.png","70","image-keyboard-response","273","462802","0.0-6.0-1.133","ALGO","2","m","rechts","21","","","self","f","150","true"
"null","<div style=""font-size:60px;"">+</div>","null","html-keyboard-response","274","463254","0.0-6.0-0.134","ALGO","2","m","rechts","21","","fixation","","","",""
"891","img/120_330.png","74","image-keyboard-response","275","464145","0.0-6.0-1.134","ALGO","2","m","rechts","21","","","self","f","120","false"
"null","<div style=""font-size:60px;"">+</div>","null","html-keyboard-response","276","464446","0.0-6.0-0.135","ALGO","2","m","rechts","21","","fixation","","","",""
"903","img/120_180.png","74","image-keyboard-response","277","465349","0.0-6.0-1.135","ALGO","2","m","rechts","21","","","self","j","120","true"
"null","<div style=""font-size:60px;"">+</div>","null","html-keyboard-response","278","465800","0.0-6.0-0.136","ALGO","2","m","rechts","21","","fixation","","","",""
"871","img/60_330.png","70","image-keyboard-response","279","466673","0.0-6.0-1.136","ALGO","2","m","rechts","21","","","self","f","60","true"
"null","<div style=""font-size:60px;"">+</div>","null","html-keyboard-response","280","467124","0.0-6.0-0.137","ALGO","2","m","rechts","21","","fixation","","","",""
"892","img/30_90.png","74","image-keyboard-response","281","468017","0.0-6.0-1.137","ALGO","2","m","rechts","21","","","self","j","30","true"
"null","<div style=""font-size:60px;"">+</div>","null","html-keyboard-response","282","468318","0.0-6.0-0.138","ALGO","2","m","rechts","21","","fixation","","","",""
"999","img/90_240.png","74","image-keyboard-response","283","469319","0.0-6.0-1.138","ALGO","2","m","rechts","21","","","self","j","90","true"
"null","<div style=""font-size:60px;"">+</div>","null","html-keyboard-response","284","469720","0.0-6.0-0.139","ALGO","2","m","rechts","21","","fixation","","","",""
"792","img/90_210.png","74","image-keyboard-response","285","470514","0.0-6.0-1.139","ALGO","2","m","rechts","21","","","self","j","90","true"
"null","<div style=""font-size:60px;"">+</div>","null","html-keyboard-response","286","470915","0.0-6.0-0.140","ALGO","2","m","rechts","21","","fixation","","","",""
"835","img/90_120.png","70","image-keyboard-response","287","471752","0.0-6.0-1.140","ALGO","2","m","rechts","21","","","self","f","90","true"
"null","<div style=""font-size:60px;"">+</div>","null","html-keyboard-response","288","472053","0.0-6.0-0.141","ALGO","2","m","rechts","21","","fixation","","","",""
"874","img/150_60.png","70","image-keyboard-response","289","472929","0.0-6.0-1.141","ALGO","2","m","rechts","21","","","self","f","150","true"
"null","<div style=""font-size:60px;"">+</div>","null","html-keyboard-response","290","473231","0.0-6.0-0.142","ALGO","2","m","rechts","21","","fixation","","","",""
"866","img/120_90.png","70","image-keyboard-response","291","474098","0.0-6.0-1.142","ALGO","2","m","rechts","21","","","self","f","120","true"
"null","<div style=""font-size:60px;"">+</div>","null","html-keyboard-response","292","474549","0.0-6.0-0.143","ALGO","2","m","rechts","21","","fixation","","","",""
"703","img/150_240.png","74","image-keyboard-response","293","475254","0.0-6.0-1.143","ALGO","2","m","rechts","21","","","self","j","150","true"
"null","<div style=""font-size:60px;"">+</div>","null","html-keyboard-response","294","475655","0.0-6.0-0.144","ALGO","2","m","rechts","21","","fixation","","","",""
"827","img/L120_180.png","70","image-keyboard-response","295","476484","0.0-6.0-1.144","ALGO","2","m","rechts","21","","","self","f","120","true"
"null","<div style=""font-size:60px;"">+</div>","null","html-keyboard-response","296","476785","0.0-6.0-0.145","ALGO","2","m","rechts","21","","fixation","","","",""
"1206","img/60_30.png","74","image-keyboard-response","297","477992","0.0-6.0-1.145","ALGO","2","m","rechts","21","","","self","j","60","true"
"null","<div style=""font-size:60px;"">+</div>","null","html-keyboard-response","298","478344","0.0-6.0-0.146","ALGO","2","m","rechts","21","","fixation","","","",""
"1086","img/60_150.png","74","image-keyboard-response","299","479432","0.0-6.0-1.146","ALGO","2","m","rechts","21","","","self","f","60","false"
"null","<div style=""font-size:60px;"">+</div>","null","html-keyboard-response","300","479782","0.0-6.0-0.147","ALGO","2","m","rechts","21","","fixation","","","",""
"1103","img/30_120.png","70","image-keyboard-response","301","480886","0.0-6.0-1.147","ALGO","2","m","rechts","21","","","self","j","30","false"
"null","<div style=""font-size:60px;"">+</div>","null","html-keyboard-response","302","481338","0.0-6.0-0.148","ALGO","2","m","rechts","21","","fixation","","","",""
"748","img/60_180.png","74","image-keyboard-response","303","482087","0.0-6.0-1.148","ALGO","2","m","rechts","21","","","self","j","60","true"
"null","<div style=""font-size:60px;"">+</div>","null","html-keyboard-response","304","482439","0.0-6.0-0.149","ALGO","2","m","rechts","21","","fixation","","","",""
"813","img/0_240.png","70","image-keyboard-response","305","483253","0.0-6.0-1.149","ALGO","2","m","rechts","21","","","self","f","0","true"
"null","<div style=""font-size:60px;"">+</div>","null","html-keyboard-response","306","483605","0.0-6.0-0.150","ALGO","2","m","rechts","21","","fixation","","","",""
"894","img/90_180.png","74","image-keyboard-response","307","484500","0.0-6.0-1.150","ALGO","2","m","rechts","21","","","self","j","90","true"
"null","<div style=""font-size:60px;"">+</div>","null","html-keyboard-response","308","484902","0.0-6.0-0.151","ALGO","2","m","rechts","21","","fixation","","","",""
"816","img/30_300.png","74","image-keyboard-response","309","485719","0.0-6.0-1.151","ALGO","2","m","rechts","21","","","self","f","30","false"
"null","<div style=""font-size:60px;"">+</div>","null","html-keyboard-response","310","486021","0.0-6.0-0.152","ALGO","2","m","rechts","21","","fixation","","","",""
"783","img/30_270.png","70","image-keyboard-response","311","486805","0.0-6.0-1.152","ALGO","2","m","rechts","21","","","self","f","30","true"
"null","<div style=""font-size:60px;"">+</div>","null","html-keyboard-response","312","487257","0.0-6.0-0.153","ALGO","2","m","rechts","21","","fixation","","","",""
"853","img/L30_180.png","70","image-keyboard-response","313","488111","0.0-6.0-1.153","ALGO","2","m","rechts","21","","","self","f","30","true"
"null","<div style=""font-size:60px;"">+</div>","null","html-keyboard-response","314","488563","0.0-6.0-0.154","ALGO","2","m","rechts","21","","fixation","","","",""
"1008","img/30_240.png","74","image-keyboard-response","315","489572","0.0-6.0-1.154","ALGO","2","m","rechts","21","","","self","f","30","false"
"null","<div style=""font-size:60px;"">+</div>","null","html-keyboard-response","316","489874","0.0-6.0-0.155","ALGO","2","m","rechts","21","","fixation","","","",""
"1499","img/150_180.png","74","image-keyboard-response","317","491373","0.0-6.0-1.155","ALGO","2","m","rechts","21","","","self","j","150","true"
"null","<div style=""font-size:60px;"">+</div>","null","html-keyboard-response","318","491675","0.0-6.0-0.156","ALGO","2","m","rechts","21","","fixation","","","",""
"1008","img/90_60.png","74","image-keyboard-response","319","492684","0.0-6.0-1.156","ALGO","2","m","rechts","21","","","self","j","90","true"
"null","<div style=""font-size:60px;"">+</div>","null","html-keyboard-response","320","492986","0.0-6.0-0.157","ALGO","2","m","rechts","21","","fixation","","","",""
"885","img/60_90.png","74","image-keyboard-response","321","493872","0.0-6.0-1.157","ALGO","2","m","rechts","21","","","self","j","60","true"
"null","<div style=""font-size:60px;"">+</div>","null","html-keyboard-response","322","494324","0.0-6.0-0.158","ALGO","2","m","rechts","21","","fixation","","","",""
"947","img/30_180.png","74","image-keyboard-response","323","495272","0.0-6.0-1.158","ALGO","2","m","rechts","21","","","self","j","30","true"
"null","<div style=""font-size:60px;"">+</div>","null","html-keyboard-response","324","495624","0.0-6.0-0.159","ALGO","2","m","rechts","21","","fixation","","","",""
"958","img/120_330.png","70","image-keyboard-response","325","496582","0.0-6.0-1.159","ALGO","2","m","rechts","21","","","self","f","120","true"
"null","<div style=""font-size:60px;"">+</div>","null","html-keyboard-response","326","496984","0.0-6.0-0.160","ALGO","2","m","rechts","21","","fixation","","","",""
"1158","img/150_90.png","74","image-keyboard-response","327","498142","0.0-6.0-1.160","ALGO","2","m","rechts","21","","","self","f","150","false"
"null","<div style=""font-size:60px;"">+</div>","null","html-keyboard-response","328","498544","0.0-6.0-0.161","ALGO","2","m","rechts","21","","fixation","","","",""
"892","img/90_30.png","70","image-keyboard-response","329","499437","0.0-6.0-1.161","ALGO","2","m","rechts","21","","","self","j","90","false"
"null","<div style=""font-size:60px;"">+</div>","null","html-keyboard-response","330","499738","0.0-6.0-0.162","ALGO","2","m","rechts","21","","fixation","","","",""
"1119","img/150_270.png","74","image-keyboard-response","331","500858","0.0-6.0-1.162","ALGO","2","m","rechts","21","","","self","j","150","true"
"null","<div style=""font-size:60px;"">+</div>","null","html-keyboard-response","332","501310","0.0-6.0-0.163","ALGO","2","m","rechts","21","","fixation","","","",""
"915","img/0_30.png","74","image-keyboard-response","333","502225","0.0-6.0-1.163","ALGO","2","m","rechts","21","","","self","j","0","true"
"null","<div style=""font-size:60px;"">+</div>","null","html-keyboard-response","334","502727","0.0-6.0-0.164","ALGO","2","m","rechts","21","","fixation","","","",""
"920","img/60_180.png","74","image-keyboard-response","335","503647","0.0-6.0-1.164","ALGO","2","m","rechts","21","","","self","j","60","true"
"null","<div style=""font-size:60px;"">+</div>","null","html-keyboard-response","336","503949","0.0-6.0-0.165","ALGO","2","m","rechts","21","","fixation","","","",""
"858","img/L30_180.png","70","image-keyboard-response","337","504807","0.0-6.0-1.165","ALGO","2","m","rechts","21","","","self","f","30","true"
"null","<div style=""font-size:60px;"">+</div>","null","html-keyboard-response","338","505209","0.0-6.0-0.166","ALGO","2","m","rechts","21","","fixation","","","",""
"606","img/0_240.png","70","image-keyboard-response","339","505815","0.0-6.0-1.166","ALGO","2","m","rechts","21","","","self","f","0","true"
"null","<div style=""font-size:60px;"">+</div>","null","html-keyboard-response","340","506266","0.0-6.0-0.167","ALGO","2","m","rechts","21","","fixation","","","",""
"971","img/90_120.png","70","image-keyboard-response","341","507238","0.0-6.0-1.167","ALGO","2","m","rechts","21","","","self","f","90","true"
"null","<div style=""font-size:60px;"">+</div>","null","html-keyboard-response","342","507590","0.0-6.0-0.168","ALGO","2","m","rechts","21","","fixation","","","",""
"740","img/120_150.png","70","image-keyboard-response","343","508331","0.0-6.0-1.168","ALGO","2","m","rechts","21","","","self","f","120","true"
"null","<div style=""font-size:60px;"">+</div>","null","html-keyboard-response","344","508783","0.0-6.0-0.169","ALGO","2","m","rechts","21","","fixation","","","",""
"773","img/L150_180.png","70","image-keyboard-response","345","509556","0.0-6.0-1.169","ALGO","2","m","rechts","21","","","self","f","150","true"
"null","<div style=""font-size:60px;"">+</div>","null","html-keyboard-response","346","509958","0.0-6.0-0.170","ALGO","2","m","rechts","21","","fixation","","","",""
"872","img/90_300.png","70","image-keyboard-response","347","510830","0.0-6.0-1.170","ALGO","2","m","rechts","21","","","self","f","90","true"
"null","<div style=""font-size:60px;"">+</div>","null","html-keyboard-response","348","511182","0.0-6.0-0.171","ALGO","2","m","rechts","21","","fixation","","","",""
"843","img/90_330.png","70","image-keyboard-response","349","512025","0.0-6.0-1.171","ALGO","2","m","rechts","21","","","self","f","90","true"
"null","<div style=""font-size:60px;"">+</div>","null","html-keyboard-response","350","512376","0.0-6.0-0.172","ALGO","2","m","rechts","21","","fixation","","","",""
"744","img/0_330.png","70","image-keyboard-response","351","513121","0.0-6.0-1.172","ALGO","2","m","rechts","21","","","self","f","0","true"
"null","<div style=""font-size:60px;"">+</div>","null","html-keyboard-response","352","513472","0.0-6.0-0.173","ALGO","2","m","rechts","21","","fixation","","","",""
"837","img/150_240.png","74","image-keyboard-response","353","514310","0.0-6.0-1.173","ALGO","2","m","rechts","21","","","self","j","150","true"
"null","<div style=""font-size:60px;"">+</div>","null","html-keyboard-response","354","514761","0.0-6.0-0.174","ALGO","2","m","rechts","21","","fixation","","","",""
"795","img/60_150.png","70","image-keyboard-response","355","515557","0.0-6.0-1.174","ALGO","2","m","rechts","21","","","self","f","60","true"
"null","<div style=""font-size:60px;"">+</div>","null","html-keyboard-response","356","516008","0.0-6.0-0.175","ALGO","2","m","rechts","21","","fixation","","","",""
"787","img/30_60.png","74","image-keyboard-response","357","516796","0.0-6.0-1.175","ALGO","2","m","rechts","21","","","self","j","30","true"
"null","<div style=""font-size:60px;"">+</div>","null","html-keyboard-response","358","517098","0.0-6.0-0.176","ALGO","2","m","rechts","21","","fixation","","","",""
"1077","img/150_60.png","70","image-keyboard-response","359","518176","0.0-6.0-1.176","ALGO","2","m","rechts","21","","","self","f","150","true"
"null","<div style=""font-size:60px;"">+</div>","null","html-keyboard-response","360","518678","0.0-6.0-0.177","ALGO","2","m","rechts","21","","fixation","","","",""
"1065","img/150_120.png","70","image-keyboard-response","361","519743","0.0-6.0-1.177","ALGO","2","m","rechts","21","","","self","f","150","true"
"null","<div style=""font-size:60px;"">+</div>","null","html-keyboard-response","362","520194","0.0-6.0-0.178","ALGO","2","m","rechts","21","","fixation","","","",""
"724","img/0_120.png","74","image-keyboard-response","363","520919","0.0-6.0-1.178","ALGO","2","m","rechts","21","","","self","j","0","true"
"null","<div style=""font-size:60px;"">+</div>","null","html-keyboard-response","364","521271","0.0-6.0-0.179","ALGO","2","m","rechts","21","","fixation","","","",""
"947","img/120_90.png","70","image-keyboard-response","365","522219","0.0-6.0-1.179","ALGO","2","m","rechts","21","","","self","f","120","true"
"null","<div style=""font-size:60px;"">+</div>","null","html-keyboard-response","366","522570","0.0-6.0-0.180","ALGO","2","m","rechts","21","","fixation","","","",""
"903","img/120_270.png","74","image-keyboard-response","367","523474","0.0-6.0-1.180","ALGO","2","m","rechts","21","","","self","j","120","true"
"null","<div style=""font-size:60px;"">+</div>","null","html-keyboard-response","368","523876","0.0-6.0-0.181","ALGO","2","m","rechts","21","","fixation","","","",""
"958","img/30_120.png","74","image-keyboard-response","369","524836","0.0-6.0-1.181","ALGO","2","m","rechts","21","","","self","j","30","true"
"null","<div style=""font-size:60px;"">+</div>","null","html-keyboard-response","370","525336","0.0-6.0-0.182","ALGO","2","m","rechts","21","","fixation","","","",""
"852","img/0_210.png","70","image-keyboard-response","371","526190","0.0-6.0-1.182","ALGO","2","m","rechts","21","","","self","f","0","true"
"null","<div style=""font-size:60px;"">+</div>","null","html-keyboard-response","372","526491","0.0-6.0-0.183","ALGO","2","m","rechts","21","","fixation","","","",""
"631","img/0_300.png","70","image-keyboard-response","373","527124","0.0-6.0-1.183","ALGO","2","m","rechts","21","","","self","f","0","true"
"null","<div style=""font-size:60px;"">+</div>","null","html-keyboard-response","374","527525","0.0-6.0-0.184","ALGO","2","m","rechts","21","","fixation","","","",""
"783","img/L90_180.png","70","image-keyboard-response","375","528309","0.0-6.0-1.184","ALGO","2","m","rechts","21","","","self","f","90","true"
"null","<div style=""font-size:60px;"">+</div>","null","html-keyboard-response","376","528811","0.0-6.0-0.185","ALGO","2","m","rechts","21","","fixation","","","",""
"809","img/30_300.png","70","image-keyboard-response","377","529621","0.0-6.0-1.185","ALGO","2","m","rechts","21","","","self","f","30","true"
"null","<div style=""font-size:60px;"">+</div>","null","html-keyboard-response","378","530124","0.0-6.0-0.186","ALGO","2","m","rechts","21","","fixation","","","",""
"839","img/30_240.png","70","image-keyboard-response","379","530964","0.0-6.0-1.186","ALGO","2","m","rechts","21","","","self","f","30","true"
"null","<div style=""font-size:60px;"">+</div>","null","html-keyboard-response","380","531416","0.0-6.0-0.187","ALGO","2","m","rechts","21","","fixation","","","",""
"918","img/150_180.png","74","image-keyboard-response","381","532335","0.0-6.0-1.187","ALGO","2","m","rechts","21","","","self","j","150","true"
"null","<div style=""font-size:60px;"">+</div>","null","html-keyboard-response","382","532787","0.0-6.0-0.188","ALGO","2","m","rechts","21","","fixation","","","",""
"937","img/90_210.png","74","image-keyboard-response","383","533725","0.0-6.0-1.188","ALGO","2","m","rechts","21","","","self","j","90","true"
"null","<div style=""font-size:60px;"">+</div>","null","html-keyboard-response","384","534127","0.0-6.0-0.189","ALGO","2","m","rechts","21","","fixation","","","",""
"901","img/60_270.png","74","image-keyboard-response","385","535029","0.0-6.0-1.189","ALGO","2","m","rechts","21","","","self","f","60","false"
"null","<div style=""font-size:60px;"">+</div>","null","html-keyboard-response","386","535430","0.0-6.0-0.190","ALGO","2","m","rechts","21","","fixation","","","",""
"692","img/30_270.png","70","image-keyboard-response","387","536122","0.0-6.0-1.190","ALGO","2","m","rechts","21","","","self","f","30","true"
"null","<div style=""font-size:60px;"">+</div>","null","html-keyboard-response","388","536424","0.0-6.0-0.191","ALGO","2","m","rechts","21","","fixation","","","",""
"1078","img/120_30.png","74","image-keyboard-response","389","537503","0.0-6.0-1.191","ALGO","2","m","rechts","21","","","self","j","120","true"
"null","<div style=""font-size:60px;"">+</div>","null","html-keyboard-response","390","537904","0.0-6.0-0.192","ALGO","2","m","rechts","21","","fixation","","","",""
"897","img/0_150.png","74","image-keyboard-response","391","538802","0.0-6.0-1.192","ALGO","2","m","rechts","21","","","self","j","0","true"
"null","<div style=""font-size:60px;"">+</div>","null","html-keyboard-response","392","539103","0.0-6.0-0.193","ALGO","2","m","rechts","21","","fixation","","","",""
"759","img/60_210.png","70","image-keyboard-response","393","539863","0.0-6.0-1.193","ALGO","2","m","rechts","21","","","self","j","60","false"
"null","<div style=""font-size:60px;"">+</div>","null","html-keyboard-response","394","540165","0.0-6.0-0.194","ALGO","2","m","rechts","21","","fixation","","","",""
"907","img/120_210.png","74","image-keyboard-response","395","541073","0.0-6.0-1.194","ALGO","2","m","rechts","21","","","self","j","120","true"
"null","<div style=""font-size:60px;"">+</div>","null","html-keyboard-response","396","541374","0.0-6.0-0.195","ALGO","2","m","rechts","21","","fixation","","","",""
"1000","img/60_30.png","74","image-keyboard-response","397","542375","0.0-6.0-1.195","ALGO","2","m","rechts","21","","","self","j","60","true"
"null","<div style=""font-size:60px;"">+</div>","null","html-keyboard-response","398","542827","0.0-6.0-0.196","ALGO","2","m","rechts","21","","fixation","","","",""
"688","img/0_270.png","70","image-keyboard-response","399","543516","0.0-6.0-1.196","ALGO","2","m","rechts","21","","","self","f","0","true"
"null","<div style=""font-size:60px;"">+</div>","null","html-keyboard-response","400","543818","0.0-6.0-0.197","ALGO","2","m","rechts","21","","fixation","","","",""
"874","img/90_240.png","74","image-keyboard-response","401","544693","0.0-6.0-1.197","ALGO","2","m","rechts","21","","","self","j","90","true"
"null","<div style=""font-size:60px;"">+</div>","null","html-keyboard-response","402","545195","0.0-6.0-0.198","ALGO","2","m","rechts","21","","fixation","","","",""
"733","img/60_330.png","70","image-keyboard-response","403","545929","0.0-6.0-1.198","ALGO","2","m","rechts","21","","","self","f","60","true"
"null","<div style=""font-size:60px;"">+</div>","null","html-keyboard-response","404","546431","0.0-6.0-0.199","ALGO","2","m","rechts","21","","fixation","","","",""
"651","img/0_60.png","74","image-keyboard-response","405","547082","0.0-6.0-1.199","ALGO","2","m","rechts","21","","","self","j","0","true"
"null","<div style=""font-size:60px;"">+</div>","null","html-keyboard-response","406","547384","0.0-6.0-0.200","ALGO","2","m","rechts","21","","fixation","","","",""
"911","img/90_150.png","70","image-keyboard-response","407","548296","0.0-6.0-1.200","ALGO","2","m","rechts","21","","","self","f","90","true"
"null","<div style=""font-size:60px;"">+</div>","null","html-keyboard-response","408","548598","0.0-6.0-0.201","ALGO","2","m","rechts","21","","fixation","","","",""
"785","img/90_180.png","74","image-keyboard-response","409","549384","0.0-6.0-1.201","ALGO","2","m","rechts","21","","","self","j","90","true"
"null","<div style=""font-size:60px;"">+</div>","null","html-keyboard-response","410","549686","0.0-6.0-0.202","ALGO","2","m","rechts","21","","fixation","","","",""
"748","img/L120_180.png","70","image-keyboard-response","411","550435","0.0-6.0-1.202","ALGO","2","m","rechts","21","","","self","f","120","true"
"null","<div style=""font-size:60px;"">+</div>","null","html-keyboard-response","412","550937","0.0-6.0-0.203","ALGO","2","m","rechts","21","","fixation","","","",""
"850","img/120_180.png","74","image-keyboard-response","413","551788","0.0-6.0-1.203","ALGO","2","m","rechts","21","","","self","j","120","true"
"null","<div style=""font-size:60px;"">+</div>","null","html-keyboard-response","414","552190","0.0-6.0-0.204","ALGO","2","m","rechts","21","","fixation","","","",""
"958","img/150_300.png","74","image-keyboard-response","415","553148","0.0-6.0-1.204","ALGO","2","m","rechts","21","","","self","j","150","true"
"null","<div style=""font-size:60px;"">+</div>","null","html-keyboard-response","416","553450","0.0-6.0-0.205","ALGO","2","m","rechts","21","","fixation","","","",""
"776","img/L60_180.png","70","image-keyboard-response","417","554226","0.0-6.0-1.205","ALGO","2","m","rechts","21","","","self","f","60","true"
"null","<div style=""font-size:60px;"">+</div>","null","html-keyboard-response","418","554528","0.0-6.0-0.206","ALGO","2","m","rechts","21","","fixation","","","",""
"973","img/30_90.png","70","image-keyboard-response","419","555501","0.0-6.0-1.206","ALGO","2","m","rechts","21","","","self","j","30","false"
"null","<div style=""font-size:60px;"">+</div>","null","html-keyboard-response","420","555903","0.0-6.0-0.207","ALGO","2","m","rechts","21","","fixation","","","",""
"641","img/0_90.png","74","image-keyboard-response","421","556544","0.0-6.0-1.207","ALGO","2","m","rechts","21","","","self","j","0","true"
"17156","<p>Du hast in 84% der Versuche korrekt entschieden.</p><p>Deine durchschnittliche Reaktionszeit war  859ms.</p><p>Dr&uuml;cke eine beliebige Taste, um die Session zu beenden. Vielen Dank!</p>","74","html-keyboard-response","422","573701","0.0-7.0","ALGO","2","m","rechts","21","","","","","",""
