"rt","stimulus","key_press","trial_type","trial_index","time_elapsed","internal_node_id","subject","session","sex","handedness","age","responses","test_part","condition","correct_response","angle","correct"
"2006","<p>Mental Rotation Experiment.</p> <p>Dr&uuml;cke eine beliebige Taste, um anzufangen.</p>","70","html-keyboard-response","0","2011","0.0-0.0","ALGO","1","m","rechts","21","","","","","",""
"3652","","","survey-text","1","5663","0.0-1.0","ALGO","1","m","rechts","21","{""Q0"":""ALGO""}","","","","",""
"1744","","","survey-text","2","7408","0.0-2.0","ALGO","1","m","rechts","21","{""Q0"":""1""}","","","","",""
"5532","","","survey-multi-choice","3","12942","0.0-3.0","ALGO","1","m","rechts","21","{""Q0"":""m"",""Q1"":""rechts""}","","","","",""
"1781","","","survey-text","4","14724","0.0-4.0","ALGO","1","m","rechts","21","{""Q0"":""21""}","","","","",""
"75375","<p> Stell dir vor, dass du vor einem runden Tisch stehst, auf dem sich ein blauer Ball am Tischrand befindet. Entlang des Tischrands ist jeweils ein verschieden langer Pfeil. Nun bewegst du dich entlang dieses Pfeils bis an seine Spitze. Wenn du am Ende des Pfeils angekommen bist, schau zur Tischmitte. </p> <img src='img/90_180.png'></img> <br> <p>Entscheide dann, ob der Ball von deiner neuen (vorgestellten) Position links oder rechts von dir liegt.</p> <p>Dr&uuml;cke die <strong>'f'</strong>-Taste f&uuml;r links, die <strong>'j'</strong>-Taste f&uuml;r rechts.</p> <br><p> Das Bild wird jeweils 1 Sekunde lang pr&auml;sentiert. Du hast 3 Sekunden Zeit eine Entscheidung zu treffen.</p>","74","html-keyboard-response","5","90100","0.0-5.0","ALGO","1","m","rechts","21","","","","","",""
"null","<div style=""font-size:60px;"">+</div>","null","html-keyboard-response","6","91505","0.0-6.0-0.0","ALGO","1","m","rechts","21","","fixation","","","",""
"1352","img/30_90.png","74","image-keyboard-response","7","92858","0.0-6.0-1.0","ALGO","1","m","rechts","21","","","self","j","30","true"
"null","<div style=""font-size:60px;"">+</div>","null","html-keyboard-response","8","93309","0.0-6.0-0.1","ALGO","1","m","rechts","21","","fixation","","","",""
"1366","img/60_330.png","74","image-keyboard-response","9","94676","0.0-6.0-1.1","ALGO","1","m","rechts","21","","","self","f","60","false"
"null","<div style=""font-size:60px;"">+</div>","null","html-keyboard-response","10","95127","0.0-6.0-0.2","ALGO","1","m","rechts","21","","fixation","","","",""
"1493","img/0_30.png","70","image-keyboard-response","11","96623","0.0-6.0-1.2","ALGO","1","m","rechts","21","","","self","j","0","false"
"null","<div style=""font-size:60px;"">+</div>","null","html-keyboard-response","12","96924","0.0-6.0-0.3","ALGO","1","m","rechts","21","","fixation","","","",""
"1197","img/150_180.png","70","image-keyboard-response","13","98123","0.0-6.0-1.3","ALGO","1","m","rechts","21","","","self","j","150","false"
"null","<div style=""font-size:60px;"">+</div>","null","html-keyboard-response","14","98424","0.0-6.0-0.4","ALGO","1","m","rechts","21","","fixation","","","",""
"1489","img/60_150.png","70","image-keyboard-response","15","99915","0.0-6.0-1.4","ALGO","1","m","rechts","21","","","self","f","60","true"
"null","<div style=""font-size:60px;"">+</div>","null","html-keyboard-response","16","100416","0.0-6.0-0.5","ALGO","1","m","rechts","21","","fixation","","","",""
"874","img/30_120.png","74","image-keyboard-response","17","101292","0.0-6.0-1.5","ALGO","1","m","rechts","21","","","self","j","30","true"
"null","<div style=""font-size:60px;"">+</div>","null","html-keyboard-response","18","101693","0.0-6.0-0.6","ALGO","1","m","rechts","21","","fixation","","","",""
"1492","img/30_240.png","70","image-keyboard-response","19","103187","0.0-6.0-1.6","ALGO","1","m","rechts","21","","","self","f","30","true"
"null","<div style=""font-size:60px;"">+</div>","null","html-keyboard-response","20","103588","0.0-6.0-0.7","ALGO","1","m","rechts","21","","fixation","","","",""
"1306","img/150_120.png","70","image-keyboard-response","21","104895","0.0-6.0-1.7","ALGO","1","m","rechts","21","","","self","f","150","true"
"null","<div style=""font-size:60px;"">+</div>","null","html-keyboard-response","22","105247","0.0-6.0-0.8","ALGO","1","m","rechts","21","","fixation","","","",""
"1631","img/120_30.png","70","image-keyboard-response","23","106879","0.0-6.0-1.8","ALGO","1","m","rechts","21","","","self","j","120","false"
"null","<div style=""font-size:60px;"">+</div>","null","html-keyboard-response","24","107381","0.0-6.0-0.9","ALGO","1","m","rechts","21","","fixation","","","",""
"1214","img/0_150.png","70","image-keyboard-response","25","108596","0.0-6.0-1.9","ALGO","1","m","rechts","21","","","self","j","0","false"
"null","<div style=""font-size:60px;"">+</div>","null","html-keyboard-response","26","108897","0.0-6.0-0.10","ALGO","1","m","rechts","21","","fixation","","","",""
"1756","img/120_180.png","74","image-keyboard-response","27","110654","0.0-6.0-1.10","ALGO","1","m","rechts","21","","","self","j","120","true"
"null","<div style=""font-size:60px;"">+</div>","null","html-keyboard-response","28","111156","0.0-6.0-0.11","ALGO","1","m","rechts","21","","fixation","","","",""
"973","img/0_210.png","70","image-keyboard-response","29","112130","0.0-6.0-1.11","ALGO","1","m","rechts","21","","","self","f","0","true"
"null","<div style=""font-size:60px;"">+</div>","null","html-keyboard-response","30","112582","0.0-6.0-0.12","ALGO","1","m","rechts","21","","fixation","","","",""
"1764","img/L90_180.png","74","image-keyboard-response","31","114347","0.0-6.0-1.12","ALGO","1","m","rechts","21","","","self","f","90","false"
"null","<div style=""font-size:60px;"">+</div>","null","html-keyboard-response","32","114799","0.0-6.0-0.13","ALGO","1","m","rechts","21","","fixation","","","",""
"1576","img/30_270.png","70","image-keyboard-response","33","116376","0.0-6.0-1.13","ALGO","1","m","rechts","21","","","self","f","30","true"
"null","<div style=""font-size:60px;"">+</div>","null","html-keyboard-response","34","116778","0.0-6.0-0.14","ALGO","1","m","rechts","21","","fixation","","","",""
"844","img/0_330.png","70","image-keyboard-response","35","117623","0.0-6.0-1.14","ALGO","1","m","rechts","21","","","self","f","0","true"
"null","<div style=""font-size:60px;"">+</div>","null","html-keyboard-response","36","118125","0.0-6.0-0.15","ALGO","1","m","rechts","21","","fixation","","","",""
"1862","img/60_90.png","74","image-keyboard-response","37","119988","0.0-6.0-1.15","ALGO","1","m","rechts","21","","","self","j","60","true"
"null","<div style=""font-size:60px;"">+</div>","null","html-keyboard-response","38","120340","0.0-6.0-0.16","ALGO","1","m","rechts","21","","fixation","","","",""
"2165","img/90_120.png","74","image-keyboard-response","39","122506","0.0-6.0-1.16","ALGO","1","m","rechts","21","","","self","f","90","false"
"null","<div style=""font-size:60px;"">+</div>","null","html-keyboard-response","40","122958","0.0-6.0-0.17","ALGO","1","m","rechts","21","","fixation","","","",""
"2117","img/120_210.png","74","image-keyboard-response","41","125076","0.0-6.0-1.17","ALGO","1","m","rechts","21","","","self","j","120","true"
"null","<div style=""font-size:60px;"">+</div>","null","html-keyboard-response","42","125428","0.0-6.0-0.18","ALGO","1","m","rechts","21","","fixation","","","",""
"1800","img/90_60.png","74","image-keyboard-response","43","127229","0.0-6.0-1.18","ALGO","1","m","rechts","21","","","self","j","90","true"
"null","<div style=""font-size:60px;"">+</div>","null","html-keyboard-response","44","127681","0.0-6.0-0.19","ALGO","1","m","rechts","21","","fixation","","","",""
"2013","img/120_90.png","74","image-keyboard-response","45","129695","0.0-6.0-1.19","ALGO","1","m","rechts","21","","","self","f","120","false"
"null","<div style=""font-size:60px;"">+</div>","null","html-keyboard-response","46","130096","0.0-6.0-0.20","ALGO","1","m","rechts","21","","fixation","","","",""
"924","img/0_120.png","74","image-keyboard-response","47","131021","0.0-6.0-1.20","ALGO","1","m","rechts","21","","","self","j","0","true"
"null","<div style=""font-size:60px;"">+</div>","null","html-keyboard-response","48","131373","0.0-6.0-0.21","ALGO","1","m","rechts","21","","fixation","","","",""
"1667","img/90_150.png","70","image-keyboard-response","49","133041","0.0-6.0-1.21","ALGO","1","m","rechts","21","","","self","f","90","true"
"null","<div style=""font-size:60px;"">+</div>","null","html-keyboard-response","50","133493","0.0-6.0-0.22","ALGO","1","m","rechts","21","","fixation","","","",""
"1320","img/30_60.png","74","image-keyboard-response","51","134815","0.0-6.0-1.22","ALGO","1","m","rechts","21","","","self","j","30","true"
"null","<div style=""font-size:60px;"">+</div>","null","html-keyboard-response","52","135316","0.0-6.0-0.23","ALGO","1","m","rechts","21","","fixation","","","",""
"1341","img/0_270.png","70","image-keyboard-response","53","136659","0.0-6.0-1.23","ALGO","1","m","rechts","21","","","self","f","0","true"
"null","<div style=""font-size:60px;"">+</div>","null","html-keyboard-response","54","137010","0.0-6.0-0.24","ALGO","1","m","rechts","21","","fixation","","","",""
"1487","img/150_300.png","74","image-keyboard-response","55","138499","0.0-6.0-1.24","ALGO","1","m","rechts","21","","","self","j","150","true"
"null","<div style=""font-size:60px;"">+</div>","null","html-keyboard-response","56","138851","0.0-6.0-0.25","ALGO","1","m","rechts","21","","fixation","","","",""
"1644","img/90_300.png","70","image-keyboard-response","57","140496","0.0-6.0-1.25","ALGO","1","m","rechts","21","","","self","f","90","true"
"null","<div style=""font-size:60px;"">+</div>","null","html-keyboard-response","58","140798","0.0-6.0-0.26","ALGO","1","m","rechts","21","","fixation","","","",""
"1636","img/L120_180.png","70","image-keyboard-response","59","142437","0.0-6.0-1.26","ALGO","1","m","rechts","21","","","self","f","120","true"
"null","<div style=""font-size:60px;"">+</div>","null","html-keyboard-response","60","142788","0.0-6.0-0.27","ALGO","1","m","rechts","21","","fixation","","","",""
"1340","img/150_60.png","70","image-keyboard-response","61","144129","0.0-6.0-1.27","ALGO","1","m","rechts","21","","","self","f","150","true"
"null","<div style=""font-size:60px;"">+</div>","null","html-keyboard-response","62","144581","0.0-6.0-0.28","ALGO","1","m","rechts","21","","fixation","","","",""
"1454","img/30_300.png","70","image-keyboard-response","63","146037","0.0-6.0-1.28","ALGO","1","m","rechts","21","","","self","f","30","true"
"null","<div style=""font-size:60px;"">+</div>","null","html-keyboard-response","64","146488","0.0-6.0-0.29","ALGO","1","m","rechts","21","","fixation","","","",""
"1341","img/90_180.png","74","image-keyboard-response","65","147831","0.0-6.0-1.29","ALGO","1","m","rechts","21","","","self","j","90","true"
"null","<div style=""font-size:60px;"">+</div>","null","html-keyboard-response","66","148132","0.0-6.0-0.30","ALGO","1","m","rechts","21","","fixation","","","",""
"1723","img/120_270.png","74","image-keyboard-response","67","149857","0.0-6.0-1.30","ALGO","1","m","rechts","21","","","self","j","120","true"
"null","<div style=""font-size:60px;"">+</div>","null","html-keyboard-response","68","150308","0.0-6.0-0.31","ALGO","1","m","rechts","21","","fixation","","","",""
"1563","img/150_90.png","70","image-keyboard-response","69","151872","0.0-6.0-1.31","ALGO","1","m","rechts","21","","","self","f","150","true"
"null","<div style=""font-size:60px;"">+</div>","null","html-keyboard-response","70","152224","0.0-6.0-0.32","ALGO","1","m","rechts","21","","fixation","","","",""
"1444","img/30_180.png","74","image-keyboard-response","71","153670","0.0-6.0-1.32","ALGO","1","m","rechts","21","","","self","j","30","true"
"null","<div style=""font-size:60px;"">+</div>","null","html-keyboard-response","72","154072","0.0-6.0-0.33","ALGO","1","m","rechts","21","","fixation","","","",""
"1289","img/L150_180.png","70","image-keyboard-response","73","155362","0.0-6.0-1.33","ALGO","1","m","rechts","21","","","self","f","150","true"
"null","<div style=""font-size:60px;"">+</div>","null","html-keyboard-response","74","155714","0.0-6.0-0.34","ALGO","1","m","rechts","21","","fixation","","","",""
"1358","img/90_240.png","74","image-keyboard-response","75","157073","0.0-6.0-1.34","ALGO","1","m","rechts","21","","","self","j","90","true"
"null","<div style=""font-size:60px;"">+</div>","null","html-keyboard-response","76","157374","0.0-6.0-0.35","ALGO","1","m","rechts","21","","fixation","","","",""
"866","img/0_240.png","70","image-keyboard-response","77","158242","0.0-6.0-1.35","ALGO","1","m","rechts","21","","","self","f","0","true"
"null","<div style=""font-size:60px;"">+</div>","null","html-keyboard-response","78","158594","0.0-6.0-0.36","ALGO","1","m","rechts","21","","fixation","","","",""
"1065","img/60_210.png","74","image-keyboard-response","79","159661","0.0-6.0-1.36","ALGO","1","m","rechts","21","","","self","j","60","true"
"null","<div style=""font-size:60px;"">+</div>","null","html-keyboard-response","80","160163","0.0-6.0-0.37","ALGO","1","m","rechts","21","","fixation","","","",""
"824","img/0_300.png","70","image-keyboard-response","81","160988","0.0-6.0-1.37","ALGO","1","m","rechts","21","","","self","f","0","true"
"null","<div style=""font-size:60px;"">+</div>","null","html-keyboard-response","82","161290","0.0-6.0-0.38","ALGO","1","m","rechts","21","","fixation","","","",""
"1181","img/150_270.png","74","image-keyboard-response","83","162472","0.0-6.0-1.38","ALGO","1","m","rechts","21","","","self","j","150","true"
"null","<div style=""font-size:60px;"">+</div>","null","html-keyboard-response","84","162974","0.0-6.0-0.39","ALGO","1","m","rechts","21","","fixation","","","",""
"1002","img/60_180.png","74","image-keyboard-response","85","163978","0.0-6.0-1.39","ALGO","1","m","rechts","21","","","self","j","60","true"
"null","<div style=""font-size:60px;"">+</div>","null","html-keyboard-response","86","164329","0.0-6.0-0.40","ALGO","1","m","rechts","21","","fixation","","","",""
"1732","img/90_30.png","70","image-keyboard-response","87","166062","0.0-6.0-1.40","ALGO","1","m","rechts","21","","","self","j","90","false"
"null","<div style=""font-size:60px;"">+</div>","null","html-keyboard-response","88","166413","0.0-6.0-0.41","ALGO","1","m","rechts","21","","fixation","","","",""
"1219","img/120_150.png","70","image-keyboard-response","89","167633","0.0-6.0-1.41","ALGO","1","m","rechts","21","","","self","f","120","true"
"null","<div style=""font-size:60px;"">+</div>","null","html-keyboard-response","90","167935","0.0-6.0-0.42","ALGO","1","m","rechts","21","","fixation","","","",""
"1162","img/120_330.png","74","image-keyboard-response","91","169098","0.0-6.0-1.42","ALGO","1","m","rechts","21","","","self","f","120","false"
"null","<div style=""font-size:60px;"">+</div>","null","html-keyboard-response","92","169450","0.0-6.0-0.43","ALGO","1","m","rechts","21","","fixation","","","",""
"1112","img/90_210.png","74","image-keyboard-response","93","170563","0.0-6.0-1.43","ALGO","1","m","rechts","21","","","self","j","90","true"
"null","<div style=""font-size:60px;"">+</div>","null","html-keyboard-response","94","170965","0.0-6.0-0.44","ALGO","1","m","rechts","21","","fixation","","","",""
"1306","img/L30_180.png","70","image-keyboard-response","95","172272","0.0-6.0-1.44","ALGO","1","m","rechts","21","","","self","f","30","true"
"null","<div style=""font-size:60px;"">+</div>","null","html-keyboard-response","96","172574","0.0-6.0-0.45","ALGO","1","m","rechts","21","","fixation","","","",""
"946","img/0_60.png","74","image-keyboard-response","97","173521","0.0-6.0-1.45","ALGO","1","m","rechts","21","","","self","j","0","true"
"null","<div style=""font-size:60px;"">+</div>","null","html-keyboard-response","98","173923","0.0-6.0-0.46","ALGO","1","m","rechts","21","","fixation","","","",""
"1339","img/150_240.png","74","image-keyboard-response","99","175263","0.0-6.0-1.46","ALGO","1","m","rechts","21","","","self","j","150","true"
"null","<div style=""font-size:60px;"">+</div>","null","html-keyboard-response","100","175615","0.0-6.0-0.47","ALGO","1","m","rechts","21","","fixation","","","",""
"1302","img/L60_180.png","70","image-keyboard-response","101","176918","0.0-6.0-1.47","ALGO","1","m","rechts","21","","","self","f","60","true"
"null","<div style=""font-size:60px;"">+</div>","null","html-keyboard-response","102","177319","0.0-6.0-0.48","ALGO","1","m","rechts","21","","fixation","","","",""
"1066","img/60_270.png","70","image-keyboard-response","103","178386","0.0-6.0-1.48","ALGO","1","m","rechts","21","","","self","f","60","true"
"null","<div style=""font-size:60px;"">+</div>","null","html-keyboard-response","104","178687","0.0-6.0-0.49","ALGO","1","m","rechts","21","","fixation","","","",""
"714","img/0_90.png","74","image-keyboard-response","105","179403","0.0-6.0-1.49","ALGO","1","m","rechts","21","","","self","j","0","true"
"null","<div style=""font-size:60px;"">+</div>","null","html-keyboard-response","106","179905","0.0-6.0-0.50","ALGO","1","m","rechts","21","","fixation","","","",""
"1212","img/60_30.png","74","image-keyboard-response","107","181118","0.0-6.0-1.50","ALGO","1","m","rechts","21","","","self","j","60","true"
"null","<div style=""font-size:60px;"">+</div>","null","html-keyboard-response","108","181420","0.0-6.0-0.51","ALGO","1","m","rechts","21","","fixation","","","",""
"1508","img/90_330.png","70","image-keyboard-response","109","182929","0.0-6.0-1.51","ALGO","1","m","rechts","21","","","self","f","90","true"
"null","<div style=""font-size:60px;"">+</div>","null","html-keyboard-response","110","183382","0.0-6.0-0.52","ALGO","1","m","rechts","21","","fixation","","","",""
"793","img/0_330.png","70","image-keyboard-response","111","184175","0.0-6.0-1.52","ALGO","1","m","rechts","21","","","self","f","0","true"
"null","<div style=""font-size:60px;"">+</div>","null","html-keyboard-response","112","184526","0.0-6.0-0.53","ALGO","1","m","rechts","21","","fixation","","","",""
"1123","img/L30_180.png","70","image-keyboard-response","113","185651","0.0-6.0-1.53","ALGO","1","m","rechts","21","","","self","f","30","true"
"null","<div style=""font-size:60px;"">+</div>","null","html-keyboard-response","114","186052","0.0-6.0-0.54","ALGO","1","m","rechts","21","","fixation","","","",""
"669","img/0_270.png","70","image-keyboard-response","115","186722","0.0-6.0-1.54","ALGO","1","m","rechts","21","","","self","f","0","true"
"null","<div style=""font-size:60px;"">+</div>","null","html-keyboard-response","116","187173","0.0-6.0-0.55","ALGO","1","m","rechts","21","","fixation","","","",""
"1378","img/90_30.png","74","image-keyboard-response","117","188552","0.0-6.0-1.55","ALGO","1","m","rechts","21","","","self","j","90","true"
"null","<div style=""font-size:60px;"">+</div>","null","html-keyboard-response","118","188854","0.0-6.0-0.56","ALGO","1","m","rechts","21","","fixation","","","",""
"1056","img/0_60.png","74","image-keyboard-response","119","189910","0.0-6.0-1.56","ALGO","1","m","rechts","21","","","self","j","0","true"
"null","<div style=""font-size:60px;"">+</div>","null","html-keyboard-response","120","190211","0.0-6.0-0.57","ALGO","1","m","rechts","21","","fixation","","","",""
"1266","img/120_180.png","74","image-keyboard-response","121","191479","0.0-6.0-1.57","ALGO","1","m","rechts","21","","","self","j","120","true"
"null","<div style=""font-size:60px;"">+</div>","null","html-keyboard-response","122","191830","0.0-6.0-0.58","ALGO","1","m","rechts","21","","fixation","","","",""
"1635","img/60_90.png","74","image-keyboard-response","123","193467","0.0-6.0-1.58","ALGO","1","m","rechts","21","","","self","j","60","true"
"null","<div style=""font-size:60px;"">+</div>","null","html-keyboard-response","124","193818","0.0-6.0-0.59","ALGO","1","m","rechts","21","","fixation","","","",""
"729","img/0_120.png","74","image-keyboard-response","125","194548","0.0-6.0-1.59","ALGO","1","m","rechts","21","","","self","j","0","true"
"null","<div style=""font-size:60px;"">+</div>","null","html-keyboard-response","126","194950","0.0-6.0-0.60","ALGO","1","m","rechts","21","","fixation","","","",""
"1310","img/90_300.png","70","image-keyboard-response","127","196262","0.0-6.0-1.60","ALGO","1","m","rechts","21","","","self","f","90","true"
"null","<div style=""font-size:60px;"">+</div>","null","html-keyboard-response","128","196613","0.0-6.0-0.61","ALGO","1","m","rechts","21","","fixation","","","",""
"1579","img/60_150.png","70","image-keyboard-response","129","198193","0.0-6.0-1.61","ALGO","1","m","rechts","21","","","self","f","60","true"
"null","<div style=""font-size:60px;"">+</div>","null","html-keyboard-response","130","198545","0.0-6.0-0.62","ALGO","1","m","rechts","21","","fixation","","","",""
"1282","img/120_270.png","74","image-keyboard-response","131","199827","0.0-6.0-1.62","ALGO","1","m","rechts","21","","","self","j","120","true"
"null","<div style=""font-size:60px;"">+</div>","null","html-keyboard-response","132","200329","0.0-6.0-0.63","ALGO","1","m","rechts","21","","fixation","","","",""
"1355","img/150_120.png","70","image-keyboard-response","133","201685","0.0-6.0-1.63","ALGO","1","m","rechts","21","","","self","f","150","true"
"null","<div style=""font-size:60px;"">+</div>","null","html-keyboard-response","134","202136","0.0-6.0-0.64","ALGO","1","m","rechts","21","","fixation","","","",""
"1137","img/30_180.png","74","image-keyboard-response","135","203274","0.0-6.0-1.64","ALGO","1","m","rechts","21","","","self","j","30","true"
"null","<div style=""font-size:60px;"">+</div>","null","html-keyboard-response","136","203776","0.0-6.0-0.65","ALGO","1","m","rechts","21","","fixation","","","",""
"650","img/0_240.png","70","image-keyboard-response","137","204427","0.0-6.0-1.65","ALGO","1","m","rechts","21","","","self","f","0","true"
"null","<div style=""font-size:60px;"">+</div>","null","html-keyboard-response","138","204829","0.0-6.0-0.66","ALGO","1","m","rechts","21","","fixation","","","",""
"1286","img/90_210.png","74","image-keyboard-response","139","206116","0.0-6.0-1.66","ALGO","1","m","rechts","21","","","self","j","90","true"
"null","<div style=""font-size:60px;"">+</div>","null","html-keyboard-response","140","206468","0.0-6.0-0.67","ALGO","1","m","rechts","21","","fixation","","","",""
"1208","img/L120_180.png","70","image-keyboard-response","141","207677","0.0-6.0-1.67","ALGO","1","m","rechts","21","","","self","f","120","true"
"null","<div style=""font-size:60px;"">+</div>","null","html-keyboard-response","142","208029","0.0-6.0-0.68","ALGO","1","m","rechts","21","","fixation","","","",""
"1075","img/30_300.png","70","image-keyboard-response","143","209105","0.0-6.0-1.68","ALGO","1","m","rechts","21","","","self","f","30","true"
"null","<div style=""font-size:60px;"">+</div>","null","html-keyboard-response","144","209407","0.0-6.0-0.69","ALGO","1","m","rechts","21","","fixation","","","",""
"1568","img/90_150.png","70","image-keyboard-response","145","210976","0.0-6.0-1.69","ALGO","1","m","rechts","21","","","self","f","90","true"
"null","<div style=""font-size:60px;"">+</div>","null","html-keyboard-response","146","211378","0.0-6.0-0.70","ALGO","1","m","rechts","21","","fixation","","","",""
"1014","img/120_150.png","70","image-keyboard-response","147","212392","0.0-6.0-1.70","ALGO","1","m","rechts","21","","","self","f","120","true"
"null","<div style=""font-size:60px;"">+</div>","null","html-keyboard-response","148","212693","0.0-6.0-0.71","ALGO","1","m","rechts","21","","fixation","","","",""
"1288","img/L150_180.png","70","image-keyboard-response","149","213982","0.0-6.0-1.71","ALGO","1","m","rechts","21","","","self","f","150","true"
"null","<div style=""font-size:60px;"">+</div>","null","html-keyboard-response","150","214434","0.0-6.0-0.72","ALGO","1","m","rechts","21","","fixation","","","",""
"1106","img/90_180.png","74","image-keyboard-response","151","215540","0.0-6.0-1.72","ALGO","1","m","rechts","21","","","self","j","90","true"
"null","<div style=""font-size:60px;"">+</div>","null","html-keyboard-response","152","215842","0.0-6.0-0.73","ALGO","1","m","rechts","21","","fixation","","","",""
"1071","img/90_240.png","74","image-keyboard-response","153","216913","0.0-6.0-1.73","ALGO","1","m","rechts","21","","","self","j","90","true"
"null","<div style=""font-size:60px;"">+</div>","null","html-keyboard-response","154","217365","0.0-6.0-0.74","ALGO","1","m","rechts","21","","fixation","","","",""
"747","img/60_210.png","74","image-keyboard-response","155","218112","0.0-6.0-1.74","ALGO","1","m","rechts","21","","","self","j","60","true"
"null","<div style=""font-size:60px;"">+</div>","null","html-keyboard-response","156","218614","0.0-6.0-0.75","ALGO","1","m","rechts","21","","fixation","","","",""
"1693","img/120_30.png","70","image-keyboard-response","157","220308","0.0-6.0-1.75","ALGO","1","m","rechts","21","","","self","j","120","false"
"null","<div style=""font-size:60px;"">+</div>","null","html-keyboard-response","158","220710","0.0-6.0-0.76","ALGO","1","m","rechts","21","","fixation","","","",""
"907","img/L60_180.png","70","image-keyboard-response","159","221617","0.0-6.0-1.76","ALGO","1","m","rechts","21","","","self","f","60","true"
"null","<div style=""font-size:60px;"">+</div>","null","html-keyboard-response","160","222069","0.0-6.0-0.77","ALGO","1","m","rechts","21","","fixation","","","",""
"936","img/60_270.png","70","image-keyboard-response","161","223005","0.0-6.0-1.77","ALGO","1","m","rechts","21","","","self","f","60","true"
"null","<div style=""font-size:60px;"">+</div>","null","html-keyboard-response","162","223457","0.0-6.0-0.78","ALGO","1","m","rechts","21","","fixation","","","",""
"1352","img/30_60.png","74","image-keyboard-response","163","224809","0.0-6.0-1.78","ALGO","1","m","rechts","21","","","self","j","30","true"
"null","<div style=""font-size:60px;"">+</div>","null","html-keyboard-response","164","225210","0.0-6.0-0.79","ALGO","1","m","rechts","21","","fixation","","","",""
"1077","img/60_180.png","74","image-keyboard-response","165","226287","0.0-6.0-1.79","ALGO","1","m","rechts","21","","","self","j","60","true"
"null","<div style=""font-size:60px;"">+</div>","null","html-keyboard-response","166","226789","0.0-6.0-0.80","ALGO","1","m","rechts","21","","fixation","","","",""
"793","img/30_90.png","70","image-keyboard-response","167","227582","0.0-6.0-1.80","ALGO","1","m","rechts","21","","","self","j","30","false"
"null","<div style=""font-size:60px;"">+</div>","null","html-keyboard-response","168","227934","0.0-6.0-0.81","ALGO","1","m","rechts","21","","fixation","","","",""
"1301","img/150_270.png","74","image-keyboard-response","169","229236","0.0-6.0-1.81","ALGO","1","m","rechts","21","","","self","j","150","true"
"null","<div style=""font-size:60px;"">+</div>","null","html-keyboard-response","170","229637","0.0-6.0-0.82","ALGO","1","m","rechts","21","","fixation","","","",""
"1124","img/120_210.png","74","image-keyboard-response","171","230762","0.0-6.0-1.82","ALGO","1","m","rechts","21","","","self","j","120","true"
"null","<div style=""font-size:60px;"">+</div>","null","html-keyboard-response","172","231213","0.0-6.0-0.83","ALGO","1","m","rechts","21","","fixation","","","",""
"1445","img/150_60.png","70","image-keyboard-response","173","232659","0.0-6.0-1.83","ALGO","1","m","rechts","21","","","self","f","150","true"
"null","<div style=""font-size:60px;"">+</div>","null","html-keyboard-response","174","233160","0.0-6.0-0.84","ALGO","1","m","rechts","21","","fixation","","","",""
"782","img/0_30.png","74","image-keyboard-response","175","233942","0.0-6.0-1.84","ALGO","1","m","rechts","21","","","self","j","0","true"
"null","<div style=""font-size:60px;"">+</div>","null","html-keyboard-response","176","234394","0.0-6.0-0.85","ALGO","1","m","rechts","21","","fixation","","","",""
"1137","img/150_240.png","74","image-keyboard-response","177","235531","0.0-6.0-1.85","ALGO","1","m","rechts","21","","","self","j","150","true"
"null","<div style=""font-size:60px;"">+</div>","null","html-keyboard-response","178","235882","0.0-6.0-0.86","ALGO","1","m","rechts","21","","fixation","","","",""
"1674","img/150_300.png","74","image-keyboard-response","179","237558","0.0-6.0-1.86","ALGO","1","m","rechts","21","","","self","j","150","true"
"null","<div style=""font-size:60px;"">+</div>","null","html-keyboard-response","180","238059","0.0-6.0-0.87","ALGO","1","m","rechts","21","","fixation","","","",""
"727","img/0_150.png","74","image-keyboard-response","181","238788","0.0-6.0-1.87","ALGO","1","m","rechts","21","","","self","j","0","true"
"null","<div style=""font-size:60px;"">+</div>","null","html-keyboard-response","182","239289","0.0-6.0-0.88","ALGO","1","m","rechts","21","","fixation","","","",""
"1289","img/90_330.png","70","image-keyboard-response","183","240580","0.0-6.0-1.88","ALGO","1","m","rechts","21","","","self","f","90","true"
"null","<div style=""font-size:60px;"">+</div>","null","html-keyboard-response","184","240981","0.0-6.0-0.89","ALGO","1","m","rechts","21","","fixation","","","",""
"1127","img/120_330.png","70","image-keyboard-response","185","242110","0.0-6.0-1.89","ALGO","1","m","rechts","21","","","self","f","120","true"
"null","<div style=""font-size:60px;"">+</div>","null","html-keyboard-response","186","242511","0.0-6.0-0.90","ALGO","1","m","rechts","21","","fixation","","","",""
"1558","img/150_180.png","74","image-keyboard-response","187","244071","0.0-6.0-1.90","ALGO","1","m","rechts","21","","","self","j","150","true"
"null","<div style=""font-size:60px;"">+</div>","null","html-keyboard-response","188","244472","0.0-6.0-0.91","ALGO","1","m","rechts","21","","fixation","","","",""
"1261","img/30_240.png","70","image-keyboard-response","189","245734","0.0-6.0-1.91","ALGO","1","m","rechts","21","","","self","f","30","true"
"null","<div style=""font-size:60px;"">+</div>","null","html-keyboard-response","190","246136","0.0-6.0-0.92","ALGO","1","m","rechts","21","","fixation","","","",""
"849","img/30_270.png","70","image-keyboard-response","191","246986","0.0-6.0-1.92","ALGO","1","m","rechts","21","","","self","f","30","true"
"null","<div style=""font-size:60px;"">+</div>","null","html-keyboard-response","192","247488","0.0-6.0-0.93","ALGO","1","m","rechts","21","","fixation","","","",""
"1143","img/L90_180.png","70","image-keyboard-response","193","248632","0.0-6.0-1.93","ALGO","1","m","rechts","21","","","self","f","90","true"
"null","<div style=""font-size:60px;"">+</div>","null","html-keyboard-response","194","249034","0.0-6.0-0.94","ALGO","1","m","rechts","21","","fixation","","","",""
"1250","img/60_330.png","70","image-keyboard-response","195","250284","0.0-6.0-1.94","ALGO","1","m","rechts","21","","","self","f","60","true"
"null","<div style=""font-size:60px;"">+</div>","null","html-keyboard-response","196","250686","0.0-6.0-0.95","ALGO","1","m","rechts","21","","fixation","","","",""
"1004","img/0_90.png","74","image-keyboard-response","197","251691","0.0-6.0-1.95","ALGO","1","m","rechts","21","","","self","j","0","true"
"null","<div style=""font-size:60px;"">+</div>","null","html-keyboard-response","198","251993","0.0-6.0-0.96","ALGO","1","m","rechts","21","","fixation","","","",""
"1560","img/90_60.png","74","image-keyboard-response","199","253554","0.0-6.0-1.96","ALGO","1","m","rechts","21","","","self","j","90","true"
"null","<div style=""font-size:60px;"">+</div>","null","html-keyboard-response","200","254006","0.0-6.0-0.97","ALGO","1","m","rechts","21","","fixation","","","",""
"1070","img/60_30.png","74","image-keyboard-response","201","255076","0.0-6.0-1.97","ALGO","1","m","rechts","21","","","self","j","60","true"
"null","<div style=""font-size:60px;"">+</div>","null","html-keyboard-response","202","255577","0.0-6.0-0.98","ALGO","1","m","rechts","21","","fixation","","","",""
"1762","img/90_120.png","70","image-keyboard-response","203","257340","0.0-6.0-1.98","ALGO","1","m","rechts","21","","","self","f","90","true"
"null","<div style=""font-size:60px;"">+</div>","null","html-keyboard-response","204","257792","0.0-6.0-0.99","ALGO","1","m","rechts","21","","fixation","","","",""
"1155","img/120_90.png","70","image-keyboard-response","205","258948","0.0-6.0-1.99","ALGO","1","m","rechts","21","","","self","f","120","true"
"null","<div style=""font-size:60px;"">+</div>","null","html-keyboard-response","206","259249","0.0-6.0-0.100","ALGO","1","m","rechts","21","","fixation","","","",""
"1297","img/150_90.png","70","image-keyboard-response","207","260546","0.0-6.0-1.100","ALGO","1","m","rechts","21","","","self","f","150","true"
"null","<div style=""font-size:60px;"">+</div>","null","html-keyboard-response","208","260898","0.0-6.0-0.101","ALGO","1","m","rechts","21","","fixation","","","",""
"852","img/0_210.png","70","image-keyboard-response","209","261751","0.0-6.0-1.101","ALGO","1","m","rechts","21","","","self","f","0","true"
"null","<div style=""font-size:60px;"">+</div>","null","html-keyboard-response","210","262103","0.0-6.0-0.102","ALGO","1","m","rechts","21","","fixation","","","",""
"620","img/0_300.png","70","image-keyboard-response","211","262724","0.0-6.0-1.102","ALGO","1","m","rechts","21","","","self","f","0","true"
"null","<div style=""font-size:60px;"">+</div>","null","html-keyboard-response","212","263076","0.0-6.0-0.103","ALGO","1","m","rechts","21","","fixation","","","",""
"1084","img/30_120.png","74","image-keyboard-response","213","264161","0.0-6.0-1.103","ALGO","1","m","rechts","21","","","self","j","30","true"
"null","<div style=""font-size:60px;"">+</div>","null","html-keyboard-response","214","264463","0.0-6.0-0.104","ALGO","1","m","rechts","21","","fixation","","","",""
"811","img/0_120.png","74","image-keyboard-response","215","265275","0.0-6.0-1.104","ALGO","1","m","rechts","21","","","self","j","0","true"
"null","<div style=""font-size:60px;"">+</div>","null","html-keyboard-response","216","265677","0.0-6.0-0.105","ALGO","1","m","rechts","21","","fixation","","","",""
"596","img/0_60.png","74","image-keyboard-response","217","266273","0.0-6.0-1.105","ALGO","1","m","rechts","21","","","self","j","0","true"
"null","<div style=""font-size:60px;"">+</div>","null","html-keyboard-response","218","266625","0.0-6.0-0.106","ALGO","1","m","rechts","21","","fixation","","","",""
"1392","img/120_210.png","74","image-keyboard-response","219","268017","0.0-6.0-1.106","ALGO","1","m","rechts","21","","","self","j","120","true"
"null","<div style=""font-size:60px;"">+</div>","null","html-keyboard-response","220","268419","0.0-6.0-0.107","ALGO","1","m","rechts","21","","fixation","","","",""
"635","img/0_150.png","74","image-keyboard-response","221","269054","0.0-6.0-1.107","ALGO","1","m","rechts","21","","","self","j","0","true"
"null","<div style=""font-size:60px;"">+</div>","null","html-keyboard-response","222","269356","0.0-6.0-0.108","ALGO","1","m","rechts","21","","fixation","","","",""
"990","img/30_180.png","74","image-keyboard-response","223","270347","0.0-6.0-1.108","ALGO","1","m","rechts","21","","","self","j","30","true"
"null","<div style=""font-size:60px;"">+</div>","null","html-keyboard-response","224","270649","0.0-6.0-0.109","ALGO","1","m","rechts","21","","fixation","","","",""
"1140","img/30_60.png","74","image-keyboard-response","225","271789","0.0-6.0-1.109","ALGO","1","m","rechts","21","","","self","j","30","true"
"null","<div style=""font-size:60px;"">+</div>","null","html-keyboard-response","226","272191","0.0-6.0-0.110","ALGO","1","m","rechts","21","","fixation","","","",""
"1438","img/120_330.png","70","image-keyboard-response","227","273630","0.0-6.0-1.110","ALGO","1","m","rechts","21","","","self","f","120","true"
"null","<div style=""font-size:60px;"">+</div>","null","html-keyboard-response","228","273982","0.0-6.0-0.111","ALGO","1","m","rechts","21","","fixation","","","",""
"1187","img/150_270.png","74","image-keyboard-response","229","275170","0.0-6.0-1.111","ALGO","1","m","rechts","21","","","self","j","150","true"
"null","<div style=""font-size:60px;"">+</div>","null","html-keyboard-response","230","275572","0.0-6.0-0.112","ALGO","1","m","rechts","21","","fixation","","","",""
"1077","img/120_180.png","74","image-keyboard-response","231","276650","0.0-6.0-1.112","ALGO","1","m","rechts","21","","","self","j","120","true"
"null","<div style=""font-size:60px;"">+</div>","null","html-keyboard-response","232","277152","0.0-6.0-0.113","ALGO","1","m","rechts","21","","fixation","","","",""
"1168","img/L120_180.png","70","image-keyboard-response","233","278320","0.0-6.0-1.113","ALGO","1","m","rechts","21","","","self","f","120","true"
"null","<div style=""font-size:60px;"">+</div>","null","html-keyboard-response","234","278622","0.0-6.0-0.114","ALGO","1","m","rechts","21","","fixation","","","",""
"1000","img/60_180.png","74","image-keyboard-response","235","279622","0.0-6.0-1.114","ALGO","1","m","rechts","21","","","self","j","60","true"
"null","<div style=""font-size:60px;"">+</div>","null","html-keyboard-response","236","280024","0.0-6.0-0.115","ALGO","1","m","rechts","21","","fixation","","","",""
"937","img/L30_180.png","70","image-keyboard-response","237","280961","0.0-6.0-1.115","ALGO","1","m","rechts","21","","","self","f","30","true"
"null","<div style=""font-size:60px;"">+</div>","null","html-keyboard-response","238","281263","0.0-6.0-0.116","ALGO","1","m","rechts","21","","fixation","","","",""
"955","img/60_150.png","70","image-keyboard-response","239","282220","0.0-6.0-1.116","ALGO","1","m","rechts","21","","","self","f","60","true"
"null","<div style=""font-size:60px;"">+</div>","null","html-keyboard-response","240","282671","0.0-6.0-0.117","ALGO","1","m","rechts","21","","fixation","","","",""
"1005","img/L90_180.png","70","image-keyboard-response","241","283677","0.0-6.0-1.117","ALGO","1","m","rechts","21","","","self","f","90","true"
"null","<div style=""font-size:60px;"">+</div>","null","html-keyboard-response","242","284179","0.0-6.0-0.118","ALGO","1","m","rechts","21","","fixation","","","",""
"1229","img/30_240.png","70","image-keyboard-response","243","285408","0.0-6.0-1.118","ALGO","1","m","rechts","21","","","self","f","30","true"
"null","<div style=""font-size:60px;"">+</div>","null","html-keyboard-response","244","285760","0.0-6.0-0.119","ALGO","1","m","rechts","21","","fixation","","","",""
"1528","img/150_60.png","70","image-keyboard-response","245","287288","0.0-6.0-1.119","ALGO","1","m","rechts","21","","","self","f","150","true"
"null","<div style=""font-size:60px;"">+</div>","null","html-keyboard-response","246","287640","0.0-6.0-0.120","ALGO","1","m","rechts","21","","fixation","","","",""
"1512","img/30_120.png","74","image-keyboard-response","247","289153","0.0-6.0-1.120","ALGO","1","m","rechts","21","","","self","j","30","true"
"null","<div style=""font-size:60px;"">+</div>","null","html-keyboard-response","248","289605","0.0-6.0-0.121","ALGO","1","m","rechts","21","","fixation","","","",""
"1227","img/150_240.png","70","image-keyboard-response","249","290832","0.0-6.0-1.121","ALGO","1","m","rechts","21","","","self","j","150","false"
"null","<div style=""font-size:60px;"">+</div>","null","html-keyboard-response","250","291284","0.0-6.0-0.122","ALGO","1","m","rechts","21","","fixation","","","",""
"1450","img/150_120.png","70","image-keyboard-response","251","292736","0.0-6.0-1.122","ALGO","1","m","rechts","21","","","self","f","150","true"
"null","<div style=""font-size:60px;"">+</div>","null","html-keyboard-response","252","293037","0.0-6.0-0.123","ALGO","1","m","rechts","21","","fixation","","","",""
"1489","img/120_90.png","70","image-keyboard-response","253","294527","0.0-6.0-1.123","ALGO","1","m","rechts","21","","","self","f","120","true"
"null","<div style=""font-size:60px;"">+</div>","null","html-keyboard-response","254","294879","0.0-6.0-0.124","ALGO","1","m","rechts","21","","fixation","","","",""
"1240","img/30_270.png","70","image-keyboard-response","255","296120","0.0-6.0-1.124","ALGO","1","m","rechts","21","","","self","f","30","true"
"null","<div style=""font-size:60px;"">+</div>","null","html-keyboard-response","256","296472","0.0-6.0-0.125","ALGO","1","m","rechts","21","","fixation","","","",""
"815","img/0_270.png","70","image-keyboard-response","257","297288","0.0-6.0-1.125","ALGO","1","m","rechts","21","","","self","f","0","true"
"null","<div style=""font-size:60px;"">+</div>","null","html-keyboard-response","258","297590","0.0-6.0-0.126","ALGO","1","m","rechts","21","","fixation","","","",""
"1417","img/90_330.png","70","image-keyboard-response","259","299007","0.0-6.0-1.126","ALGO","1","m","rechts","21","","","self","f","90","true"
"null","<div style=""font-size:60px;"">+</div>","null","html-keyboard-response","260","299309","0.0-6.0-0.127","ALGO","1","m","rechts","21","","fixation","","","",""
"1322","img/90_210.png","74","image-keyboard-response","261","300632","0.0-6.0-1.127","ALGO","1","m","rechts","21","","","self","j","90","true"
"null","<div style=""font-size:60px;"">+</div>","null","html-keyboard-response","262","300984","0.0-6.0-0.128","ALGO","1","m","rechts","21","","fixation","","","",""
"1614","img/60_30.png","74","image-keyboard-response","263","302599","0.0-6.0-1.128","ALGO","1","m","rechts","21","","","self","j","60","true"
"null","<div style=""font-size:60px;"">+</div>","null","html-keyboard-response","264","302901","0.0-6.0-0.129","ALGO","1","m","rechts","21","","fixation","","","",""
"1610","img/150_90.png","70","image-keyboard-response","265","304512","0.0-6.0-1.129","ALGO","1","m","rechts","21","","","self","f","150","true"
"null","<div style=""font-size:60px;"">+</div>","null","html-keyboard-response","266","304864","0.0-6.0-0.130","ALGO","1","m","rechts","21","","fixation","","","",""
"1320","img/150_180.png","74","image-keyboard-response","267","306185","0.0-6.0-1.130","ALGO","1","m","rechts","21","","","self","j","150","true"
"null","<div style=""font-size:60px;"">+</div>","null","html-keyboard-response","268","306687","0.0-6.0-0.131","ALGO","1","m","rechts","21","","fixation","","","",""
"1220","img/90_60.png","70","image-keyboard-response","269","307907","0.0-6.0-1.131","ALGO","1","m","rechts","21","","","self","j","90","false"
"null","<div style=""font-size:60px;"">+</div>","null","html-keyboard-response","270","308259","0.0-6.0-0.132","ALGO","1","m","rechts","21","","fixation","","","",""
"1637","img/90_240.png","74","image-keyboard-response","271","309897","0.0-6.0-1.132","ALGO","1","m","rechts","21","","","self","j","90","true"
"null","<div style=""font-size:60px;"">+</div>","null","html-keyboard-response","272","310249","0.0-6.0-0.133","ALGO","1","m","rechts","21","","fixation","","","",""
"1192","img/L60_180.png","70","image-keyboard-response","273","311442","0.0-6.0-1.133","ALGO","1","m","rechts","21","","","self","f","60","true"
"null","<div style=""font-size:60px;"">+</div>","null","html-keyboard-response","274","311894","0.0-6.0-0.134","ALGO","1","m","rechts","21","","fixation","","","",""
"739","img/0_90.png","74","image-keyboard-response","275","312634","0.0-6.0-1.134","ALGO","1","m","rechts","21","","","self","j","0","true"
"null","<div style=""font-size:60px;"">+</div>","null","html-keyboard-response","276","313136","0.0-6.0-0.135","ALGO","1","m","rechts","21","","fixation","","","",""
"1388","img/60_90.png","74","image-keyboard-response","277","314524","0.0-6.0-1.135","ALGO","1","m","rechts","21","","","self","j","60","true"
"null","<div style=""font-size:60px;"">+</div>","null","html-keyboard-response","278","314826","0.0-6.0-0.136","ALGO","1","m","rechts","21","","fixation","","","",""
"1120","img/60_210.png","74","image-keyboard-response","279","315946","0.0-6.0-1.136","ALGO","1","m","rechts","21","","","self","j","60","true"
"null","<div style=""font-size:60px;"">+</div>","null","html-keyboard-response","280","316447","0.0-6.0-0.137","ALGO","1","m","rechts","21","","fixation","","","",""
"755","img/0_240.png","70","image-keyboard-response","281","317203","0.0-6.0-1.137","ALGO","1","m","rechts","21","","","self","f","0","true"
"null","<div style=""font-size:60px;"">+</div>","null","html-keyboard-response","282","317505","0.0-6.0-0.138","ALGO","1","m","rechts","21","","fixation","","","",""
"1069","img/60_270.png","70","image-keyboard-response","283","318574","0.0-6.0-1.138","ALGO","1","m","rechts","21","","","self","f","60","true"
"null","<div style=""font-size:60px;"">+</div>","null","html-keyboard-response","284","319076","0.0-6.0-0.139","ALGO","1","m","rechts","21","","fixation","","","",""
"1512","img/90_30.png","74","image-keyboard-response","285","320588","0.0-6.0-1.139","ALGO","1","m","rechts","21","","","self","j","90","true"
"null","<div style=""font-size:60px;"">+</div>","null","html-keyboard-response","286","320990","0.0-6.0-0.140","ALGO","1","m","rechts","21","","fixation","","","",""
"832","img/0_300.png","70","image-keyboard-response","287","321822","0.0-6.0-1.140","ALGO","1","m","rechts","21","","","self","f","0","true"
"null","<div style=""font-size:60px;"">+</div>","null","html-keyboard-response","288","322173","0.0-6.0-0.141","ALGO","1","m","rechts","21","","fixation","","","",""
"1355","img/60_330.png","70","image-keyboard-response","289","323529","0.0-6.0-1.141","ALGO","1","m","rechts","21","","","self","f","60","true"
"null","<div style=""font-size:60px;"">+</div>","null","html-keyboard-response","290","323831","0.0-6.0-0.142","ALGO","1","m","rechts","21","","fixation","","","",""
"1379","img/90_150.png","70","image-keyboard-response","291","325210","0.0-6.0-1.142","ALGO","1","m","rechts","21","","","self","f","90","true"
"null","<div style=""font-size:60px;"">+</div>","null","html-keyboard-response","292","325562","0.0-6.0-0.143","ALGO","1","m","rechts","21","","fixation","","","",""
"1306","img/90_180.png","74","image-keyboard-response","293","326869","0.0-6.0-1.143","ALGO","1","m","rechts","21","","","self","j","90","true"
"null","<div style=""font-size:60px;"">+</div>","null","html-keyboard-response","294","327170","0.0-6.0-0.144","ALGO","1","m","rechts","21","","fixation","","","",""
"1067","img/0_330.png","70","image-keyboard-response","295","328238","0.0-6.0-1.144","ALGO","1","m","rechts","21","","","self","f","0","true"
"null","<div style=""font-size:60px;"">+</div>","null","html-keyboard-response","296","328639","0.0-6.0-0.145","ALGO","1","m","rechts","21","","fixation","","","",""
"1199","img/90_300.png","70","image-keyboard-response","297","329840","0.0-6.0-1.145","ALGO","1","m","rechts","21","","","self","f","90","true"
"null","<div style=""font-size:60px;"">+</div>","null","html-keyboard-response","298","330191","0.0-6.0-0.146","ALGO","1","m","rechts","21","","fixation","","","",""
"756","img/0_210.png","70","image-keyboard-response","299","330948","0.0-6.0-1.146","ALGO","1","m","rechts","21","","","self","f","0","true"
"null","<div style=""font-size:60px;"">+</div>","null","html-keyboard-response","300","331349","0.0-6.0-0.147","ALGO","1","m","rechts","21","","fixation","","","",""
"1264","img/120_270.png","74","image-keyboard-response","301","332615","0.0-6.0-1.147","ALGO","1","m","rechts","21","","","self","j","120","true"
"null","<div style=""font-size:60px;"">+</div>","null","html-keyboard-response","302","332916","0.0-6.0-0.148","ALGO","1","m","rechts","21","","fixation","","","",""
"1636","img/30_90.png","74","image-keyboard-response","303","334554","0.0-6.0-1.148","ALGO","1","m","rechts","21","","","self","j","30","true"
"null","<div style=""font-size:60px;"">+</div>","null","html-keyboard-response","304","335055","0.0-6.0-0.149","ALGO","1","m","rechts","21","","fixation","","","",""
"991","img/30_300.png","70","image-keyboard-response","305","336047","0.0-6.0-1.149","ALGO","1","m","rechts","21","","","self","f","30","true"
"null","<div style=""font-size:60px;"">+</div>","null","html-keyboard-response","306","336549","0.0-6.0-0.150","ALGO","1","m","rechts","21","","fixation","","","",""
"1160","img/90_120.png","70","image-keyboard-response","307","337709","0.0-6.0-1.150","ALGO","1","m","rechts","21","","","self","f","90","true"
"null","<div style=""font-size:60px;"">+</div>","null","html-keyboard-response","308","338111","0.0-6.0-0.151","ALGO","1","m","rechts","21","","fixation","","","",""
"709","img/0_30.png","74","image-keyboard-response","309","338822","0.0-6.0-1.151","ALGO","1","m","rechts","21","","","self","j","0","true"
"null","<div style=""font-size:60px;"">+</div>","null","html-keyboard-response","310","339273","0.0-6.0-0.152","ALGO","1","m","rechts","21","","fixation","","","",""
"1111","img/120_150.png","70","image-keyboard-response","311","340386","0.0-6.0-1.152","ALGO","1","m","rechts","21","","","self","f","120","true"
"null","<div style=""font-size:60px;"">+</div>","null","html-keyboard-response","312","340787","0.0-6.0-0.153","ALGO","1","m","rechts","21","","fixation","","","",""
"1685","img/120_30.png","74","image-keyboard-response","313","342474","0.0-6.0-1.153","ALGO","1","m","rechts","21","","","self","j","120","true"
"null","<div style=""font-size:60px;"">+</div>","null","html-keyboard-response","314","342925","0.0-6.0-0.154","ALGO","1","m","rechts","21","","fixation","","","",""
"1467","img/150_300.png","74","image-keyboard-response","315","344394","0.0-6.0-1.154","ALGO","1","m","rechts","21","","","self","j","150","true"
"null","<div style=""font-size:60px;"">+</div>","null","html-keyboard-response","316","344845","0.0-6.0-0.155","ALGO","1","m","rechts","21","","fixation","","","",""
"1179","img/L150_180.png","70","image-keyboard-response","317","346025","0.0-6.0-1.155","ALGO","1","m","rechts","21","","","self","f","150","true"
"null","<div style=""font-size:60px;"">+</div>","null","html-keyboard-response","318","346427","0.0-6.0-0.156","ALGO","1","m","rechts","21","","fixation","","","",""
"1435","img/90_330.png","74","image-keyboard-response","319","347862","0.0-6.0-1.156","ALGO","1","m","rechts","21","","","self","f","90","false"
"null","<div style=""font-size:60px;"">+</div>","null","html-keyboard-response","320","348214","0.0-6.0-0.157","ALGO","1","m","rechts","21","","fixation","","","",""
"762","img/0_90.png","74","image-keyboard-response","321","348977","0.0-6.0-1.157","ALGO","1","m","rechts","21","","","self","j","0","true"
"null","<div style=""font-size:60px;"">+</div>","null","html-keyboard-response","322","349279","0.0-6.0-0.158","ALGO","1","m","rechts","21","","fixation","","","",""
"1832","img/90_60.png","74","image-keyboard-response","323","351112","0.0-6.0-1.158","ALGO","1","m","rechts","21","","","self","j","90","true"
"null","<div style=""font-size:60px;"">+</div>","null","html-keyboard-response","324","351564","0.0-6.0-0.159","ALGO","1","m","rechts","21","","fixation","","","",""
"1174","img/90_150.png","70","image-keyboard-response","325","352739","0.0-6.0-1.159","ALGO","1","m","rechts","21","","","self","f","90","true"
"null","<div style=""font-size:60px;"">+</div>","null","html-keyboard-response","326","353041","0.0-6.0-0.160","ALGO","1","m","rechts","21","","fixation","","","",""
"1874","img/90_30.png","74","image-keyboard-response","327","354916","0.0-6.0-1.160","ALGO","1","m","rechts","21","","","self","j","90","true"
"null","<div style=""font-size:60px;"">+</div>","null","html-keyboard-response","328","355218","0.0-6.0-0.161","ALGO","1","m","rechts","21","","fixation","","","",""
"1362","img/150_300.png","74","image-keyboard-response","329","356581","0.0-6.0-1.161","ALGO","1","m","rechts","21","","","self","j","150","true"
"null","<div style=""font-size:60px;"">+</div>","null","html-keyboard-response","330","357033","0.0-6.0-0.162","ALGO","1","m","rechts","21","","fixation","","","",""
"1306","img/30_90.png","74","image-keyboard-response","331","358340","0.0-6.0-1.162","ALGO","1","m","rechts","21","","","self","j","30","true"
"null","<div style=""font-size:60px;"">+</div>","null","html-keyboard-response","332","358742","0.0-6.0-0.163","ALGO","1","m","rechts","21","","fixation","","","",""
"1068","img/150_60.png","70","image-keyboard-response","333","359810","0.0-6.0-1.163","ALGO","1","m","rechts","21","","","self","f","150","true"
"null","<div style=""font-size:60px;"">+</div>","null","html-keyboard-response","334","360262","0.0-6.0-0.164","ALGO","1","m","rechts","21","","fixation","","","",""
"1341","img/120_270.png","74","image-keyboard-response","335","361604","0.0-6.0-1.164","ALGO","1","m","rechts","21","","","self","j","120","true"
"null","<div style=""font-size:60px;"">+</div>","null","html-keyboard-response","336","361956","0.0-6.0-0.165","ALGO","1","m","rechts","21","","fixation","","","",""
"1085","img/60_210.png","74","image-keyboard-response","337","363042","0.0-6.0-1.165","ALGO","1","m","rechts","21","","","self","j","60","true"
"null","<div style=""font-size:60px;"">+</div>","null","html-keyboard-response","338","363344","0.0-6.0-0.166","ALGO","1","m","rechts","21","","fixation","","","",""
"810","img/0_210.png","70","image-keyboard-response","339","364154","0.0-6.0-1.166","ALGO","1","m","rechts","21","","","self","f","0","true"
"null","<div style=""font-size:60px;"">+</div>","null","html-keyboard-response","340","364506","0.0-6.0-0.167","ALGO","1","m","rechts","21","","fixation","","","",""
"840","img/0_330.png","70","image-keyboard-response","341","365347","0.0-6.0-1.167","ALGO","1","m","rechts","21","","","self","f","0","true"
"null","<div style=""font-size:60px;"">+</div>","null","html-keyboard-response","342","365848","0.0-6.0-0.168","ALGO","1","m","rechts","21","","fixation","","","",""
"953","img/60_180.png","74","image-keyboard-response","343","366802","0.0-6.0-1.168","ALGO","1","m","rechts","21","","","self","j","60","true"
"null","<div style=""font-size:60px;"">+</div>","null","html-keyboard-response","344","367154","0.0-6.0-0.169","ALGO","1","m","rechts","21","","fixation","","","",""
"1073","img/30_300.png","70","image-keyboard-response","345","368227","0.0-6.0-1.169","ALGO","1","m","rechts","21","","","self","f","30","true"
"null","<div style=""font-size:60px;"">+</div>","null","html-keyboard-response","346","368629","0.0-6.0-0.170","ALGO","1","m","rechts","21","","fixation","","","",""
"1334","img/120_180.png","74","image-keyboard-response","347","369964","0.0-6.0-1.170","ALGO","1","m","rechts","21","","","self","j","120","true"
"null","<div style=""font-size:60px;"">+</div>","null","html-keyboard-response","348","370466","0.0-6.0-0.171","ALGO","1","m","rechts","21","","fixation","","","",""
"1020","img/30_120.png","74","image-keyboard-response","349","371487","0.0-6.0-1.171","ALGO","1","m","rechts","21","","","self","j","30","true"
"null","<div style=""font-size:60px;"">+</div>","null","html-keyboard-response","350","371888","0.0-6.0-0.172","ALGO","1","m","rechts","21","","fixation","","","",""
"788","img/0_150.png","74","image-keyboard-response","351","372677","0.0-6.0-1.172","ALGO","1","m","rechts","21","","","self","j","0","true"
"null","<div style=""font-size:60px;"">+</div>","null","html-keyboard-response","352","373178","0.0-6.0-0.173","ALGO","1","m","rechts","21","","fixation","","","",""
"1071","img/60_90.png","74","image-keyboard-response","353","374250","0.0-6.0-1.173","ALGO","1","m","rechts","21","","","self","j","60","true"
"null","<div style=""font-size:60px;"">+</div>","null","html-keyboard-response","354","374702","0.0-6.0-0.174","ALGO","1","m","rechts","21","","fixation","","","",""
"966","img/60_270.png","70","image-keyboard-response","355","375668","0.0-6.0-1.174","ALGO","1","m","rechts","21","","","self","f","60","true"
"null","<div style=""font-size:60px;"">+</div>","null","html-keyboard-response","356","376069","0.0-6.0-0.175","ALGO","1","m","rechts","21","","fixation","","","",""
"1073","img/90_210.png","74","image-keyboard-response","357","377143","0.0-6.0-1.175","ALGO","1","m","rechts","21","","","self","j","90","true"
"null","<div style=""font-size:60px;"">+</div>","null","html-keyboard-response","358","377595","0.0-6.0-0.176","ALGO","1","m","rechts","21","","fixation","","","",""
"1139","img/150_180.png","74","image-keyboard-response","359","378734","0.0-6.0-1.176","ALGO","1","m","rechts","21","","","self","j","150","true"
"null","<div style=""font-size:60px;"">+</div>","null","html-keyboard-response","360","379086","0.0-6.0-0.177","ALGO","1","m","rechts","21","","fixation","","","",""
"1639","img/90_120.png","70","image-keyboard-response","361","380725","0.0-6.0-1.177","ALGO","1","m","rechts","21","","","self","f","90","true"
"null","<div style=""font-size:60px;"">+</div>","null","html-keyboard-response","362","381177","0.0-6.0-0.178","ALGO","1","m","rechts","21","","fixation","","","",""
"837","img/150_120.png","70","image-keyboard-response","363","382015","0.0-6.0-1.178","ALGO","1","m","rechts","21","","","self","f","150","true"
"null","<div style=""font-size:60px;"">+</div>","null","html-keyboard-response","364","382367","0.0-6.0-0.179","ALGO","1","m","rechts","21","","fixation","","","",""
"724","img/0_120.png","74","image-keyboard-response","365","383091","0.0-6.0-1.179","ALGO","1","m","rechts","21","","","self","j","0","true"
"null","<div style=""font-size:60px;"">+</div>","null","html-keyboard-response","366","383443","0.0-6.0-0.180","ALGO","1","m","rechts","21","","fixation","","","",""
"695","img/0_270.png","70","image-keyboard-response","367","384139","0.0-6.0-1.180","ALGO","1","m","rechts","21","","","self","f","0","true"
"null","<div style=""font-size:60px;"">+</div>","null","html-keyboard-response","368","384490","0.0-6.0-0.181","ALGO","1","m","rechts","21","","fixation","","","",""
"1012","img/150_240.png","74","image-keyboard-response","369","385504","0.0-6.0-1.181","ALGO","1","m","rechts","21","","","self","j","150","true"
"null","<div style=""font-size:60px;"">+</div>","null","html-keyboard-response","370","385955","0.0-6.0-0.182","ALGO","1","m","rechts","21","","fixation","","","",""
"884","img/L120_180.png","70","image-keyboard-response","371","386841","0.0-6.0-1.182","ALGO","1","m","rechts","21","","","self","f","120","true"
"null","<div style=""font-size:60px;"">+</div>","null","html-keyboard-response","372","387242","0.0-6.0-0.183","ALGO","1","m","rechts","21","","fixation","","","",""
"905","img/120_150.png","70","image-keyboard-response","373","388149","0.0-6.0-1.183","ALGO","1","m","rechts","21","","","self","f","120","true"
"null","<div style=""font-size:60px;"">+</div>","null","html-keyboard-response","374","388500","0.0-6.0-0.184","ALGO","1","m","rechts","21","","fixation","","","",""
"823","img/120_90.png","70","image-keyboard-response","375","389325","0.0-6.0-1.184","ALGO","1","m","rechts","21","","","self","f","120","true"
"null","<div style=""font-size:60px;"">+</div>","null","html-keyboard-response","376","389626","0.0-6.0-0.185","ALGO","1","m","rechts","21","","fixation","","","",""
"725","img/0_60.png","74","image-keyboard-response","377","390353","0.0-6.0-1.185","ALGO","1","m","rechts","21","","","self","j","0","true"
"null","<div style=""font-size:60px;"">+</div>","null","html-keyboard-response","378","390854","0.0-6.0-0.186","ALGO","1","m","rechts","21","","fixation","","","",""
"909","img/30_270.png","74","image-keyboard-response","379","391764","0.0-6.0-1.186","ALGO","1","m","rechts","21","","","self","f","30","false"
"null","<div style=""font-size:60px;"">+</div>","null","html-keyboard-response","380","392066","0.0-6.0-0.187","ALGO","1","m","rechts","21","","fixation","","","",""
"1157","img/L150_180.png","70","image-keyboard-response","381","393224","0.0-6.0-1.187","ALGO","1","m","rechts","21","","","self","f","150","true"
"null","<div style=""font-size:60px;"">+</div>","null","html-keyboard-response","382","393626","0.0-6.0-0.188","ALGO","1","m","rechts","21","","fixation","","","",""
"1149","img/120_330.png","70","image-keyboard-response","383","394775","0.0-6.0-1.188","ALGO","1","m","rechts","21","","","self","f","120","true"
"null","<div style=""font-size:60px;"">+</div>","null","html-keyboard-response","384","395177","0.0-6.0-0.189","ALGO","1","m","rechts","21","","fixation","","","",""
"993","img/60_330.png","70","image-keyboard-response","385","396171","0.0-6.0-1.189","ALGO","1","m","rechts","21","","","self","f","60","true"
"null","<div style=""font-size:60px;"">+</div>","null","html-keyboard-response","386","396622","0.0-6.0-0.190","ALGO","1","m","rechts","21","","fixation","","","",""
"1721","img/90_180.png","74","image-keyboard-response","387","398343","0.0-6.0-1.190","ALGO","1","m","rechts","21","","","self","j","90","true"
"null","<div style=""font-size:60px;"">+</div>","null","html-keyboard-response","388","398644","0.0-6.0-0.191","ALGO","1","m","rechts","21","","fixation","","","",""
"818","img/0_240.png","70","image-keyboard-response","389","399463","0.0-6.0-1.191","ALGO","1","m","rechts","21","","","self","f","0","true"
"null","<div style=""font-size:60px;"">+</div>","null","html-keyboard-response","390","399765","0.0-6.0-0.192","ALGO","1","m","rechts","21","","fixation","","","",""
"1228","img/120_30.png","74","image-keyboard-response","391","400993","0.0-6.0-1.192","ALGO","1","m","rechts","21","","","self","j","120","true"
"null","<div style=""font-size:60px;"">+</div>","null","html-keyboard-response","392","401495","0.0-6.0-0.193","ALGO","1","m","rechts","21","","fixation","","","",""
"1582","img/L90_180.png","70","image-keyboard-response","393","403078","0.0-6.0-1.193","ALGO","1","m","rechts","21","","","self","f","90","true"
"null","<div style=""font-size:60px;"">+</div>","null","html-keyboard-response","394","403380","0.0-6.0-0.194","ALGO","1","m","rechts","21","","fixation","","","",""
"1342","img/30_60.png","74","image-keyboard-response","395","404722","0.0-6.0-1.194","ALGO","1","m","rechts","21","","","self","j","30","true"
"null","<div style=""font-size:60px;"">+</div>","null","html-keyboard-response","396","405074","0.0-6.0-0.195","ALGO","1","m","rechts","21","","fixation","","","",""
"1144","img/60_150.png","70","image-keyboard-response","397","406219","0.0-6.0-1.195","ALGO","1","m","rechts","21","","","self","f","60","true"
"null","<div style=""font-size:60px;"">+</div>","null","html-keyboard-response","398","406521","0.0-6.0-0.196","ALGO","1","m","rechts","21","","fixation","","","",""
"775","img/0_300.png","70","image-keyboard-response","399","407296","0.0-6.0-1.196","ALGO","1","m","rechts","21","","","self","f","0","true"
"null","<div style=""font-size:60px;"">+</div>","null","html-keyboard-response","400","407698","0.0-6.0-0.197","ALGO","1","m","rechts","21","","fixation","","","",""
"1101","img/120_210.png","74","image-keyboard-response","401","408799","0.0-6.0-1.197","ALGO","1","m","rechts","21","","","self","j","120","true"
"null","<div style=""font-size:60px;"">+</div>","null","html-keyboard-response","402","409151","0.0-6.0-0.198","ALGO","1","m","rechts","21","","fixation","","","",""
"1399","img/60_30.png","74","image-keyboard-response","403","410550","0.0-6.0-1.198","ALGO","1","m","rechts","21","","","self","j","60","true"
"null","<div style=""font-size:60px;"">+</div>","null","html-keyboard-response","404","411002","0.0-6.0-0.199","ALGO","1","m","rechts","21","","fixation","","","",""
"1247","img/150_90.png","70","image-keyboard-response","405","412249","0.0-6.0-1.199","ALGO","1","m","rechts","21","","","self","f","150","true"
"null","<div style=""font-size:60px;"">+</div>","null","html-keyboard-response","406","412551","0.0-6.0-0.200","ALGO","1","m","rechts","21","","fixation","","","",""
"1157","img/30_240.png","70","image-keyboard-response","407","413708","0.0-6.0-1.200","ALGO","1","m","rechts","21","","","self","f","30","true"
"null","<div style=""font-size:60px;"">+</div>","null","html-keyboard-response","408","414059","0.0-6.0-0.201","ALGO","1","m","rechts","21","","fixation","","","",""
"1301","img/90_240.png","74","image-keyboard-response","409","415361","0.0-6.0-1.201","ALGO","1","m","rechts","21","","","self","j","90","true"
"null","<div style=""font-size:60px;"">+</div>","null","html-keyboard-response","410","415863","0.0-6.0-0.202","ALGO","1","m","rechts","21","","fixation","","","",""
"1067","img/30_180.png","74","image-keyboard-response","411","416931","0.0-6.0-1.202","ALGO","1","m","rechts","21","","","self","j","30","true"
"null","<div style=""font-size:60px;"">+</div>","null","html-keyboard-response","412","417433","0.0-6.0-0.203","ALGO","1","m","rechts","21","","fixation","","","",""
"1073","img/0_30.png","74","image-keyboard-response","413","418507","0.0-6.0-1.203","ALGO","1","m","rechts","21","","","self","j","0","true"
"null","<div style=""font-size:60px;"">+</div>","null","html-keyboard-response","414","418859","0.0-6.0-0.204","ALGO","1","m","rechts","21","","fixation","","","",""
"1170","img/L30_180.png","70","image-keyboard-response","415","420029","0.0-6.0-1.204","ALGO","1","m","rechts","21","","","self","f","30","true"
"null","<div style=""font-size:60px;"">+</div>","null","html-keyboard-response","416","420481","0.0-6.0-0.205","ALGO","1","m","rechts","21","","fixation","","","",""
"1245","img/150_270.png","74","image-keyboard-response","417","421726","0.0-6.0-1.205","ALGO","1","m","rechts","21","","","self","j","150","true"
"null","<div style=""font-size:60px;"">+</div>","null","html-keyboard-response","418","422128","0.0-6.0-0.206","ALGO","1","m","rechts","21","","fixation","","","",""
"1123","img/L60_180.png","70","image-keyboard-response","419","423251","0.0-6.0-1.206","ALGO","1","m","rechts","21","","","self","f","60","true"
"null","<div style=""font-size:60px;"">+</div>","null","html-keyboard-response","420","423552","0.0-6.0-0.207","ALGO","1","m","rechts","21","","fixation","","","",""
"1062","img/90_300.png","70","image-keyboard-response","421","424615","0.0-6.0-1.207","ALGO","1","m","rechts","21","","","self","f","90","true"
"10168","<p>Du hast in 90% der Versuche korrekt entschieden.</p><p>Deine durchschnittliche Reaktionszeit war  1191ms.</p><p>Dr&uuml;cke eine beliebige Taste, um die Session zu beenden. Vielen Dank!</p>","74","html-keyboard-response","422","434785","0.0-7.0","ALGO","1","m","rechts","21","","","","","",""
