"rt","stimulus","key_press","trial_type","trial_index","time_elapsed","internal_node_id","subject","session","sex","handedness","age","responses","test_part","condition","correct_response","angle","correct"
"1873","<p>Mental Rotation Experiment.</p> <p>Dr&uuml;cke eine beliebige Taste, um anzufangen.</p>","72","html-keyboard-response","0","1875","0.0-0.0","ALGO","4","m","rechts","21","","","","","",""
"15414","","","survey-text","1","17290","0.0-1.0","ALGO","4","m","rechts","21","{""Q0"":""ALGO""}","","","","",""
"1344","","","survey-text","2","18635","0.0-2.0","ALGO","4","m","rechts","21","{""Q0"":""4""}","","","","",""
"4141","","","survey-multi-choice","3","22777","0.0-3.0","ALGO","4","m","rechts","21","{""Q0"":""m"",""Q1"":""rechts""}","","","","",""
"2321","","","survey-text","4","25099","0.0-4.0","ALGO","4","m","rechts","21","{""Q0"":""21""}","","","","",""
"192011","<p> Stell dir vor, dass du vor einem runden Tisch stehst, auf dem sich ein blauer Ball am Tischrand befindet. Entlang des Tischrands ist jeweils ein verschieden langer Pfeil. Nun bewegst du dich entlang dieses Pfeils bis an seine Spitze. Wenn du am Ende des Pfeils angekommen bist, schau zur Tischmitte. </p> <img src='img/90_180.png'></img> <br> <p>Entscheide dann, ob der Ball von deiner neuen (vorgestellten) Position links oder rechts von dir liegt.</p> <p>Dr&uuml;cke die <strong>'f'</strong>-Taste f&uuml;r links, die <strong>'j'</strong>-Taste f&uuml;r rechts.</p> <br><p> Das Bild wird jeweils 1 Sekunde lang pr&auml;sentiert. Du hast 3 Sekunden Zeit eine Entscheidung zu treffen.</p>","74","html-keyboard-response","5","217110","0.0-5.0","ALGO","4","m","rechts","21","","","","","",""
"null","<div style=""font-size:60px;"">+</div>","null","html-keyboard-response","6","218514","0.0-6.0-0.0","ALGO","4","m","rechts","21","","fixation","","","",""
"1161","img/150_60.png","70","image-keyboard-response","7","219676","0.0-6.0-1.0","ALGO","4","m","rechts","21","","","self","f","150","true"
"null","<div style=""font-size:60px;"">+</div>","null","html-keyboard-response","8","220078","0.0-6.0-0.1","ALGO","4","m","rechts","21","","fixation","","","",""
"701","img/0_60.png","74","image-keyboard-response","9","220780","0.0-6.0-1.1","ALGO","4","m","rechts","21","","","self","j","0","true"
"null","<div style=""font-size:60px;"">+</div>","null","html-keyboard-response","10","221282","0.0-6.0-0.2","ALGO","4","m","rechts","21","","fixation","","","",""
"1018","img/120_30.png","70","image-keyboard-response","11","222301","0.0-6.0-1.2","ALGO","4","m","rechts","21","","","self","j","120","false"
"null","<div style=""font-size:60px;"">+</div>","null","html-keyboard-response","12","222603","0.0-6.0-0.3","ALGO","4","m","rechts","21","","fixation","","","",""
"923","img/150_120.png","70","image-keyboard-response","13","223527","0.0-6.0-1.3","ALGO","4","m","rechts","21","","","self","f","150","true"
"null","<div style=""font-size:60px;"">+</div>","null","html-keyboard-response","14","223979","0.0-6.0-0.4","ALGO","4","m","rechts","21","","fixation","","","",""
"681","img/0_330.png","70","image-keyboard-response","15","224661","0.0-6.0-1.4","ALGO","4","m","rechts","21","","","self","f","0","true"
"null","<div style=""font-size:60px;"">+</div>","null","html-keyboard-response","16","225112","0.0-6.0-0.5","ALGO","4","m","rechts","21","","fixation","","","",""
"692","img/0_120.png","74","image-keyboard-response","17","225805","0.0-6.0-1.5","ALGO","4","m","rechts","21","","","self","j","0","true"
"null","<div style=""font-size:60px;"">+</div>","null","html-keyboard-response","18","226307","0.0-6.0-0.6","ALGO","4","m","rechts","21","","fixation","","","",""
"749","img/150_90.png","70","image-keyboard-response","19","227058","0.0-6.0-1.6","ALGO","4","m","rechts","21","","","self","f","150","true"
"null","<div style=""font-size:60px;"">+</div>","null","html-keyboard-response","20","227359","0.0-6.0-0.7","ALGO","4","m","rechts","21","","fixation","","","",""
"577","img/0_90.png","74","image-keyboard-response","21","227937","0.0-6.0-1.7","ALGO","4","m","rechts","21","","","self","j","0","true"
"null","<div style=""font-size:60px;"">+</div>","null","html-keyboard-response","22","228289","0.0-6.0-0.8","ALGO","4","m","rechts","21","","fixation","","","",""
"762","img/120_90.png","70","image-keyboard-response","23","229051","0.0-6.0-1.8","ALGO","4","m","rechts","21","","","self","f","120","true"
"null","<div style=""font-size:60px;"">+</div>","null","html-keyboard-response","24","229353","0.0-6.0-0.9","ALGO","4","m","rechts","21","","fixation","","","",""
"636","img/0_210.png","70","image-keyboard-response","25","229989","0.0-6.0-1.9","ALGO","4","m","rechts","21","","","self","f","0","true"
"null","<div style=""font-size:60px;"">+</div>","null","html-keyboard-response","26","230290","0.0-6.0-0.10","ALGO","4","m","rechts","21","","fixation","","","",""
"748","img/120_270.png","74","image-keyboard-response","27","231039","0.0-6.0-1.10","ALGO","4","m","rechts","21","","","self","j","120","true"
"null","<div style=""font-size:60px;"">+</div>","null","html-keyboard-response","28","231440","0.0-6.0-0.11","ALGO","4","m","rechts","21","","fixation","","","",""
"709","img/60_150.png","70","image-keyboard-response","29","232151","0.0-6.0-1.11","ALGO","4","m","rechts","21","","","self","f","60","true"
"null","<div style=""font-size:60px;"">+</div>","null","html-keyboard-response","30","232502","0.0-6.0-0.12","ALGO","4","m","rechts","21","","fixation","","","",""
"684","img/30_180.png","74","image-keyboard-response","31","233188","0.0-6.0-1.12","ALGO","4","m","rechts","21","","","self","j","30","true"
"null","<div style=""font-size:60px;"">+</div>","null","html-keyboard-response","32","233589","0.0-6.0-0.13","ALGO","4","m","rechts","21","","fixation","","","",""
"649","img/L30_180.png","70","image-keyboard-response","33","234240","0.0-6.0-1.13","ALGO","4","m","rechts","21","","","self","f","30","true"
"null","<div style=""font-size:60px;"">+</div>","null","html-keyboard-response","34","234541","0.0-6.0-0.14","ALGO","4","m","rechts","21","","fixation","","","",""
"759","img/60_180.png","74","image-keyboard-response","35","235301","0.0-6.0-1.14","ALGO","4","m","rechts","21","","","self","j","60","true"
"null","<div style=""font-size:60px;"">+</div>","null","html-keyboard-response","36","235702","0.0-6.0-0.15","ALGO","4","m","rechts","21","","fixation","","","",""
"833","img/60_30.png","74","image-keyboard-response","37","236537","0.0-6.0-1.15","ALGO","4","m","rechts","21","","","self","j","60","true"
"null","<div style=""font-size:60px;"">+</div>","null","html-keyboard-response","38","236888","0.0-6.0-0.16","ALGO","4","m","rechts","21","","fixation","","","",""
"634","img/0_240.png","70","image-keyboard-response","39","237524","0.0-6.0-1.16","ALGO","4","m","rechts","21","","","self","f","0","true"
"null","<div style=""font-size:60px;"">+</div>","null","html-keyboard-response","40","237875","0.0-6.0-0.17","ALGO","4","m","rechts","21","","fixation","","","",""
"595","img/0_150.png","74","image-keyboard-response","41","238471","0.0-6.0-1.17","ALGO","4","m","rechts","21","","","self","j","0","true"
"null","<div style=""font-size:60px;"">+</div>","null","html-keyboard-response","42","238873","0.0-6.0-0.18","ALGO","4","m","rechts","21","","fixation","","","",""
"803","img/90_210.png","74","image-keyboard-response","43","239678","0.0-6.0-1.18","ALGO","4","m","rechts","21","","","self","j","90","true"
"null","<div style=""font-size:60px;"">+</div>","null","html-keyboard-response","44","240180","0.0-6.0-0.19","ALGO","4","m","rechts","21","","fixation","","","",""
"873","img/90_60.png","74","image-keyboard-response","45","241055","0.0-6.0-1.19","ALGO","4","m","rechts","21","","","self","j","90","true"
"null","<div style=""font-size:60px;"">+</div>","null","html-keyboard-response","46","241356","0.0-6.0-0.20","ALGO","4","m","rechts","21","","fixation","","","",""
"814","img/30_240.png","70","image-keyboard-response","47","242172","0.0-6.0-1.20","ALGO","4","m","rechts","21","","","self","f","30","true"
"null","<div style=""font-size:60px;"">+</div>","null","html-keyboard-response","48","242473","0.0-6.0-0.21","ALGO","4","m","rechts","21","","fixation","","","",""
"843","img/L90_180.png","70","image-keyboard-response","49","243318","0.0-6.0-1.21","ALGO","4","m","rechts","21","","","self","f","90","true"
"null","<div style=""font-size:60px;"">+</div>","null","html-keyboard-response","50","243819","0.0-6.0-0.22","ALGO","4","m","rechts","21","","fixation","","","",""
"788","img/L150_180.png","70","image-keyboard-response","51","244609","0.0-6.0-1.22","ALGO","4","m","rechts","21","","","self","f","150","true"
"null","<div style=""font-size:60px;"">+</div>","null","html-keyboard-response","52","245110","0.0-6.0-0.23","ALGO","4","m","rechts","21","","fixation","","","",""
"847","img/120_330.png","74","image-keyboard-response","53","245958","0.0-6.0-1.23","ALGO","4","m","rechts","21","","","self","f","120","false"
"null","<div style=""font-size:60px;"">+</div>","null","html-keyboard-response","54","246360","0.0-6.0-0.24","ALGO","4","m","rechts","21","","fixation","","","",""
"706","img/L60_180.png","70","image-keyboard-response","55","247068","0.0-6.0-1.24","ALGO","4","m","rechts","21","","","self","f","60","true"
"null","<div style=""font-size:60px;"">+</div>","null","html-keyboard-response","56","247519","0.0-6.0-0.25","ALGO","4","m","rechts","21","","fixation","","","",""
"680","img/120_180.png","74","image-keyboard-response","57","248200","0.0-6.0-1.25","ALGO","4","m","rechts","21","","","self","j","120","true"
"null","<div style=""font-size:60px;"">+</div>","null","html-keyboard-response","58","248502","0.0-6.0-0.26","ALGO","4","m","rechts","21","","fixation","","","",""
"840","img/90_330.png","70","image-keyboard-response","59","249343","0.0-6.0-1.26","ALGO","4","m","rechts","21","","","self","f","90","true"
"null","<div style=""font-size:60px;"">+</div>","null","html-keyboard-response","60","249845","0.0-6.0-0.27","ALGO","4","m","rechts","21","","fixation","","","",""
"737","img/0_300.png","70","image-keyboard-response","61","250584","0.0-6.0-1.27","ALGO","4","m","rechts","21","","","self","f","0","true"
"null","<div style=""font-size:60px;"">+</div>","null","html-keyboard-response","62","250935","0.0-6.0-0.28","ALGO","4","m","rechts","21","","fixation","","","",""
"535","img/0_270.png","70","image-keyboard-response","63","251471","0.0-6.0-1.28","ALGO","4","m","rechts","21","","","self","f","0","true"
"null","<div style=""font-size:60px;"">+</div>","null","html-keyboard-response","64","251773","0.0-6.0-0.29","ALGO","4","m","rechts","21","","fixation","","","",""
"861","img/60_90.png","74","image-keyboard-response","65","252636","0.0-6.0-1.29","ALGO","4","m","rechts","21","","","self","j","60","true"
"null","<div style=""font-size:60px;"">+</div>","null","html-keyboard-response","66","253037","0.0-6.0-0.30","ALGO","4","m","rechts","21","","fixation","","","",""
"754","img/150_270.png","70","image-keyboard-response","67","253792","0.0-6.0-1.30","ALGO","4","m","rechts","21","","","self","j","150","false"
"null","<div style=""font-size:60px;"">+</div>","null","html-keyboard-response","68","254294","0.0-6.0-0.31","ALGO","4","m","rechts","21","","fixation","","","",""
"745","img/120_150.png","70","image-keyboard-response","69","255040","0.0-6.0-1.31","ALGO","4","m","rechts","21","","","self","f","120","true"
"null","<div style=""font-size:60px;"">+</div>","null","html-keyboard-response","70","255542","0.0-6.0-0.32","ALGO","4","m","rechts","21","","fixation","","","",""
"662","img/150_240.png","74","image-keyboard-response","71","256205","0.0-6.0-1.32","ALGO","4","m","rechts","21","","","self","j","150","true"
"null","<div style=""font-size:60px;"">+</div>","null","html-keyboard-response","72","256557","0.0-6.0-0.33","ALGO","4","m","rechts","21","","fixation","","","",""
"779","img/30_300.png","70","image-keyboard-response","73","257337","0.0-6.0-1.33","ALGO","4","m","rechts","21","","","self","f","30","true"
"null","<div style=""font-size:60px;"">+</div>","null","html-keyboard-response","74","257689","0.0-6.0-0.34","ALGO","4","m","rechts","21","","fixation","","","",""
"765","img/150_300.png","74","image-keyboard-response","75","258455","0.0-6.0-1.34","ALGO","4","m","rechts","21","","","self","j","150","true"
"null","<div style=""font-size:60px;"">+</div>","null","html-keyboard-response","76","258957","0.0-6.0-0.35","ALGO","4","m","rechts","21","","fixation","","","",""
"762","img/60_270.png","70","image-keyboard-response","77","259720","0.0-6.0-1.35","ALGO","4","m","rechts","21","","","self","f","60","true"
"null","<div style=""font-size:60px;"">+</div>","null","html-keyboard-response","78","260172","0.0-6.0-0.36","ALGO","4","m","rechts","21","","fixation","","","",""
"622","img/30_270.png","70","image-keyboard-response","79","260795","0.0-6.0-1.36","ALGO","4","m","rechts","21","","","self","f","30","true"
"null","<div style=""font-size:60px;"">+</div>","null","html-keyboard-response","80","261197","0.0-6.0-0.37","ALGO","4","m","rechts","21","","fixation","","","",""
"776","img/150_180.png","74","image-keyboard-response","81","261974","0.0-6.0-1.37","ALGO","4","m","rechts","21","","","self","j","150","true"
"null","<div style=""font-size:60px;"">+</div>","null","html-keyboard-response","82","262276","0.0-6.0-0.38","ALGO","4","m","rechts","21","","fixation","","","",""
"891","img/30_120.png","74","image-keyboard-response","83","263168","0.0-6.0-1.38","ALGO","4","m","rechts","21","","","self","j","30","true"
"null","<div style=""font-size:60px;"">+</div>","null","html-keyboard-response","84","263470","0.0-6.0-0.39","ALGO","4","m","rechts","21","","fixation","","","",""
"803","img/60_330.png","70","image-keyboard-response","85","264274","0.0-6.0-1.39","ALGO","4","m","rechts","21","","","self","f","60","true"
"null","<div style=""font-size:60px;"">+</div>","null","html-keyboard-response","86","264626","0.0-6.0-0.40","ALGO","4","m","rechts","21","","fixation","","","",""
"769","img/30_60.png","74","image-keyboard-response","87","265396","0.0-6.0-1.40","ALGO","4","m","rechts","21","","","self","j","30","true"
"null","<div style=""font-size:60px;"">+</div>","null","html-keyboard-response","88","265898","0.0-6.0-0.41","ALGO","4","m","rechts","21","","fixation","","","",""
"738","img/30_90.png","74","image-keyboard-response","89","266636","0.0-6.0-1.41","ALGO","4","m","rechts","21","","","self","j","30","true"
"null","<div style=""font-size:60px;"">+</div>","null","html-keyboard-response","90","267038","0.0-6.0-0.42","ALGO","4","m","rechts","21","","fixation","","","",""
"959","img/90_30.png","74","image-keyboard-response","91","267998","0.0-6.0-1.42","ALGO","4","m","rechts","21","","","self","j","90","true"
"null","<div style=""font-size:60px;"">+</div>","null","html-keyboard-response","92","268300","0.0-6.0-0.43","ALGO","4","m","rechts","21","","fixation","","","",""
"851","img/120_210.png","74","image-keyboard-response","93","269151","0.0-6.0-1.43","ALGO","4","m","rechts","21","","","self","j","120","true"
"null","<div style=""font-size:60px;"">+</div>","null","html-keyboard-response","94","269503","0.0-6.0-0.44","ALGO","4","m","rechts","21","","fixation","","","",""
"870","img/90_180.png","74","image-keyboard-response","95","270373","0.0-6.0-1.44","ALGO","4","m","rechts","21","","","self","j","90","true"
"null","<div style=""font-size:60px;"">+</div>","null","html-keyboard-response","96","270825","0.0-6.0-0.45","ALGO","4","m","rechts","21","","fixation","","","",""
"677","img/0_30.png","74","image-keyboard-response","97","271502","0.0-6.0-1.45","ALGO","4","m","rechts","21","","","self","j","0","true"
"null","<div style=""font-size:60px;"">+</div>","null","html-keyboard-response","98","272003","0.0-6.0-0.46","ALGO","4","m","rechts","21","","fixation","","","",""
"728","img/L120_180.png","70","image-keyboard-response","99","272732","0.0-6.0-1.46","ALGO","4","m","rechts","21","","","self","f","120","true"
"null","<div style=""font-size:60px;"">+</div>","null","html-keyboard-response","100","273084","0.0-6.0-0.47","ALGO","4","m","rechts","21","","fixation","","","",""
"838","img/90_120.png","70","image-keyboard-response","101","273922","0.0-6.0-1.47","ALGO","4","m","rechts","21","","","self","f","90","true"
"null","<div style=""font-size:60px;"">+</div>","null","html-keyboard-response","102","274374","0.0-6.0-0.48","ALGO","4","m","rechts","21","","fixation","","","",""
"699","img/90_150.png","70","image-keyboard-response","103","275074","0.0-6.0-1.48","ALGO","4","m","rechts","21","","","self","f","90","true"
"null","<div style=""font-size:60px;"">+</div>","null","html-keyboard-response","104","275426","0.0-6.0-0.49","ALGO","4","m","rechts","21","","fixation","","","",""
"754","img/90_300.png","70","image-keyboard-response","105","276181","0.0-6.0-1.49","ALGO","4","m","rechts","21","","","self","f","90","true"
"null","<div style=""font-size:60px;"">+</div>","null","html-keyboard-response","106","276533","0.0-6.0-0.50","ALGO","4","m","rechts","21","","fixation","","","",""
"698","img/60_210.png","74","image-keyboard-response","107","277232","0.0-6.0-1.50","ALGO","4","m","rechts","21","","","self","j","60","true"
"null","<div style=""font-size:60px;"">+</div>","null","html-keyboard-response","108","277633","0.0-6.0-0.51","ALGO","4","m","rechts","21","","fixation","","","",""
"684","img/90_240.png","74","image-keyboard-response","109","278318","0.0-6.0-1.51","ALGO","4","m","rechts","21","","","self","j","90","true"
"null","<div style=""font-size:60px;"">+</div>","null","html-keyboard-response","110","278770","0.0-6.0-0.52","ALGO","4","m","rechts","21","","fixation","","","",""
"752","img/120_180.png","74","image-keyboard-response","111","279523","0.0-6.0-1.52","ALGO","4","m","rechts","21","","","self","j","120","true"
"null","<div style=""font-size:60px;"">+</div>","null","html-keyboard-response","112","280025","0.0-6.0-0.53","ALGO","4","m","rechts","21","","fixation","","","",""
"719","img/120_210.png","74","image-keyboard-response","113","280744","0.0-6.0-1.53","ALGO","4","m","rechts","21","","","self","j","120","true"
"null","<div style=""font-size:60px;"">+</div>","null","html-keyboard-response","114","281245","0.0-6.0-0.54","ALGO","4","m","rechts","21","","fixation","","","",""
"876","img/30_270.png","70","image-keyboard-response","115","282122","0.0-6.0-1.54","ALGO","4","m","rechts","21","","","self","f","30","true"
"null","<div style=""font-size:60px;"">+</div>","null","html-keyboard-response","116","282524","0.0-6.0-0.55","ALGO","4","m","rechts","21","","fixation","","","",""
"733","img/0_330.png","70","image-keyboard-response","117","283257","0.0-6.0-1.55","ALGO","4","m","rechts","21","","","self","f","0","true"
"null","<div style=""font-size:60px;"">+</div>","null","html-keyboard-response","118","283709","0.0-6.0-0.56","ALGO","4","m","rechts","21","","fixation","","","",""
"643","img/0_60.png","74","image-keyboard-response","119","284352","0.0-6.0-1.56","ALGO","4","m","rechts","21","","","self","j","0","true"
"null","<div style=""font-size:60px;"">+</div>","null","html-keyboard-response","120","284653","0.0-6.0-0.57","ALGO","4","m","rechts","21","","fixation","","","",""
"801","img/150_240.png","74","image-keyboard-response","121","285456","0.0-6.0-1.57","ALGO","4","m","rechts","21","","","self","j","150","true"
"null","<div style=""font-size:60px;"">+</div>","null","html-keyboard-response","122","285957","0.0-6.0-0.58","ALGO","4","m","rechts","21","","fixation","","","",""
"696","img/150_120.png","70","image-keyboard-response","123","286655","0.0-6.0-1.58","ALGO","4","m","rechts","21","","","self","f","150","true"
"null","<div style=""font-size:60px;"">+</div>","null","html-keyboard-response","124","287156","0.0-6.0-0.59","ALGO","4","m","rechts","21","","fixation","","","",""
"815","img/30_90.png","70","image-keyboard-response","125","287972","0.0-6.0-1.59","ALGO","4","m","rechts","21","","","self","j","30","false"
"null","<div style=""font-size:60px;"">+</div>","null","html-keyboard-response","126","288323","0.0-6.0-0.60","ALGO","4","m","rechts","21","","fixation","","","",""
"761","img/90_300.png","70","image-keyboard-response","127","289085","0.0-6.0-1.60","ALGO","4","m","rechts","21","","","self","f","90","true"
"null","<div style=""font-size:60px;"">+</div>","null","html-keyboard-response","128","289387","0.0-6.0-0.61","ALGO","4","m","rechts","21","","fixation","","","",""
"882","img/L120_180.png","70","image-keyboard-response","129","290271","0.0-6.0-1.61","ALGO","4","m","rechts","21","","","self","f","120","true"
"null","<div style=""font-size:60px;"">+</div>","null","html-keyboard-response","130","290572","0.0-6.0-0.62","ALGO","4","m","rechts","21","","fixation","","","",""
"842","img/0_300.png","70","image-keyboard-response","131","291416","0.0-6.0-1.62","ALGO","4","m","rechts","21","","","self","f","0","true"
"null","<div style=""font-size:60px;"">+</div>","null","html-keyboard-response","132","291717","0.0-6.0-0.63","ALGO","4","m","rechts","21","","fixation","","","",""
"726","img/150_300.png","74","image-keyboard-response","133","292445","0.0-6.0-1.63","ALGO","4","m","rechts","21","","","self","j","150","true"
"null","<div style=""font-size:60px;"">+</div>","null","html-keyboard-response","134","292846","0.0-6.0-0.64","ALGO","4","m","rechts","21","","fixation","","","",""
"754","img/150_270.png","74","image-keyboard-response","135","293602","0.0-6.0-1.64","ALGO","4","m","rechts","21","","","self","j","150","true"
"null","<div style=""font-size:60px;"">+</div>","null","html-keyboard-response","136","294053","0.0-6.0-0.65","ALGO","4","m","rechts","21","","fixation","","","",""
"693","img/0_240.png","70","image-keyboard-response","137","294748","0.0-6.0-1.65","ALGO","4","m","rechts","21","","","self","f","0","true"
"null","<div style=""font-size:60px;"">+</div>","null","html-keyboard-response","138","295199","0.0-6.0-0.66","ALGO","4","m","rechts","21","","fixation","","","",""
"732","img/L30_180.png","70","image-keyboard-response","139","295932","0.0-6.0-1.66","ALGO","4","m","rechts","21","","","self","f","30","true"
"null","<div style=""font-size:60px;"">+</div>","null","html-keyboard-response","140","296434","0.0-6.0-0.67","ALGO","4","m","rechts","21","","fixation","","","",""
"714","img/30_60.png","74","image-keyboard-response","141","297149","0.0-6.0-1.67","ALGO","4","m","rechts","21","","","self","j","30","true"
"null","<div style=""font-size:60px;"">+</div>","null","html-keyboard-response","142","297551","0.0-6.0-0.68","ALGO","4","m","rechts","21","","fixation","","","",""
"784","img/90_120.png","70","image-keyboard-response","143","298336","0.0-6.0-1.68","ALGO","4","m","rechts","21","","","self","f","90","true"
"null","<div style=""font-size:60px;"">+</div>","null","html-keyboard-response","144","298638","0.0-6.0-0.69","ALGO","4","m","rechts","21","","fixation","","","",""
"913","img/90_30.png","74","image-keyboard-response","145","299552","0.0-6.0-1.69","ALGO","4","m","rechts","21","","","self","j","90","true"
"null","<div style=""font-size:60px;"">+</div>","null","html-keyboard-response","146","299854","0.0-6.0-0.70","ALGO","4","m","rechts","21","","fixation","","","",""
"753","img/60_30.png","74","image-keyboard-response","147","300608","0.0-6.0-1.70","ALGO","4","m","rechts","21","","","self","j","60","true"
"null","<div style=""font-size:60px;"">+</div>","null","html-keyboard-response","148","301010","0.0-6.0-0.71","ALGO","4","m","rechts","21","","fixation","","","",""
"767","img/90_180.png","74","image-keyboard-response","149","301778","0.0-6.0-1.71","ALGO","4","m","rechts","21","","","self","j","90","true"
"null","<div style=""font-size:60px;"">+</div>","null","html-keyboard-response","150","302280","0.0-6.0-0.72","ALGO","4","m","rechts","21","","fixation","","","",""
"633","img/0_90.png","74","image-keyboard-response","151","302914","0.0-6.0-1.72","ALGO","4","m","rechts","21","","","self","j","0","true"
"null","<div style=""font-size:60px;"">+</div>","null","html-keyboard-response","152","303266","0.0-6.0-0.73","ALGO","4","m","rechts","21","","fixation","","","",""
"737","img/120_270.png","74","image-keyboard-response","153","304004","0.0-6.0-1.73","ALGO","4","m","rechts","21","","","self","j","120","true"
"null","<div style=""font-size:60px;"">+</div>","null","html-keyboard-response","154","304506","0.0-6.0-0.74","ALGO","4","m","rechts","21","","fixation","","","",""
"725","img/90_150.png","70","image-keyboard-response","155","305232","0.0-6.0-1.74","ALGO","4","m","rechts","21","","","self","f","90","true"
"null","<div style=""font-size:60px;"">+</div>","null","html-keyboard-response","156","305584","0.0-6.0-0.75","ALGO","4","m","rechts","21","","fixation","","","",""
"681","img/30_180.png","74","image-keyboard-response","157","306266","0.0-6.0-1.75","ALGO","4","m","rechts","21","","","self","j","30","true"
"null","<div style=""font-size:60px;"">+</div>","null","html-keyboard-response","158","306568","0.0-6.0-0.76","ALGO","4","m","rechts","21","","fixation","","","",""
"734","img/L90_180.png","70","image-keyboard-response","159","307303","0.0-6.0-1.76","ALGO","4","m","rechts","21","","","self","f","90","true"
"null","<div style=""font-size:60px;"">+</div>","null","html-keyboard-response","160","307604","0.0-6.0-0.77","ALGO","4","m","rechts","21","","fixation","","","",""
"942","img/90_60.png","74","image-keyboard-response","161","308547","0.0-6.0-1.77","ALGO","4","m","rechts","21","","","self","j","90","true"
"null","<div style=""font-size:60px;"">+</div>","null","html-keyboard-response","162","308999","0.0-6.0-0.78","ALGO","4","m","rechts","21","","fixation","","","",""
"847","img/30_120.png","74","image-keyboard-response","163","309847","0.0-6.0-1.78","ALGO","4","m","rechts","21","","","self","j","30","true"
"null","<div style=""font-size:60px;"">+</div>","null","html-keyboard-response","164","310298","0.0-6.0-0.79","ALGO","4","m","rechts","21","","fixation","","","",""
"819","img/120_330.png","70","image-keyboard-response","165","311117","0.0-6.0-1.79","ALGO","4","m","rechts","21","","","self","f","120","true"
"null","<div style=""font-size:60px;"">+</div>","null","html-keyboard-response","166","311418","0.0-6.0-0.80","ALGO","4","m","rechts","21","","fixation","","","",""
"765","img/60_150.png","70","image-keyboard-response","167","312184","0.0-6.0-1.80","ALGO","4","m","rechts","21","","","self","f","60","true"
"null","<div style=""font-size:60px;"">+</div>","null","html-keyboard-response","168","312486","0.0-6.0-0.81","ALGO","4","m","rechts","21","","fixation","","","",""
"675","img/0_210.png","70","image-keyboard-response","169","313161","0.0-6.0-1.81","ALGO","4","m","rechts","21","","","self","f","0","true"
"null","<div style=""font-size:60px;"">+</div>","null","html-keyboard-response","170","313463","0.0-6.0-0.82","ALGO","4","m","rechts","21","","fixation","","","",""
"734","img/90_240.png","74","image-keyboard-response","171","314197","0.0-6.0-1.82","ALGO","4","m","rechts","21","","","self","j","90","true"
"null","<div style=""font-size:60px;"">+</div>","null","html-keyboard-response","172","314549","0.0-6.0-0.83","ALGO","4","m","rechts","21","","fixation","","","",""
"618","img/0_270.png","70","image-keyboard-response","173","315167","0.0-6.0-1.83","ALGO","4","m","rechts","21","","","self","f","0","true"
"null","<div style=""font-size:60px;"">+</div>","null","html-keyboard-response","174","315618","0.0-6.0-0.84","ALGO","4","m","rechts","21","","fixation","","","",""
"876","img/120_30.png","74","image-keyboard-response","175","316495","0.0-6.0-1.84","ALGO","4","m","rechts","21","","","self","j","120","true"
"null","<div style=""font-size:60px;"">+</div>","null","html-keyboard-response","176","316997","0.0-6.0-0.85","ALGO","4","m","rechts","21","","fixation","","","",""
"673","img/60_90.png","74","image-keyboard-response","177","317670","0.0-6.0-1.85","ALGO","4","m","rechts","21","","","self","j","60","true"
"null","<div style=""font-size:60px;"">+</div>","null","html-keyboard-response","178","318022","0.0-6.0-0.86","ALGO","4","m","rechts","21","","fixation","","","",""
"601","img/30_300.png","70","image-keyboard-response","179","318623","0.0-6.0-1.86","ALGO","4","m","rechts","21","","","self","f","30","true"
"null","<div style=""font-size:60px;"">+</div>","null","html-keyboard-response","180","319075","0.0-6.0-0.87","ALGO","4","m","rechts","21","","fixation","","","",""
"703","img/120_150.png","70","image-keyboard-response","181","319778","0.0-6.0-1.87","ALGO","4","m","rechts","21","","","self","f","120","true"
"null","<div style=""font-size:60px;"">+</div>","null","html-keyboard-response","182","320080","0.0-6.0-0.88","ALGO","4","m","rechts","21","","fixation","","","",""
"726","img/60_210.png","74","image-keyboard-response","183","320806","0.0-6.0-1.88","ALGO","4","m","rechts","21","","","self","j","60","true"
"null","<div style=""font-size:60px;"">+</div>","null","html-keyboard-response","184","321108","0.0-6.0-0.89","ALGO","4","m","rechts","21","","fixation","","","",""
"630","img/90_210.png","74","image-keyboard-response","185","321739","0.0-6.0-1.89","ALGO","4","m","rechts","21","","","self","j","90","true"
"null","<div style=""font-size:60px;"">+</div>","null","html-keyboard-response","186","322090","0.0-6.0-0.90","ALGO","4","m","rechts","21","","fixation","","","",""
"680","img/L150_180.png","70","image-keyboard-response","187","322770","0.0-6.0-1.90","ALGO","4","m","rechts","21","","","self","f","150","true"
"null","<div style=""font-size:60px;"">+</div>","null","html-keyboard-response","188","323071","0.0-6.0-0.91","ALGO","4","m","rechts","21","","fixation","","","",""
"638","img/0_120.png","74","image-keyboard-response","189","323710","0.0-6.0-1.91","ALGO","4","m","rechts","21","","","self","j","0","true"
"null","<div style=""font-size:60px;"">+</div>","null","html-keyboard-response","190","324212","0.0-6.0-0.92","ALGO","4","m","rechts","21","","fixation","","","",""
"718","img/60_180.png","74","image-keyboard-response","191","324930","0.0-6.0-1.92","ALGO","4","m","rechts","21","","","self","j","60","true"
"null","<div style=""font-size:60px;"">+</div>","null","html-keyboard-response","192","325332","0.0-6.0-0.93","ALGO","4","m","rechts","21","","fixation","","","",""
"622","img/150_90.png","74","image-keyboard-response","193","325954","0.0-6.0-1.93","ALGO","4","m","rechts","21","","","self","f","150","false"
"null","<div style=""font-size:60px;"">+</div>","null","html-keyboard-response","194","326456","0.0-6.0-0.94","ALGO","4","m","rechts","21","","fixation","","","",""
"658","img/60_270.png","70","image-keyboard-response","195","327114","0.0-6.0-1.94","ALGO","4","m","rechts","21","","","self","f","60","true"
"null","<div style=""font-size:60px;"">+</div>","null","html-keyboard-response","196","327466","0.0-6.0-0.95","ALGO","4","m","rechts","21","","fixation","","","",""
"645","img/L60_180.png","70","image-keyboard-response","197","328111","0.0-6.0-1.95","ALGO","4","m","rechts","21","","","self","f","60","true"
"null","<div style=""font-size:60px;"">+</div>","null","html-keyboard-response","198","328512","0.0-6.0-0.96","ALGO","4","m","rechts","21","","fixation","","","",""
"778","img/30_240.png","70","image-keyboard-response","199","329292","0.0-6.0-1.96","ALGO","4","m","rechts","21","","","self","f","30","true"
"null","<div style=""font-size:60px;"">+</div>","null","html-keyboard-response","200","329643","0.0-6.0-0.97","ALGO","4","m","rechts","21","","fixation","","","",""
"661","img/90_330.png","74","image-keyboard-response","201","330306","0.0-6.0-1.97","ALGO","4","m","rechts","21","","","self","f","90","false"
"null","<div style=""font-size:60px;"">+</div>","null","html-keyboard-response","202","330607","0.0-6.0-0.98","ALGO","4","m","rechts","21","","fixation","","","",""
"817","img/150_60.png","70","image-keyboard-response","203","331424","0.0-6.0-1.98","ALGO","4","m","rechts","21","","","self","f","150","true"
"null","<div style=""font-size:60px;"">+</div>","null","html-keyboard-response","204","331825","0.0-6.0-0.99","ALGO","4","m","rechts","21","","fixation","","","",""
"895","img/150_180.png","74","image-keyboard-response","205","332721","0.0-6.0-1.99","ALGO","4","m","rechts","21","","","self","j","150","true"
"null","<div style=""font-size:60px;"">+</div>","null","html-keyboard-response","206","333122","0.0-6.0-0.100","ALGO","4","m","rechts","21","","fixation","","","",""
"874","img/0_30.png","74","image-keyboard-response","207","333997","0.0-6.0-1.100","ALGO","4","m","rechts","21","","","self","j","0","true"
"null","<div style=""font-size:60px;"">+</div>","null","html-keyboard-response","208","334298","0.0-6.0-0.101","ALGO","4","m","rechts","21","","fixation","","","",""
"875","img/120_90.png","70","image-keyboard-response","209","335175","0.0-6.0-1.101","ALGO","4","m","rechts","21","","","self","f","120","true"
"null","<div style=""font-size:60px;"">+</div>","null","html-keyboard-response","210","335626","0.0-6.0-0.102","ALGO","4","m","rechts","21","","fixation","","","",""
"663","img/60_330.png","70","image-keyboard-response","211","336291","0.0-6.0-1.102","ALGO","4","m","rechts","21","","","self","f","60","true"
"null","<div style=""font-size:60px;"">+</div>","null","html-keyboard-response","212","336592","0.0-6.0-0.103","ALGO","4","m","rechts","21","","fixation","","","",""
"675","img/0_150.png","74","image-keyboard-response","213","337269","0.0-6.0-1.103","ALGO","4","m","rechts","21","","","self","j","0","true"
"null","<div style=""font-size:60px;"">+</div>","null","html-keyboard-response","214","337770","0.0-6.0-0.104","ALGO","4","m","rechts","21","","fixation","","","",""
"696","img/150_300.png","74","image-keyboard-response","215","338468","0.0-6.0-1.104","ALGO","4","m","rechts","21","","","self","j","150","true"
"null","<div style=""font-size:60px;"">+</div>","null","html-keyboard-response","216","338969","0.0-6.0-0.105","ALGO","4","m","rechts","21","","fixation","","","",""
"552","img/90_60.png","70","image-keyboard-response","217","339522","0.0-6.0-1.105","ALGO","4","m","rechts","21","","","self","j","90","false"
"null","<div style=""font-size:60px;"">+</div>","null","html-keyboard-response","218","339973","0.0-6.0-0.106","ALGO","4","m","rechts","21","","fixation","","","",""
"1078","img/120_30.png","74","image-keyboard-response","219","341052","0.0-6.0-1.106","ALGO","4","m","rechts","21","","","self","j","120","true"
"null","<div style=""font-size:60px;"">+</div>","null","html-keyboard-response","220","341453","0.0-6.0-0.107","ALGO","4","m","rechts","21","","fixation","","","",""
"698","img/60_180.png","74","image-keyboard-response","221","342152","0.0-6.0-1.107","ALGO","4","m","rechts","21","","","self","j","60","true"
"null","<div style=""font-size:60px;"">+</div>","null","html-keyboard-response","222","342554","0.0-6.0-0.108","ALGO","4","m","rechts","21","","fixation","","","",""
"654","img/60_270.png","70","image-keyboard-response","223","343210","0.0-6.0-1.108","ALGO","4","m","rechts","21","","","self","f","60","true"
"null","<div style=""font-size:60px;"">+</div>","null","html-keyboard-response","224","343561","0.0-6.0-0.109","ALGO","4","m","rechts","21","","fixation","","","",""
"718","img/150_120.png","70","image-keyboard-response","225","344281","0.0-6.0-1.109","ALGO","4","m","rechts","21","","","self","f","150","true"
"null","<div style=""font-size:60px;"">+</div>","null","html-keyboard-response","226","344582","0.0-6.0-0.110","ALGO","4","m","rechts","21","","fixation","","","",""
"806","img/120_330.png","74","image-keyboard-response","227","345390","0.0-6.0-1.110","ALGO","4","m","rechts","21","","","self","f","120","false"
"null","<div style=""font-size:60px;"">+</div>","null","html-keyboard-response","228","345691","0.0-6.0-0.111","ALGO","4","m","rechts","21","","fixation","","","",""
"750","img/150_240.png","74","image-keyboard-response","229","346442","0.0-6.0-1.111","ALGO","4","m","rechts","21","","","self","j","150","true"
"null","<div style=""font-size:60px;"">+</div>","null","html-keyboard-response","230","346944","0.0-6.0-0.112","ALGO","4","m","rechts","21","","fixation","","","",""
"699","img/120_90.png","70","image-keyboard-response","231","347644","0.0-6.0-1.112","ALGO","4","m","rechts","21","","","self","f","120","true"
"null","<div style=""font-size:60px;"">+</div>","null","html-keyboard-response","232","347995","0.0-6.0-0.113","ALGO","4","m","rechts","21","","fixation","","","",""
"634","img/60_210.png","74","image-keyboard-response","233","348631","0.0-6.0-1.113","ALGO","4","m","rechts","21","","","self","j","60","true"
"null","<div style=""font-size:60px;"">+</div>","null","html-keyboard-response","234","349132","0.0-6.0-0.114","ALGO","4","m","rechts","21","","fixation","","","",""
"737","img/90_150.png","70","image-keyboard-response","235","349870","0.0-6.0-1.114","ALGO","4","m","rechts","21","","","self","f","90","true"
"null","<div style=""font-size:60px;"">+</div>","null","html-keyboard-response","236","350322","0.0-6.0-0.115","ALGO","4","m","rechts","21","","fixation","","","",""
"688","img/90_180.png","74","image-keyboard-response","237","351011","0.0-6.0-1.115","ALGO","4","m","rechts","21","","","self","j","90","true"
"null","<div style=""font-size:60px;"">+</div>","null","html-keyboard-response","238","351513","0.0-6.0-0.116","ALGO","4","m","rechts","21","","fixation","","","",""
"675","img/150_90.png","70","image-keyboard-response","239","352189","0.0-6.0-1.116","ALGO","4","m","rechts","21","","","self","f","150","true"
"null","<div style=""font-size:60px;"">+</div>","null","html-keyboard-response","240","352641","0.0-6.0-0.117","ALGO","4","m","rechts","21","","fixation","","","",""
"859","img/90_330.png","70","image-keyboard-response","241","353500","0.0-6.0-1.117","ALGO","4","m","rechts","21","","","self","f","90","true"
"null","<div style=""font-size:60px;"">+</div>","null","html-keyboard-response","242","353802","0.0-6.0-0.118","ALGO","4","m","rechts","21","","fixation","","","",""
"679","img/L120_180.png","70","image-keyboard-response","243","354482","0.0-6.0-1.118","ALGO","4","m","rechts","21","","","self","f","120","true"
"null","<div style=""font-size:60px;"">+</div>","null","html-keyboard-response","244","354834","0.0-6.0-0.119","ALGO","4","m","rechts","21","","fixation","","","",""
"707","img/150_270.png","74","image-keyboard-response","245","355542","0.0-6.0-1.119","ALGO","4","m","rechts","21","","","self","j","150","true"
"null","<div style=""font-size:60px;"">+</div>","null","html-keyboard-response","246","355944","0.0-6.0-0.120","ALGO","4","m","rechts","21","","fixation","","","",""
"624","img/0_60.png","74","image-keyboard-response","247","356569","0.0-6.0-1.120","ALGO","4","m","rechts","21","","","self","j","0","true"
"null","<div style=""font-size:60px;"">+</div>","null","html-keyboard-response","248","356871","0.0-6.0-0.121","ALGO","4","m","rechts","21","","fixation","","","",""
"598","img/0_120.png","74","image-keyboard-response","249","357470","0.0-6.0-1.121","ALGO","4","m","rechts","21","","","self","j","0","true"
"null","<div style=""font-size:60px;"">+</div>","null","html-keyboard-response","250","357822","0.0-6.0-0.122","ALGO","4","m","rechts","21","","fixation","","","",""
"625","img/90_300.png","70","image-keyboard-response","251","358447","0.0-6.0-1.122","ALGO","4","m","rechts","21","","","self","f","90","true"
"null","<div style=""font-size:60px;"">+</div>","null","html-keyboard-response","252","358899","0.0-6.0-0.123","ALGO","4","m","rechts","21","","fixation","","","",""
"729","img/L90_180.png","70","image-keyboard-response","253","359628","0.0-6.0-1.123","ALGO","4","m","rechts","21","","","self","f","90","true"
"null","<div style=""font-size:60px;"">+</div>","null","html-keyboard-response","254","359930","0.0-6.0-0.124","ALGO","4","m","rechts","21","","fixation","","","",""
"671","img/60_150.png","70","image-keyboard-response","255","360601","0.0-6.0-1.124","ALGO","4","m","rechts","21","","","self","f","60","true"
"null","<div style=""font-size:60px;"">+</div>","null","html-keyboard-response","256","360953","0.0-6.0-0.125","ALGO","4","m","rechts","21","","fixation","","","",""
"1200","img/0_330.png","70","image-keyboard-response","257","362153","0.0-6.0-1.125","ALGO","4","m","rechts","21","","","self","f","0","true"
"null","<div style=""font-size:60px;"">+</div>","null","html-keyboard-response","258","362504","0.0-6.0-0.126","ALGO","4","m","rechts","21","","fixation","","","",""
"538","img/0_270.png","70","image-keyboard-response","259","363043","0.0-6.0-1.126","ALGO","4","m","rechts","21","","","self","f","0","true"
"null","<div style=""font-size:60px;"">+</div>","null","html-keyboard-response","260","363395","0.0-6.0-0.127","ALGO","4","m","rechts","21","","fixation","","","",""
"709","img/L30_180.png","70","image-keyboard-response","261","364104","0.0-6.0-1.127","ALGO","4","m","rechts","21","","","self","f","30","true"
"null","<div style=""font-size:60px;"">+</div>","null","html-keyboard-response","262","364406","0.0-6.0-0.128","ALGO","4","m","rechts","21","","fixation","","","",""
"725","img/120_150.png","70","image-keyboard-response","263","365131","0.0-6.0-1.128","ALGO","4","m","rechts","21","","","self","f","120","true"
"null","<div style=""font-size:60px;"">+</div>","null","html-keyboard-response","264","365633","0.0-6.0-0.129","ALGO","4","m","rechts","21","","fixation","","","",""
"540","img/0_300.png","70","image-keyboard-response","265","366173","0.0-6.0-1.129","ALGO","4","m","rechts","21","","","self","f","0","true"
"null","<div style=""font-size:60px;"">+</div>","null","html-keyboard-response","266","366525","0.0-6.0-0.130","ALGO","4","m","rechts","21","","fixation","","","",""
"529","img/0_240.png","70","image-keyboard-response","267","367054","0.0-6.0-1.130","ALGO","4","m","rechts","21","","","self","f","0","true"
"null","<div style=""font-size:60px;"">+</div>","null","html-keyboard-response","268","367356","0.0-6.0-0.131","ALGO","4","m","rechts","21","","fixation","","","",""
"496","img/0_150.png","74","image-keyboard-response","269","367852","0.0-6.0-1.131","ALGO","4","m","rechts","21","","","self","j","0","true"
"null","<div style=""font-size:60px;"">+</div>","null","html-keyboard-response","270","368354","0.0-6.0-0.132","ALGO","4","m","rechts","21","","fixation","","","",""
"584","img/30_270.png","70","image-keyboard-response","271","368939","0.0-6.0-1.132","ALGO","4","m","rechts","21","","","self","f","30","true"
"null","<div style=""font-size:60px;"">+</div>","null","html-keyboard-response","272","369340","0.0-6.0-0.133","ALGO","4","m","rechts","21","","fixation","","","",""
"698","img/90_120.png","70","image-keyboard-response","273","370039","0.0-6.0-1.133","ALGO","4","m","rechts","21","","","self","f","90","true"
"null","<div style=""font-size:60px;"">+</div>","null","html-keyboard-response","274","370391","0.0-6.0-0.134","ALGO","4","m","rechts","21","","fixation","","","",""
"654","img/30_180.png","74","image-keyboard-response","275","371045","0.0-6.0-1.134","ALGO","4","m","rechts","21","","","self","j","30","true"
"null","<div style=""font-size:60px;"">+</div>","null","html-keyboard-response","276","371547","0.0-6.0-0.135","ALGO","4","m","rechts","21","","fixation","","","",""
"670","img/0_210.png","70","image-keyboard-response","277","372218","0.0-6.0-1.135","ALGO","4","m","rechts","21","","","self","f","0","true"
"null","<div style=""font-size:60px;"">+</div>","null","html-keyboard-response","278","372569","0.0-6.0-0.136","ALGO","4","m","rechts","21","","fixation","","","",""
"815","img/30_90.png","74","image-keyboard-response","279","373385","0.0-6.0-1.136","ALGO","4","m","rechts","21","","","self","j","30","true"
"null","<div style=""font-size:60px;"">+</div>","null","html-keyboard-response","280","373887","0.0-6.0-0.137","ALGO","4","m","rechts","21","","fixation","","","",""
"626","img/90_240.png","70","image-keyboard-response","281","374513","0.0-6.0-1.137","ALGO","4","m","rechts","21","","","self","j","90","false"
"null","<div style=""font-size:60px;"">+</div>","null","html-keyboard-response","282","374914","0.0-6.0-0.138","ALGO","4","m","rechts","21","","fixation","","","",""
"771","img/30_60.png","74","image-keyboard-response","283","375686","0.0-6.0-1.138","ALGO","4","m","rechts","21","","","self","j","30","true"
"null","<div style=""font-size:60px;"">+</div>","null","html-keyboard-response","284","376138","0.0-6.0-0.139","ALGO","4","m","rechts","21","","fixation","","","",""
"900","img/90_30.png","74","image-keyboard-response","285","377038","0.0-6.0-1.139","ALGO","4","m","rechts","21","","","self","j","90","true"
"null","<div style=""font-size:60px;"">+</div>","null","html-keyboard-response","286","377439","0.0-6.0-0.140","ALGO","4","m","rechts","21","","fixation","","","",""
"596","img/30_300.png","70","image-keyboard-response","287","378035","0.0-6.0-1.140","ALGO","4","m","rechts","21","","","self","f","30","true"
"null","<div style=""font-size:60px;"">+</div>","null","html-keyboard-response","288","378336","0.0-6.0-0.141","ALGO","4","m","rechts","21","","fixation","","","",""
"580","img/60_330.png","74","image-keyboard-response","289","378917","0.0-6.0-1.141","ALGO","4","m","rechts","21","","","self","f","60","false"
"null","<div style=""font-size:60px;"">+</div>","null","html-keyboard-response","290","379419","0.0-6.0-0.142","ALGO","4","m","rechts","21","","fixation","","","",""
"808","img/150_60.png","70","image-keyboard-response","291","380228","0.0-6.0-1.142","ALGO","4","m","rechts","21","","","self","f","150","true"
"null","<div style=""font-size:60px;"">+</div>","null","html-keyboard-response","292","380679","0.0-6.0-0.143","ALGO","4","m","rechts","21","","fixation","","","",""
"717","img/30_240.png","70","image-keyboard-response","293","381397","0.0-6.0-1.143","ALGO","4","m","rechts","21","","","self","f","30","true"
"null","<div style=""font-size:60px;"">+</div>","null","html-keyboard-response","294","381749","0.0-6.0-0.144","ALGO","4","m","rechts","21","","fixation","","","",""
"836","img/L60_180.png","70","image-keyboard-response","295","382585","0.0-6.0-1.144","ALGO","4","m","rechts","21","","","self","f","60","true"
"null","<div style=""font-size:60px;"">+</div>","null","html-keyboard-response","296","382886","0.0-6.0-0.145","ALGO","4","m","rechts","21","","fixation","","","",""
"804","img/120_270.png","74","image-keyboard-response","297","383690","0.0-6.0-1.145","ALGO","4","m","rechts","21","","","self","j","120","true"
"null","<div style=""font-size:60px;"">+</div>","null","html-keyboard-response","298","384141","0.0-6.0-0.146","ALGO","4","m","rechts","21","","fixation","","","",""
"644","img/120_180.png","70","image-keyboard-response","299","384787","0.0-6.0-1.146","ALGO","4","m","rechts","21","","","self","j","120","false"
"null","<div style=""font-size:60px;"">+</div>","null","html-keyboard-response","300","385288","0.0-6.0-0.147","ALGO","4","m","rechts","21","","fixation","","","",""
"626","img/0_30.png","74","image-keyboard-response","301","385916","0.0-6.0-1.147","ALGO","4","m","rechts","21","","","self","j","0","true"
"null","<div style=""font-size:60px;"">+</div>","null","html-keyboard-response","302","386417","0.0-6.0-0.148","ALGO","4","m","rechts","21","","fixation","","","",""
"671","img/120_210.png","74","image-keyboard-response","303","387090","0.0-6.0-1.148","ALGO","4","m","rechts","21","","","self","j","120","true"
"null","<div style=""font-size:60px;"">+</div>","null","html-keyboard-response","304","387390","0.0-6.0-0.149","ALGO","4","m","rechts","21","","fixation","","","",""
"678","img/L150_180.png","70","image-keyboard-response","305","388070","0.0-6.0-1.149","ALGO","4","m","rechts","21","","","self","f","150","true"
"null","<div style=""font-size:60px;"">+</div>","null","html-keyboard-response","306","388421","0.0-6.0-0.150","ALGO","4","m","rechts","21","","fixation","","","",""
"1085","img/60_30.png","74","image-keyboard-response","307","389507","0.0-6.0-1.150","ALGO","4","m","rechts","21","","","self","j","60","true"
"null","<div style=""font-size:60px;"">+</div>","null","html-keyboard-response","308","389959","0.0-6.0-0.151","ALGO","4","m","rechts","21","","fixation","","","",""
"749","img/150_180.png","74","image-keyboard-response","309","390709","0.0-6.0-1.151","ALGO","4","m","rechts","21","","","self","j","150","true"
"null","<div style=""font-size:60px;"">+</div>","null","html-keyboard-response","310","391061","0.0-6.0-0.152","ALGO","4","m","rechts","21","","fixation","","","",""
"771","img/90_210.png","74","image-keyboard-response","311","391834","0.0-6.0-1.152","ALGO","4","m","rechts","21","","","self","j","90","true"
"null","<div style=""font-size:60px;"">+</div>","null","html-keyboard-response","312","392235","0.0-6.0-0.153","ALGO","4","m","rechts","21","","fixation","","","",""
"882","img/60_90.png","74","image-keyboard-response","313","393119","0.0-6.0-1.153","ALGO","4","m","rechts","21","","","self","j","60","true"
"null","<div style=""font-size:60px;"">+</div>","null","html-keyboard-response","314","393520","0.0-6.0-0.154","ALGO","4","m","rechts","21","","fixation","","","",""
"875","img/30_120.png","74","image-keyboard-response","315","394396","0.0-6.0-1.154","ALGO","4","m","rechts","21","","","self","j","30","true"
"null","<div style=""font-size:60px;"">+</div>","null","html-keyboard-response","316","394748","0.0-6.0-0.155","ALGO","4","m","rechts","21","","fixation","","","",""
"785","img/0_90.png","74","image-keyboard-response","317","395534","0.0-6.0-1.155","ALGO","4","m","rechts","21","","","self","j","0","true"
"null","<div style=""font-size:60px;"">+</div>","null","html-keyboard-response","318","395886","0.0-6.0-0.156","ALGO","4","m","rechts","21","","fixation","","","",""
"607","img/60_210.png","70","image-keyboard-response","319","396495","0.0-6.0-1.156","ALGO","4","m","rechts","21","","","self","j","60","false"
"null","<div style=""font-size:60px;"">+</div>","null","html-keyboard-response","320","396896","0.0-6.0-0.157","ALGO","4","m","rechts","21","","fixation","","","",""
"803","img/150_180.png","74","image-keyboard-response","321","397701","0.0-6.0-1.157","ALGO","4","m","rechts","21","","","self","j","150","true"
"null","<div style=""font-size:60px;"">+</div>","null","html-keyboard-response","322","398052","0.0-6.0-0.158","ALGO","4","m","rechts","21","","fixation","","","",""
"666","img/60_270.png","70","image-keyboard-response","323","398719","0.0-6.0-1.158","ALGO","4","m","rechts","21","","","self","f","60","true"
"null","<div style=""font-size:60px;"">+</div>","null","html-keyboard-response","324","399121","0.0-6.0-0.159","ALGO","4","m","rechts","21","","fixation","","","",""
"740","img/120_270.png","74","image-keyboard-response","325","399862","0.0-6.0-1.159","ALGO","4","m","rechts","21","","","self","j","120","true"
"null","<div style=""font-size:60px;"">+</div>","null","html-keyboard-response","326","400364","0.0-6.0-0.160","ALGO","4","m","rechts","21","","fixation","","","",""
"741","img/0_240.png","70","image-keyboard-response","327","401105","0.0-6.0-1.160","ALGO","4","m","rechts","21","","","self","f","0","true"
"null","<div style=""font-size:60px;"">+</div>","null","html-keyboard-response","328","401607","0.0-6.0-0.161","ALGO","4","m","rechts","21","","fixation","","","",""
"686","img/0_150.png","74","image-keyboard-response","329","402294","0.0-6.0-1.161","ALGO","4","m","rechts","21","","","self","j","0","true"
"null","<div style=""font-size:60px;"">+</div>","null","html-keyboard-response","330","402746","0.0-6.0-0.162","ALGO","4","m","rechts","21","","fixation","","","",""
"1065","img/90_60.png","74","image-keyboard-response","331","403812","0.0-6.0-1.162","ALGO","4","m","rechts","21","","","self","j","90","true"
"null","<div style=""font-size:60px;"">+</div>","null","html-keyboard-response","332","404164","0.0-6.0-0.163","ALGO","4","m","rechts","21","","fixation","","","",""
"984","img/150_120.png","70","image-keyboard-response","333","405149","0.0-6.0-1.163","ALGO","4","m","rechts","21","","","self","f","150","true"
"null","<div style=""font-size:60px;"">+</div>","null","html-keyboard-response","334","405651","0.0-6.0-0.164","ALGO","4","m","rechts","21","","fixation","","","",""
"835","img/90_120.png","70","image-keyboard-response","335","406487","0.0-6.0-1.164","ALGO","4","m","rechts","21","","","self","f","90","true"
"null","<div style=""font-size:60px;"">+</div>","null","html-keyboard-response","336","406789","0.0-6.0-0.165","ALGO","4","m","rechts","21","","fixation","","","",""
"620","img/0_90.png","74","image-keyboard-response","337","407409","0.0-6.0-1.165","ALGO","4","m","rechts","21","","","self","j","0","true"
"null","<div style=""font-size:60px;"">+</div>","null","html-keyboard-response","338","407861","0.0-6.0-0.166","ALGO","4","m","rechts","21","","fixation","","","",""
"751","img/150_270.png","74","image-keyboard-response","339","408613","0.0-6.0-1.166","ALGO","4","m","rechts","21","","","self","j","150","true"
"null","<div style=""font-size:60px;"">+</div>","null","html-keyboard-response","340","409115","0.0-6.0-0.167","ALGO","4","m","rechts","21","","fixation","","","",""
"558","img/0_270.png","70","image-keyboard-response","341","409674","0.0-6.0-1.167","ALGO","4","m","rechts","21","","","self","f","0","true"
"null","<div style=""font-size:60px;"">+</div>","null","html-keyboard-response","342","410126","0.0-6.0-0.168","ALGO","4","m","rechts","21","","fixation","","","",""
"606","img/60_90.png","74","image-keyboard-response","343","410733","0.0-6.0-1.168","ALGO","4","m","rechts","21","","","self","j","60","true"
"null","<div style=""font-size:60px;"">+</div>","null","html-keyboard-response","344","411235","0.0-6.0-0.169","ALGO","4","m","rechts","21","","fixation","","","",""
"554","img/0_210.png","70","image-keyboard-response","345","411790","0.0-6.0-1.169","ALGO","4","m","rechts","21","","","self","f","0","true"
"null","<div style=""font-size:60px;"">+</div>","null","html-keyboard-response","346","412242","0.0-6.0-0.170","ALGO","4","m","rechts","21","","fixation","","","",""
"545","img/150_240.png","74","image-keyboard-response","347","412787","0.0-6.0-1.170","ALGO","4","m","rechts","21","","","self","j","150","true"
"null","<div style=""font-size:60px;"">+</div>","null","html-keyboard-response","348","413239","0.0-6.0-0.171","ALGO","4","m","rechts","21","","fixation","","","",""
"793","img/30_240.png","74","image-keyboard-response","349","414032","0.0-6.0-1.171","ALGO","4","m","rechts","21","","","self","f","30","false"
"null","<div style=""font-size:60px;"">+</div>","null","html-keyboard-response","350","414383","0.0-6.0-0.172","ALGO","4","m","rechts","21","","fixation","","","",""
"660","img/0_60.png","74","image-keyboard-response","351","415044","0.0-6.0-1.172","ALGO","4","m","rechts","21","","","self","j","0","true"
"null","<div style=""font-size:60px;"">+</div>","null","html-keyboard-response","352","415345","0.0-6.0-0.173","ALGO","4","m","rechts","21","","fixation","","","",""
"782","img/150_60.png","70","image-keyboard-response","353","416128","0.0-6.0-1.173","ALGO","4","m","rechts","21","","","self","f","150","true"
"null","<div style=""font-size:60px;"">+</div>","null","html-keyboard-response","354","416429","0.0-6.0-0.174","ALGO","4","m","rechts","21","","fixation","","","",""
"894","img/120_150.png","70","image-keyboard-response","355","417323","0.0-6.0-1.174","ALGO","4","m","rechts","21","","","self","f","120","true"
"null","<div style=""font-size:60px;"">+</div>","null","html-keyboard-response","356","417825","0.0-6.0-0.175","ALGO","4","m","rechts","21","","fixation","","","",""
"749","img/30_300.png","74","image-keyboard-response","357","418574","0.0-6.0-1.175","ALGO","4","m","rechts","21","","","self","f","30","false"
"null","<div style=""font-size:60px;"">+</div>","null","html-keyboard-response","358","418976","0.0-6.0-0.176","ALGO","4","m","rechts","21","","fixation","","","",""
"578","img/L90_180.png","70","image-keyboard-response","359","419554","0.0-6.0-1.176","ALGO","4","m","rechts","21","","","self","f","90","true"
"null","<div style=""font-size:60px;"">+</div>","null","html-keyboard-response","360","419956","0.0-6.0-0.177","ALGO","4","m","rechts","21","","fixation","","","",""
"596","img/0_330.png","70","image-keyboard-response","361","420552","0.0-6.0-1.177","ALGO","4","m","rechts","21","","","self","f","0","true"
"null","<div style=""font-size:60px;"">+</div>","null","html-keyboard-response","362","420954","0.0-6.0-0.178","ALGO","4","m","rechts","21","","fixation","","","",""
"617","img/60_330.png","70","image-keyboard-response","363","421571","0.0-6.0-1.178","ALGO","4","m","rechts","21","","","self","f","60","true"
"null","<div style=""font-size:60px;"">+</div>","null","html-keyboard-response","364","421923","0.0-6.0-0.179","ALGO","4","m","rechts","21","","fixation","","","",""
"727","img/90_240.png","74","image-keyboard-response","365","422650","0.0-6.0-1.179","ALGO","4","m","rechts","21","","","self","j","90","true"
"null","<div style=""font-size:60px;"">+</div>","null","html-keyboard-response","366","423002","0.0-6.0-0.180","ALGO","4","m","rechts","21","","fixation","","","",""
"629","img/0_120.png","74","image-keyboard-response","367","423631","0.0-6.0-1.180","ALGO","4","m","rechts","21","","","self","j","0","true"
"null","<div style=""font-size:60px;"">+</div>","null","html-keyboard-response","368","424033","0.0-6.0-0.181","ALGO","4","m","rechts","21","","fixation","","","",""
"768","img/150_300.png","74","image-keyboard-response","369","424801","0.0-6.0-1.181","ALGO","4","m","rechts","21","","","self","j","150","true"
"null","<div style=""font-size:60px;"">+</div>","null","html-keyboard-response","370","425202","0.0-6.0-0.182","ALGO","4","m","rechts","21","","fixation","","","",""
"741","img/30_120.png","70","image-keyboard-response","371","425944","0.0-6.0-1.182","ALGO","4","m","rechts","21","","","self","j","30","false"
"null","<div style=""font-size:60px;"">+</div>","null","html-keyboard-response","372","426346","0.0-6.0-0.183","ALGO","4","m","rechts","21","","fixation","","","",""
"1073","img/90_30.png","74","image-keyboard-response","373","427419","0.0-6.0-1.183","ALGO","4","m","rechts","21","","","self","j","90","true"
"null","<div style=""font-size:60px;"">+</div>","null","html-keyboard-response","374","427771","0.0-6.0-0.184","ALGO","4","m","rechts","21","","fixation","","","",""
"534","img/0_30.png","74","image-keyboard-response","375","428306","0.0-6.0-1.184","ALGO","4","m","rechts","21","","","self","j","0","true"
"null","<div style=""font-size:60px;"">+</div>","null","html-keyboard-response","376","428606","0.0-6.0-0.185","ALGO","4","m","rechts","21","","fixation","","","",""
"711","img/120_210.png","74","image-keyboard-response","377","429318","0.0-6.0-1.185","ALGO","4","m","rechts","21","","","self","j","120","true"
"null","<div style=""font-size:60px;"">+</div>","null","html-keyboard-response","378","429720","0.0-6.0-0.186","ALGO","4","m","rechts","21","","fixation","","","",""
"702","img/90_300.png","74","image-keyboard-response","379","430423","0.0-6.0-1.186","ALGO","4","m","rechts","21","","","self","f","90","false"
"null","<div style=""font-size:60px;"">+</div>","null","html-keyboard-response","380","430824","0.0-6.0-0.187","ALGO","4","m","rechts","21","","fixation","","","",""
"835","img/120_330.png","70","image-keyboard-response","381","431660","0.0-6.0-1.187","ALGO","4","m","rechts","21","","","self","f","120","true"
"null","<div style=""font-size:60px;"">+</div>","null","html-keyboard-response","382","432112","0.0-6.0-0.188","ALGO","4","m","rechts","21","","fixation","","","",""
"799","img/90_150.png","70","image-keyboard-response","383","432913","0.0-6.0-1.188","ALGO","4","m","rechts","21","","","self","f","90","true"
"null","<div style=""font-size:60px;"">+</div>","null","html-keyboard-response","384","433314","0.0-6.0-0.189","ALGO","4","m","rechts","21","","fixation","","","",""
"791","img/120_90.png","70","image-keyboard-response","385","434107","0.0-6.0-1.189","ALGO","4","m","rechts","21","","","self","f","120","true"
"null","<div style=""font-size:60px;"">+</div>","null","html-keyboard-response","386","434458","0.0-6.0-0.190","ALGO","4","m","rechts","21","","fixation","","","",""
"652","img/90_210.png","74","image-keyboard-response","387","435112","0.0-6.0-1.190","ALGO","4","m","rechts","21","","","self","j","90","true"
"null","<div style=""font-size:60px;"">+</div>","null","html-keyboard-response","388","435413","0.0-6.0-0.191","ALGO","4","m","rechts","21","","fixation","","","",""
"693","img/L150_180.png","70","image-keyboard-response","389","436107","0.0-6.0-1.191","ALGO","4","m","rechts","21","","","self","f","150","true"
"null","<div style=""font-size:60px;"">+</div>","null","html-keyboard-response","390","436409","0.0-6.0-0.192","ALGO","4","m","rechts","21","","fixation","","","",""
"795","img/L30_180.png","70","image-keyboard-response","391","437206","0.0-6.0-1.192","ALGO","4","m","rechts","21","","","self","f","30","true"
"null","<div style=""font-size:60px;"">+</div>","null","html-keyboard-response","392","437507","0.0-6.0-0.193","ALGO","4","m","rechts","21","","fixation","","","",""
"838","img/120_30.png","74","image-keyboard-response","393","438346","0.0-6.0-1.193","ALGO","4","m","rechts","21","","","self","j","120","true"
"null","<div style=""font-size:60px;"">+</div>","null","html-keyboard-response","394","438698","0.0-6.0-0.194","ALGO","4","m","rechts","21","","fixation","","","",""
"752","img/60_180.png","74","image-keyboard-response","395","439452","0.0-6.0-1.194","ALGO","4","m","rechts","21","","","self","j","60","true"
"null","<div style=""font-size:60px;"">+</div>","null","html-keyboard-response","396","439953","0.0-6.0-0.195","ALGO","4","m","rechts","21","","fixation","","","",""
"538","img/30_270.png","70","image-keyboard-response","397","440493","0.0-6.0-1.195","ALGO","4","m","rechts","21","","","self","f","30","true"
"null","<div style=""font-size:60px;"">+</div>","null","html-keyboard-response","398","440944","0.0-6.0-0.196","ALGO","4","m","rechts","21","","fixation","","","",""
"892","img/90_330.png","70","image-keyboard-response","399","441837","0.0-6.0-1.196","ALGO","4","m","rechts","21","","","self","f","90","true"
"null","<div style=""font-size:60px;"">+</div>","null","html-keyboard-response","400","442339","0.0-6.0-0.197","ALGO","4","m","rechts","21","","fixation","","","",""
"696","img/60_150.png","74","image-keyboard-response","401","443036","0.0-6.0-1.197","ALGO","4","m","rechts","21","","","self","f","60","false"
"null","<div style=""font-size:60px;"">+</div>","null","html-keyboard-response","402","443438","0.0-6.0-0.198","ALGO","4","m","rechts","21","","fixation","","","",""
"739","img/30_90.png","74","image-keyboard-response","403","444178","0.0-6.0-1.198","ALGO","4","m","rechts","21","","","self","j","30","true"
"null","<div style=""font-size:60px;"">+</div>","null","html-keyboard-response","404","444680","0.0-6.0-0.199","ALGO","4","m","rechts","21","","fixation","","","",""
"586","img/90_180.png","70","image-keyboard-response","405","445267","0.0-6.0-1.199","ALGO","4","m","rechts","21","","","self","j","90","false"
"null","<div style=""font-size:60px;"">+</div>","null","html-keyboard-response","406","445669","0.0-6.0-0.200","ALGO","4","m","rechts","21","","fixation","","","",""
"741","img/150_90.png","70","image-keyboard-response","407","446411","0.0-6.0-1.200","ALGO","4","m","rechts","21","","","self","f","150","true"
"null","<div style=""font-size:60px;"">+</div>","null","html-keyboard-response","408","446813","0.0-6.0-0.201","ALGO","4","m","rechts","21","","fixation","","","",""
"891","img/30_60.png","74","image-keyboard-response","409","447706","0.0-6.0-1.201","ALGO","4","m","rechts","21","","","self","j","30","true"
"null","<div style=""font-size:60px;"">+</div>","null","html-keyboard-response","410","448107","0.0-6.0-0.202","ALGO","4","m","rechts","21","","fixation","","","",""
"674","img/L120_180.png","70","image-keyboard-response","411","448782","0.0-6.0-1.202","ALGO","4","m","rechts","21","","","self","f","120","true"
"null","<div style=""font-size:60px;"">+</div>","null","html-keyboard-response","412","449083","0.0-6.0-0.203","ALGO","4","m","rechts","21","","fixation","","","",""
"726","img/0_300.png","70","image-keyboard-response","413","449810","0.0-6.0-1.203","ALGO","4","m","rechts","21","","","self","f","0","true"
"null","<div style=""font-size:60px;"">+</div>","null","html-keyboard-response","414","450312","0.0-6.0-0.204","ALGO","4","m","rechts","21","","fixation","","","",""
"696","img/L60_180.png","70","image-keyboard-response","415","451009","0.0-6.0-1.204","ALGO","4","m","rechts","21","","","self","f","60","true"
"null","<div style=""font-size:60px;"">+</div>","null","html-keyboard-response","416","451511","0.0-6.0-0.205","ALGO","4","m","rechts","21","","fixation","","","",""
"595","img/30_180.png","74","image-keyboard-response","417","452107","0.0-6.0-1.205","ALGO","4","m","rechts","21","","","self","j","30","true"
"null","<div style=""font-size:60px;"">+</div>","null","html-keyboard-response","418","452409","0.0-6.0-0.206","ALGO","4","m","rechts","21","","fixation","","","",""
"811","img/120_180.png","74","image-keyboard-response","419","453221","0.0-6.0-1.206","ALGO","4","m","rechts","21","","","self","j","120","true"
"null","<div style=""font-size:60px;"">+</div>","null","html-keyboard-response","420","453673","0.0-6.0-0.207","ALGO","4","m","rechts","21","","fixation","","","",""
"819","img/60_30.png","74","image-keyboard-response","421","454493","0.0-6.0-1.207","ALGO","4","m","rechts","21","","","self","j","60","true"
"39310","<p>Du hast in 89% der Versuche korrekt entschieden.</p><p>Deine durchschnittliche Reaktionszeit war  741ms.</p><p>Dr&uuml;cke eine beliebige Taste, um die Session zu beenden. Vielen Dank!</p>","72","html-keyboard-response","422","493804","0.0-7.0","ALGO","4","m","rechts","21","","","","","",""
