"rt","stimulus","key_press","trial_type","trial_index","time_elapsed","internal_node_id","subject","session","sex","handedness","age","responses","test_part","condition","correct_response","angle","correct"
"1149","<p>Mental Rotation Experiment.</p> <p>Dr&uuml;cke eine beliebige Taste, um anzufangen.</p>","71","html-keyboard-response","0","1149","0.0-0.0","ALGO","3","m","rechts","21","","","","","",""
"7234","","","survey-text","1","8384","0.0-1.0","ALGO","3","m","rechts","21","{""Q0"":""ALGO""}","","","","",""
"19433","","","survey-text","2","27817","0.0-2.0","ALGO","3","m","rechts","21","{""Q0"":""3""}","","","","",""
"3589","","","survey-multi-choice","3","31408","0.0-3.0","ALGO","3","m","rechts","21","{""Q0"":""m"",""Q1"":""rechts""}","","","","",""
"3183","","","survey-text","4","34592","0.0-4.0","ALGO","3","m","rechts","21","{""Q0"":""21""}","","","","",""
"197680","<p> Stell dir vor, dass du vor einem runden Tisch stehst, auf dem sich ein blauer Ball am Tischrand befindet. Entlang des Tischrands ist jeweils ein verschieden langer Pfeil. Nun bewegst du dich entlang dieses Pfeils bis an seine Spitze. Wenn du am Ende des Pfeils angekommen bist, schau zur Tischmitte. </p> <img src='img/90_180.png'></img> <br> <p>Entscheide dann, ob der Ball von deiner neuen (vorgestellten) Position links oder rechts von dir liegt.</p> <p>Dr&uuml;cke die <strong>'f'</strong>-Taste f&uuml;r links, die <strong>'j'</strong>-Taste f&uuml;r rechts.</p> <br><p> Das Bild wird jeweils 1 Sekunde lang pr&auml;sentiert. Du hast 3 Sekunden Zeit eine Entscheidung zu treffen.</p>","74","html-keyboard-response","5","232273","0.0-5.0","ALGO","3","m","rechts","21","","","","","",""
"null","<div style=""font-size:60px;"">+</div>","null","html-keyboard-response","6","233626","0.0-6.0-0.0","ALGO","3","m","rechts","21","","fixation","","","",""
"1074","img/30_240.png","70","image-keyboard-response","7","234701","0.0-6.0-1.0","ALGO","3","m","rechts","21","","","self","f","30","true"
"null","<div style=""font-size:60px;"">+</div>","null","html-keyboard-response","8","235153","0.0-6.0-0.1","ALGO","3","m","rechts","21","","fixation","","","",""
"1189","img/30_60.png","74","image-keyboard-response","9","236343","0.0-6.0-1.1","ALGO","3","m","rechts","21","","","self","j","30","true"
"null","<div style=""font-size:60px;"">+</div>","null","html-keyboard-response","10","236695","0.0-6.0-0.2","ALGO","3","m","rechts","21","","fixation","","","",""
"806","img/90_210.png","74","image-keyboard-response","11","237502","0.0-6.0-1.2","ALGO","3","m","rechts","21","","","self","j","90","true"
"null","<div style=""font-size:60px;"">+</div>","null","html-keyboard-response","12","237804","0.0-6.0-0.3","ALGO","3","m","rechts","21","","fixation","","","",""
"819","img/60_330.png","70","image-keyboard-response","13","238624","0.0-6.0-1.3","ALGO","3","m","rechts","21","","","self","f","60","true"
"null","<div style=""font-size:60px;"">+</div>","null","html-keyboard-response","14","239026","0.0-6.0-0.4","ALGO","3","m","rechts","21","","fixation","","","",""
"758","img/90_330.png","70","image-keyboard-response","15","239785","0.0-6.0-1.4","ALGO","3","m","rechts","21","","","self","f","90","true"
"null","<div style=""font-size:60px;"">+</div>","null","html-keyboard-response","16","240236","0.0-6.0-0.5","ALGO","3","m","rechts","21","","fixation","","","",""
"781","img/60_30.png","74","image-keyboard-response","17","241019","0.0-6.0-1.5","ALGO","3","m","rechts","21","","","self","j","60","true"
"null","<div style=""font-size:60px;"">+</div>","null","html-keyboard-response","18","241420","0.0-6.0-0.6","ALGO","3","m","rechts","21","","fixation","","","",""
"649","img/0_90.png","74","image-keyboard-response","19","242070","0.0-6.0-1.6","ALGO","3","m","rechts","21","","","self","j","0","true"
"null","<div style=""font-size:60px;"">+</div>","null","html-keyboard-response","20","242372","0.0-6.0-0.7","ALGO","3","m","rechts","21","","fixation","","","",""
"602","img/0_330.png","70","image-keyboard-response","21","242975","0.0-6.0-1.7","ALGO","3","m","rechts","21","","","self","f","0","true"
"null","<div style=""font-size:60px;"">+</div>","null","html-keyboard-response","22","243377","0.0-6.0-0.8","ALGO","3","m","rechts","21","","fixation","","","",""
"889","img/L30_180.png","70","image-keyboard-response","23","244267","0.0-6.0-1.8","ALGO","3","m","rechts","21","","","self","f","30","true"
"null","<div style=""font-size:60px;"">+</div>","null","html-keyboard-response","24","244719","0.0-6.0-0.9","ALGO","3","m","rechts","21","","fixation","","","",""
"748","img/60_180.png","74","image-keyboard-response","25","245468","0.0-6.0-1.9","ALGO","3","m","rechts","21","","","self","j","60","true"
"null","<div style=""font-size:60px;"">+</div>","null","html-keyboard-response","26","245970","0.0-6.0-0.10","ALGO","3","m","rechts","21","","fixation","","","",""
"741","img/90_240.png","70","image-keyboard-response","27","246712","0.0-6.0-1.10","ALGO","3","m","rechts","21","","","self","j","90","false"
"null","<div style=""font-size:60px;"">+</div>","null","html-keyboard-response","28","247013","0.0-6.0-0.11","ALGO","3","m","rechts","21","","fixation","","","",""
"783","img/120_210.png","74","image-keyboard-response","29","247797","0.0-6.0-1.11","ALGO","3","m","rechts","21","","","self","j","120","true"
"null","<div style=""font-size:60px;"">+</div>","null","html-keyboard-response","30","248249","0.0-6.0-0.12","ALGO","3","m","rechts","21","","fixation","","","",""
"677","img/150_180.png","74","image-keyboard-response","31","248927","0.0-6.0-1.12","ALGO","3","m","rechts","21","","","self","j","150","true"
"null","<div style=""font-size:60px;"">+</div>","null","html-keyboard-response","32","249278","0.0-6.0-0.13","ALGO","3","m","rechts","21","","fixation","","","",""
"641","img/0_120.png","74","image-keyboard-response","33","249920","0.0-6.0-1.13","ALGO","3","m","rechts","21","","","self","j","0","true"
"null","<div style=""font-size:60px;"">+</div>","null","html-keyboard-response","34","250222","0.0-6.0-0.14","ALGO","3","m","rechts","21","","fixation","","","",""
"893","img/150_240.png","74","image-keyboard-response","35","251117","0.0-6.0-1.14","ALGO","3","m","rechts","21","","","self","j","150","true"
"null","<div style=""font-size:60px;"">+</div>","null","html-keyboard-response","36","251468","0.0-6.0-0.15","ALGO","3","m","rechts","21","","fixation","","","",""
"839","img/L120_180.png","70","image-keyboard-response","37","252308","0.0-6.0-1.15","ALGO","3","m","rechts","21","","","self","f","120","true"
"null","<div style=""font-size:60px;"">+</div>","null","html-keyboard-response","38","252709","0.0-6.0-0.16","ALGO","3","m","rechts","21","","fixation","","","",""
"692","img/0_300.png","70","image-keyboard-response","39","253402","0.0-6.0-1.16","ALGO","3","m","rechts","21","","","self","f","0","true"
"null","<div style=""font-size:60px;"">+</div>","null","html-keyboard-response","40","253754","0.0-6.0-0.17","ALGO","3","m","rechts","21","","fixation","","","",""
"745","img/30_270.png","70","image-keyboard-response","41","254499","0.0-6.0-1.17","ALGO","3","m","rechts","21","","","self","f","30","true"
"null","<div style=""font-size:60px;"">+</div>","null","html-keyboard-response","42","254951","0.0-6.0-0.18","ALGO","3","m","rechts","21","","fixation","","","",""
"607","img/30_300.png","70","image-keyboard-response","43","255559","0.0-6.0-1.18","ALGO","3","m","rechts","21","","","self","f","30","true"
"null","<div style=""font-size:60px;"">+</div>","null","html-keyboard-response","44","255911","0.0-6.0-0.19","ALGO","3","m","rechts","21","","fixation","","","",""
"839","img/30_180.png","74","image-keyboard-response","45","256751","0.0-6.0-1.19","ALGO","3","m","rechts","21","","","self","j","30","true"
"null","<div style=""font-size:60px;"">+</div>","null","html-keyboard-response","46","257103","0.0-6.0-0.20","ALGO","3","m","rechts","21","","fixation","","","",""
"857","img/L150_180.png","70","image-keyboard-response","47","257962","0.0-6.0-1.20","ALGO","3","m","rechts","21","","","self","f","150","true"
"null","<div style=""font-size:60px;"">+</div>","null","html-keyboard-response","48","258263","0.0-6.0-0.21","ALGO","3","m","rechts","21","","fixation","","","",""
"918","img/150_90.png","70","image-keyboard-response","49","259182","0.0-6.0-1.21","ALGO","3","m","rechts","21","","","self","f","150","true"
"null","<div style=""font-size:60px;"">+</div>","null","html-keyboard-response","50","259634","0.0-6.0-0.22","ALGO","3","m","rechts","21","","fixation","","","",""
"888","img/30_90.png","74","image-keyboard-response","51","260524","0.0-6.0-1.22","ALGO","3","m","rechts","21","","","self","j","30","true"
"null","<div style=""font-size:60px;"">+</div>","null","html-keyboard-response","52","261025","0.0-6.0-0.23","ALGO","3","m","rechts","21","","fixation","","","",""
"838","img/120_330.png","70","image-keyboard-response","53","261864","0.0-6.0-1.23","ALGO","3","m","rechts","21","","","self","f","120","true"
"null","<div style=""font-size:60px;"">+</div>","null","html-keyboard-response","54","262366","0.0-6.0-0.24","ALGO","3","m","rechts","21","","fixation","","","",""
"711","img/60_270.png","70","image-keyboard-response","55","263077","0.0-6.0-1.24","ALGO","3","m","rechts","21","","","self","f","60","true"
"null","<div style=""font-size:60px;"">+</div>","null","html-keyboard-response","56","263429","0.0-6.0-0.25","ALGO","3","m","rechts","21","","fixation","","","",""
"717","img/120_180.png","74","image-keyboard-response","57","264146","0.0-6.0-1.25","ALGO","3","m","rechts","21","","","self","j","120","true"
"null","<div style=""font-size:60px;"">+</div>","null","html-keyboard-response","58","264598","0.0-6.0-0.26","ALGO","3","m","rechts","21","","fixation","","","",""
"634","img/0_30.png","74","image-keyboard-response","59","265233","0.0-6.0-1.26","ALGO","3","m","rechts","21","","","self","j","0","true"
"null","<div style=""font-size:60px;"">+</div>","null","html-keyboard-response","60","265635","0.0-6.0-0.27","ALGO","3","m","rechts","21","","fixation","","","",""
"769","img/120_90.png","70","image-keyboard-response","61","266404","0.0-6.0-1.27","ALGO","3","m","rechts","21","","","self","f","120","true"
"null","<div style=""font-size:60px;"">+</div>","null","html-keyboard-response","62","266756","0.0-6.0-0.28","ALGO","3","m","rechts","21","","fixation","","","",""
"983","img/120_30.png","74","image-keyboard-response","63","267740","0.0-6.0-1.28","ALGO","3","m","rechts","21","","","self","j","120","true"
"null","<div style=""font-size:60px;"">+</div>","null","html-keyboard-response","64","268092","0.0-6.0-0.29","ALGO","3","m","rechts","21","","fixation","","","",""
"814","img/150_300.png","70","image-keyboard-response","65","268907","0.0-6.0-1.29","ALGO","3","m","rechts","21","","","self","j","150","false"
"null","<div style=""font-size:60px;"">+</div>","null","html-keyboard-response","66","269209","0.0-6.0-0.30","ALGO","3","m","rechts","21","","fixation","","","",""
"642","img/0_270.png","70","image-keyboard-response","67","269852","0.0-6.0-1.30","ALGO","3","m","rechts","21","","","self","f","0","true"
"null","<div style=""font-size:60px;"">+</div>","null","html-keyboard-response","68","270354","0.0-6.0-0.31","ALGO","3","m","rechts","21","","fixation","","","",""
"901","img/60_150.png","70","image-keyboard-response","69","271256","0.0-6.0-1.31","ALGO","3","m","rechts","21","","","self","f","60","true"
"null","<div style=""font-size:60px;"">+</div>","null","html-keyboard-response","70","271708","0.0-6.0-0.32","ALGO","3","m","rechts","21","","fixation","","","",""
"655","img/0_150.png","74","image-keyboard-response","71","272364","0.0-6.0-1.32","ALGO","3","m","rechts","21","","","self","j","0","true"
"null","<div style=""font-size:60px;"">+</div>","null","html-keyboard-response","72","272816","0.0-6.0-0.33","ALGO","3","m","rechts","21","","fixation","","","",""
"799","img/120_150.png","70","image-keyboard-response","73","273616","0.0-6.0-1.33","ALGO","3","m","rechts","21","","","self","f","120","true"
"null","<div style=""font-size:60px;"">+</div>","null","html-keyboard-response","74","273968","0.0-6.0-0.34","ALGO","3","m","rechts","21","","fixation","","","",""
"806","img/150_270.png","74","image-keyboard-response","75","274774","0.0-6.0-1.34","ALGO","3","m","rechts","21","","","self","j","150","true"
"null","<div style=""font-size:60px;"">+</div>","null","html-keyboard-response","76","275126","0.0-6.0-0.35","ALGO","3","m","rechts","21","","fixation","","","",""
"809","img/L90_180.png","70","image-keyboard-response","77","275936","0.0-6.0-1.35","ALGO","3","m","rechts","21","","","self","f","90","true"
"null","<div style=""font-size:60px;"">+</div>","null","html-keyboard-response","78","276338","0.0-6.0-0.36","ALGO","3","m","rechts","21","","fixation","","","",""
"778","img/120_270.png","74","image-keyboard-response","79","277117","0.0-6.0-1.36","ALGO","3","m","rechts","21","","","self","j","120","true"
"null","<div style=""font-size:60px;"">+</div>","null","html-keyboard-response","80","277569","0.0-6.0-0.37","ALGO","3","m","rechts","21","","fixation","","","",""
"771","img/150_120.png","70","image-keyboard-response","81","278341","0.0-6.0-1.37","ALGO","3","m","rechts","21","","","self","f","150","true"
"null","<div style=""font-size:60px;"">+</div>","null","html-keyboard-response","82","278643","0.0-6.0-0.38","ALGO","3","m","rechts","21","","fixation","","","",""
"647","img/0_210.png","70","image-keyboard-response","83","279291","0.0-6.0-1.38","ALGO","3","m","rechts","21","","","self","f","0","true"
"null","<div style=""font-size:60px;"">+</div>","null","html-keyboard-response","84","279643","0.0-6.0-0.39","ALGO","3","m","rechts","21","","fixation","","","",""
"928","img/90_150.png","70","image-keyboard-response","85","280571","0.0-6.0-1.39","ALGO","3","m","rechts","21","","","self","f","90","true"
"null","<div style=""font-size:60px;"">+</div>","null","html-keyboard-response","86","281023","0.0-6.0-0.40","ALGO","3","m","rechts","21","","fixation","","","",""
"705","img/60_210.png","74","image-keyboard-response","87","281729","0.0-6.0-1.40","ALGO","3","m","rechts","21","","","self","j","60","true"
"null","<div style=""font-size:60px;"">+</div>","null","html-keyboard-response","88","282131","0.0-6.0-0.41","ALGO","3","m","rechts","21","","fixation","","","",""
"962","img/30_120.png","74","image-keyboard-response","89","283094","0.0-6.0-1.41","ALGO","3","m","rechts","21","","","self","j","30","true"
"null","<div style=""font-size:60px;"">+</div>","null","html-keyboard-response","90","283545","0.0-6.0-0.42","ALGO","3","m","rechts","21","","fixation","","","",""
"763","img/150_60.png","70","image-keyboard-response","91","284310","0.0-6.0-1.42","ALGO","3","m","rechts","21","","","self","f","150","true"
"null","<div style=""font-size:60px;"">+</div>","null","html-keyboard-response","92","284711","0.0-6.0-0.43","ALGO","3","m","rechts","21","","fixation","","","",""
"984","img/60_90.png","74","image-keyboard-response","93","285696","0.0-6.0-1.43","ALGO","3","m","rechts","21","","","self","j","60","true"
"null","<div style=""font-size:60px;"">+</div>","null","html-keyboard-response","94","285998","0.0-6.0-0.44","ALGO","3","m","rechts","21","","fixation","","","",""
"833","img/90_120.png","70","image-keyboard-response","95","286832","0.0-6.0-1.44","ALGO","3","m","rechts","21","","","self","f","90","true"
"null","<div style=""font-size:60px;"">+</div>","null","html-keyboard-response","96","287134","0.0-6.0-0.45","ALGO","3","m","rechts","21","","fixation","","","",""
"630","img/0_240.png","70","image-keyboard-response","97","287765","0.0-6.0-1.45","ALGO","3","m","rechts","21","","","self","f","0","true"
"null","<div style=""font-size:60px;"">+</div>","null","html-keyboard-response","98","288117","0.0-6.0-0.46","ALGO","3","m","rechts","21","","fixation","","","",""
"712","img/0_60.png","74","image-keyboard-response","99","288830","0.0-6.0-1.46","ALGO","3","m","rechts","21","","","self","j","0","true"
"null","<div style=""font-size:60px;"">+</div>","null","html-keyboard-response","100","289282","0.0-6.0-0.47","ALGO","3","m","rechts","21","","fixation","","","",""
"834","img/90_180.png","74","image-keyboard-response","101","290116","0.0-6.0-1.47","ALGO","3","m","rechts","21","","","self","j","90","true"
"null","<div style=""font-size:60px;"">+</div>","null","html-keyboard-response","102","290568","0.0-6.0-0.48","ALGO","3","m","rechts","21","","fixation","","","",""
"729","img/L60_180.png","70","image-keyboard-response","103","291298","0.0-6.0-1.48","ALGO","3","m","rechts","21","","","self","f","60","true"
"null","<div style=""font-size:60px;"">+</div>","null","html-keyboard-response","104","291800","0.0-6.0-0.49","ALGO","3","m","rechts","21","","fixation","","","",""
"852","img/90_60.png","74","image-keyboard-response","105","292653","0.0-6.0-1.49","ALGO","3","m","rechts","21","","","self","j","90","true"
"null","<div style=""font-size:60px;"">+</div>","null","html-keyboard-response","106","293055","0.0-6.0-0.50","ALGO","3","m","rechts","21","","fixation","","","",""
"1076","img/90_30.png","74","image-keyboard-response","107","294132","0.0-6.0-1.50","ALGO","3","m","rechts","21","","","self","j","90","true"
"null","<div style=""font-size:60px;"">+</div>","null","html-keyboard-response","108","294534","0.0-6.0-0.51","ALGO","3","m","rechts","21","","fixation","","","",""
"869","img/90_300.png","70","image-keyboard-response","109","295404","0.0-6.0-1.51","ALGO","3","m","rechts","21","","","self","f","90","true"
"null","<div style=""font-size:60px;"">+</div>","null","html-keyboard-response","110","295806","0.0-6.0-0.52","ALGO","3","m","rechts","21","","fixation","","","",""
"642","img/0_270.png","70","image-keyboard-response","111","296449","0.0-6.0-1.52","ALGO","3","m","rechts","21","","","self","f","0","true"
"null","<div style=""font-size:60px;"">+</div>","null","html-keyboard-response","112","296901","0.0-6.0-0.53","ALGO","3","m","rechts","21","","fixation","","","",""
"795","img/150_300.png","74","image-keyboard-response","113","297696","0.0-6.0-1.53","ALGO","3","m","rechts","21","","","self","j","150","true"
"null","<div style=""font-size:60px;"">+</div>","null","html-keyboard-response","114","297997","0.0-6.0-0.54","ALGO","3","m","rechts","21","","fixation","","","",""
"768","img/90_240.png","74","image-keyboard-response","115","298766","0.0-6.0-1.54","ALGO","3","m","rechts","21","","","self","j","90","true"
"null","<div style=""font-size:60px;"">+</div>","null","html-keyboard-response","116","299168","0.0-6.0-0.55","ALGO","3","m","rechts","21","","fixation","","","",""
"596","img/0_90.png","74","image-keyboard-response","117","299764","0.0-6.0-1.55","ALGO","3","m","rechts","21","","","self","j","0","true"
"null","<div style=""font-size:60px;"">+</div>","null","html-keyboard-response","118","300216","0.0-6.0-0.56","ALGO","3","m","rechts","21","","fixation","","","",""
"727","img/120_270.png","74","image-keyboard-response","119","300943","0.0-6.0-1.56","ALGO","3","m","rechts","21","","","self","j","120","true"
"null","<div style=""font-size:60px;"">+</div>","null","html-keyboard-response","120","301295","0.0-6.0-0.57","ALGO","3","m","rechts","21","","fixation","","","",""
"1017","img/30_60.png","74","image-keyboard-response","121","302312","0.0-6.0-1.57","ALGO","3","m","rechts","21","","","self","j","30","true"
"null","<div style=""font-size:60px;"">+</div>","null","html-keyboard-response","122","302763","0.0-6.0-0.58","ALGO","3","m","rechts","21","","fixation","","","",""
"1073","img/90_30.png","70","image-keyboard-response","123","303837","0.0-6.0-1.58","ALGO","3","m","rechts","21","","","self","j","90","false"
"null","<div style=""font-size:60px;"">+</div>","null","html-keyboard-response","124","304288","0.0-6.0-0.59","ALGO","3","m","rechts","21","","fixation","","","",""
"693","img/60_210.png","74","image-keyboard-response","125","304982","0.0-6.0-1.59","ALGO","3","m","rechts","21","","","self","j","60","true"
"null","<div style=""font-size:60px;"">+</div>","null","html-keyboard-response","126","305484","0.0-6.0-0.60","ALGO","3","m","rechts","21","","fixation","","","",""
"712","img/90_150.png","70","image-keyboard-response","127","306196","0.0-6.0-1.60","ALGO","3","m","rechts","21","","","self","f","90","true"
"null","<div style=""font-size:60px;"">+</div>","null","html-keyboard-response","128","306698","0.0-6.0-0.61","ALGO","3","m","rechts","21","","fixation","","","",""
"625","img/0_300.png","70","image-keyboard-response","129","307323","0.0-6.0-1.61","ALGO","3","m","rechts","21","","","self","f","0","true"
"null","<div style=""font-size:60px;"">+</div>","null","html-keyboard-response","130","307624","0.0-6.0-0.62","ALGO","3","m","rechts","21","","fixation","","","",""
"801","img/60_150.png","70","image-keyboard-response","131","308426","0.0-6.0-1.62","ALGO","3","m","rechts","21","","","self","f","60","true"
"null","<div style=""font-size:60px;"">+</div>","null","html-keyboard-response","132","308878","0.0-6.0-0.63","ALGO","3","m","rechts","21","","fixation","","","",""
"776","img/120_210.png","74","image-keyboard-response","133","309654","0.0-6.0-1.63","ALGO","3","m","rechts","21","","","self","j","120","true"
"null","<div style=""font-size:60px;"">+</div>","null","html-keyboard-response","134","310106","0.0-6.0-0.64","ALGO","3","m","rechts","21","","fixation","","","",""
"770","img/150_180.png","74","image-keyboard-response","135","310876","0.0-6.0-1.64","ALGO","3","m","rechts","21","","","self","j","150","true"
"null","<div style=""font-size:60px;"">+</div>","null","html-keyboard-response","136","311328","0.0-6.0-0.65","ALGO","3","m","rechts","21","","fixation","","","",""
"1108","img/30_90.png","74","image-keyboard-response","137","312437","0.0-6.0-1.65","ALGO","3","m","rechts","21","","","self","j","30","true"
"null","<div style=""font-size:60px;"">+</div>","null","html-keyboard-response","138","312789","0.0-6.0-0.66","ALGO","3","m","rechts","21","","fixation","","","",""
"669","img/120_180.png","74","image-keyboard-response","139","313458","0.0-6.0-1.66","ALGO","3","m","rechts","21","","","self","j","120","true"
"null","<div style=""font-size:60px;"">+</div>","null","html-keyboard-response","140","313960","0.0-6.0-0.67","ALGO","3","m","rechts","21","","fixation","","","",""
"756","img/30_180.png","74","image-keyboard-response","141","314716","0.0-6.0-1.67","ALGO","3","m","rechts","21","","","self","j","30","true"
"null","<div style=""font-size:60px;"">+</div>","null","html-keyboard-response","142","315066","0.0-6.0-0.68","ALGO","3","m","rechts","21","","fixation","","","",""
"674","img/60_180.png","74","image-keyboard-response","143","315741","0.0-6.0-1.68","ALGO","3","m","rechts","21","","","self","j","60","true"
"null","<div style=""font-size:60px;"">+</div>","null","html-keyboard-response","144","316143","0.0-6.0-0.69","ALGO","3","m","rechts","21","","fixation","","","",""
"635","img/0_210.png","70","image-keyboard-response","145","316778","0.0-6.0-1.69","ALGO","3","m","rechts","21","","","self","f","0","true"
"null","<div style=""font-size:60px;"">+</div>","null","html-keyboard-response","146","317130","0.0-6.0-0.70","ALGO","3","m","rechts","21","","fixation","","","",""
"718","img/30_240.png","70","image-keyboard-response","147","317848","0.0-6.0-1.70","ALGO","3","m","rechts","21","","","self","f","30","true"
"null","<div style=""font-size:60px;"">+</div>","null","html-keyboard-response","148","318300","0.0-6.0-0.71","ALGO","3","m","rechts","21","","fixation","","","",""
"816","img/90_180.png","74","image-keyboard-response","149","319117","0.0-6.0-1.71","ALGO","3","m","rechts","21","","","self","j","90","true"
"null","<div style=""font-size:60px;"">+</div>","null","html-keyboard-response","150","319568","0.0-6.0-0.72","ALGO","3","m","rechts","21","","fixation","","","",""
"742","img/60_270.png","70","image-keyboard-response","151","320311","0.0-6.0-1.72","ALGO","3","m","rechts","21","","","self","f","60","true"
"null","<div style=""font-size:60px;"">+</div>","null","html-keyboard-response","152","320813","0.0-6.0-0.73","ALGO","3","m","rechts","21","","fixation","","","",""
"972","img/150_120.png","70","image-keyboard-response","153","321785","0.0-6.0-1.73","ALGO","3","m","rechts","21","","","self","f","150","true"
"null","<div style=""font-size:60px;"">+</div>","null","html-keyboard-response","154","322187","0.0-6.0-0.74","ALGO","3","m","rechts","21","","fixation","","","",""
"672","img/150_90.png","70","image-keyboard-response","155","322859","0.0-6.0-1.74","ALGO","3","m","rechts","21","","","self","f","150","true"
"null","<div style=""font-size:60px;"">+</div>","null","html-keyboard-response","156","323310","0.0-6.0-0.75","ALGO","3","m","rechts","21","","fixation","","","",""
"886","img/30_270.png","70","image-keyboard-response","157","324197","0.0-6.0-1.75","ALGO","3","m","rechts","21","","","self","f","30","true"
"null","<div style=""font-size:60px;"">+</div>","null","html-keyboard-response","158","324648","0.0-6.0-0.76","ALGO","3","m","rechts","21","","fixation","","","",""
"718","img/150_240.png","74","image-keyboard-response","159","325368","0.0-6.0-1.76","ALGO","3","m","rechts","21","","","self","j","150","true"
"null","<div style=""font-size:60px;"">+</div>","null","html-keyboard-response","160","325669","0.0-6.0-0.77","ALGO","3","m","rechts","21","","fixation","","","",""
"670","img/L120_180.png","70","image-keyboard-response","161","326340","0.0-6.0-1.77","ALGO","3","m","rechts","21","","","self","f","120","true"
"null","<div style=""font-size:60px;"">+</div>","null","html-keyboard-response","162","326740","0.0-6.0-0.78","ALGO","3","m","rechts","21","","fixation","","","",""
"843","img/90_120.png","70","image-keyboard-response","163","327585","0.0-6.0-1.78","ALGO","3","m","rechts","21","","","self","f","90","true"
"null","<div style=""font-size:60px;"">+</div>","null","html-keyboard-response","164","327936","0.0-6.0-0.79","ALGO","3","m","rechts","21","","fixation","","","",""
"720","img/90_210.png","74","image-keyboard-response","165","328658","0.0-6.0-1.79","ALGO","3","m","rechts","21","","","self","j","90","true"
"null","<div style=""font-size:60px;"">+</div>","null","html-keyboard-response","166","329109","0.0-6.0-0.80","ALGO","3","m","rechts","21","","fixation","","","",""
"633","img/0_60.png","74","image-keyboard-response","167","329743","0.0-6.0-1.80","ALGO","3","m","rechts","21","","","self","j","0","true"
"null","<div style=""font-size:60px;"">+</div>","null","html-keyboard-response","168","330044","0.0-6.0-0.81","ALGO","3","m","rechts","21","","fixation","","","",""
"815","img/30_300.png","70","image-keyboard-response","169","330860","0.0-6.0-1.81","ALGO","3","m","rechts","21","","","self","f","30","true"
"null","<div style=""font-size:60px;"">+</div>","null","html-keyboard-response","170","331211","0.0-6.0-0.82","ALGO","3","m","rechts","21","","fixation","","","",""
"700","img/150_60.png","70","image-keyboard-response","171","331912","0.0-6.0-1.82","ALGO","3","m","rechts","21","","","self","f","150","true"
"null","<div style=""font-size:60px;"">+</div>","null","html-keyboard-response","172","332414","0.0-6.0-0.83","ALGO","3","m","rechts","21","","fixation","","","",""
"738","img/90_330.png","74","image-keyboard-response","173","333154","0.0-6.0-1.83","ALGO","3","m","rechts","21","","","self","f","90","false"
"null","<div style=""font-size:60px;"">+</div>","null","html-keyboard-response","174","333605","0.0-6.0-0.84","ALGO","3","m","rechts","21","","fixation","","","",""
"849","img/120_330.png","70","image-keyboard-response","175","334455","0.0-6.0-1.84","ALGO","3","m","rechts","21","","","self","f","120","true"
"null","<div style=""font-size:60px;"">+</div>","null","html-keyboard-response","176","334806","0.0-6.0-0.85","ALGO","3","m","rechts","21","","fixation","","","",""
"983","img/L60_180.png","70","image-keyboard-response","177","335791","0.0-6.0-1.85","ALGO","3","m","rechts","21","","","self","f","60","true"
"null","<div style=""font-size:60px;"">+</div>","null","html-keyboard-response","178","336192","0.0-6.0-0.86","ALGO","3","m","rechts","21","","fixation","","","",""
"722","img/0_150.png","74","image-keyboard-response","179","336916","0.0-6.0-1.86","ALGO","3","m","rechts","21","","","self","j","0","true"
"null","<div style=""font-size:60px;"">+</div>","null","html-keyboard-response","180","337317","0.0-6.0-0.87","ALGO","3","m","rechts","21","","fixation","","","",""
"627","img/0_330.png","70","image-keyboard-response","181","337946","0.0-6.0-1.87","ALGO","3","m","rechts","21","","","self","f","0","true"
"null","<div style=""font-size:60px;"">+</div>","null","html-keyboard-response","182","338297","0.0-6.0-0.88","ALGO","3","m","rechts","21","","fixation","","","",""
"820","img/150_270.png","74","image-keyboard-response","183","339118","0.0-6.0-1.88","ALGO","3","m","rechts","21","","","self","j","150","true"
"null","<div style=""font-size:60px;"">+</div>","null","html-keyboard-response","184","339420","0.0-6.0-0.89","ALGO","3","m","rechts","21","","fixation","","","",""
"596","img/0_120.png","74","image-keyboard-response","185","340017","0.0-6.0-1.89","ALGO","3","m","rechts","21","","","self","j","0","true"
"null","<div style=""font-size:60px;"">+</div>","null","html-keyboard-response","186","340519","0.0-6.0-0.90","ALGO","3","m","rechts","21","","fixation","","","",""
"731","img/120_150.png","70","image-keyboard-response","187","341252","0.0-6.0-1.90","ALGO","3","m","rechts","21","","","self","f","120","true"
"null","<div style=""font-size:60px;"">+</div>","null","html-keyboard-response","188","341653","0.0-6.0-0.91","ALGO","3","m","rechts","21","","fixation","","","",""
"805","img/L150_180.png","70","image-keyboard-response","189","342459","0.0-6.0-1.91","ALGO","3","m","rechts","21","","","self","f","150","true"
"null","<div style=""font-size:60px;"">+</div>","null","html-keyboard-response","190","342811","0.0-6.0-0.92","ALGO","3","m","rechts","21","","fixation","","","",""
"600","img/0_240.png","70","image-keyboard-response","191","343412","0.0-6.0-1.92","ALGO","3","m","rechts","21","","","self","f","0","true"
"null","<div style=""font-size:60px;"">+</div>","null","html-keyboard-response","192","343713","0.0-6.0-0.93","ALGO","3","m","rechts","21","","fixation","","","",""
"1065","img/30_120.png","74","image-keyboard-response","193","344779","0.0-6.0-1.93","ALGO","3","m","rechts","21","","","self","j","30","true"
"null","<div style=""font-size:60px;"">+</div>","null","html-keyboard-response","194","345081","0.0-6.0-0.94","ALGO","3","m","rechts","21","","fixation","","","",""
"647","img/L90_180.png","70","image-keyboard-response","195","345728","0.0-6.0-1.94","ALGO","3","m","rechts","21","","","self","f","90","true"
"null","<div style=""font-size:60px;"">+</div>","null","html-keyboard-response","196","346130","0.0-6.0-0.95","ALGO","3","m","rechts","21","","fixation","","","",""
"1270","img/60_30.png","74","image-keyboard-response","197","347401","0.0-6.0-1.95","ALGO","3","m","rechts","21","","","self","j","60","true"
"null","<div style=""font-size:60px;"">+</div>","null","html-keyboard-response","198","347703","0.0-6.0-0.96","ALGO","3","m","rechts","21","","fixation","","","",""
"626","img/0_30.png","74","image-keyboard-response","199","348330","0.0-6.0-1.96","ALGO","3","m","rechts","21","","","self","j","0","true"
"null","<div style=""font-size:60px;"">+</div>","null","html-keyboard-response","200","348782","0.0-6.0-0.97","ALGO","3","m","rechts","21","","fixation","","","",""
"774","img/90_60.png","74","image-keyboard-response","201","349557","0.0-6.0-1.97","ALGO","3","m","rechts","21","","","self","j","90","true"
"null","<div style=""font-size:60px;"">+</div>","null","html-keyboard-response","202","350009","0.0-6.0-0.98","ALGO","3","m","rechts","21","","fixation","","","",""
"725","img/120_90.png","74","image-keyboard-response","203","350735","0.0-6.0-1.98","ALGO","3","m","rechts","21","","","self","f","120","false"
"null","<div style=""font-size:60px;"">+</div>","null","html-keyboard-response","204","351237","0.0-6.0-0.99","ALGO","3","m","rechts","21","","fixation","","","",""
"792","img/90_300.png","70","image-keyboard-response","205","352030","0.0-6.0-1.99","ALGO","3","m","rechts","21","","","self","f","90","true"
"null","<div style=""font-size:60px;"">+</div>","null","html-keyboard-response","206","352482","0.0-6.0-0.100","ALGO","3","m","rechts","21","","fixation","","","",""
"1625","img/120_30.png","74","image-keyboard-response","207","354108","0.0-6.0-1.100","ALGO","3","m","rechts","21","","","self","j","120","true"
"null","<div style=""font-size:60px;"">+</div>","null","html-keyboard-response","208","354560","0.0-6.0-0.101","ALGO","3","m","rechts","21","","fixation","","","",""
"1001","img/L30_180.png","70","image-keyboard-response","209","355561","0.0-6.0-1.101","ALGO","3","m","rechts","21","","","self","f","30","true"
"null","<div style=""font-size:60px;"">+</div>","null","html-keyboard-response","210","356013","0.0-6.0-0.102","ALGO","3","m","rechts","21","","fixation","","","",""
"809","img/60_90.png","74","image-keyboard-response","211","356822","0.0-6.0-1.102","ALGO","3","m","rechts","21","","","self","j","60","true"
"null","<div style=""font-size:60px;"">+</div>","null","html-keyboard-response","212","357224","0.0-6.0-0.103","ALGO","3","m","rechts","21","","fixation","","","",""
"612","img/60_330.png","70","image-keyboard-response","213","357836","0.0-6.0-1.103","ALGO","3","m","rechts","21","","","self","f","60","true"
"null","<div style=""font-size:60px;"">+</div>","null","html-keyboard-response","214","358138","0.0-6.0-0.104","ALGO","3","m","rechts","21","","fixation","","","",""
"662","img/0_300.png","70","image-keyboard-response","215","358801","0.0-6.0-1.104","ALGO","3","m","rechts","21","","","self","f","0","true"
"null","<div style=""font-size:60px;"">+</div>","null","html-keyboard-response","216","359103","0.0-6.0-0.105","ALGO","3","m","rechts","21","","fixation","","","",""
"753","img/30_300.png","70","image-keyboard-response","217","359856","0.0-6.0-1.105","ALGO","3","m","rechts","21","","","self","f","30","true"
"null","<div style=""font-size:60px;"">+</div>","null","html-keyboard-response","218","360308","0.0-6.0-0.106","ALGO","3","m","rechts","21","","fixation","","","",""
"611","img/0_120.png","74","image-keyboard-response","219","360919","0.0-6.0-1.106","ALGO","3","m","rechts","21","","","self","j","0","true"
"null","<div style=""font-size:60px;"">+</div>","null","html-keyboard-response","220","361271","0.0-6.0-0.107","ALGO","3","m","rechts","21","","fixation","","","",""
"589","img/0_30.png","74","image-keyboard-response","221","361861","0.0-6.0-1.107","ALGO","3","m","rechts","21","","","self","j","0","true"
"null","<div style=""font-size:60px;"">+</div>","null","html-keyboard-response","222","362213","0.0-6.0-0.108","ALGO","3","m","rechts","21","","fixation","","","",""
"784","img/60_180.png","74","image-keyboard-response","223","362997","0.0-6.0-1.108","ALGO","3","m","rechts","21","","","self","j","60","true"
"null","<div style=""font-size:60px;"">+</div>","null","html-keyboard-response","224","363499","0.0-6.0-0.109","ALGO","3","m","rechts","21","","fixation","","","",""
"914","img/90_150.png","70","image-keyboard-response","225","364413","0.0-6.0-1.109","ALGO","3","m","rechts","21","","","self","f","90","true"
"null","<div style=""font-size:60px;"">+</div>","null","html-keyboard-response","226","364915","0.0-6.0-0.110","ALGO","3","m","rechts","21","","fixation","","","",""
"1233","img/150_60.png","70","image-keyboard-response","227","366148","0.0-6.0-1.110","ALGO","3","m","rechts","21","","","self","f","150","true"
"null","<div style=""font-size:60px;"">+</div>","null","html-keyboard-response","228","366599","0.0-6.0-0.111","ALGO","3","m","rechts","21","","fixation","","","",""
"571","img/0_330.png","70","image-keyboard-response","229","367171","0.0-6.0-1.111","ALGO","3","m","rechts","21","","","self","f","0","true"
"null","<div style=""font-size:60px;"">+</div>","null","html-keyboard-response","230","367523","0.0-6.0-0.112","ALGO","3","m","rechts","21","","fixation","","","",""
"780","img/150_120.png","70","image-keyboard-response","231","368304","0.0-6.0-1.112","ALGO","3","m","rechts","21","","","self","f","150","true"
"null","<div style=""font-size:60px;"">+</div>","null","html-keyboard-response","232","368805","0.0-6.0-0.113","ALGO","3","m","rechts","21","","fixation","","","",""
"680","img/0_150.png","74","image-keyboard-response","233","369486","0.0-6.0-1.113","ALGO","3","m","rechts","21","","","self","j","0","true"
"null","<div style=""font-size:60px;"">+</div>","null","html-keyboard-response","234","369787","0.0-6.0-0.114","ALGO","3","m","rechts","21","","fixation","","","",""
"898","img/150_270.png","74","image-keyboard-response","235","370686","0.0-6.0-1.114","ALGO","3","m","rechts","21","","","self","j","150","true"
"null","<div style=""font-size:60px;"">+</div>","null","html-keyboard-response","236","371088","0.0-6.0-0.115","ALGO","3","m","rechts","21","","fixation","","","",""
"860","img/90_180.png","74","image-keyboard-response","237","371948","0.0-6.0-1.115","ALGO","3","m","rechts","21","","","self","j","90","true"
"null","<div style=""font-size:60px;"">+</div>","null","html-keyboard-response","238","372399","0.0-6.0-0.116","ALGO","3","m","rechts","21","","fixation","","","",""
"1072","img/90_30.png","74","image-keyboard-response","239","373472","0.0-6.0-1.116","ALGO","3","m","rechts","21","","","self","j","90","true"
"null","<div style=""font-size:60px;"">+</div>","null","html-keyboard-response","240","373874","0.0-6.0-0.117","ALGO","3","m","rechts","21","","fixation","","","",""
"887","img/90_330.png","70","image-keyboard-response","241","374762","0.0-6.0-1.117","ALGO","3","m","rechts","21","","","self","f","90","true"
"null","<div style=""font-size:60px;"">+</div>","null","html-keyboard-response","242","375264","0.0-6.0-0.118","ALGO","3","m","rechts","21","","fixation","","","",""
"873","img/120_330.png","70","image-keyboard-response","243","376137","0.0-6.0-1.118","ALGO","3","m","rechts","21","","","self","f","120","true"
"null","<div style=""font-size:60px;"">+</div>","null","html-keyboard-response","244","376489","0.0-6.0-0.119","ALGO","3","m","rechts","21","","fixation","","","",""
"1089","img/90_210.png","74","image-keyboard-response","245","377579","0.0-6.0-1.119","ALGO","3","m","rechts","21","","","self","j","90","true"
"null","<div style=""font-size:60px;"">+</div>","null","html-keyboard-response","246","377880","0.0-6.0-0.120","ALGO","3","m","rechts","21","","fixation","","","",""
"751","img/120_150.png","70","image-keyboard-response","247","378633","0.0-6.0-1.120","ALGO","3","m","rechts","21","","","self","f","120","true"
"null","<div style=""font-size:60px;"">+</div>","null","html-keyboard-response","248","378934","0.0-6.0-0.121","ALGO","3","m","rechts","21","","fixation","","","",""
"653","img/0_270.png","70","image-keyboard-response","249","379589","0.0-6.0-1.121","ALGO","3","m","rechts","21","","","self","f","0","true"
"null","<div style=""font-size:60px;"">+</div>","null","html-keyboard-response","250","379890","0.0-6.0-0.122","ALGO","3","m","rechts","21","","fixation","","","",""
"897","img/30_60.png","74","image-keyboard-response","251","380788","0.0-6.0-1.122","ALGO","3","m","rechts","21","","","self","j","30","true"
"null","<div style=""font-size:60px;"">+</div>","null","html-keyboard-response","252","381089","0.0-6.0-0.123","ALGO","3","m","rechts","21","","fixation","","","",""
"836","img/30_90.png","74","image-keyboard-response","253","381927","0.0-6.0-1.123","ALGO","3","m","rechts","21","","","self","j","30","true"
"null","<div style=""font-size:60px;"">+</div>","null","html-keyboard-response","254","382378","0.0-6.0-0.124","ALGO","3","m","rechts","21","","fixation","","","",""
"836","img/150_300.png","70","image-keyboard-response","255","383216","0.0-6.0-1.124","ALGO","3","m","rechts","21","","","self","j","150","false"
"null","<div style=""font-size:60px;"">+</div>","null","html-keyboard-response","256","383667","0.0-6.0-0.125","ALGO","3","m","rechts","21","","fixation","","","",""
"953","img/30_120.png","70","image-keyboard-response","257","384621","0.0-6.0-1.125","ALGO","3","m","rechts","21","","","self","j","30","false"
"null","<div style=""font-size:60px;"">+</div>","null","html-keyboard-response","258","385022","0.0-6.0-0.126","ALGO","3","m","rechts","21","","fixation","","","",""
"891","img/150_180.png","74","image-keyboard-response","259","385915","0.0-6.0-1.126","ALGO","3","m","rechts","21","","","self","j","150","true"
"null","<div style=""font-size:60px;"">+</div>","null","html-keyboard-response","260","386367","0.0-6.0-0.127","ALGO","3","m","rechts","21","","fixation","","","",""
"779","img/30_180.png","74","image-keyboard-response","261","387147","0.0-6.0-1.127","ALGO","3","m","rechts","21","","","self","j","30","true"
"null","<div style=""font-size:60px;"">+</div>","null","html-keyboard-response","262","387548","0.0-6.0-0.128","ALGO","3","m","rechts","21","","fixation","","","",""
"894","img/90_240.png","74","image-keyboard-response","263","388444","0.0-6.0-1.128","ALGO","3","m","rechts","21","","","self","j","90","true"
"null","<div style=""font-size:60px;"">+</div>","null","html-keyboard-response","264","388795","0.0-6.0-0.129","ALGO","3","m","rechts","21","","fixation","","","",""
"819","img/90_300.png","70","image-keyboard-response","265","389616","0.0-6.0-1.129","ALGO","3","m","rechts","21","","","self","f","90","true"
"null","<div style=""font-size:60px;"">+</div>","null","html-keyboard-response","266","390017","0.0-6.0-0.130","ALGO","3","m","rechts","21","","fixation","","","",""
"713","img/60_270.png","70","image-keyboard-response","267","390731","0.0-6.0-1.130","ALGO","3","m","rechts","21","","","self","f","60","true"
"null","<div style=""font-size:60px;"">+</div>","null","html-keyboard-response","268","391032","0.0-6.0-0.131","ALGO","3","m","rechts","21","","fixation","","","",""
"902","img/150_240.png","74","image-keyboard-response","269","391936","0.0-6.0-1.131","ALGO","3","m","rechts","21","","","self","j","150","true"
"null","<div style=""font-size:60px;"">+</div>","null","html-keyboard-response","270","392437","0.0-6.0-0.132","ALGO","3","m","rechts","21","","fixation","","","",""
"859","img/L120_180.png","70","image-keyboard-response","271","393297","0.0-6.0-1.132","ALGO","3","m","rechts","21","","","self","f","120","true"
"null","<div style=""font-size:60px;"">+</div>","null","html-keyboard-response","272","393699","0.0-6.0-0.133","ALGO","3","m","rechts","21","","fixation","","","",""
"795","img/L30_180.png","70","image-keyboard-response","273","394495","0.0-6.0-1.133","ALGO","3","m","rechts","21","","","self","f","30","true"
"null","<div style=""font-size:60px;"">+</div>","null","html-keyboard-response","274","394897","0.0-6.0-0.134","ALGO","3","m","rechts","21","","fixation","","","",""
"904","img/120_270.png","74","image-keyboard-response","275","395802","0.0-6.0-1.134","ALGO","3","m","rechts","21","","","self","j","120","true"
"null","<div style=""font-size:60px;"">+</div>","null","html-keyboard-response","276","396204","0.0-6.0-0.135","ALGO","3","m","rechts","21","","fixation","","","",""
"981","img/150_90.png","70","image-keyboard-response","277","397186","0.0-6.0-1.135","ALGO","3","m","rechts","21","","","self","f","150","true"
"null","<div style=""font-size:60px;"">+</div>","null","html-keyboard-response","278","397638","0.0-6.0-0.136","ALGO","3","m","rechts","21","","fixation","","","",""
"781","img/90_60.png","74","image-keyboard-response","279","398419","0.0-6.0-1.136","ALGO","3","m","rechts","21","","","self","j","90","true"
"null","<div style=""font-size:60px;"">+</div>","null","html-keyboard-response","280","398821","0.0-6.0-0.137","ALGO","3","m","rechts","21","","fixation","","","",""
"745","img/60_330.png","70","image-keyboard-response","281","399567","0.0-6.0-1.137","ALGO","3","m","rechts","21","","","self","f","60","true"
"null","<div style=""font-size:60px;"">+</div>","null","html-keyboard-response","282","399869","0.0-6.0-0.138","ALGO","3","m","rechts","21","","fixation","","","",""
"752","img/30_240.png","70","image-keyboard-response","283","400622","0.0-6.0-1.138","ALGO","3","m","rechts","21","","","self","f","30","true"
"null","<div style=""font-size:60px;"">+</div>","null","html-keyboard-response","284","400974","0.0-6.0-0.139","ALGO","3","m","rechts","21","","fixation","","","",""
"797","img/90_120.png","74","image-keyboard-response","285","401771","0.0-6.0-1.139","ALGO","3","m","rechts","21","","","self","f","90","false"
"null","<div style=""font-size:60px;"">+</div>","null","html-keyboard-response","286","402223","0.0-6.0-0.140","ALGO","3","m","rechts","21","","fixation","","","",""
"817","img/60_30.png","74","image-keyboard-response","287","403041","0.0-6.0-1.140","ALGO","3","m","rechts","21","","","self","j","60","true"
"null","<div style=""font-size:60px;"">+</div>","null","html-keyboard-response","288","403393","0.0-6.0-0.141","ALGO","3","m","rechts","21","","fixation","","","",""
"768","img/120_210.png","70","image-keyboard-response","289","404161","0.0-6.0-1.141","ALGO","3","m","rechts","21","","","self","j","120","false"
"null","<div style=""font-size:60px;"">+</div>","null","html-keyboard-response","290","404562","0.0-6.0-0.142","ALGO","3","m","rechts","21","","fixation","","","",""
"635","img/0_90.png","74","image-keyboard-response","291","405198","0.0-6.0-1.142","ALGO","3","m","rechts","21","","","self","j","0","true"
"null","<div style=""font-size:60px;"">+</div>","null","html-keyboard-response","292","405500","0.0-6.0-0.143","ALGO","3","m","rechts","21","","fixation","","","",""
"707","img/L90_180.png","70","image-keyboard-response","293","406208","0.0-6.0-1.143","ALGO","3","m","rechts","21","","","self","f","90","true"
"null","<div style=""font-size:60px;"">+</div>","null","html-keyboard-response","294","406510","0.0-6.0-0.144","ALGO","3","m","rechts","21","","fixation","","","",""
"697","img/60_90.png","74","image-keyboard-response","295","407207","0.0-6.0-1.144","ALGO","3","m","rechts","21","","","self","j","60","true"
"null","<div style=""font-size:60px;"">+</div>","null","html-keyboard-response","296","407509","0.0-6.0-0.145","ALGO","3","m","rechts","21","","fixation","","","",""
"709","img/120_90.png","70","image-keyboard-response","297","408218","0.0-6.0-1.145","ALGO","3","m","rechts","21","","","self","f","120","true"
"null","<div style=""font-size:60px;"">+</div>","null","html-keyboard-response","298","408519","0.0-6.0-0.146","ALGO","3","m","rechts","21","","fixation","","","",""
"819","img/60_210.png","74","image-keyboard-response","299","409338","0.0-6.0-1.146","ALGO","3","m","rechts","21","","","self","j","60","true"
"null","<div style=""font-size:60px;"">+</div>","null","html-keyboard-response","300","409790","0.0-6.0-0.147","ALGO","3","m","rechts","21","","fixation","","","",""
"595","img/120_180.png","74","image-keyboard-response","301","410385","0.0-6.0-1.147","ALGO","3","m","rechts","21","","","self","j","120","true"
"null","<div style=""font-size:60px;"">+</div>","null","html-keyboard-response","302","410887","0.0-6.0-0.148","ALGO","3","m","rechts","21","","fixation","","","",""
"579","img/0_240.png","70","image-keyboard-response","303","411466","0.0-6.0-1.148","ALGO","3","m","rechts","21","","","self","f","0","true"
"null","<div style=""font-size:60px;"">+</div>","null","html-keyboard-response","304","411818","0.0-6.0-0.149","ALGO","3","m","rechts","21","","fixation","","","",""
"537","img/L150_180.png","70","image-keyboard-response","305","412355","0.0-6.0-1.149","ALGO","3","m","rechts","21","","","self","f","150","true"
"null","<div style=""font-size:60px;"">+</div>","null","html-keyboard-response","306","412756","0.0-6.0-0.150","ALGO","3","m","rechts","21","","fixation","","","",""
"811","img/60_150.png","70","image-keyboard-response","307","413568","0.0-6.0-1.150","ALGO","3","m","rechts","21","","","self","f","60","true"
"null","<div style=""font-size:60px;"">+</div>","null","html-keyboard-response","308","413920","0.0-6.0-0.151","ALGO","3","m","rechts","21","","fixation","","","",""
"600","img/0_60.png","74","image-keyboard-response","309","414520","0.0-6.0-1.151","ALGO","3","m","rechts","21","","","self","j","0","true"
"null","<div style=""font-size:60px;"">+</div>","null","html-keyboard-response","310","415022","0.0-6.0-0.152","ALGO","3","m","rechts","21","","fixation","","","",""
"625","img/0_210.png","70","image-keyboard-response","311","415647","0.0-6.0-1.152","ALGO","3","m","rechts","21","","","self","f","0","true"
"null","<div style=""font-size:60px;"">+</div>","null","html-keyboard-response","312","416099","0.0-6.0-0.153","ALGO","3","m","rechts","21","","fixation","","","",""
"796","img/120_30.png","74","image-keyboard-response","313","416895","0.0-6.0-1.153","ALGO","3","m","rechts","21","","","self","j","120","true"
"null","<div style=""font-size:60px;"">+</div>","null","html-keyboard-response","314","417247","0.0-6.0-0.154","ALGO","3","m","rechts","21","","fixation","","","",""
"739","img/30_270.png","70","image-keyboard-response","315","417986","0.0-6.0-1.154","ALGO","3","m","rechts","21","","","self","f","30","true"
"null","<div style=""font-size:60px;"">+</div>","null","html-keyboard-response","316","418488","0.0-6.0-0.155","ALGO","3","m","rechts","21","","fixation","","","",""
"707","img/L60_180.png","70","image-keyboard-response","317","419195","0.0-6.0-1.155","ALGO","3","m","rechts","21","","","self","f","60","true"
"null","<div style=""font-size:60px;"">+</div>","null","html-keyboard-response","318","419497","0.0-6.0-0.156","ALGO","3","m","rechts","21","","fixation","","","",""
"677","img/60_270.png","70","image-keyboard-response","319","420174","0.0-6.0-1.156","ALGO","3","m","rechts","21","","","self","f","60","true"
"null","<div style=""font-size:60px;"">+</div>","null","html-keyboard-response","320","420675","0.0-6.0-0.157","ALGO","3","m","rechts","21","","fixation","","","",""
"811","img/30_120.png","74","image-keyboard-response","321","421487","0.0-6.0-1.157","ALGO","3","m","rechts","21","","","self","j","30","true"
"null","<div style=""font-size:60px;"">+</div>","null","html-keyboard-response","322","421889","0.0-6.0-0.158","ALGO","3","m","rechts","21","","fixation","","","",""
"809","img/0_210.png","70","image-keyboard-response","323","422699","0.0-6.0-1.158","ALGO","3","m","rechts","21","","","self","f","0","true"
"null","<div style=""font-size:60px;"">+</div>","null","html-keyboard-response","324","423200","0.0-6.0-0.159","ALGO","3","m","rechts","21","","fixation","","","",""
"797","img/60_30.png","74","image-keyboard-response","325","423999","0.0-6.0-1.159","ALGO","3","m","rechts","21","","","self","j","60","true"
"null","<div style=""font-size:60px;"">+</div>","null","html-keyboard-response","326","424400","0.0-6.0-0.160","ALGO","3","m","rechts","21","","fixation","","","",""
"949","img/150_300.png","74","image-keyboard-response","327","425350","0.0-6.0-1.160","ALGO","3","m","rechts","21","","","self","j","150","true"
"null","<div style=""font-size:60px;"">+</div>","null","html-keyboard-response","328","425651","0.0-6.0-0.161","ALGO","3","m","rechts","21","","fixation","","","",""
"819","img/150_90.png","70","image-keyboard-response","329","426472","0.0-6.0-1.161","ALGO","3","m","rechts","21","","","self","f","150","true"
"null","<div style=""font-size:60px;"">+</div>","null","html-keyboard-response","330","426923","0.0-6.0-0.162","ALGO","3","m","rechts","21","","fixation","","","",""
"772","img/150_180.png","74","image-keyboard-response","331","427696","0.0-6.0-1.162","ALGO","3","m","rechts","21","","","self","j","150","true"
"null","<div style=""font-size:60px;"">+</div>","null","html-keyboard-response","332","428147","0.0-6.0-0.163","ALGO","3","m","rechts","21","","fixation","","","",""
"630","img/0_240.png","70","image-keyboard-response","333","428779","0.0-6.0-1.163","ALGO","3","m","rechts","21","","","self","f","0","true"
"null","<div style=""font-size:60px;"">+</div>","null","html-keyboard-response","334","429080","0.0-6.0-0.164","ALGO","3","m","rechts","21","","fixation","","","",""
"693","img/30_90.png","74","image-keyboard-response","335","429774","0.0-6.0-1.164","ALGO","3","m","rechts","21","","","self","j","30","true"
"null","<div style=""font-size:60px;"">+</div>","null","html-keyboard-response","336","430276","0.0-6.0-0.165","ALGO","3","m","rechts","21","","fixation","","","",""
"784","img/120_180.png","74","image-keyboard-response","337","431061","0.0-6.0-1.165","ALGO","3","m","rechts","21","","","self","j","120","true"
"null","<div style=""font-size:60px;"">+</div>","null","html-keyboard-response","338","431412","0.0-6.0-0.166","ALGO","3","m","rechts","21","","fixation","","","",""
"772","img/120_210.png","74","image-keyboard-response","339","432185","0.0-6.0-1.166","ALGO","3","m","rechts","21","","","self","j","120","true"
"null","<div style=""font-size:60px;"">+</div>","null","html-keyboard-response","340","432686","0.0-6.0-0.167","ALGO","3","m","rechts","21","","fixation","","","",""
"655","img/0_270.png","70","image-keyboard-response","341","433343","0.0-6.0-1.167","ALGO","3","m","rechts","21","","","self","f","0","true"
"null","<div style=""font-size:60px;"">+</div>","null","html-keyboard-response","342","433794","0.0-6.0-0.168","ALGO","3","m","rechts","21","","fixation","","","",""
"793","img/L90_180.png","70","image-keyboard-response","343","434589","0.0-6.0-1.168","ALGO","3","m","rechts","21","","","self","f","90","true"
"null","<div style=""font-size:60px;"">+</div>","null","html-keyboard-response","344","434940","0.0-6.0-0.169","ALGO","3","m","rechts","21","","fixation","","","",""
"811","img/90_120.png","74","image-keyboard-response","345","435753","0.0-6.0-1.169","ALGO","3","m","rechts","21","","","self","f","90","false"
"null","<div style=""font-size:60px;"">+</div>","null","html-keyboard-response","346","436254","0.0-6.0-0.170","ALGO","3","m","rechts","21","","fixation","","","",""
"893","img/90_330.png","70","image-keyboard-response","347","437149","0.0-6.0-1.170","ALGO","3","m","rechts","21","","","self","f","90","true"
"null","<div style=""font-size:60px;"">+</div>","null","html-keyboard-response","348","437450","0.0-6.0-0.171","ALGO","3","m","rechts","21","","fixation","","","",""
"965","img/150_120.png","70","image-keyboard-response","349","438417","0.0-6.0-1.171","ALGO","3","m","rechts","21","","","self","f","150","true"
"null","<div style=""font-size:60px;"">+</div>","null","html-keyboard-response","350","438818","0.0-6.0-0.172","ALGO","3","m","rechts","21","","fixation","","","",""
"829","img/90_30.png","70","image-keyboard-response","351","439648","0.0-6.0-1.172","ALGO","3","m","rechts","21","","","self","j","90","false"
"null","<div style=""font-size:60px;"">+</div>","null","html-keyboard-response","352","439950","0.0-6.0-0.173","ALGO","3","m","rechts","21","","fixation","","","",""
"866","img/30_300.png","70","image-keyboard-response","353","440818","0.0-6.0-1.173","ALGO","3","m","rechts","21","","","self","f","30","true"
"null","<div style=""font-size:60px;"">+</div>","null","html-keyboard-response","354","441319","0.0-6.0-0.174","ALGO","3","m","rechts","21","","fixation","","","",""
"873","img/60_90.png","74","image-keyboard-response","355","442193","0.0-6.0-1.174","ALGO","3","m","rechts","21","","","self","j","60","true"
"null","<div style=""font-size:60px;"">+</div>","null","html-keyboard-response","356","442645","0.0-6.0-0.175","ALGO","3","m","rechts","21","","fixation","","","",""
"642","img/0_60.png","74","image-keyboard-response","357","443288","0.0-6.0-1.175","ALGO","3","m","rechts","21","","","self","j","0","true"
"null","<div style=""font-size:60px;"">+</div>","null","html-keyboard-response","358","443690","0.0-6.0-0.176","ALGO","3","m","rechts","21","","fixation","","","",""
"724","img/120_90.png","70","image-keyboard-response","359","444415","0.0-6.0-1.176","ALGO","3","m","rechts","21","","","self","f","120","true"
"null","<div style=""font-size:60px;"">+</div>","null","html-keyboard-response","360","444917","0.0-6.0-0.177","ALGO","3","m","rechts","21","","fixation","","","",""
"732","img/90_300.png","74","image-keyboard-response","361","445650","0.0-6.0-1.177","ALGO","3","m","rechts","21","","","self","f","90","false"
"null","<div style=""font-size:60px;"">+</div>","null","html-keyboard-response","362","446151","0.0-6.0-0.178","ALGO","3","m","rechts","21","","fixation","","","",""
"755","img/0_120.png","74","image-keyboard-response","363","446907","0.0-6.0-1.178","ALGO","3","m","rechts","21","","","self","j","0","true"
"null","<div style=""font-size:60px;"">+</div>","null","html-keyboard-response","364","447209","0.0-6.0-0.179","ALGO","3","m","rechts","21","","fixation","","","",""
"671","img/0_90.png","74","image-keyboard-response","365","447882","0.0-6.0-1.179","ALGO","3","m","rechts","21","","","self","j","0","true"
"null","<div style=""font-size:60px;"">+</div>","null","html-keyboard-response","366","448382","0.0-6.0-0.180","ALGO","3","m","rechts","21","","fixation","","","",""
"835","img/L30_180.png","70","image-keyboard-response","367","449218","0.0-6.0-1.180","ALGO","3","m","rechts","21","","","self","f","30","true"
"null","<div style=""font-size:60px;"">+</div>","null","html-keyboard-response","368","449570","0.0-6.0-0.181","ALGO","3","m","rechts","21","","fixation","","","",""
"697","img/60_150.png","70","image-keyboard-response","369","450267","0.0-6.0-1.181","ALGO","3","m","rechts","21","","","self","f","60","true"
"null","<div style=""font-size:60px;"">+</div>","null","html-keyboard-response","370","450769","0.0-6.0-0.182","ALGO","3","m","rechts","21","","fixation","","","",""
"766","img/150_270.png","74","image-keyboard-response","371","451536","0.0-6.0-1.182","ALGO","3","m","rechts","21","","","self","j","150","true"
"null","<div style=""font-size:60px;"">+</div>","null","html-keyboard-response","372","451888","0.0-6.0-0.183","ALGO","3","m","rechts","21","","fixation","","","",""
"745","img/120_150.png","70","image-keyboard-response","373","452633","0.0-6.0-1.183","ALGO","3","m","rechts","21","","","self","f","120","true"
"null","<div style=""font-size:60px;"">+</div>","null","html-keyboard-response","374","453085","0.0-6.0-0.184","ALGO","3","m","rechts","21","","fixation","","","",""
"684","img/30_180.png","74","image-keyboard-response","375","453769","0.0-6.0-1.184","ALGO","3","m","rechts","21","","","self","j","30","true"
"null","<div style=""font-size:60px;"">+</div>","null","html-keyboard-response","376","454071","0.0-6.0-0.185","ALGO","3","m","rechts","21","","fixation","","","",""
"980","img/150_240.png","74","image-keyboard-response","377","455052","0.0-6.0-1.185","ALGO","3","m","rechts","21","","","self","j","150","true"
"null","<div style=""font-size:60px;"">+</div>","null","html-keyboard-response","378","455454","0.0-6.0-0.186","ALGO","3","m","rechts","21","","fixation","","","",""
"649","img/120_270.png","74","image-keyboard-response","379","456103","0.0-6.0-1.186","ALGO","3","m","rechts","21","","","self","j","120","true"
"null","<div style=""font-size:60px;"">+</div>","null","html-keyboard-response","380","456455","0.0-6.0-0.187","ALGO","3","m","rechts","21","","fixation","","","",""
"643","img/150_60.png","70","image-keyboard-response","381","457098","0.0-6.0-1.187","ALGO","3","m","rechts","21","","","self","f","150","true"
"null","<div style=""font-size:60px;"">+</div>","null","html-keyboard-response","382","457450","0.0-6.0-0.188","ALGO","3","m","rechts","21","","fixation","","","",""
"1005","img/90_240.png","74","image-keyboard-response","383","458455","0.0-6.0-1.188","ALGO","3","m","rechts","21","","","self","j","90","true"
"null","<div style=""font-size:60px;"">+</div>","null","html-keyboard-response","384","458957","0.0-6.0-0.189","ALGO","3","m","rechts","21","","fixation","","","",""
"651","img/0_30.png","74","image-keyboard-response","385","459609","0.0-6.0-1.189","ALGO","3","m","rechts","21","","","self","j","0","true"
"null","<div style=""font-size:60px;"">+</div>","null","html-keyboard-response","386","460010","0.0-6.0-0.190","ALGO","3","m","rechts","21","","fixation","","","",""
"790","img/90_180.png","74","image-keyboard-response","387","460801","0.0-6.0-1.190","ALGO","3","m","rechts","21","","","self","j","90","true"
"null","<div style=""font-size:60px;"">+</div>","null","html-keyboard-response","388","461103","0.0-6.0-0.191","ALGO","3","m","rechts","21","","fixation","","","",""
"621","img/60_180.png","74","image-keyboard-response","389","461724","0.0-6.0-1.191","ALGO","3","m","rechts","21","","","self","j","60","true"
"null","<div style=""font-size:60px;"">+</div>","null","html-keyboard-response","390","462225","0.0-6.0-0.192","ALGO","3","m","rechts","21","","fixation","","","",""
"993","img/120_30.png","70","image-keyboard-response","391","463219","0.0-6.0-1.192","ALGO","3","m","rechts","21","","","self","j","120","false"
"null","<div style=""font-size:60px;"">+</div>","null","html-keyboard-response","392","463671","0.0-6.0-0.193","ALGO","3","m","rechts","21","","fixation","","","",""
"822","img/L60_180.png","70","image-keyboard-response","393","464493","0.0-6.0-1.193","ALGO","3","m","rechts","21","","","self","f","60","true"
"null","<div style=""font-size:60px;"">+</div>","null","html-keyboard-response","394","464995","0.0-6.0-0.194","ALGO","3","m","rechts","21","","fixation","","","",""
"767","img/60_210.png","74","image-keyboard-response","395","465762","0.0-6.0-1.194","ALGO","3","m","rechts","21","","","self","j","60","true"
"null","<div style=""font-size:60px;"">+</div>","null","html-keyboard-response","396","466214","0.0-6.0-0.195","ALGO","3","m","rechts","21","","fixation","","","",""
"744","img/90_210.png","74","image-keyboard-response","397","466958","0.0-6.0-1.195","ALGO","3","m","rechts","21","","","self","j","90","true"
"null","<div style=""font-size:60px;"">+</div>","null","html-keyboard-response","398","467260","0.0-6.0-0.196","ALGO","3","m","rechts","21","","fixation","","","",""
"973","img/120_330.png","70","image-keyboard-response","399","468233","0.0-6.0-1.196","ALGO","3","m","rechts","21","","","self","f","120","true"
"null","<div style=""font-size:60px;"">+</div>","null","html-keyboard-response","400","468534","0.0-6.0-0.197","ALGO","3","m","rechts","21","","fixation","","","",""
"787","img/L120_180.png","74","image-keyboard-response","401","469322","0.0-6.0-1.197","ALGO","3","m","rechts","21","","","self","f","120","false"
"null","<div style=""font-size:60px;"">+</div>","null","html-keyboard-response","402","469624","0.0-6.0-0.198","ALGO","3","m","rechts","21","","fixation","","","",""
"923","img/90_60.png","74","image-keyboard-response","403","470547","0.0-6.0-1.198","ALGO","3","m","rechts","21","","","self","j","90","true"
"null","<div style=""font-size:60px;"">+</div>","null","html-keyboard-response","404","470899","0.0-6.0-0.199","ALGO","3","m","rechts","21","","fixation","","","",""
"679","img/0_330.png","70","image-keyboard-response","405","471578","0.0-6.0-1.199","ALGO","3","m","rechts","21","","","self","f","0","true"
"null","<div style=""font-size:60px;"">+</div>","null","html-keyboard-response","406","471880","0.0-6.0-0.200","ALGO","3","m","rechts","21","","fixation","","","",""
"805","img/L150_180.png","70","image-keyboard-response","407","472685","0.0-6.0-1.200","ALGO","3","m","rechts","21","","","self","f","150","true"
"null","<div style=""font-size:60px;"">+</div>","null","html-keyboard-response","408","473087","0.0-6.0-0.201","ALGO","3","m","rechts","21","","fixation","","","",""
"889","img/30_60.png","74","image-keyboard-response","409","473976","0.0-6.0-1.201","ALGO","3","m","rechts","21","","","self","j","30","true"
"null","<div style=""font-size:60px;"">+</div>","null","html-keyboard-response","410","474277","0.0-6.0-0.202","ALGO","3","m","rechts","21","","fixation","","","",""
"629","img/90_150.png","70","image-keyboard-response","411","474907","0.0-6.0-1.202","ALGO","3","m","rechts","21","","","self","f","90","true"
"null","<div style=""font-size:60px;"">+</div>","null","html-keyboard-response","412","475409","0.0-6.0-0.203","ALGO","3","m","rechts","21","","fixation","","","",""
"679","img/60_330.png","74","image-keyboard-response","413","476088","0.0-6.0-1.203","ALGO","3","m","rechts","21","","","self","f","60","false"
"null","<div style=""font-size:60px;"">+</div>","null","html-keyboard-response","414","476390","0.0-6.0-0.204","ALGO","3","m","rechts","21","","fixation","","","",""
"769","img/0_150.png","74","image-keyboard-response","415","477160","0.0-6.0-1.204","ALGO","3","m","rechts","21","","","self","j","0","true"
"null","<div style=""font-size:60px;"">+</div>","null","html-keyboard-response","416","477561","0.0-6.0-0.205","ALGO","3","m","rechts","21","","fixation","","","",""
"1149","img/30_240.png","70","image-keyboard-response","417","478712","0.0-6.0-1.205","ALGO","3","m","rechts","21","","","self","f","30","true"
"null","<div style=""font-size:60px;"">+</div>","null","html-keyboard-response","418","479213","0.0-6.0-0.206","ALGO","3","m","rechts","21","","fixation","","","",""
"708","img/0_300.png","70","image-keyboard-response","419","479922","0.0-6.0-1.206","ALGO","3","m","rechts","21","","","self","f","0","true"
"null","<div style=""font-size:60px;"">+</div>","null","html-keyboard-response","420","480223","0.0-6.0-0.207","ALGO","3","m","rechts","21","","fixation","","","",""
"802","img/30_270.png","70","image-keyboard-response","421","481026","0.0-6.0-1.207","ALGO","3","m","rechts","21","","","self","f","30","true"
"56949","<p>Du hast in 90% der Versuche korrekt entschieden.</p><p>Deine durchschnittliche Reaktionszeit war  789ms.</p><p>Dr&uuml;cke eine beliebige Taste, um die Session zu beenden. Vielen Dank!</p>","71","html-keyboard-response","422","537976","0.0-7.0","ALGO","3","m","rechts","21","","","","","",""
