"rt","stimulus","key_press","trial_type","trial_index","time_elapsed","internal_node_id","subject","session","sex","handedness","age","responses","test_part","condition","correct_response","angle","correct"
"2149","<p>Mental Rotation Experiment.</p> <p>Dr&uuml;cke eine beliebige Taste, um anzufangen.</p>","70","html-keyboard-response","0","2152","0.0-0.0","SORE","4","f","rechts","24","","","","","",""
"3696","","","survey-text","1","5849","0.0-1.0","SORE","4","f","rechts","24","{""Q0"":""SORE""}","","","","",""
"1852","","","survey-text","2","7703","0.0-2.0","SORE","4","f","rechts","24","{""Q0"":""4""}","","","","",""
"3322","","","survey-multi-choice","3","11028","0.0-3.0","SORE","4","f","rechts","24","{""Q0"":""f"",""Q1"":""rechts""}","","","","",""
"1979","","","survey-text","4","13008","0.0-4.0","SORE","4","f","rechts","24","{""Q0"":""24""}","","","","",""
"13296","<p>Stell dir vor, dass du vor einem runden Tisch stehst, auf dem sich ein blauer Ball am Tischrand befindet. Entlang des Tischrands ist jeweils ein verschieden langer Pfeil. Nun bleibst du an deinem Platz vor dem Tisch und rotierst den Tisch entlang des Pfeils (gleiche Richtung und Länge). </p> <img src='img/30_180.png'></img> <br><p> Nachdem du diese (vorgestellte) Rotation durchgef&uuml;hrt hast, schau in Richtung der Tischmitte, und entscheide dann, ob der Ball links oder rechts von dir liegt.</p> <p>Dr&uuml;cke die <strong>'f'</strong>-Taste f&uuml;r links, die <strong>'j'</strong>-Taste f&uuml;r rechts.</p><br><p> Das Bild wird jeweils 1 Sekunde lang pr&auml;sentiert. Du hast 3 Sekunden Zeit eine Entscheidung zu treffen.</p>","32","html-keyboard-response","5","26306","0.0-5.0","SORE","4","f","rechts","24","","","","","",""
"null","<div style=""font-size:60px;"">+</div>","null","html-keyboard-response","6","27610","0.0-6.0-0.0","SORE","4","f","rechts","24","","fixation","","","",""
"1079","img/0_240.png","70","image-keyboard-response","7","28692","0.0-6.0-1.0","SORE","4","f","rechts","24","","","object","f","0","true"
"null","<div style=""font-size:60px;"">+</div>","null","html-keyboard-response","8","29044","0.0-6.0-0.1","SORE","4","f","rechts","24","","fixation","","","",""
"800","img/L150_180.png","74","image-keyboard-response","9","29845","0.0-6.0-1.1","SORE","4","f","rechts","24","","","object","j","150","true"
"null","<div style=""font-size:60px;"">+</div>","null","html-keyboard-response","10","30197","0.0-6.0-0.2","SORE","4","f","rechts","24","","fixation","","","",""
"849","img/60_180.png","70","image-keyboard-response","11","31048","0.0-6.0-1.2","SORE","4","f","rechts","24","","","object","f","60","true"
"null","<div style=""font-size:60px;"">+</div>","null","html-keyboard-response","12","31549","0.0-6.0-0.3","SORE","4","f","rechts","24","","fixation","","","",""
"778","img/0_90.png","74","image-keyboard-response","13","32329","0.0-6.0-1.3","SORE","4","f","rechts","24","","","object","j","0","true"
"null","<div style=""font-size:60px;"">+</div>","null","html-keyboard-response","14","32679","0.0-6.0-0.4","SORE","4","f","rechts","24","","fixation","","","",""
"785","img/150_240.png","74","image-keyboard-response","15","33467","0.0-6.0-1.4","SORE","4","f","rechts","24","","","object","j","150","true"
"null","<div style=""font-size:60px;"">+</div>","null","html-keyboard-response","16","33918","0.0-6.0-0.5","SORE","4","f","rechts","24","","fixation","","","",""
"795","img/120_150.png","70","image-keyboard-response","17","34715","0.0-6.0-1.5","SORE","4","f","rechts","24","","","object","j","120","false"
"null","<div style=""font-size:60px;"">+</div>","null","html-keyboard-response","18","35016","0.0-6.0-0.6","SORE","4","f","rechts","24","","fixation","","","",""
"834","img/90_150.png","74","image-keyboard-response","19","35852","0.0-6.0-1.6","SORE","4","f","rechts","24","","","object","j","90","true"
"null","<div style=""font-size:60px;"">+</div>","null","html-keyboard-response","20","36153","0.0-6.0-0.7","SORE","4","f","rechts","24","","fixation","","","",""
"1012","img/L120_180.png","74","image-keyboard-response","21","37166","0.0-6.0-1.7","SORE","4","f","rechts","24","","","object","j","120","true"
"null","<div style=""font-size:60px;"">+</div>","null","html-keyboard-response","22","37568","0.0-6.0-0.8","SORE","4","f","rechts","24","","fixation","","","",""
"909","img/90_210.png","70","image-keyboard-response","23","38478","0.0-6.0-1.8","SORE","4","f","rechts","24","","","object","f","90","true"
"null","<div style=""font-size:60px;"">+</div>","null","html-keyboard-response","24","38930","0.0-6.0-0.9","SORE","4","f","rechts","24","","fixation","","","",""
"721","img/60_330.png","74","image-keyboard-response","25","39652","0.0-6.0-1.9","SORE","4","f","rechts","24","","","object","j","60","true"
"null","<div style=""font-size:60px;"">+</div>","null","html-keyboard-response","26","39954","0.0-6.0-0.10","SORE","4","f","rechts","24","","fixation","","","",""
"796","img/0_210.png","70","image-keyboard-response","27","40751","0.0-6.0-1.10","SORE","4","f","rechts","24","","","object","f","0","true"
"null","<div style=""font-size:60px;"">+</div>","null","html-keyboard-response","28","41203","0.0-6.0-0.11","SORE","4","f","rechts","24","","fixation","","","",""
"734","img/120_30.png","70","image-keyboard-response","29","41938","0.0-6.0-1.11","SORE","4","f","rechts","24","","","object","f","120","true"
"null","<div style=""font-size:60px;"">+</div>","null","html-keyboard-response","30","42240","0.0-6.0-0.12","SORE","4","f","rechts","24","","fixation","","","",""
"889","img/150_270.png","74","image-keyboard-response","31","43131","0.0-6.0-1.12","SORE","4","f","rechts","24","","","object","j","150","true"
"null","<div style=""font-size:60px;"">+</div>","null","html-keyboard-response","32","43432","0.0-6.0-0.13","SORE","4","f","rechts","24","","fixation","","","",""
"1096","img/90_120.png","74","image-keyboard-response","33","44529","0.0-6.0-1.13","SORE","4","f","rechts","24","","","object","j","90","true"
"null","<div style=""font-size:60px;"">+</div>","null","html-keyboard-response","34","44881","0.0-6.0-0.14","SORE","4","f","rechts","24","","fixation","","","",""
"840","img/60_90.png","74","image-keyboard-response","35","45722","0.0-6.0-1.14","SORE","4","f","rechts","24","","","object","j","60","true"
"null","<div style=""font-size:60px;"">+</div>","null","html-keyboard-response","36","46023","0.0-6.0-0.15","SORE","4","f","rechts","24","","fixation","","","",""
"989","img/L90_180.png","74","image-keyboard-response","37","47013","0.0-6.0-1.15","SORE","4","f","rechts","24","","","object","j","90","true"
"null","<div style=""font-size:60px;"">+</div>","null","html-keyboard-response","38","47415","0.0-6.0-0.16","SORE","4","f","rechts","24","","fixation","","","",""
"769","img/0_150.png","74","image-keyboard-response","39","48185","0.0-6.0-1.16","SORE","4","f","rechts","24","","","object","j","0","true"
"null","<div style=""font-size:60px;"">+</div>","null","html-keyboard-response","40","48587","0.0-6.0-0.17","SORE","4","f","rechts","24","","fixation","","","",""
"701","img/0_30.png","74","image-keyboard-response","41","49289","0.0-6.0-1.17","SORE","4","f","rechts","24","","","object","j","0","true"
"null","<div style=""font-size:60px;"">+</div>","null","html-keyboard-response","42","49641","0.0-6.0-0.18","SORE","4","f","rechts","24","","fixation","","","",""
"1053","img/30_300.png","70","image-keyboard-response","43","50695","0.0-6.0-1.18","SORE","4","f","rechts","24","","","object","f","30","true"
"null","<div style=""font-size:60px;"">+</div>","null","html-keyboard-response","44","51046","0.0-6.0-0.19","SORE","4","f","rechts","24","","fixation","","","",""
"981","img/0_270.png","70","image-keyboard-response","45","52028","0.0-6.0-1.19","SORE","4","f","rechts","24","","","object","f","0","true"
"null","<div style=""font-size:60px;"">+</div>","null","html-keyboard-response","46","52329","0.0-6.0-0.20","SORE","4","f","rechts","24","","fixation","","","",""
"807","img/30_120.png","74","image-keyboard-response","47","53137","0.0-6.0-1.20","SORE","4","f","rechts","24","","","object","j","30","true"
"null","<div style=""font-size:60px;"">+</div>","null","html-keyboard-response","48","53639","0.0-6.0-0.21","SORE","4","f","rechts","24","","fixation","","","",""
"956","img/60_270.png","74","image-keyboard-response","49","54596","0.0-6.0-1.21","SORE","4","f","rechts","24","","","object","f","60","false"
"null","<div style=""font-size:60px;"">+</div>","null","html-keyboard-response","50","55047","0.0-6.0-0.22","SORE","4","f","rechts","24","","fixation","","","",""
"1194","img/30_60.png","74","image-keyboard-response","51","56242","0.0-6.0-1.22","SORE","4","f","rechts","24","","","object","j","30","true"
"null","<div style=""font-size:60px;"">+</div>","null","html-keyboard-response","52","56544","0.0-6.0-0.23","SORE","4","f","rechts","24","","fixation","","","",""
"844","img/30_180.png","70","image-keyboard-response","53","57389","0.0-6.0-1.23","SORE","4","f","rechts","24","","","object","f","30","true"
"null","<div style=""font-size:60px;"">+</div>","null","html-keyboard-response","54","57891","0.0-6.0-0.24","SORE","4","f","rechts","24","","fixation","","","",""
"1399","img/120_90.png","70","image-keyboard-response","55","59291","0.0-6.0-1.24","SORE","4","f","rechts","24","","","object","f","120","true"
"null","<div style=""font-size:60px;"">+</div>","null","html-keyboard-response","56","59693","0.0-6.0-0.25","SORE","4","f","rechts","24","","fixation","","","",""
"851","img/L60_180.png","74","image-keyboard-response","57","60545","0.0-6.0-1.25","SORE","4","f","rechts","24","","","object","j","60","true"
"null","<div style=""font-size:60px;"">+</div>","null","html-keyboard-response","58","60997","0.0-6.0-0.26","SORE","4","f","rechts","24","","fixation","","","",""
"894","img/60_210.png","70","image-keyboard-response","59","61892","0.0-6.0-1.26","SORE","4","f","rechts","24","","","object","f","60","true"
"null","<div style=""font-size:60px;"">+</div>","null","html-keyboard-response","60","62244","0.0-6.0-0.27","SORE","4","f","rechts","24","","fixation","","","",""
"820","img/150_300.png","74","image-keyboard-response","61","63065","0.0-6.0-1.27","SORE","4","f","rechts","24","","","object","j","150","true"
"null","<div style=""font-size:60px;"">+</div>","null","html-keyboard-response","62","63517","0.0-6.0-0.28","SORE","4","f","rechts","24","","fixation","","","",""
"704","img/90_30.png","70","image-keyboard-response","63","64222","0.0-6.0-1.28","SORE","4","f","rechts","24","","","object","f","90","true"
"null","<div style=""font-size:60px;"">+</div>","null","html-keyboard-response","64","64624","0.0-6.0-0.29","SORE","4","f","rechts","24","","fixation","","","",""
"816","img/30_90.png","74","image-keyboard-response","65","65441","0.0-6.0-1.29","SORE","4","f","rechts","24","","","object","j","30","true"
"null","<div style=""font-size:60px;"">+</div>","null","html-keyboard-response","66","65793","0.0-6.0-0.30","SORE","4","f","rechts","24","","fixation","","","",""
"915","img/150_120.png","70","image-keyboard-response","67","66709","0.0-6.0-1.30","SORE","4","f","rechts","24","","","object","f","150","true"
"null","<div style=""font-size:60px;"">+</div>","null","html-keyboard-response","68","67111","0.0-6.0-0.31","SORE","4","f","rechts","24","","fixation","","","",""
"1139","img/120_210.png","70","image-keyboard-response","69","68251","0.0-6.0-1.31","SORE","4","f","rechts","24","","","object","f","120","true"
"null","<div style=""font-size:60px;"">+</div>","null","html-keyboard-response","70","68553","0.0-6.0-0.32","SORE","4","f","rechts","24","","fixation","","","",""
"1076","img/150_180.png","70","image-keyboard-response","71","69630","0.0-6.0-1.32","SORE","4","f","rechts","24","","","object","f","150","true"
"null","<div style=""font-size:60px;"">+</div>","null","html-keyboard-response","72","70032","0.0-6.0-0.33","SORE","4","f","rechts","24","","fixation","","","",""
"835","img/120_270.png","74","image-keyboard-response","73","70869","0.0-6.0-1.33","SORE","4","f","rechts","24","","","object","j","120","true"
"null","<div style=""font-size:60px;"">+</div>","null","html-keyboard-response","74","71221","0.0-6.0-0.34","SORE","4","f","rechts","24","","fixation","","","",""
"853","img/0_60.png","74","image-keyboard-response","75","72076","0.0-6.0-1.34","SORE","4","f","rechts","24","","","object","j","0","true"
"null","<div style=""font-size:60px;"">+</div>","null","html-keyboard-response","76","72478","0.0-6.0-0.35","SORE","4","f","rechts","24","","fixation","","","",""
"682","img/90_300.png","74","image-keyboard-response","77","73161","0.0-6.0-1.35","SORE","4","f","rechts","24","","","object","j","90","true"
"null","<div style=""font-size:60px;"">+</div>","null","html-keyboard-response","78","73663","0.0-6.0-0.36","SORE","4","f","rechts","24","","fixation","","","",""
"804","img/60_150.png","74","image-keyboard-response","79","74469","0.0-6.0-1.36","SORE","4","f","rechts","24","","","object","j","60","true"
"null","<div style=""font-size:60px;"">+</div>","null","html-keyboard-response","80","74920","0.0-6.0-0.37","SORE","4","f","rechts","24","","fixation","","","",""
"718","img/0_120.png","74","image-keyboard-response","81","75640","0.0-6.0-1.37","SORE","4","f","rechts","24","","","object","j","0","true"
"null","<div style=""font-size:60px;"">+</div>","null","html-keyboard-response","82","75941","0.0-6.0-0.38","SORE","4","f","rechts","24","","fixation","","","",""
"715","img/60_30.png","70","image-keyboard-response","83","76658","0.0-6.0-1.38","SORE","4","f","rechts","24","","","object","f","60","true"
"null","<div style=""font-size:60px;"">+</div>","null","html-keyboard-response","84","77060","0.0-6.0-0.39","SORE","4","f","rechts","24","","fixation","","","",""
"810","img/90_240.png","70","image-keyboard-response","85","77872","0.0-6.0-1.39","SORE","4","f","rechts","24","","","object","f","90","true"
"null","<div style=""font-size:60px;"">+</div>","null","html-keyboard-response","86","78323","0.0-6.0-0.40","SORE","4","f","rechts","24","","fixation","","","",""
"894","img/150_90.png","74","image-keyboard-response","87","79220","0.0-6.0-1.40","SORE","4","f","rechts","24","","","object","f","150","false"
"null","<div style=""font-size:60px;"">+</div>","null","html-keyboard-response","88","79621","0.0-6.0-0.41","SORE","4","f","rechts","24","","fixation","","","",""
"684","img/90_330.png","74","image-keyboard-response","89","80308","0.0-6.0-1.41","SORE","4","f","rechts","24","","","object","j","90","true"
"null","<div style=""font-size:60px;"">+</div>","null","html-keyboard-response","90","80659","0.0-6.0-0.42","SORE","4","f","rechts","24","","fixation","","","",""
"1137","img/L30_180.png","74","image-keyboard-response","91","81799","0.0-6.0-1.42","SORE","4","f","rechts","24","","","object","j","30","true"
"null","<div style=""font-size:60px;"">+</div>","null","html-keyboard-response","92","82300","0.0-6.0-0.43","SORE","4","f","rechts","24","","fixation","","","",""
"1065","img/30_270.png","70","image-keyboard-response","93","83366","0.0-6.0-1.43","SORE","4","f","rechts","24","","","object","f","30","true"
"null","<div style=""font-size:60px;"">+</div>","null","html-keyboard-response","94","83717","0.0-6.0-0.44","SORE","4","f","rechts","24","","fixation","","","",""
"747","img/30_240.png","70","image-keyboard-response","95","84466","0.0-6.0-1.44","SORE","4","f","rechts","24","","","object","f","30","true"
"null","<div style=""font-size:60px;"">+</div>","null","html-keyboard-response","96","84968","0.0-6.0-0.45","SORE","4","f","rechts","24","","fixation","","","",""
"615","img/120_330.png","74","image-keyboard-response","97","85584","0.0-6.0-1.45","SORE","4","f","rechts","24","","","object","j","120","true"
"null","<div style=""font-size:60px;"">+</div>","null","html-keyboard-response","98","86086","0.0-6.0-0.46","SORE","4","f","rechts","24","","fixation","","","",""
"690","img/0_300.png","70","image-keyboard-response","99","86778","0.0-6.0-1.46","SORE","4","f","rechts","24","","","object","f","0","true"
"null","<div style=""font-size:60px;"">+</div>","null","html-keyboard-response","100","87279","0.0-6.0-0.47","SORE","4","f","rechts","24","","fixation","","","",""
"885","img/90_180.png","70","image-keyboard-response","101","88165","0.0-6.0-1.47","SORE","4","f","rechts","24","","","object","f","90","true"
"null","<div style=""font-size:60px;"">+</div>","null","html-keyboard-response","102","88517","0.0-6.0-0.48","SORE","4","f","rechts","24","","fixation","","","",""
"832","img/150_60.png","70","image-keyboard-response","103","89351","0.0-6.0-1.48","SORE","4","f","rechts","24","","","object","f","150","true"
"null","<div style=""font-size:60px;"">+</div>","null","html-keyboard-response","104","89652","0.0-6.0-0.49","SORE","4","f","rechts","24","","fixation","","","",""
"902","img/120_180.png","70","image-keyboard-response","105","90555","0.0-6.0-1.49","SORE","4","f","rechts","24","","","object","f","120","true"
"null","<div style=""font-size:60px;"">+</div>","null","html-keyboard-response","106","91057","0.0-6.0-0.50","SORE","4","f","rechts","24","","fixation","","","",""
"750","img/0_330.png","70","image-keyboard-response","107","91808","0.0-6.0-1.50","SORE","4","f","rechts","24","","","object","f","0","true"
"null","<div style=""font-size:60px;"">+</div>","null","html-keyboard-response","108","92260","0.0-6.0-0.51","SORE","4","f","rechts","24","","fixation","","","",""
"833","img/90_60.png","70","image-keyboard-response","109","93094","0.0-6.0-1.51","SORE","4","f","rechts","24","","","object","f","90","true"
"null","<div style=""font-size:60px;"">+</div>","null","html-keyboard-response","110","93496","0.0-6.0-0.52","SORE","4","f","rechts","24","","fixation","","","",""
"671","img/60_30.png","70","image-keyboard-response","111","94168","0.0-6.0-1.52","SORE","4","f","rechts","24","","","object","f","60","true"
"null","<div style=""font-size:60px;"">+</div>","null","html-keyboard-response","112","94620","0.0-6.0-0.53","SORE","4","f","rechts","24","","fixation","","","",""
"888","img/30_300.png","70","image-keyboard-response","113","95508","0.0-6.0-1.53","SORE","4","f","rechts","24","","","object","f","30","true"
"null","<div style=""font-size:60px;"">+</div>","null","html-keyboard-response","114","95910","0.0-6.0-0.54","SORE","4","f","rechts","24","","fixation","","","",""
"875","img/150_90.png","74","image-keyboard-response","115","96786","0.0-6.0-1.54","SORE","4","f","rechts","24","","","object","f","150","false"
"null","<div style=""font-size:60px;"">+</div>","null","html-keyboard-response","116","97187","0.0-6.0-0.55","SORE","4","f","rechts","24","","fixation","","","",""
"846","img/90_240.png","70","image-keyboard-response","117","98034","0.0-6.0-1.55","SORE","4","f","rechts","24","","","object","f","90","true"
"null","<div style=""font-size:60px;"">+</div>","null","html-keyboard-response","118","98336","0.0-6.0-0.56","SORE","4","f","rechts","24","","fixation","","","",""
"812","img/60_180.png","70","image-keyboard-response","119","99149","0.0-6.0-1.56","SORE","4","f","rechts","24","","","object","f","60","true"
"null","<div style=""font-size:60px;"">+</div>","null","html-keyboard-response","120","99450","0.0-6.0-0.57","SORE","4","f","rechts","24","","fixation","","","",""
"789","img/120_150.png","74","image-keyboard-response","121","100240","0.0-6.0-1.57","SORE","4","f","rechts","24","","","object","j","120","true"
"null","<div style=""font-size:60px;"">+</div>","null","html-keyboard-response","122","100592","0.0-6.0-0.58","SORE","4","f","rechts","24","","fixation","","","",""
"815","img/90_180.png","70","image-keyboard-response","123","101407","0.0-6.0-1.58","SORE","4","f","rechts","24","","","object","f","90","true"
"null","<div style=""font-size:60px;"">+</div>","null","html-keyboard-response","124","101759","0.0-6.0-0.59","SORE","4","f","rechts","24","","fixation","","","",""
"1110","img/120_90.png","70","image-keyboard-response","125","102869","0.0-6.0-1.59","SORE","4","f","rechts","24","","","object","f","120","true"
"null","<div style=""font-size:60px;"">+</div>","null","html-keyboard-response","126","103170","0.0-6.0-0.60","SORE","4","f","rechts","24","","fixation","","","",""
"723","img/0_300.png","70","image-keyboard-response","127","103893","0.0-6.0-1.60","SORE","4","f","rechts","24","","","object","f","0","true"
"null","<div style=""font-size:60px;"">+</div>","null","html-keyboard-response","128","104195","0.0-6.0-0.61","SORE","4","f","rechts","24","","fixation","","","",""
"743","img/L30_180.png","74","image-keyboard-response","129","104939","0.0-6.0-1.61","SORE","4","f","rechts","24","","","object","j","30","true"
"null","<div style=""font-size:60px;"">+</div>","null","html-keyboard-response","130","105441","0.0-6.0-0.62","SORE","4","f","rechts","24","","fixation","","","",""
"852","img/90_120.png","74","image-keyboard-response","131","106293","0.0-6.0-1.62","SORE","4","f","rechts","24","","","object","j","90","true"
"null","<div style=""font-size:60px;"">+</div>","null","html-keyboard-response","132","106645","0.0-6.0-0.63","SORE","4","f","rechts","24","","fixation","","","",""
"741","img/30_270.png","70","image-keyboard-response","133","107386","0.0-6.0-1.63","SORE","4","f","rechts","24","","","object","f","30","true"
"null","<div style=""font-size:60px;"">+</div>","null","html-keyboard-response","134","107788","0.0-6.0-0.64","SORE","4","f","rechts","24","","fixation","","","",""
"955","img/150_180.png","70","image-keyboard-response","135","108744","0.0-6.0-1.64","SORE","4","f","rechts","24","","","object","f","150","true"
"null","<div style=""font-size:60px;"">+</div>","null","html-keyboard-response","136","109096","0.0-6.0-0.65","SORE","4","f","rechts","24","","fixation","","","",""
"786","img/60_270.png","70","image-keyboard-response","137","109883","0.0-6.0-1.65","SORE","4","f","rechts","24","","","object","f","60","true"
"null","<div style=""font-size:60px;"">+</div>","null","html-keyboard-response","138","110335","0.0-6.0-0.66","SORE","4","f","rechts","24","","fixation","","","",""
"702","img/120_30.png","70","image-keyboard-response","139","111038","0.0-6.0-1.66","SORE","4","f","rechts","24","","","object","f","120","true"
"null","<div style=""font-size:60px;"">+</div>","null","html-keyboard-response","140","111490","0.0-6.0-0.67","SORE","4","f","rechts","24","","fixation","","","",""
"783","img/150_270.png","74","image-keyboard-response","141","112274","0.0-6.0-1.67","SORE","4","f","rechts","24","","","object","j","150","true"
"null","<div style=""font-size:60px;"">+</div>","null","html-keyboard-response","142","112625","0.0-6.0-0.68","SORE","4","f","rechts","24","","fixation","","","",""
"729","img/90_330.png","74","image-keyboard-response","143","113354","0.0-6.0-1.68","SORE","4","f","rechts","24","","","object","j","90","true"
"null","<div style=""font-size:60px;"">+</div>","null","html-keyboard-response","144","113806","0.0-6.0-0.69","SORE","4","f","rechts","24","","fixation","","","",""
"697","img/60_330.png","74","image-keyboard-response","145","114503","0.0-6.0-1.69","SORE","4","f","rechts","24","","","object","j","60","true"
"null","<div style=""font-size:60px;"">+</div>","null","html-keyboard-response","146","115005","0.0-6.0-0.70","SORE","4","f","rechts","24","","fixation","","","",""
"802","img/60_150.png","74","image-keyboard-response","147","115807","0.0-6.0-1.70","SORE","4","f","rechts","24","","","object","j","60","true"
"null","<div style=""font-size:60px;"">+</div>","null","html-keyboard-response","148","116209","0.0-6.0-0.71","SORE","4","f","rechts","24","","fixation","","","",""
"673","img/120_330.png","74","image-keyboard-response","149","116883","0.0-6.0-1.71","SORE","4","f","rechts","24","","","object","j","120","true"
"null","<div style=""font-size:60px;"">+</div>","null","html-keyboard-response","150","117284","0.0-6.0-0.72","SORE","4","f","rechts","24","","fixation","","","",""
"1111","img/L120_180.png","74","image-keyboard-response","151","118397","0.0-6.0-1.72","SORE","4","f","rechts","24","","","object","j","120","true"
"null","<div style=""font-size:60px;"">+</div>","null","html-keyboard-response","152","118698","0.0-6.0-0.73","SORE","4","f","rechts","24","","fixation","","","",""
"832","img/L60_180.png","74","image-keyboard-response","153","119532","0.0-6.0-1.73","SORE","4","f","rechts","24","","","object","j","60","true"
"null","<div style=""font-size:60px;"">+</div>","null","html-keyboard-response","154","119933","0.0-6.0-0.74","SORE","4","f","rechts","24","","fixation","","","",""
"820","img/60_210.png","70","image-keyboard-response","155","120754","0.0-6.0-1.74","SORE","4","f","rechts","24","","","object","f","60","true"
"null","<div style=""font-size:60px;"">+</div>","null","html-keyboard-response","156","121256","0.0-6.0-0.75","SORE","4","f","rechts","24","","fixation","","","",""
"597","img/90_300.png","74","image-keyboard-response","157","121854","0.0-6.0-1.75","SORE","4","f","rechts","24","","","object","j","90","true"
"null","<div style=""font-size:60px;"">+</div>","null","html-keyboard-response","158","122305","0.0-6.0-0.76","SORE","4","f","rechts","24","","fixation","","","",""
"770","img/0_150.png","74","image-keyboard-response","159","123076","0.0-6.0-1.76","SORE","4","f","rechts","24","","","object","j","0","true"
"null","<div style=""font-size:60px;"">+</div>","null","html-keyboard-response","160","123527","0.0-6.0-0.77","SORE","4","f","rechts","24","","fixation","","","",""
"648","img/0_90.png","74","image-keyboard-response","161","124175","0.0-6.0-1.77","SORE","4","f","rechts","24","","","object","j","0","true"
"null","<div style=""font-size:60px;"">+</div>","null","html-keyboard-response","162","124476","0.0-6.0-0.78","SORE","4","f","rechts","24","","fixation","","","",""
"728","img/0_270.png","70","image-keyboard-response","163","125206","0.0-6.0-1.78","SORE","4","f","rechts","24","","","object","f","0","true"
"null","<div style=""font-size:60px;"">+</div>","null","html-keyboard-response","164","125507","0.0-6.0-0.79","SORE","4","f","rechts","24","","fixation","","","",""
"1025","img/120_270.png","70","image-keyboard-response","165","126533","0.0-6.0-1.79","SORE","4","f","rechts","24","","","object","j","120","false"
"null","<div style=""font-size:60px;"">+</div>","null","html-keyboard-response","166","126885","0.0-6.0-0.80","SORE","4","f","rechts","24","","fixation","","","",""
"958","img/120_180.png","70","image-keyboard-response","167","127845","0.0-6.0-1.80","SORE","4","f","rechts","24","","","object","f","120","true"
"null","<div style=""font-size:60px;"">+</div>","null","html-keyboard-response","168","128296","0.0-6.0-0.81","SORE","4","f","rechts","24","","fixation","","","",""
"866","img/0_330.png","70","image-keyboard-response","169","129164","0.0-6.0-1.81","SORE","4","f","rechts","24","","","object","f","0","true"
"null","<div style=""font-size:60px;"">+</div>","null","html-keyboard-response","170","129465","0.0-6.0-0.82","SORE","4","f","rechts","24","","fixation","","","",""
"734","img/0_240.png","70","image-keyboard-response","171","130201","0.0-6.0-1.82","SORE","4","f","rechts","24","","","object","f","0","true"
"null","<div style=""font-size:60px;"">+</div>","null","html-keyboard-response","172","130652","0.0-6.0-0.83","SORE","4","f","rechts","24","","fixation","","","",""
"817","img/90_150.png","74","image-keyboard-response","173","131470","0.0-6.0-1.83","SORE","4","f","rechts","24","","","object","j","90","true"
"null","<div style=""font-size:60px;"">+</div>","null","html-keyboard-response","174","131772","0.0-6.0-0.84","SORE","4","f","rechts","24","","fixation","","","",""
"873","img/120_210.png","70","image-keyboard-response","175","132647","0.0-6.0-1.84","SORE","4","f","rechts","24","","","object","f","120","true"
"null","<div style=""font-size:60px;"">+</div>","null","html-keyboard-response","176","133098","0.0-6.0-0.85","SORE","4","f","rechts","24","","fixation","","","",""
"798","img/0_210.png","70","image-keyboard-response","177","133898","0.0-6.0-1.85","SORE","4","f","rechts","24","","","object","f","0","true"
"null","<div style=""font-size:60px;"">+</div>","null","html-keyboard-response","178","134249","0.0-6.0-0.86","SORE","4","f","rechts","24","","fixation","","","",""
"1081","img/30_60.png","74","image-keyboard-response","179","135331","0.0-6.0-1.86","SORE","4","f","rechts","24","","","object","j","30","true"
"null","<div style=""font-size:60px;"">+</div>","null","html-keyboard-response","180","135683","0.0-6.0-0.87","SORE","4","f","rechts","24","","fixation","","","",""
"779","img/L150_180.png","74","image-keyboard-response","181","136463","0.0-6.0-1.87","SORE","4","f","rechts","24","","","object","j","150","true"
"null","<div style=""font-size:60px;"">+</div>","null","html-keyboard-response","182","136815","0.0-6.0-0.88","SORE","4","f","rechts","24","","fixation","","","",""
"844","img/150_240.png","70","image-keyboard-response","183","137660","0.0-6.0-1.88","SORE","4","f","rechts","24","","","object","j","150","false"
"null","<div style=""font-size:60px;"">+</div>","null","html-keyboard-response","184","137962","0.0-6.0-0.89","SORE","4","f","rechts","24","","fixation","","","",""
"878","img/30_180.png","70","image-keyboard-response","185","138840","0.0-6.0-1.89","SORE","4","f","rechts","24","","","object","f","30","true"
"null","<div style=""font-size:60px;"">+</div>","null","html-keyboard-response","186","139242","0.0-6.0-0.90","SORE","4","f","rechts","24","","fixation","","","",""
"899","img/0_30.png","74","image-keyboard-response","187","140142","0.0-6.0-1.90","SORE","4","f","rechts","24","","","object","j","0","true"
"null","<div style=""font-size:60px;"">+</div>","null","html-keyboard-response","188","140444","0.0-6.0-0.91","SORE","4","f","rechts","24","","fixation","","","",""
"772","img/0_120.png","74","image-keyboard-response","189","141217","0.0-6.0-1.91","SORE","4","f","rechts","24","","","object","j","0","true"
"null","<div style=""font-size:60px;"">+</div>","null","html-keyboard-response","190","141669","0.0-6.0-0.92","SORE","4","f","rechts","24","","fixation","","","",""
"792","img/L90_180.png","74","image-keyboard-response","191","142462","0.0-6.0-1.92","SORE","4","f","rechts","24","","","object","j","90","true"
"null","<div style=""font-size:60px;"">+</div>","null","html-keyboard-response","192","142914","0.0-6.0-0.93","SORE","4","f","rechts","24","","fixation","","","",""
"941","img/150_120.png","70","image-keyboard-response","193","143855","0.0-6.0-1.93","SORE","4","f","rechts","24","","","object","f","150","true"
"null","<div style=""font-size:60px;"">+</div>","null","html-keyboard-response","194","144256","0.0-6.0-0.94","SORE","4","f","rechts","24","","fixation","","","",""
"774","img/90_60.png","70","image-keyboard-response","195","145031","0.0-6.0-1.94","SORE","4","f","rechts","24","","","object","f","90","true"
"null","<div style=""font-size:60px;"">+</div>","null","html-keyboard-response","196","145333","0.0-6.0-0.95","SORE","4","f","rechts","24","","fixation","","","",""
"757","img/30_120.png","74","image-keyboard-response","197","146090","0.0-6.0-1.95","SORE","4","f","rechts","24","","","object","j","30","true"
"null","<div style=""font-size:60px;"">+</div>","null","html-keyboard-response","198","146592","0.0-6.0-0.96","SORE","4","f","rechts","24","","fixation","","","",""
"839","img/90_210.png","70","image-keyboard-response","199","147432","0.0-6.0-1.96","SORE","4","f","rechts","24","","","object","f","90","true"
"null","<div style=""font-size:60px;"">+</div>","null","html-keyboard-response","200","147934","0.0-6.0-0.97","SORE","4","f","rechts","24","","fixation","","","",""
"976","img/30_240.png","74","image-keyboard-response","201","148910","0.0-6.0-1.97","SORE","4","f","rechts","24","","","object","f","30","false"
"null","<div style=""font-size:60px;"">+</div>","null","html-keyboard-response","202","149262","0.0-6.0-0.98","SORE","4","f","rechts","24","","fixation","","","",""
"682","img/150_300.png","74","image-keyboard-response","203","149944","0.0-6.0-1.98","SORE","4","f","rechts","24","","","object","j","150","true"
"null","<div style=""font-size:60px;"">+</div>","null","html-keyboard-response","204","150246","0.0-6.0-0.99","SORE","4","f","rechts","24","","fixation","","","",""
"688","img/90_30.png","70","image-keyboard-response","205","150934","0.0-6.0-1.99","SORE","4","f","rechts","24","","","object","f","90","true"
"null","<div style=""font-size:60px;"">+</div>","null","html-keyboard-response","206","151436","0.0-6.0-0.100","SORE","4","f","rechts","24","","fixation","","","",""
"726","img/30_90.png","74","image-keyboard-response","207","152162","0.0-6.0-1.100","SORE","4","f","rechts","24","","","object","j","30","true"
"null","<div style=""font-size:60px;"">+</div>","null","html-keyboard-response","208","152514","0.0-6.0-0.101","SORE","4","f","rechts","24","","fixation","","","",""
"798","img/0_60.png","74","image-keyboard-response","209","153312","0.0-6.0-1.101","SORE","4","f","rechts","24","","","object","j","0","true"
"null","<div style=""font-size:60px;"">+</div>","null","html-keyboard-response","210","153763","0.0-6.0-0.102","SORE","4","f","rechts","24","","fixation","","","",""
"870","img/60_90.png","74","image-keyboard-response","211","154634","0.0-6.0-1.102","SORE","4","f","rechts","24","","","object","j","60","true"
"null","<div style=""font-size:60px;"">+</div>","null","html-keyboard-response","212","155136","0.0-6.0-0.103","SORE","4","f","rechts","24","","fixation","","","",""
"827","img/150_60.png","70","image-keyboard-response","213","155964","0.0-6.0-1.103","SORE","4","f","rechts","24","","","object","f","150","true"
"null","<div style=""font-size:60px;"">+</div>","null","html-keyboard-response","214","156466","0.0-6.0-0.104","SORE","4","f","rechts","24","","fixation","","","",""
"822","img/150_60.png","70","image-keyboard-response","215","157288","0.0-6.0-1.104","SORE","4","f","rechts","24","","","object","f","150","true"
"null","<div style=""font-size:60px;"">+</div>","null","html-keyboard-response","216","157740","0.0-6.0-0.105","SORE","4","f","rechts","24","","fixation","","","",""
"901","img/90_30.png","70","image-keyboard-response","217","158642","0.0-6.0-1.105","SORE","4","f","rechts","24","","","object","f","90","true"
"null","<div style=""font-size:60px;"">+</div>","null","html-keyboard-response","218","159094","0.0-6.0-0.106","SORE","4","f","rechts","24","","fixation","","","",""
"893","img/0_300.png","70","image-keyboard-response","219","159987","0.0-6.0-1.106","SORE","4","f","rechts","24","","","object","f","0","true"
"null","<div style=""font-size:60px;"">+</div>","null","html-keyboard-response","220","160439","0.0-6.0-0.107","SORE","4","f","rechts","24","","fixation","","","",""
"861","img/60_270.png","70","image-keyboard-response","221","161301","0.0-6.0-1.107","SORE","4","f","rechts","24","","","object","f","60","true"
"null","<div style=""font-size:60px;"">+</div>","null","html-keyboard-response","222","161702","0.0-6.0-0.108","SORE","4","f","rechts","24","","fixation","","","",""
"659","img/60_30.png","70","image-keyboard-response","223","162362","0.0-6.0-1.108","SORE","4","f","rechts","24","","","object","f","60","true"
"null","<div style=""font-size:60px;"">+</div>","null","html-keyboard-response","224","162664","0.0-6.0-0.109","SORE","4","f","rechts","24","","fixation","","","",""
"996","img/L90_180.png","74","image-keyboard-response","225","163660","0.0-6.0-1.109","SORE","4","f","rechts","24","","","object","j","90","true"
"null","<div style=""font-size:60px;"">+</div>","null","html-keyboard-response","226","164112","0.0-6.0-0.110","SORE","4","f","rechts","24","","fixation","","","",""
"653","img/90_330.png","74","image-keyboard-response","227","164765","0.0-6.0-1.110","SORE","4","f","rechts","24","","","object","j","90","true"
"null","<div style=""font-size:60px;"">+</div>","null","html-keyboard-response","228","165066","0.0-6.0-0.111","SORE","4","f","rechts","24","","fixation","","","",""
"1087","img/L30_180.png","74","image-keyboard-response","229","166154","0.0-6.0-1.111","SORE","4","f","rechts","24","","","object","j","30","true"
"null","<div style=""font-size:60px;"">+</div>","null","html-keyboard-response","230","166455","0.0-6.0-0.112","SORE","4","f","rechts","24","","fixation","","","",""
"812","img/0_270.png","70","image-keyboard-response","231","167268","0.0-6.0-1.112","SORE","4","f","rechts","24","","","object","f","0","true"
"null","<div style=""font-size:60px;"">+</div>","null","html-keyboard-response","232","167570","0.0-6.0-0.113","SORE","4","f","rechts","24","","fixation","","","",""
"912","img/60_150.png","74","image-keyboard-response","233","168482","0.0-6.0-1.113","SORE","4","f","rechts","24","","","object","j","60","true"
"null","<div style=""font-size:60px;"">+</div>","null","html-keyboard-response","234","168834","0.0-6.0-0.114","SORE","4","f","rechts","24","","fixation","","","",""
"832","img/150_300.png","74","image-keyboard-response","235","169666","0.0-6.0-1.114","SORE","4","f","rechts","24","","","object","j","150","true"
"null","<div style=""font-size:60px;"">+</div>","null","html-keyboard-response","236","170118","0.0-6.0-0.115","SORE","4","f","rechts","24","","fixation","","","",""
"850","img/0_330.png","70","image-keyboard-response","237","170968","0.0-6.0-1.115","SORE","4","f","rechts","24","","","object","f","0","true"
"null","<div style=""font-size:60px;"">+</div>","null","html-keyboard-response","238","171318","0.0-6.0-0.116","SORE","4","f","rechts","24","","fixation","","","",""
"944","img/120_270.png","70","image-keyboard-response","239","172263","0.0-6.0-1.116","SORE","4","f","rechts","24","","","object","j","120","false"
"null","<div style=""font-size:60px;"">+</div>","null","html-keyboard-response","240","172765","0.0-6.0-0.117","SORE","4","f","rechts","24","","fixation","","","",""
"813","img/90_120.png","74","image-keyboard-response","241","173580","0.0-6.0-1.117","SORE","4","f","rechts","24","","","object","j","90","true"
"null","<div style=""font-size:60px;"">+</div>","null","html-keyboard-response","242","173881","0.0-6.0-0.118","SORE","4","f","rechts","24","","fixation","","","",""
"874","img/150_180.png","70","image-keyboard-response","243","174756","0.0-6.0-1.118","SORE","4","f","rechts","24","","","object","f","150","true"
"null","<div style=""font-size:60px;"">+</div>","null","html-keyboard-response","244","175258","0.0-6.0-0.119","SORE","4","f","rechts","24","","fixation","","","",""
"862","img/120_180.png","70","image-keyboard-response","245","176122","0.0-6.0-1.119","SORE","4","f","rechts","24","","","object","f","120","true"
"null","<div style=""font-size:60px;"">+</div>","null","html-keyboard-response","246","176523","0.0-6.0-0.120","SORE","4","f","rechts","24","","fixation","","","",""
"1935","img/60_180.png","70","image-keyboard-response","247","178459","0.0-6.0-1.120","SORE","4","f","rechts","24","","","object","f","60","true"
"null","<div style=""font-size:60px;"">+</div>","null","html-keyboard-response","248","178811","0.0-6.0-0.121","SORE","4","f","rechts","24","","fixation","","","",""
"1057","img/90_180.png","70","image-keyboard-response","249","179870","0.0-6.0-1.121","SORE","4","f","rechts","24","","","object","f","90","true"
"null","<div style=""font-size:60px;"">+</div>","null","html-keyboard-response","250","180171","0.0-6.0-0.122","SORE","4","f","rechts","24","","fixation","","","",""
"996","img/90_150.png","74","image-keyboard-response","251","181168","0.0-6.0-1.122","SORE","4","f","rechts","24","","","object","j","90","true"
"null","<div style=""font-size:60px;"">+</div>","null","html-keyboard-response","252","181670","0.0-6.0-0.123","SORE","4","f","rechts","24","","fixation","","","",""
"1218","img/30_270.png","70","image-keyboard-response","253","182889","0.0-6.0-1.123","SORE","4","f","rechts","24","","","object","f","30","true"
"null","<div style=""font-size:60px;"">+</div>","null","html-keyboard-response","254","183391","0.0-6.0-0.124","SORE","4","f","rechts","24","","fixation","","","",""
"883","img/150_270.png","74","image-keyboard-response","255","184276","0.0-6.0-1.124","SORE","4","f","rechts","24","","","object","j","150","true"
"null","<div style=""font-size:60px;"">+</div>","null","html-keyboard-response","256","184727","0.0-6.0-0.125","SORE","4","f","rechts","24","","fixation","","","",""
"912","img/120_90.png","70","image-keyboard-response","257","185640","0.0-6.0-1.125","SORE","4","f","rechts","24","","","object","f","120","true"
"null","<div style=""font-size:60px;"">+</div>","null","html-keyboard-response","258","186042","0.0-6.0-0.126","SORE","4","f","rechts","24","","fixation","","","",""
"1313","img/150_120.png","70","image-keyboard-response","259","187357","0.0-6.0-1.126","SORE","4","f","rechts","24","","","object","f","150","true"
"null","<div style=""font-size:60px;"">+</div>","null","html-keyboard-response","260","187808","0.0-6.0-0.127","SORE","4","f","rechts","24","","fixation","","","",""
"673","img/60_330.png","74","image-keyboard-response","261","188481","0.0-6.0-1.127","SORE","4","f","rechts","24","","","object","j","60","true"
"null","<div style=""font-size:60px;"">+</div>","null","html-keyboard-response","262","188983","0.0-6.0-0.128","SORE","4","f","rechts","24","","fixation","","","",""
"1137","img/60_90.png","74","image-keyboard-response","263","190121","0.0-6.0-1.128","SORE","4","f","rechts","24","","","object","j","60","true"
"null","<div style=""font-size:60px;"">+</div>","null","html-keyboard-response","264","190423","0.0-6.0-0.129","SORE","4","f","rechts","24","","fixation","","","",""
"630","img/120_30.png","70","image-keyboard-response","265","191054","0.0-6.0-1.129","SORE","4","f","rechts","24","","","object","f","120","true"
"null","<div style=""font-size:60px;"">+</div>","null","html-keyboard-response","266","191506","0.0-6.0-0.130","SORE","4","f","rechts","24","","fixation","","","",""
"1440","img/120_210.png","74","image-keyboard-response","267","192946","0.0-6.0-1.130","SORE","4","f","rechts","24","","","object","f","120","false"
"null","<div style=""font-size:60px;"">+</div>","null","html-keyboard-response","268","193248","0.0-6.0-0.131","SORE","4","f","rechts","24","","fixation","","","",""
"1075","img/30_300.png","70","image-keyboard-response","269","194324","0.0-6.0-1.131","SORE","4","f","rechts","24","","","object","f","30","true"
"null","<div style=""font-size:60px;"">+</div>","null","html-keyboard-response","270","194775","0.0-6.0-0.132","SORE","4","f","rechts","24","","fixation","","","",""
"1130","img/0_210.png","70","image-keyboard-response","271","195906","0.0-6.0-1.132","SORE","4","f","rechts","24","","","object","f","0","true"
"null","<div style=""font-size:60px;"">+</div>","null","html-keyboard-response","272","196208","0.0-6.0-0.133","SORE","4","f","rechts","24","","fixation","","","",""
"1134","img/0_150.png","74","image-keyboard-response","273","197343","0.0-6.0-1.133","SORE","4","f","rechts","24","","","object","j","0","true"
"null","<div style=""font-size:60px;"">+</div>","null","html-keyboard-response","274","197644","0.0-6.0-0.134","SORE","4","f","rechts","24","","fixation","","","",""
"957","img/L150_180.png","74","image-keyboard-response","275","198602","0.0-6.0-1.134","SORE","4","f","rechts","24","","","object","j","150","true"
"null","<div style=""font-size:60px;"">+</div>","null","html-keyboard-response","276","199004","0.0-6.0-0.135","SORE","4","f","rechts","24","","fixation","","","",""
"1579","img/120_150.png","70","image-keyboard-response","277","200585","0.0-6.0-1.135","SORE","4","f","rechts","24","","","object","j","120","false"
"null","<div style=""font-size:60px;"">+</div>","null","html-keyboard-response","278","200986","0.0-6.0-0.136","SORE","4","f","rechts","24","","fixation","","","",""
"1166","img/0_240.png","70","image-keyboard-response","279","202153","0.0-6.0-1.136","SORE","4","f","rechts","24","","","object","f","0","true"
"null","<div style=""font-size:60px;"">+</div>","null","html-keyboard-response","280","202505","0.0-6.0-0.137","SORE","4","f","rechts","24","","fixation","","","",""
"797","img/L60_180.png","74","image-keyboard-response","281","203302","0.0-6.0-1.137","SORE","4","f","rechts","24","","","object","j","60","true"
"null","<div style=""font-size:60px;"">+</div>","null","html-keyboard-response","282","203754","0.0-6.0-0.138","SORE","4","f","rechts","24","","fixation","","","",""
"820","img/0_30.png","74","image-keyboard-response","283","204575","0.0-6.0-1.138","SORE","4","f","rechts","24","","","object","j","0","true"
"null","<div style=""font-size:60px;"">+</div>","null","html-keyboard-response","284","204976","0.0-6.0-0.139","SORE","4","f","rechts","24","","fixation","","","",""
"872","img/L120_180.png","74","image-keyboard-response","285","205848","0.0-6.0-1.139","SORE","4","f","rechts","24","","","object","j","120","true"
"null","<div style=""font-size:60px;"">+</div>","null","html-keyboard-response","286","206249","0.0-6.0-0.140","SORE","4","f","rechts","24","","fixation","","","",""
"1070","img/150_240.png","74","image-keyboard-response","287","207319","0.0-6.0-1.140","SORE","4","f","rechts","24","","","object","j","150","true"
"null","<div style=""font-size:60px;"">+</div>","null","html-keyboard-response","288","207721","0.0-6.0-0.141","SORE","4","f","rechts","24","","fixation","","","",""
"784","img/60_210.png","70","image-keyboard-response","289","208506","0.0-6.0-1.141","SORE","4","f","rechts","24","","","object","f","60","true"
"null","<div style=""font-size:60px;"">+</div>","null","html-keyboard-response","290","208808","0.0-6.0-0.142","SORE","4","f","rechts","24","","fixation","","","",""
"813","img/0_120.png","74","image-keyboard-response","291","209621","0.0-6.0-1.142","SORE","4","f","rechts","24","","","object","j","0","true"
"null","<div style=""font-size:60px;"">+</div>","null","html-keyboard-response","292","210022","0.0-6.0-0.143","SORE","4","f","rechts","24","","fixation","","","",""
"849","img/30_60.png","74","image-keyboard-response","293","210872","0.0-6.0-1.143","SORE","4","f","rechts","24","","","object","j","30","true"
"null","<div style=""font-size:60px;"">+</div>","null","html-keyboard-response","294","211224","0.0-6.0-0.144","SORE","4","f","rechts","24","","fixation","","","",""
"747","img/30_120.png","74","image-keyboard-response","295","211971","0.0-6.0-1.144","SORE","4","f","rechts","24","","","object","j","30","true"
"null","<div style=""font-size:60px;"">+</div>","null","html-keyboard-response","296","212321","0.0-6.0-0.145","SORE","4","f","rechts","24","","fixation","","","",""
"1741","img/90_240.png","70","image-keyboard-response","297","214063","0.0-6.0-1.145","SORE","4","f","rechts","24","","","object","f","90","true"
"null","<div style=""font-size:60px;"">+</div>","null","html-keyboard-response","298","214515","0.0-6.0-0.146","SORE","4","f","rechts","24","","fixation","","","",""
"692","img/0_90.png","74","image-keyboard-response","299","215207","0.0-6.0-1.146","SORE","4","f","rechts","24","","","object","j","0","true"
"null","<div style=""font-size:60px;"">+</div>","null","html-keyboard-response","300","215559","0.0-6.0-0.147","SORE","4","f","rechts","24","","fixation","","","",""
"787","img/150_90.png","70","image-keyboard-response","301","216346","0.0-6.0-1.147","SORE","4","f","rechts","24","","","object","f","150","true"
"null","<div style=""font-size:60px;"">+</div>","null","html-keyboard-response","302","216847","0.0-6.0-0.148","SORE","4","f","rechts","24","","fixation","","","",""
"936","img/90_210.png","70","image-keyboard-response","303","217784","0.0-6.0-1.148","SORE","4","f","rechts","24","","","object","f","90","true"
"null","<div style=""font-size:60px;"">+</div>","null","html-keyboard-response","304","218285","0.0-6.0-0.149","SORE","4","f","rechts","24","","fixation","","","",""
"792","img/30_240.png","70","image-keyboard-response","305","219077","0.0-6.0-1.149","SORE","4","f","rechts","24","","","object","f","30","true"
"null","<div style=""font-size:60px;"">+</div>","null","html-keyboard-response","306","219379","0.0-6.0-0.150","SORE","4","f","rechts","24","","fixation","","","",""
"776","img/0_60.png","74","image-keyboard-response","307","220156","0.0-6.0-1.150","SORE","4","f","rechts","24","","","object","j","0","true"
"null","<div style=""font-size:60px;"">+</div>","null","html-keyboard-response","308","220508","0.0-6.0-0.151","SORE","4","f","rechts","24","","fixation","","","",""
"760","img/90_300.png","74","image-keyboard-response","309","221270","0.0-6.0-1.151","SORE","4","f","rechts","24","","","object","j","90","true"
"null","<div style=""font-size:60px;"">+</div>","null","html-keyboard-response","310","221771","0.0-6.0-0.152","SORE","4","f","rechts","24","","fixation","","","",""
"721","img/30_180.png","70","image-keyboard-response","311","222494","0.0-6.0-1.152","SORE","4","f","rechts","24","","","object","f","30","true"
"null","<div style=""font-size:60px;"">+</div>","null","html-keyboard-response","312","222895","0.0-6.0-0.153","SORE","4","f","rechts","24","","fixation","","","",""
"656","img/120_330.png","74","image-keyboard-response","313","223553","0.0-6.0-1.153","SORE","4","f","rechts","24","","","object","j","120","true"
"null","<div style=""font-size:60px;"">+</div>","null","html-keyboard-response","314","223904","0.0-6.0-0.154","SORE","4","f","rechts","24","","fixation","","","",""
"864","img/90_60.png","70","image-keyboard-response","315","224770","0.0-6.0-1.154","SORE","4","f","rechts","24","","","object","f","90","true"
"null","<div style=""font-size:60px;"">+</div>","null","html-keyboard-response","316","225121","0.0-6.0-0.155","SORE","4","f","rechts","24","","fixation","","","",""
"913","img/30_90.png","74","image-keyboard-response","317","226036","0.0-6.0-1.155","SORE","4","f","rechts","24","","","object","j","30","true"
"null","<div style=""font-size:60px;"">+</div>","null","html-keyboard-response","318","226387","0.0-6.0-0.156","SORE","4","f","rechts","24","","fixation","","","",""
"818","img/0_240.png","70","image-keyboard-response","319","227207","0.0-6.0-1.156","SORE","4","f","rechts","24","","","object","f","0","true"
"null","<div style=""font-size:60px;"">+</div>","null","html-keyboard-response","320","227558","0.0-6.0-0.157","SORE","4","f","rechts","24","","fixation","","","",""
"822","img/60_30.png","70","image-keyboard-response","321","228381","0.0-6.0-1.157","SORE","4","f","rechts","24","","","object","f","60","true"
"null","<div style=""font-size:60px;"">+</div>","null","html-keyboard-response","322","228883","0.0-6.0-0.158","SORE","4","f","rechts","24","","fixation","","","",""
"741","img/0_90.png","74","image-keyboard-response","323","229624","0.0-6.0-1.158","SORE","4","f","rechts","24","","","object","j","0","true"
"null","<div style=""font-size:60px;"">+</div>","null","html-keyboard-response","324","229926","0.0-6.0-0.159","SORE","4","f","rechts","24","","fixation","","","",""
"1102","img/30_120.png","74","image-keyboard-response","325","231029","0.0-6.0-1.159","SORE","4","f","rechts","24","","","object","j","30","true"
"null","<div style=""font-size:60px;"">+</div>","null","html-keyboard-response","326","231430","0.0-6.0-0.160","SORE","4","f","rechts","24","","fixation","","","",""
"802","img/90_180.png","70","image-keyboard-response","327","232233","0.0-6.0-1.160","SORE","4","f","rechts","24","","","object","f","90","true"
"null","<div style=""font-size:60px;"">+</div>","null","html-keyboard-response","328","232634","0.0-6.0-0.161","SORE","4","f","rechts","24","","fixation","","","",""
"1553","img/90_120.png","74","image-keyboard-response","329","234189","0.0-6.0-1.161","SORE","4","f","rechts","24","","","object","j","90","true"
"null","<div style=""font-size:60px;"">+</div>","null","html-keyboard-response","330","234590","0.0-6.0-0.162","SORE","4","f","rechts","24","","fixation","","","",""
"737","img/90_30.png","70","image-keyboard-response","331","235328","0.0-6.0-1.162","SORE","4","f","rechts","24","","","object","f","90","true"
"null","<div style=""font-size:60px;"">+</div>","null","html-keyboard-response","332","235730","0.0-6.0-0.163","SORE","4","f","rechts","24","","fixation","","","",""
"732","img/0_150.png","74","image-keyboard-response","333","236463","0.0-6.0-1.163","SORE","4","f","rechts","24","","","object","j","0","true"
"null","<div style=""font-size:60px;"">+</div>","null","html-keyboard-response","334","236815","0.0-6.0-0.164","SORE","4","f","rechts","24","","fixation","","","",""
"766","img/0_30.png","74","image-keyboard-response","335","237582","0.0-6.0-1.164","SORE","4","f","rechts","24","","","object","j","0","true"
"null","<div style=""font-size:60px;"">+</div>","null","html-keyboard-response","336","237933","0.0-6.0-0.165","SORE","4","f","rechts","24","","fixation","","","",""
"742","img/90_60.png","70","image-keyboard-response","337","238676","0.0-6.0-1.165","SORE","4","f","rechts","24","","","object","f","90","true"
"null","<div style=""font-size:60px;"">+</div>","null","html-keyboard-response","338","239078","0.0-6.0-0.166","SORE","4","f","rechts","24","","fixation","","","",""
"1352","img/150_60.png","70","image-keyboard-response","339","240431","0.0-6.0-1.166","SORE","4","f","rechts","24","","","object","f","150","true"
"null","<div style=""font-size:60px;"">+</div>","null","html-keyboard-response","340","240783","0.0-6.0-0.167","SORE","4","f","rechts","24","","fixation","","","",""
"1860","img/60_270.png","70","image-keyboard-response","341","242644","0.0-6.0-1.167","SORE","4","f","rechts","24","","","object","f","60","true"
"null","<div style=""font-size:60px;"">+</div>","null","html-keyboard-response","342","243046","0.0-6.0-0.168","SORE","4","f","rechts","24","","fixation","","","",""
"822","img/0_120.png","74","image-keyboard-response","343","243869","0.0-6.0-1.168","SORE","4","f","rechts","24","","","object","j","0","true"
"null","<div style=""font-size:60px;"">+</div>","null","html-keyboard-response","344","244220","0.0-6.0-0.169","SORE","4","f","rechts","24","","fixation","","","",""
"800","img/L60_180.png","74","image-keyboard-response","345","245021","0.0-6.0-1.169","SORE","4","f","rechts","24","","","object","j","60","true"
"null","<div style=""font-size:60px;"">+</div>","null","html-keyboard-response","346","245373","0.0-6.0-0.170","SORE","4","f","rechts","24","","fixation","","","",""
"942","img/L150_180.png","74","image-keyboard-response","347","246316","0.0-6.0-1.170","SORE","4","f","rechts","24","","","object","j","150","true"
"null","<div style=""font-size:60px;"">+</div>","null","html-keyboard-response","348","246768","0.0-6.0-0.171","SORE","4","f","rechts","24","","fixation","","","",""
"829","img/0_270.png","70","image-keyboard-response","349","247597","0.0-6.0-1.171","SORE","4","f","rechts","24","","","object","f","0","true"
"null","<div style=""font-size:60px;"">+</div>","null","html-keyboard-response","350","248049","0.0-6.0-0.172","SORE","4","f","rechts","24","","fixation","","","",""
"708","img/90_300.png","74","image-keyboard-response","351","248758","0.0-6.0-1.172","SORE","4","f","rechts","24","","","object","j","90","true"
"null","<div style=""font-size:60px;"">+</div>","null","html-keyboard-response","352","249210","0.0-6.0-0.173","SORE","4","f","rechts","24","","fixation","","","",""
"764","img/30_180.png","70","image-keyboard-response","353","249974","0.0-6.0-1.173","SORE","4","f","rechts","24","","","object","f","30","true"
"null","<div style=""font-size:60px;"">+</div>","null","html-keyboard-response","354","250325","0.0-6.0-0.174","SORE","4","f","rechts","24","","fixation","","","",""
"674","img/120_30.png","70","image-keyboard-response","355","251000","0.0-6.0-1.174","SORE","4","f","rechts","24","","","object","f","120","true"
"null","<div style=""font-size:60px;"">+</div>","null","html-keyboard-response","356","251452","0.0-6.0-0.175","SORE","4","f","rechts","24","","fixation","","","",""
"935","img/60_90.png","74","image-keyboard-response","357","252387","0.0-6.0-1.175","SORE","4","f","rechts","24","","","object","j","60","true"
"null","<div style=""font-size:60px;"">+</div>","null","html-keyboard-response","358","252839","0.0-6.0-0.176","SORE","4","f","rechts","24","","fixation","","","",""
"1324","img/120_150.png","70","image-keyboard-response","359","254163","0.0-6.0-1.176","SORE","4","f","rechts","24","","","object","j","120","false"
"null","<div style=""font-size:60px;"">+</div>","null","html-keyboard-response","360","254665","0.0-6.0-0.177","SORE","4","f","rechts","24","","fixation","","","",""
"826","img/60_150.png","74","image-keyboard-response","361","255492","0.0-6.0-1.177","SORE","4","f","rechts","24","","","object","j","60","true"
"null","<div style=""font-size:60px;"">+</div>","null","html-keyboard-response","362","255894","0.0-6.0-0.178","SORE","4","f","rechts","24","","fixation","","","",""
"873","img/0_210.png","70","image-keyboard-response","363","256768","0.0-6.0-1.178","SORE","4","f","rechts","24","","","object","f","0","true"
"null","<div style=""font-size:60px;"">+</div>","null","html-keyboard-response","364","257270","0.0-6.0-0.179","SORE","4","f","rechts","24","","fixation","","","",""
"978","img/90_210.png","74","image-keyboard-response","365","258249","0.0-6.0-1.179","SORE","4","f","rechts","24","","","object","f","90","false"
"null","<div style=""font-size:60px;"">+</div>","null","html-keyboard-response","366","258551","0.0-6.0-0.180","SORE","4","f","rechts","24","","fixation","","","",""
"1222","img/120_90.png","70","image-keyboard-response","367","259774","0.0-6.0-1.180","SORE","4","f","rechts","24","","","object","f","120","true"
"null","<div style=""font-size:60px;"">+</div>","null","html-keyboard-response","368","260276","0.0-6.0-0.181","SORE","4","f","rechts","24","","fixation","","","",""
"1637","img/120_210.png","74","image-keyboard-response","369","261913","0.0-6.0-1.181","SORE","4","f","rechts","24","","","object","f","120","false"
"null","<div style=""font-size:60px;"">+</div>","null","html-keyboard-response","370","262415","0.0-6.0-0.182","SORE","4","f","rechts","24","","fixation","","","",""
"858","img/30_300.png","70","image-keyboard-response","371","263273","0.0-6.0-1.182","SORE","4","f","rechts","24","","","object","f","30","true"
"null","<div style=""font-size:60px;"">+</div>","null","html-keyboard-response","372","263775","0.0-6.0-0.183","SORE","4","f","rechts","24","","fixation","","","",""
"647","img/120_330.png","74","image-keyboard-response","373","264422","0.0-6.0-1.183","SORE","4","f","rechts","24","","","object","j","120","true"
"null","<div style=""font-size:60px;"">+</div>","null","html-keyboard-response","374","264924","0.0-6.0-0.184","SORE","4","f","rechts","24","","fixation","","","",""
"1228","img/30_60.png","74","image-keyboard-response","375","266153","0.0-6.0-1.184","SORE","4","f","rechts","24","","","object","j","30","true"
"null","<div style=""font-size:60px;"">+</div>","null","html-keyboard-response","376","266554","0.0-6.0-0.185","SORE","4","f","rechts","24","","fixation","","","",""
"1121","img/L120_180.png","74","image-keyboard-response","377","267676","0.0-6.0-1.185","SORE","4","f","rechts","24","","","object","j","120","true"
"null","<div style=""font-size:60px;"">+</div>","null","html-keyboard-response","378","268028","0.0-6.0-0.186","SORE","4","f","rechts","24","","fixation","","","",""
"1070","img/150_240.png","74","image-keyboard-response","379","269098","0.0-6.0-1.186","SORE","4","f","rechts","24","","","object","j","150","true"
"null","<div style=""font-size:60px;"">+</div>","null","html-keyboard-response","380","269599","0.0-6.0-0.187","SORE","4","f","rechts","24","","fixation","","","",""
"923","img/120_270.png","74","image-keyboard-response","381","270522","0.0-6.0-1.187","SORE","4","f","rechts","24","","","object","j","120","true"
"null","<div style=""font-size:60px;"">+</div>","null","html-keyboard-response","382","270873","0.0-6.0-0.188","SORE","4","f","rechts","24","","fixation","","","",""
"740","img/0_330.png","70","image-keyboard-response","383","271614","0.0-6.0-1.188","SORE","4","f","rechts","24","","","object","f","0","true"
"null","<div style=""font-size:60px;"">+</div>","null","html-keyboard-response","384","272015","0.0-6.0-0.189","SORE","4","f","rechts","24","","fixation","","","",""
"1340","img/90_240.png","70","image-keyboard-response","385","273357","0.0-6.0-1.189","SORE","4","f","rechts","24","","","object","f","90","true"
"null","<div style=""font-size:60px;"">+</div>","null","html-keyboard-response","386","273758","0.0-6.0-0.190","SORE","4","f","rechts","24","","fixation","","","",""
"1187","img/150_180.png","70","image-keyboard-response","387","274947","0.0-6.0-1.190","SORE","4","f","rechts","24","","","object","f","150","true"
"null","<div style=""font-size:60px;"">+</div>","null","html-keyboard-response","388","275398","0.0-6.0-0.191","SORE","4","f","rechts","24","","fixation","","","",""
"920","img/30_270.png","70","image-keyboard-response","389","276319","0.0-6.0-1.191","SORE","4","f","rechts","24","","","object","f","30","true"
"null","<div style=""font-size:60px;"">+</div>","null","html-keyboard-response","390","276671","0.0-6.0-0.192","SORE","4","f","rechts","24","","fixation","","","",""
"1406","img/120_180.png","70","image-keyboard-response","391","278078","0.0-6.0-1.192","SORE","4","f","rechts","24","","","object","f","120","true"
"null","<div style=""font-size:60px;"">+</div>","null","html-keyboard-response","392","278430","0.0-6.0-0.193","SORE","4","f","rechts","24","","fixation","","","",""
"914","img/L90_180.png","74","image-keyboard-response","393","279346","0.0-6.0-1.193","SORE","4","f","rechts","24","","","object","j","90","true"
"null","<div style=""font-size:60px;"">+</div>","null","html-keyboard-response","394","279847","0.0-6.0-0.194","SORE","4","f","rechts","24","","fixation","","","",""
"768","img/0_300.png","70","image-keyboard-response","395","280617","0.0-6.0-1.194","SORE","4","f","rechts","24","","","object","f","0","true"
"null","<div style=""font-size:60px;"">+</div>","null","html-keyboard-response","396","281018","0.0-6.0-0.195","SORE","4","f","rechts","24","","fixation","","","",""
"715","img/60_330.png","74","image-keyboard-response","397","281735","0.0-6.0-1.195","SORE","4","f","rechts","24","","","object","j","60","true"
"null","<div style=""font-size:60px;"">+</div>","null","html-keyboard-response","398","282186","0.0-6.0-0.196","SORE","4","f","rechts","24","","fixation","","","",""
"756","img/0_60.png","74","image-keyboard-response","399","282943","0.0-6.0-1.196","SORE","4","f","rechts","24","","","object","j","0","true"
"null","<div style=""font-size:60px;"">+</div>","null","html-keyboard-response","400","283245","0.0-6.0-0.197","SORE","4","f","rechts","24","","fixation","","","",""
"839","img/L30_180.png","74","image-keyboard-response","401","284085","0.0-6.0-1.197","SORE","4","f","rechts","24","","","object","j","30","true"
"null","<div style=""font-size:60px;"">+</div>","null","html-keyboard-response","402","284537","0.0-6.0-0.198","SORE","4","f","rechts","24","","fixation","","","",""
"1140","img/90_150.png","74","image-keyboard-response","403","285678","0.0-6.0-1.198","SORE","4","f","rechts","24","","","object","j","90","true"
"null","<div style=""font-size:60px;"">+</div>","null","html-keyboard-response","404","286030","0.0-6.0-0.199","SORE","4","f","rechts","24","","fixation","","","",""
"873","img/60_210.png","70","image-keyboard-response","405","286904","0.0-6.0-1.199","SORE","4","f","rechts","24","","","object","f","60","true"
"null","<div style=""font-size:60px;"">+</div>","null","html-keyboard-response","406","287356","0.0-6.0-0.200","SORE","4","f","rechts","24","","fixation","","","",""
"1014","img/150_90.png","70","image-keyboard-response","407","288371","0.0-6.0-1.200","SORE","4","f","rechts","24","","","object","f","150","true"
"null","<div style=""font-size:60px;"">+</div>","null","html-keyboard-response","408","288673","0.0-6.0-0.201","SORE","4","f","rechts","24","","fixation","","","",""
"881","img/150_120.png","70","image-keyboard-response","409","289554","0.0-6.0-1.201","SORE","4","f","rechts","24","","","object","f","150","true"
"null","<div style=""font-size:60px;"">+</div>","null","html-keyboard-response","410","290056","0.0-6.0-0.202","SORE","4","f","rechts","24","","fixation","","","",""
"578","img/30_90.png","74","image-keyboard-response","411","290635","0.0-6.0-1.202","SORE","4","f","rechts","24","","","object","j","30","true"
"null","<div style=""font-size:60px;"">+</div>","null","html-keyboard-response","412","291137","0.0-6.0-0.203","SORE","4","f","rechts","24","","fixation","","","",""
"936","img/150_300.png","74","image-keyboard-response","413","292074","0.0-6.0-1.203","SORE","4","f","rechts","24","","","object","j","150","true"
"null","<div style=""font-size:60px;"">+</div>","null","html-keyboard-response","414","292575","0.0-6.0-0.204","SORE","4","f","rechts","24","","fixation","","","",""
"679","img/90_330.png","74","image-keyboard-response","415","293255","0.0-6.0-1.204","SORE","4","f","rechts","24","","","object","j","90","true"
"null","<div style=""font-size:60px;"">+</div>","null","html-keyboard-response","416","293757","0.0-6.0-0.205","SORE","4","f","rechts","24","","fixation","","","",""
"680","img/30_240.png","70","image-keyboard-response","417","294438","0.0-6.0-1.205","SORE","4","f","rechts","24","","","object","f","30","true"
"null","<div style=""font-size:60px;"">+</div>","null","html-keyboard-response","418","294840","0.0-6.0-0.206","SORE","4","f","rechts","24","","fixation","","","",""
"742","img/60_180.png","70","image-keyboard-response","419","295583","0.0-6.0-1.206","SORE","4","f","rechts","24","","","object","f","60","true"
"null","<div style=""font-size:60px;"">+</div>","null","html-keyboard-response","420","295935","0.0-6.0-0.207","SORE","4","f","rechts","24","","fixation","","","",""
"726","img/150_270.png","74","image-keyboard-response","421","296661","0.0-6.0-1.207","SORE","4","f","rechts","24","","","object","j","150","true"
"13004","<p>Du hast in 91% der Versuche korrekt entschieden.</p><p>Deine durchschnittliche Reaktionszeit war  882ms.</p><p>Dr&uuml;cke eine beliebige Taste, um die Session zu beenden. Vielen Dank!</p>","72","html-keyboard-response","422","309667","0.0-7.0","SORE","4","f","rechts","24","","","","","",""
