"rt","stimulus","key_press","trial_type","trial_index","time_elapsed","internal_node_id","subject","session","sex","handedness","age","responses","test_part","condition","correct_response","angle","correct"
"2047","<p>Mental Rotation Experiment.</p> <p>Dr&uuml;cke eine beliebige Taste, um anzufangen.</p>","71","html-keyboard-response","0","2051","0.0-0.0","SORE","1","f","rechts","24","","","","","",""
"2197","","","survey-text","1","4249","0.0-1.0","SORE","1","f","rechts","24","{""Q0"":""SORE""}","","","","",""
"1589","","","survey-text","2","5839","0.0-2.0","SORE","1","f","rechts","24","{""Q0"":""1""}","","","","",""
"3308","","","survey-multi-choice","3","9150","0.0-3.0","SORE","1","f","rechts","24","{""Q0"":""f"",""Q1"":""rechts""}","","","","",""
"2321","","","survey-text","4","11472","0.0-4.0","SORE","1","f","rechts","24","{""Q0"":""24""}","","","","",""
"37682","<p>Stell dir vor, dass du vor einem runden Tisch stehst, auf dem sich ein blauer Ball am Tischrand befindet. Entlang des Tischrands ist jeweils ein verschieden langer Pfeil. Nun bleibst du an deinem Platz vor dem Tisch und rotierst den Tisch entlang des Pfeils (gleiche Richtung und Länge). </p> <img src='img/30_180.png'></img> <br><p> Nachdem du diese (vorgestellte) Rotation durchgef&uuml;hrt hast, schau in Richtung der Tischmitte, und entscheide dann, ob der Ball links oder rechts von dir liegt.</p> <p>Dr&uuml;cke die <strong>'f'</strong>-Taste f&uuml;r links, die <strong>'j'</strong>-Taste f&uuml;r rechts.</p><br><p> Das Bild wird jeweils 1 Sekunde lang pr&auml;sentiert. Du hast 3 Sekunden Zeit eine Entscheidung zu treffen.</p>","32","html-keyboard-response","5","49156","0.0-5.0","SORE","1","f","rechts","24","","","","","",""
"null","<div style=""font-size:60px;"">+</div>","null","html-keyboard-response","6","50560","0.0-6.0-0.0","SORE","1","f","rechts","24","","fixation","","","",""
"874","img/L30_180.png","74","image-keyboard-response","7","51436","0.0-6.0-1.0","SORE","1","f","rechts","24","","","object","j","30","true"
"null","<div style=""font-size:60px;"">+</div>","null","html-keyboard-response","8","51838","0.0-6.0-0.1","SORE","1","f","rechts","24","","fixation","","","",""
"892","img/150_120.png","70","image-keyboard-response","9","52731","0.0-6.0-1.1","SORE","1","f","rechts","24","","","object","f","150","true"
"null","<div style=""font-size:60px;"">+</div>","null","html-keyboard-response","10","53183","0.0-6.0-0.2","SORE","1","f","rechts","24","","fixation","","","",""
"983","img/30_60.png","74","image-keyboard-response","11","54167","0.0-6.0-1.2","SORE","1","f","rechts","24","","","object","j","30","true"
"null","<div style=""font-size:60px;"">+</div>","null","html-keyboard-response","12","54569","0.0-6.0-0.3","SORE","1","f","rechts","24","","fixation","","","",""
"871","img/150_180.png","70","image-keyboard-response","13","55441","0.0-6.0-1.3","SORE","1","f","rechts","24","","","object","f","150","true"
"null","<div style=""font-size:60px;"">+</div>","null","html-keyboard-response","14","55742","0.0-6.0-0.4","SORE","1","f","rechts","24","","fixation","","","",""
"883","img/150_240.png","74","image-keyboard-response","15","56626","0.0-6.0-1.4","SORE","1","f","rechts","24","","","object","j","150","true"
"null","<div style=""font-size:60px;"">+</div>","null","html-keyboard-response","16","57128","0.0-6.0-0.5","SORE","1","f","rechts","24","","fixation","","","",""
"930","img/90_180.png","70","image-keyboard-response","17","58059","0.0-6.0-1.5","SORE","1","f","rechts","24","","","object","f","90","true"
"null","<div style=""font-size:60px;"">+</div>","null","html-keyboard-response","18","58511","0.0-6.0-0.6","SORE","1","f","rechts","24","","fixation","","","",""
"888","img/60_150.png","74","image-keyboard-response","19","59400","0.0-6.0-1.6","SORE","1","f","rechts","24","","","object","j","60","true"
"null","<div style=""font-size:60px;"">+</div>","null","html-keyboard-response","20","59801","0.0-6.0-0.7","SORE","1","f","rechts","24","","fixation","","","",""
"941","img/120_330.png","74","image-keyboard-response","21","60744","0.0-6.0-1.7","SORE","1","f","rechts","24","","","object","j","120","true"
"null","<div style=""font-size:60px;"">+</div>","null","html-keyboard-response","22","61196","0.0-6.0-0.8","SORE","1","f","rechts","24","","fixation","","","",""
"2887","img/90_240.png","74","image-keyboard-response","23","64084","0.0-6.0-1.8","SORE","1","f","rechts","24","","","object","f","90","false"
"null","<div style=""font-size:60px;"">+</div>","null","html-keyboard-response","24","64485","0.0-6.0-0.9","SORE","1","f","rechts","24","","fixation","","","",""
"1115","img/0_330.png","70","image-keyboard-response","25","65602","0.0-6.0-1.9","SORE","1","f","rechts","24","","","object","f","0","true"
"null","<div style=""font-size:60px;"">+</div>","null","html-keyboard-response","26","66053","0.0-6.0-0.10","SORE","1","f","rechts","24","","fixation","","","",""
"890","img/L150_180.png","74","image-keyboard-response","27","66944","0.0-6.0-1.10","SORE","1","f","rechts","24","","","object","j","150","true"
"null","<div style=""font-size:60px;"">+</div>","null","html-keyboard-response","28","67346","0.0-6.0-0.11","SORE","1","f","rechts","24","","fixation","","","",""
"985","img/60_180.png","70","image-keyboard-response","29","68332","0.0-6.0-1.11","SORE","1","f","rechts","24","","","object","f","60","true"
"null","<div style=""font-size:60px;"">+</div>","null","html-keyboard-response","30","68634","0.0-6.0-0.12","SORE","1","f","rechts","24","","fixation","","","",""
"1036","img/30_270.png","70","image-keyboard-response","31","69672","0.0-6.0-1.12","SORE","1","f","rechts","24","","","object","f","30","true"
"null","<div style=""font-size:60px;"">+</div>","null","html-keyboard-response","32","70074","0.0-6.0-0.13","SORE","1","f","rechts","24","","fixation","","","",""
"878","img/150_90.png","74","image-keyboard-response","33","70953","0.0-6.0-1.13","SORE","1","f","rechts","24","","","object","f","150","false"
"null","<div style=""font-size:60px;"">+</div>","null","html-keyboard-response","34","71254","0.0-6.0-0.14","SORE","1","f","rechts","24","","fixation","","","",""
"978","img/120_150.png","74","image-keyboard-response","35","72233","0.0-6.0-1.14","SORE","1","f","rechts","24","","","object","j","120","true"
"null","<div style=""font-size:60px;"">+</div>","null","html-keyboard-response","36","72635","0.0-6.0-0.15","SORE","1","f","rechts","24","","fixation","","","",""
"799","img/60_330.png","74","image-keyboard-response","37","73435","0.0-6.0-1.15","SORE","1","f","rechts","24","","","object","j","60","true"
"null","<div style=""font-size:60px;"">+</div>","null","html-keyboard-response","38","73787","0.0-6.0-0.16","SORE","1","f","rechts","24","","fixation","","","",""
"705","img/90_30.png","70","image-keyboard-response","39","74493","0.0-6.0-1.16","SORE","1","f","rechts","24","","","object","f","90","true"
"null","<div style=""font-size:60px;"">+</div>","null","html-keyboard-response","40","74895","0.0-6.0-0.17","SORE","1","f","rechts","24","","fixation","","","",""
"1128","img/0_240.png","70","image-keyboard-response","41","76024","0.0-6.0-1.17","SORE","1","f","rechts","24","","","object","f","0","true"
"null","<div style=""font-size:60px;"">+</div>","null","html-keyboard-response","42","76475","0.0-6.0-0.18","SORE","1","f","rechts","24","","fixation","","","",""
"705","img/150_270.png","74","image-keyboard-response","43","77182","0.0-6.0-1.18","SORE","1","f","rechts","24","","","object","j","150","true"
"null","<div style=""font-size:60px;"">+</div>","null","html-keyboard-response","44","77683","0.0-6.0-0.19","SORE","1","f","rechts","24","","fixation","","","",""
"630","img/90_300.png","74","image-keyboard-response","45","78315","0.0-6.0-1.19","SORE","1","f","rechts","24","","","object","j","90","true"
"null","<div style=""font-size:60px;"">+</div>","null","html-keyboard-response","46","78666","0.0-6.0-0.20","SORE","1","f","rechts","24","","fixation","","","",""
"958","img/0_120.png","74","image-keyboard-response","47","79626","0.0-6.0-1.20","SORE","1","f","rechts","24","","","object","j","0","true"
"null","<div style=""font-size:60px;"">+</div>","null","html-keyboard-response","48","80077","0.0-6.0-0.21","SORE","1","f","rechts","24","","fixation","","","",""
"694","img/90_330.png","74","image-keyboard-response","49","80774","0.0-6.0-1.21","SORE","1","f","rechts","24","","","object","j","90","true"
"null","<div style=""font-size:60px;"">+</div>","null","html-keyboard-response","50","81125","0.0-6.0-0.22","SORE","1","f","rechts","24","","fixation","","","",""
"830","img/60_90.png","70","image-keyboard-response","51","81957","0.0-6.0-1.22","SORE","1","f","rechts","24","","","object","j","60","false"
"null","<div style=""font-size:60px;"">+</div>","null","html-keyboard-response","52","82308","0.0-6.0-0.23","SORE","1","f","rechts","24","","fixation","","","",""
"741","img/90_60.png","70","image-keyboard-response","53","83052","0.0-6.0-1.23","SORE","1","f","rechts","24","","","object","f","90","true"
"null","<div style=""font-size:60px;"">+</div>","null","html-keyboard-response","54","83503","0.0-6.0-0.24","SORE","1","f","rechts","24","","fixation","","","",""
"833","img/L60_180.png","74","image-keyboard-response","55","84339","0.0-6.0-1.24","SORE","1","f","rechts","24","","","object","j","60","true"
"null","<div style=""font-size:60px;"">+</div>","null","html-keyboard-response","56","84739","0.0-6.0-0.25","SORE","1","f","rechts","24","","fixation","","","",""
"743","img/120_90.png","70","image-keyboard-response","57","85483","0.0-6.0-1.25","SORE","1","f","rechts","24","","","object","f","120","true"
"null","<div style=""font-size:60px;"">+</div>","null","html-keyboard-response","58","85785","0.0-6.0-0.26","SORE","1","f","rechts","24","","fixation","","","",""
"838","img/120_210.png","74","image-keyboard-response","59","86625","0.0-6.0-1.26","SORE","1","f","rechts","24","","","object","f","120","false"
"null","<div style=""font-size:60px;"">+</div>","null","html-keyboard-response","60","86926","0.0-6.0-0.27","SORE","1","f","rechts","24","","fixation","","","",""
"809","img/0_60.png","74","image-keyboard-response","61","87737","0.0-6.0-1.27","SORE","1","f","rechts","24","","","object","j","0","true"
"null","<div style=""font-size:60px;"">+</div>","null","html-keyboard-response","62","88188","0.0-6.0-0.28","SORE","1","f","rechts","24","","fixation","","","",""
"625","img/120_180.png","74","image-keyboard-response","63","88814","0.0-6.0-1.28","SORE","1","f","rechts","24","","","object","f","120","false"
"null","<div style=""font-size:60px;"">+</div>","null","html-keyboard-response","64","89166","0.0-6.0-0.29","SORE","1","f","rechts","24","","fixation","","","",""
"748","img/60_30.png","70","image-keyboard-response","65","89915","0.0-6.0-1.29","SORE","1","f","rechts","24","","","object","f","60","true"
"null","<div style=""font-size:60px;"">+</div>","null","html-keyboard-response","66","90417","0.0-6.0-0.30","SORE","1","f","rechts","24","","fixation","","","",""
"942","img/0_150.png","74","image-keyboard-response","67","91360","0.0-6.0-1.30","SORE","1","f","rechts","24","","","object","j","0","true"
"null","<div style=""font-size:60px;"">+</div>","null","html-keyboard-response","68","91712","0.0-6.0-0.31","SORE","1","f","rechts","24","","fixation","","","",""
"688","img/150_300.png","74","image-keyboard-response","69","92401","0.0-6.0-1.31","SORE","1","f","rechts","24","","","object","j","150","true"
"null","<div style=""font-size:60px;"">+</div>","null","html-keyboard-response","70","92903","0.0-6.0-0.32","SORE","1","f","rechts","24","","fixation","","","",""
"1617","img/L120_180.png","74","image-keyboard-response","71","94521","0.0-6.0-1.32","SORE","1","f","rechts","24","","","object","j","120","true"
"null","<div style=""font-size:60px;"">+</div>","null","html-keyboard-response","72","95023","0.0-6.0-0.33","SORE","1","f","rechts","24","","fixation","","","",""
"714","img/90_150.png","70","image-keyboard-response","73","95738","0.0-6.0-1.33","SORE","1","f","rechts","24","","","object","j","90","false"
"null","<div style=""font-size:60px;"">+</div>","null","html-keyboard-response","74","96240","0.0-6.0-0.34","SORE","1","f","rechts","24","","fixation","","","",""
"864","img/0_90.png","74","image-keyboard-response","75","97105","0.0-6.0-1.34","SORE","1","f","rechts","24","","","object","j","0","true"
"null","<div style=""font-size:60px;"">+</div>","null","html-keyboard-response","76","97557","0.0-6.0-0.35","SORE","1","f","rechts","24","","fixation","","","",""
"863","img/L90_180.png","74","image-keyboard-response","77","98422","0.0-6.0-1.35","SORE","1","f","rechts","24","","","object","j","90","true"
"null","<div style=""font-size:60px;"">+</div>","null","html-keyboard-response","78","98924","0.0-6.0-0.36","SORE","1","f","rechts","24","","fixation","","","",""
"692","img/120_270.png","74","image-keyboard-response","79","99617","0.0-6.0-1.36","SORE","1","f","rechts","24","","","object","j","120","true"
"null","<div style=""font-size:60px;"">+</div>","null","html-keyboard-response","80","100119","0.0-6.0-0.37","SORE","1","f","rechts","24","","fixation","","","",""
"863","img/30_240.png","70","image-keyboard-response","81","100983","0.0-6.0-1.37","SORE","1","f","rechts","24","","","object","f","30","true"
"null","<div style=""font-size:60px;"">+</div>","null","html-keyboard-response","82","101484","0.0-6.0-0.38","SORE","1","f","rechts","24","","fixation","","","",""
"856","img/30_120.png","74","image-keyboard-response","83","102341","0.0-6.0-1.38","SORE","1","f","rechts","24","","","object","j","30","true"
"null","<div style=""font-size:60px;"">+</div>","null","html-keyboard-response","84","102843","0.0-6.0-0.39","SORE","1","f","rechts","24","","fixation","","","",""
"850","img/30_180.png","70","image-keyboard-response","85","103694","0.0-6.0-1.39","SORE","1","f","rechts","24","","","object","f","30","true"
"null","<div style=""font-size:60px;"">+</div>","null","html-keyboard-response","86","104046","0.0-6.0-0.40","SORE","1","f","rechts","24","","fixation","","","",""
"917","img/150_60.png","70","image-keyboard-response","87","104964","0.0-6.0-1.40","SORE","1","f","rechts","24","","","object","f","150","true"
"null","<div style=""font-size:60px;"">+</div>","null","html-keyboard-response","88","105316","0.0-6.0-0.41","SORE","1","f","rechts","24","","fixation","","","",""
"814","img/120_30.png","70","image-keyboard-response","89","106131","0.0-6.0-1.41","SORE","1","f","rechts","24","","","object","f","120","true"
"null","<div style=""font-size:60px;"">+</div>","null","html-keyboard-response","90","106533","0.0-6.0-0.42","SORE","1","f","rechts","24","","fixation","","","",""
"945","img/90_120.png","70","image-keyboard-response","91","107479","0.0-6.0-1.42","SORE","1","f","rechts","24","","","object","j","90","false"
"null","<div style=""font-size:60px;"">+</div>","null","html-keyboard-response","92","107831","0.0-6.0-0.43","SORE","1","f","rechts","24","","fixation","","","",""
"948","img/0_210.png","70","image-keyboard-response","93","108780","0.0-6.0-1.43","SORE","1","f","rechts","24","","","object","f","0","true"
"null","<div style=""font-size:60px;"">+</div>","null","html-keyboard-response","94","109082","0.0-6.0-0.44","SORE","1","f","rechts","24","","fixation","","","",""
"971","img/30_300.png","70","image-keyboard-response","95","110054","0.0-6.0-1.44","SORE","1","f","rechts","24","","","object","f","30","true"
"null","<div style=""font-size:60px;"">+</div>","null","html-keyboard-response","96","110555","0.0-6.0-0.45","SORE","1","f","rechts","24","","fixation","","","",""
"901","img/0_300.png","70","image-keyboard-response","97","111457","0.0-6.0-1.45","SORE","1","f","rechts","24","","","object","f","0","true"
"null","<div style=""font-size:60px;"">+</div>","null","html-keyboard-response","98","111759","0.0-6.0-0.46","SORE","1","f","rechts","24","","fixation","","","",""
"1063","img/0_270.png","70","image-keyboard-response","99","112823","0.0-6.0-1.46","SORE","1","f","rechts","24","","","object","f","0","true"
"null","<div style=""font-size:60px;"">+</div>","null","html-keyboard-response","100","113124","0.0-6.0-0.47","SORE","1","f","rechts","24","","fixation","","","",""
"1066","img/60_270.png","74","image-keyboard-response","101","114191","0.0-6.0-1.47","SORE","1","f","rechts","24","","","object","f","60","false"
"null","<div style=""font-size:60px;"">+</div>","null","html-keyboard-response","102","114543","0.0-6.0-0.48","SORE","1","f","rechts","24","","fixation","","","",""
"926","img/90_210.png","74","image-keyboard-response","103","115470","0.0-6.0-1.48","SORE","1","f","rechts","24","","","object","f","90","false"
"null","<div style=""font-size:60px;"">+</div>","null","html-keyboard-response","104","115771","0.0-6.0-0.49","SORE","1","f","rechts","24","","fixation","","","",""
"844","img/60_210.png","70","image-keyboard-response","105","116617","0.0-6.0-1.49","SORE","1","f","rechts","24","","","object","f","60","true"
"null","<div style=""font-size:60px;"">+</div>","null","html-keyboard-response","106","117119","0.0-6.0-0.50","SORE","1","f","rechts","24","","fixation","","","",""
"689","img/30_90.png","74","image-keyboard-response","107","117809","0.0-6.0-1.50","SORE","1","f","rechts","24","","","object","j","30","true"
"null","<div style=""font-size:60px;"">+</div>","null","html-keyboard-response","108","118211","0.0-6.0-0.51","SORE","1","f","rechts","24","","fixation","","","",""
"1223","img/0_30.png","74","image-keyboard-response","109","119435","0.0-6.0-1.51","SORE","1","f","rechts","24","","","object","j","0","true"
"null","<div style=""font-size:60px;"">+</div>","null","html-keyboard-response","110","119887","0.0-6.0-0.52","SORE","1","f","rechts","24","","fixation","","","",""
"868","img/90_240.png","74","image-keyboard-response","111","120756","0.0-6.0-1.52","SORE","1","f","rechts","24","","","object","f","90","false"
"null","<div style=""font-size:60px;"">+</div>","null","html-keyboard-response","112","121207","0.0-6.0-0.53","SORE","1","f","rechts","24","","fixation","","","",""
"805","img/120_90.png","70","image-keyboard-response","113","122014","0.0-6.0-1.53","SORE","1","f","rechts","24","","","object","f","120","true"
"null","<div style=""font-size:60px;"">+</div>","null","html-keyboard-response","114","122365","0.0-6.0-0.54","SORE","1","f","rechts","24","","fixation","","","",""
"1096","img/120_180.png","74","image-keyboard-response","115","123462","0.0-6.0-1.54","SORE","1","f","rechts","24","","","object","f","120","false"
"null","<div style=""font-size:60px;"">+</div>","null","html-keyboard-response","116","123914","0.0-6.0-0.55","SORE","1","f","rechts","24","","fixation","","","",""
"777","img/90_120.png","70","image-keyboard-response","117","124691","0.0-6.0-1.55","SORE","1","f","rechts","24","","","object","j","90","false"
"null","<div style=""font-size:60px;"">+</div>","null","html-keyboard-response","118","125043","0.0-6.0-0.56","SORE","1","f","rechts","24","","fixation","","","",""
"772","img/0_120.png","74","image-keyboard-response","119","125816","0.0-6.0-1.56","SORE","1","f","rechts","24","","","object","j","0","true"
"null","<div style=""font-size:60px;"">+</div>","null","html-keyboard-response","120","126217","0.0-6.0-0.57","SORE","1","f","rechts","24","","fixation","","","",""
"741","img/120_270.png","74","image-keyboard-response","121","126959","0.0-6.0-1.57","SORE","1","f","rechts","24","","","object","j","120","true"
"null","<div style=""font-size:60px;"">+</div>","null","html-keyboard-response","122","127360","0.0-6.0-0.58","SORE","1","f","rechts","24","","fixation","","","",""
"1553","img/L120_180.png","74","image-keyboard-response","123","128914","0.0-6.0-1.58","SORE","1","f","rechts","24","","","object","j","120","true"
"null","<div style=""font-size:60px;"">+</div>","null","html-keyboard-response","124","129265","0.0-6.0-0.59","SORE","1","f","rechts","24","","fixation","","","",""
"1074","img/150_300.png","74","image-keyboard-response","125","130340","0.0-6.0-1.59","SORE","1","f","rechts","24","","","object","j","150","true"
"null","<div style=""font-size:60px;"">+</div>","null","html-keyboard-response","126","130641","0.0-6.0-0.60","SORE","1","f","rechts","24","","fixation","","","",""
"715","img/60_30.png","70","image-keyboard-response","127","131358","0.0-6.0-1.60","SORE","1","f","rechts","24","","","object","f","60","true"
"null","<div style=""font-size:60px;"">+</div>","null","html-keyboard-response","128","131759","0.0-6.0-0.61","SORE","1","f","rechts","24","","fixation","","","",""
"693","img/120_30.png","70","image-keyboard-response","129","132453","0.0-6.0-1.61","SORE","1","f","rechts","24","","","object","f","120","true"
"null","<div style=""font-size:60px;"">+</div>","null","html-keyboard-response","130","132804","0.0-6.0-0.62","SORE","1","f","rechts","24","","fixation","","","",""
"881","img/150_90.png","70","image-keyboard-response","131","133687","0.0-6.0-1.62","SORE","1","f","rechts","24","","","object","f","150","true"
"null","<div style=""font-size:60px;"">+</div>","null","html-keyboard-response","132","134037","0.0-6.0-0.63","SORE","1","f","rechts","24","","fixation","","","",""
"782","img/L30_180.png","74","image-keyboard-response","133","134821","0.0-6.0-1.63","SORE","1","f","rechts","24","","","object","j","30","true"
"null","<div style=""font-size:60px;"">+</div>","null","html-keyboard-response","134","135322","0.0-6.0-0.64","SORE","1","f","rechts","24","","fixation","","","",""
"958","img/90_180.png","70","image-keyboard-response","135","136281","0.0-6.0-1.64","SORE","1","f","rechts","24","","","object","f","90","true"
"null","<div style=""font-size:60px;"">+</div>","null","html-keyboard-response","136","136733","0.0-6.0-0.65","SORE","1","f","rechts","24","","fixation","","","",""
"938","img/0_330.png","70","image-keyboard-response","137","137672","0.0-6.0-1.65","SORE","1","f","rechts","24","","","object","f","0","true"
"null","<div style=""font-size:60px;"">+</div>","null","html-keyboard-response","138","138024","0.0-6.0-0.66","SORE","1","f","rechts","24","","fixation","","","",""
"911","img/90_60.png","70","image-keyboard-response","139","138936","0.0-6.0-1.66","SORE","1","f","rechts","24","","","object","f","90","true"
"null","<div style=""font-size:60px;"">+</div>","null","html-keyboard-response","140","139438","0.0-6.0-0.67","SORE","1","f","rechts","24","","fixation","","","",""
"975","img/0_30.png","74","image-keyboard-response","141","140414","0.0-6.0-1.67","SORE","1","f","rechts","24","","","object","j","0","true"
"null","<div style=""font-size:60px;"">+</div>","null","html-keyboard-response","142","140766","0.0-6.0-0.68","SORE","1","f","rechts","24","","fixation","","","",""
"1576","img/60_90.png","74","image-keyboard-response","143","142342","0.0-6.0-1.68","SORE","1","f","rechts","24","","","object","j","60","true"
"null","<div style=""font-size:60px;"">+</div>","null","html-keyboard-response","144","142694","0.0-6.0-0.69","SORE","1","f","rechts","24","","fixation","","","",""
"926","img/90_150.png","70","image-keyboard-response","145","143621","0.0-6.0-1.69","SORE","1","f","rechts","24","","","object","j","90","false"
"null","<div style=""font-size:60px;"">+</div>","null","html-keyboard-response","146","143973","0.0-6.0-0.70","SORE","1","f","rechts","24","","fixation","","","",""
"909","img/0_150.png","74","image-keyboard-response","147","144883","0.0-6.0-1.70","SORE","1","f","rechts","24","","","object","j","0","true"
"null","<div style=""font-size:60px;"">+</div>","null","html-keyboard-response","148","145285","0.0-6.0-0.71","SORE","1","f","rechts","24","","fixation","","","",""
"1266","img/30_270.png","70","image-keyboard-response","149","146552","0.0-6.0-1.71","SORE","1","f","rechts","24","","","object","f","30","true"
"null","<div style=""font-size:60px;"">+</div>","null","html-keyboard-response","150","146904","0.0-6.0-0.72","SORE","1","f","rechts","24","","fixation","","","",""
"1486","img/0_270.png","70","image-keyboard-response","151","148391","0.0-6.0-1.72","SORE","1","f","rechts","24","","","object","f","0","true"
"null","<div style=""font-size:60px;"">+</div>","null","html-keyboard-response","152","148893","0.0-6.0-0.73","SORE","1","f","rechts","24","","fixation","","","",""
"1049","img/60_210.png","70","image-keyboard-response","153","149943","0.0-6.0-1.73","SORE","1","f","rechts","24","","","object","f","60","true"
"null","<div style=""font-size:60px;"">+</div>","null","html-keyboard-response","154","150294","0.0-6.0-0.74","SORE","1","f","rechts","24","","fixation","","","",""
"899","img/30_60.png","74","image-keyboard-response","155","151194","0.0-6.0-1.74","SORE","1","f","rechts","24","","","object","j","30","true"
"null","<div style=""font-size:60px;"">+</div>","null","html-keyboard-response","156","151495","0.0-6.0-0.75","SORE","1","f","rechts","24","","fixation","","","",""
"861","img/120_330.png","74","image-keyboard-response","157","152357","0.0-6.0-1.75","SORE","1","f","rechts","24","","","object","j","120","true"
"null","<div style=""font-size:60px;"">+</div>","null","html-keyboard-response","158","152658","0.0-6.0-0.76","SORE","1","f","rechts","24","","fixation","","","",""
"1078","img/150_180.png","70","image-keyboard-response","159","153737","0.0-6.0-1.76","SORE","1","f","rechts","24","","","object","f","150","true"
"null","<div style=""font-size:60px;"">+</div>","null","html-keyboard-response","160","154039","0.0-6.0-0.77","SORE","1","f","rechts","24","","fixation","","","",""
"949","img/60_270.png","70","image-keyboard-response","161","154988","0.0-6.0-1.77","SORE","1","f","rechts","24","","","object","f","60","true"
"null","<div style=""font-size:60px;"">+</div>","null","html-keyboard-response","162","155390","0.0-6.0-0.78","SORE","1","f","rechts","24","","fixation","","","",""
"807","img/30_240.png","70","image-keyboard-response","163","156197","0.0-6.0-1.78","SORE","1","f","rechts","24","","","object","f","30","true"
"null","<div style=""font-size:60px;"">+</div>","null","html-keyboard-response","164","156549","0.0-6.0-0.79","SORE","1","f","rechts","24","","fixation","","","",""
"1714","img/30_120.png","74","image-keyboard-response","165","158263","0.0-6.0-1.79","SORE","1","f","rechts","24","","","object","j","30","true"
"null","<div style=""font-size:60px;"">+</div>","null","html-keyboard-response","166","158615","0.0-6.0-0.80","SORE","1","f","rechts","24","","fixation","","","",""
"918","img/0_300.png","70","image-keyboard-response","167","159533","0.0-6.0-1.80","SORE","1","f","rechts","24","","","object","f","0","true"
"null","<div style=""font-size:60px;"">+</div>","null","html-keyboard-response","168","159935","0.0-6.0-0.81","SORE","1","f","rechts","24","","fixation","","","",""
"1169","img/L150_180.png","70","image-keyboard-response","169","161104","0.0-6.0-1.81","SORE","1","f","rechts","24","","","object","j","150","false"
"null","<div style=""font-size:60px;"">+</div>","null","html-keyboard-response","170","161606","0.0-6.0-0.82","SORE","1","f","rechts","24","","fixation","","","",""
"904","img/120_150.png","70","image-keyboard-response","171","162510","0.0-6.0-1.82","SORE","1","f","rechts","24","","","object","j","120","false"
"null","<div style=""font-size:60px;"">+</div>","null","html-keyboard-response","172","162862","0.0-6.0-0.83","SORE","1","f","rechts","24","","fixation","","","",""
"1096","img/30_300.png","74","image-keyboard-response","173","163958","0.0-6.0-1.83","SORE","1","f","rechts","24","","","object","f","30","false"
"null","<div style=""font-size:60px;"">+</div>","null","html-keyboard-response","174","164460","0.0-6.0-0.84","SORE","1","f","rechts","24","","fixation","","","",""
"1162","img/120_210.png","70","image-keyboard-response","175","165622","0.0-6.0-1.84","SORE","1","f","rechts","24","","","object","f","120","true"
"null","<div style=""font-size:60px;"">+</div>","null","html-keyboard-response","176","165974","0.0-6.0-0.85","SORE","1","f","rechts","24","","fixation","","","",""
"922","img/150_270.png","74","image-keyboard-response","177","166897","0.0-6.0-1.85","SORE","1","f","rechts","24","","","object","j","150","true"
"null","<div style=""font-size:60px;"">+</div>","null","html-keyboard-response","178","167348","0.0-6.0-0.86","SORE","1","f","rechts","24","","fixation","","","",""
"796","img/0_210.png","70","image-keyboard-response","179","168145","0.0-6.0-1.86","SORE","1","f","rechts","24","","","object","f","0","true"
"null","<div style=""font-size:60px;"">+</div>","null","html-keyboard-response","180","168547","0.0-6.0-0.87","SORE","1","f","rechts","24","","fixation","","","",""
"931","img/90_300.png","74","image-keyboard-response","181","169478","0.0-6.0-1.87","SORE","1","f","rechts","24","","","object","j","90","true"
"null","<div style=""font-size:60px;"">+</div>","null","html-keyboard-response","182","169780","0.0-6.0-0.88","SORE","1","f","rechts","24","","fixation","","","",""
"940","img/150_120.png","70","image-keyboard-response","183","170721","0.0-6.0-1.88","SORE","1","f","rechts","24","","","object","f","150","true"
"null","<div style=""font-size:60px;"">+</div>","null","html-keyboard-response","184","171073","0.0-6.0-0.89","SORE","1","f","rechts","24","","fixation","","","",""
"932","img/60_180.png","70","image-keyboard-response","185","172006","0.0-6.0-1.89","SORE","1","f","rechts","24","","","object","f","60","true"
"null","<div style=""font-size:60px;"">+</div>","null","html-keyboard-response","186","172458","0.0-6.0-0.90","SORE","1","f","rechts","24","","fixation","","","",""
"979","img/90_210.png","70","image-keyboard-response","187","173437","0.0-6.0-1.90","SORE","1","f","rechts","24","","","object","f","90","true"
"null","<div style=""font-size:60px;"">+</div>","null","html-keyboard-response","188","173939","0.0-6.0-0.91","SORE","1","f","rechts","24","","fixation","","","",""
"849","img/0_240.png","70","image-keyboard-response","189","174789","0.0-6.0-1.91","SORE","1","f","rechts","24","","","object","f","0","true"
"null","<div style=""font-size:60px;"">+</div>","null","html-keyboard-response","190","175189","0.0-6.0-0.92","SORE","1","f","rechts","24","","fixation","","","",""
"1907","img/30_90.png","74","image-keyboard-response","191","177098","0.0-6.0-1.92","SORE","1","f","rechts","24","","","object","j","30","true"
"null","<div style=""font-size:60px;"">+</div>","null","html-keyboard-response","192","177599","0.0-6.0-0.93","SORE","1","f","rechts","24","","fixation","","","",""
"938","img/90_30.png","70","image-keyboard-response","193","178539","0.0-6.0-1.93","SORE","1","f","rechts","24","","","object","f","90","true"
"null","<div style=""font-size:60px;"">+</div>","null","html-keyboard-response","194","178890","0.0-6.0-0.94","SORE","1","f","rechts","24","","fixation","","","",""
"855","img/0_60.png","74","image-keyboard-response","195","179746","0.0-6.0-1.94","SORE","1","f","rechts","24","","","object","j","0","true"
"null","<div style=""font-size:60px;"">+</div>","null","html-keyboard-response","196","180097","0.0-6.0-0.95","SORE","1","f","rechts","24","","fixation","","","",""
"1453","img/0_90.png","74","image-keyboard-response","197","181552","0.0-6.0-1.95","SORE","1","f","rechts","24","","","object","j","0","true"
"null","<div style=""font-size:60px;"">+</div>","null","html-keyboard-response","198","182053","0.0-6.0-0.96","SORE","1","f","rechts","24","","fixation","","","",""
"1200","img/90_330.png","74","image-keyboard-response","199","183255","0.0-6.0-1.96","SORE","1","f","rechts","24","","","object","j","90","true"
"null","<div style=""font-size:60px;"">+</div>","null","html-keyboard-response","200","183556","0.0-6.0-0.97","SORE","1","f","rechts","24","","fixation","","","",""
"810","img/150_60.png","70","image-keyboard-response","201","184368","0.0-6.0-1.97","SORE","1","f","rechts","24","","","object","f","150","true"
"null","<div style=""font-size:60px;"">+</div>","null","html-keyboard-response","202","184669","0.0-6.0-0.98","SORE","1","f","rechts","24","","fixation","","","",""
"966","img/150_240.png","74","image-keyboard-response","203","185637","0.0-6.0-1.98","SORE","1","f","rechts","24","","","object","j","150","true"
"null","<div style=""font-size:60px;"">+</div>","null","html-keyboard-response","204","185938","0.0-6.0-0.99","SORE","1","f","rechts","24","","fixation","","","",""
"1373","img/30_180.png","70","image-keyboard-response","205","187312","0.0-6.0-1.99","SORE","1","f","rechts","24","","","object","f","30","true"
"null","<div style=""font-size:60px;"">+</div>","null","html-keyboard-response","206","187664","0.0-6.0-0.100","SORE","1","f","rechts","24","","fixation","","","",""
"1827","img/L90_180.png","74","image-keyboard-response","207","189492","0.0-6.0-1.100","SORE","1","f","rechts","24","","","object","j","90","true"
"null","<div style=""font-size:60px;"">+</div>","null","html-keyboard-response","208","189943","0.0-6.0-0.101","SORE","1","f","rechts","24","","fixation","","","",""
"1644","img/L60_180.png","74","image-keyboard-response","209","191588","0.0-6.0-1.101","SORE","1","f","rechts","24","","","object","j","60","true"
"null","<div style=""font-size:60px;"">+</div>","null","html-keyboard-response","210","192090","0.0-6.0-0.102","SORE","1","f","rechts","24","","fixation","","","",""
"868","img/60_330.png","74","image-keyboard-response","211","192959","0.0-6.0-1.102","SORE","1","f","rechts","24","","","object","j","60","true"
"null","<div style=""font-size:60px;"">+</div>","null","html-keyboard-response","212","193261","0.0-6.0-0.103","SORE","1","f","rechts","24","","fixation","","","",""
"2111","img/60_150.png","74","image-keyboard-response","213","195372","0.0-6.0-1.103","SORE","1","f","rechts","24","","","object","j","60","true"
"null","<div style=""font-size:60px;"">+</div>","null","html-keyboard-response","214","195724","0.0-6.0-0.104","SORE","1","f","rechts","24","","fixation","","","",""
"1635","img/0_210.png","70","image-keyboard-response","215","197360","0.0-6.0-1.104","SORE","1","f","rechts","24","","","object","f","0","true"
"null","<div style=""font-size:60px;"">+</div>","null","html-keyboard-response","216","197862","0.0-6.0-0.105","SORE","1","f","rechts","24","","fixation","","","",""
"975","img/90_60.png","70","image-keyboard-response","217","198838","0.0-6.0-1.105","SORE","1","f","rechts","24","","","object","f","90","true"
"null","<div style=""font-size:60px;"">+</div>","null","html-keyboard-response","218","199340","0.0-6.0-0.106","SORE","1","f","rechts","24","","fixation","","","",""
"904","img/0_270.png","70","image-keyboard-response","219","200245","0.0-6.0-1.106","SORE","1","f","rechts","24","","","object","f","0","true"
"null","<div style=""font-size:60px;"">+</div>","null","html-keyboard-response","220","200647","0.0-6.0-0.107","SORE","1","f","rechts","24","","fixation","","","",""
"810","img/L150_180.png","74","image-keyboard-response","221","201458","0.0-6.0-1.107","SORE","1","f","rechts","24","","","object","j","150","true"
"null","<div style=""font-size:60px;"">+</div>","null","html-keyboard-response","222","201810","0.0-6.0-0.108","SORE","1","f","rechts","24","","fixation","","","",""
"1951","img/60_150.png","70","image-keyboard-response","223","203762","0.0-6.0-1.108","SORE","1","f","rechts","24","","","object","j","60","false"
"null","<div style=""font-size:60px;"">+</div>","null","html-keyboard-response","224","204114","0.0-6.0-0.109","SORE","1","f","rechts","24","","fixation","","","",""
"1102","img/90_120.png","70","image-keyboard-response","225","205217","0.0-6.0-1.109","SORE","1","f","rechts","24","","","object","j","90","false"
"null","<div style=""font-size:60px;"">+</div>","null","html-keyboard-response","226","205519","0.0-6.0-0.110","SORE","1","f","rechts","24","","fixation","","","",""
"803","img/150_270.png","74","image-keyboard-response","227","206323","0.0-6.0-1.110","SORE","1","f","rechts","24","","","object","j","150","true"
"null","<div style=""font-size:60px;"">+</div>","null","html-keyboard-response","228","206624","0.0-6.0-0.111","SORE","1","f","rechts","24","","fixation","","","",""
"2102","img/30_120.png","70","image-keyboard-response","229","208726","0.0-6.0-1.111","SORE","1","f","rechts","24","","","object","j","30","false"
"null","<div style=""font-size:60px;"">+</div>","null","html-keyboard-response","230","209077","0.0-6.0-0.112","SORE","1","f","rechts","24","","fixation","","","",""
"703","img/90_240.png","74","image-keyboard-response","231","209781","0.0-6.0-1.112","SORE","1","f","rechts","24","","","object","f","90","false"
"null","<div style=""font-size:60px;"">+</div>","null","html-keyboard-response","232","210183","0.0-6.0-0.113","SORE","1","f","rechts","24","","fixation","","","",""
"912","img/0_60.png","74","image-keyboard-response","233","211096","0.0-6.0-1.113","SORE","1","f","rechts","24","","","object","j","0","true"
"null","<div style=""font-size:60px;"">+</div>","null","html-keyboard-response","234","211398","0.0-6.0-0.114","SORE","1","f","rechts","24","","fixation","","","",""
"1789","img/60_270.png","74","image-keyboard-response","235","213187","0.0-6.0-1.114","SORE","1","f","rechts","24","","","object","f","60","false"
"null","<div style=""font-size:60px;"">+</div>","null","html-keyboard-response","236","213538","0.0-6.0-0.115","SORE","1","f","rechts","24","","fixation","","","",""
"1073","img/120_180.png","74","image-keyboard-response","237","214611","0.0-6.0-1.115","SORE","1","f","rechts","24","","","object","f","120","false"
"null","<div style=""font-size:60px;"">+</div>","null","html-keyboard-response","238","215113","0.0-6.0-0.116","SORE","1","f","rechts","24","","fixation","","","",""
"1085","img/0_30.png","74","image-keyboard-response","239","216199","0.0-6.0-1.116","SORE","1","f","rechts","24","","","object","j","0","true"
"null","<div style=""font-size:60px;"">+</div>","null","html-keyboard-response","240","216700","0.0-6.0-0.117","SORE","1","f","rechts","24","","fixation","","","",""
"788","img/120_210.png","74","image-keyboard-response","241","217489","0.0-6.0-1.117","SORE","1","f","rechts","24","","","object","f","120","false"
"null","<div style=""font-size:60px;"">+</div>","null","html-keyboard-response","242","217989","0.0-6.0-0.118","SORE","1","f","rechts","24","","fixation","","","",""
"1620","img/L120_180.png","74","image-keyboard-response","243","219610","0.0-6.0-1.118","SORE","1","f","rechts","24","","","object","j","120","true"
"null","<div style=""font-size:60px;"">+</div>","null","html-keyboard-response","244","220012","0.0-6.0-0.119","SORE","1","f","rechts","24","","fixation","","","",""
"768","img/120_30.png","70","image-keyboard-response","245","220780","0.0-6.0-1.119","SORE","1","f","rechts","24","","","object","f","120","true"
"null","<div style=""font-size:60px;"">+</div>","null","html-keyboard-response","246","221181","0.0-6.0-0.120","SORE","1","f","rechts","24","","fixation","","","",""
"816","img/0_120.png","74","image-keyboard-response","247","221997","0.0-6.0-1.120","SORE","1","f","rechts","24","","","object","j","0","true"
"null","<div style=""font-size:60px;"">+</div>","null","html-keyboard-response","248","222399","0.0-6.0-0.121","SORE","1","f","rechts","24","","fixation","","","",""
"935","img/90_210.png","70","image-keyboard-response","249","223334","0.0-6.0-1.121","SORE","1","f","rechts","24","","","object","f","90","true"
"null","<div style=""font-size:60px;"">+</div>","null","html-keyboard-response","250","223836","0.0-6.0-0.122","SORE","1","f","rechts","24","","fixation","","","",""
"785","img/30_300.png","74","image-keyboard-response","251","224621","0.0-6.0-1.122","SORE","1","f","rechts","24","","","object","f","30","false"
"null","<div style=""font-size:60px;"">+</div>","null","html-keyboard-response","252","225123","0.0-6.0-0.123","SORE","1","f","rechts","24","","fixation","","","",""
"1191","img/150_120.png","70","image-keyboard-response","253","226315","0.0-6.0-1.123","SORE","1","f","rechts","24","","","object","f","150","true"
"null","<div style=""font-size:60px;"">+</div>","null","html-keyboard-response","254","226666","0.0-6.0-0.124","SORE","1","f","rechts","24","","fixation","","","",""
"741","img/60_330.png","74","image-keyboard-response","255","227409","0.0-6.0-1.124","SORE","1","f","rechts","24","","","object","j","60","true"
"null","<div style=""font-size:60px;"">+</div>","null","html-keyboard-response","256","227909","0.0-6.0-0.125","SORE","1","f","rechts","24","","fixation","","","",""
"1075","img/90_180.png","70","image-keyboard-response","257","228986","0.0-6.0-1.125","SORE","1","f","rechts","24","","","object","f","90","true"
"null","<div style=""font-size:60px;"">+</div>","null","html-keyboard-response","258","229437","0.0-6.0-0.126","SORE","1","f","rechts","24","","fixation","","","",""
"921","img/L30_180.png","74","image-keyboard-response","259","230360","0.0-6.0-1.126","SORE","1","f","rechts","24","","","object","j","30","true"
"null","<div style=""font-size:60px;"">+</div>","null","html-keyboard-response","260","230661","0.0-6.0-0.127","SORE","1","f","rechts","24","","fixation","","","",""
"963","img/90_330.png","74","image-keyboard-response","261","231626","0.0-6.0-1.127","SORE","1","f","rechts","24","","","object","j","90","true"
"null","<div style=""font-size:60px;"">+</div>","null","html-keyboard-response","262","231977","0.0-6.0-0.128","SORE","1","f","rechts","24","","fixation","","","",""
"907","img/0_150.png","74","image-keyboard-response","263","232886","0.0-6.0-1.128","SORE","1","f","rechts","24","","","object","j","0","true"
"null","<div style=""font-size:60px;"">+</div>","null","html-keyboard-response","264","233237","0.0-6.0-0.129","SORE","1","f","rechts","24","","fixation","","","",""
"963","img/60_210.png","70","image-keyboard-response","265","234202","0.0-6.0-1.129","SORE","1","f","rechts","24","","","object","f","60","true"
"null","<div style=""font-size:60px;"">+</div>","null","html-keyboard-response","266","234504","0.0-6.0-0.130","SORE","1","f","rechts","24","","fixation","","","",""
"797","img/150_300.png","74","image-keyboard-response","267","235302","0.0-6.0-1.130","SORE","1","f","rechts","24","","","object","j","150","true"
"null","<div style=""font-size:60px;"">+</div>","null","html-keyboard-response","268","235803","0.0-6.0-0.131","SORE","1","f","rechts","24","","fixation","","","",""
"838","img/0_90.png","74","image-keyboard-response","269","236642","0.0-6.0-1.131","SORE","1","f","rechts","24","","","object","j","0","true"
"null","<div style=""font-size:60px;"">+</div>","null","html-keyboard-response","270","236943","0.0-6.0-0.132","SORE","1","f","rechts","24","","fixation","","","",""
"736","img/120_330.png","74","image-keyboard-response","271","237681","0.0-6.0-1.132","SORE","1","f","rechts","24","","","object","j","120","true"
"null","<div style=""font-size:60px;"">+</div>","null","html-keyboard-response","272","238032","0.0-6.0-0.133","SORE","1","f","rechts","24","","fixation","","","",""
"895","img/150_240.png","74","image-keyboard-response","273","238928","0.0-6.0-1.133","SORE","1","f","rechts","24","","","object","j","150","true"
"null","<div style=""font-size:60px;"">+</div>","null","html-keyboard-response","274","239430","0.0-6.0-0.134","SORE","1","f","rechts","24","","fixation","","","",""
"990","img/0_330.png","70","image-keyboard-response","275","240421","0.0-6.0-1.134","SORE","1","f","rechts","24","","","object","f","0","true"
"null","<div style=""font-size:60px;"">+</div>","null","html-keyboard-response","276","240823","0.0-6.0-0.135","SORE","1","f","rechts","24","","fixation","","","",""
"739","img/90_30.png","70","image-keyboard-response","277","241563","0.0-6.0-1.135","SORE","1","f","rechts","24","","","object","f","90","true"
"null","<div style=""font-size:60px;"">+</div>","null","html-keyboard-response","278","242015","0.0-6.0-0.136","SORE","1","f","rechts","24","","fixation","","","",""
"799","img/120_150.png","74","image-keyboard-response","279","242815","0.0-6.0-1.136","SORE","1","f","rechts","24","","","object","j","120","true"
"null","<div style=""font-size:60px;"">+</div>","null","html-keyboard-response","280","243317","0.0-6.0-0.137","SORE","1","f","rechts","24","","fixation","","","",""
"697","img/150_90.png","74","image-keyboard-response","281","244015","0.0-6.0-1.137","SORE","1","f","rechts","24","","","object","f","150","false"
"null","<div style=""font-size:60px;"">+</div>","null","html-keyboard-response","282","244317","0.0-6.0-0.138","SORE","1","f","rechts","24","","fixation","","","",""
"924","img/0_240.png","70","image-keyboard-response","283","245242","0.0-6.0-1.138","SORE","1","f","rechts","24","","","object","f","0","true"
"null","<div style=""font-size:60px;"">+</div>","null","html-keyboard-response","284","245544","0.0-6.0-0.139","SORE","1","f","rechts","24","","fixation","","","",""
"942","img/60_90.png","74","image-keyboard-response","285","246487","0.0-6.0-1.139","SORE","1","f","rechts","24","","","object","j","60","true"
"null","<div style=""font-size:60px;"">+</div>","null","html-keyboard-response","286","246938","0.0-6.0-0.140","SORE","1","f","rechts","24","","fixation","","","",""
"821","img/60_180.png","70","image-keyboard-response","287","247760","0.0-6.0-1.140","SORE","1","f","rechts","24","","","object","f","60","true"
"null","<div style=""font-size:60px;"">+</div>","null","html-keyboard-response","288","248162","0.0-6.0-0.141","SORE","1","f","rechts","24","","fixation","","","",""
"901","img/150_60.png","70","image-keyboard-response","289","249064","0.0-6.0-1.141","SORE","1","f","rechts","24","","","object","f","150","true"
"null","<div style=""font-size:60px;"">+</div>","null","html-keyboard-response","290","249416","0.0-6.0-0.142","SORE","1","f","rechts","24","","fixation","","","",""
"1283","img/150_180.png","70","image-keyboard-response","291","250700","0.0-6.0-1.142","SORE","1","f","rechts","24","","","object","f","150","true"
"null","<div style=""font-size:60px;"">+</div>","null","html-keyboard-response","292","251002","0.0-6.0-0.143","SORE","1","f","rechts","24","","fixation","","","",""
"844","img/120_270.png","74","image-keyboard-response","293","251847","0.0-6.0-1.143","SORE","1","f","rechts","24","","","object","j","120","true"
"null","<div style=""font-size:60px;"">+</div>","null","html-keyboard-response","294","252148","0.0-6.0-0.144","SORE","1","f","rechts","24","","fixation","","","",""
"934","img/120_90.png","70","image-keyboard-response","295","253083","0.0-6.0-1.144","SORE","1","f","rechts","24","","","object","f","120","true"
"null","<div style=""font-size:60px;"">+</div>","null","html-keyboard-response","296","253585","0.0-6.0-0.145","SORE","1","f","rechts","24","","fixation","","","",""
"711","img/60_30.png","70","image-keyboard-response","297","254296","0.0-6.0-1.145","SORE","1","f","rechts","24","","","object","f","60","true"
"null","<div style=""font-size:60px;"">+</div>","null","html-keyboard-response","298","254697","0.0-6.0-0.146","SORE","1","f","rechts","24","","fixation","","","",""
"1067","img/90_150.png","70","image-keyboard-response","299","255765","0.0-6.0-1.146","SORE","1","f","rechts","24","","","object","j","90","false"
"null","<div style=""font-size:60px;"">+</div>","null","html-keyboard-response","300","256167","0.0-6.0-0.147","SORE","1","f","rechts","24","","fixation","","","",""
"1157","img/30_90.png","74","image-keyboard-response","301","257325","0.0-6.0-1.147","SORE","1","f","rechts","24","","","object","j","30","true"
"null","<div style=""font-size:60px;"">+</div>","null","html-keyboard-response","302","257627","0.0-6.0-0.148","SORE","1","f","rechts","24","","fixation","","","",""
"961","img/L60_180.png","74","image-keyboard-response","303","258588","0.0-6.0-1.148","SORE","1","f","rechts","24","","","object","j","60","true"
"null","<div style=""font-size:60px;"">+</div>","null","html-keyboard-response","304","259040","0.0-6.0-0.149","SORE","1","f","rechts","24","","fixation","","","",""
"764","img/L90_180.png","74","image-keyboard-response","305","259804","0.0-6.0-1.149","SORE","1","f","rechts","24","","","object","j","90","true"
"null","<div style=""font-size:60px;"">+</div>","null","html-keyboard-response","306","260255","0.0-6.0-0.150","SORE","1","f","rechts","24","","fixation","","","",""
"803","img/30_60.png","70","image-keyboard-response","307","261059","0.0-6.0-1.150","SORE","1","f","rechts","24","","","object","j","30","false"
"null","<div style=""font-size:60px;"">+</div>","null","html-keyboard-response","308","261360","0.0-6.0-0.151","SORE","1","f","rechts","24","","fixation","","","",""
"832","img/30_180.png","70","image-keyboard-response","309","262192","0.0-6.0-1.151","SORE","1","f","rechts","24","","","object","f","30","true"
"null","<div style=""font-size:60px;"">+</div>","null","html-keyboard-response","310","262643","0.0-6.0-0.152","SORE","1","f","rechts","24","","fixation","","","",""
"1066","img/0_300.png","70","image-keyboard-response","311","263710","0.0-6.0-1.152","SORE","1","f","rechts","24","","","object","f","0","true"
"null","<div style=""font-size:60px;"">+</div>","null","html-keyboard-response","312","264211","0.0-6.0-0.153","SORE","1","f","rechts","24","","fixation","","","",""
"916","img/30_270.png","70","image-keyboard-response","313","265128","0.0-6.0-1.153","SORE","1","f","rechts","24","","","object","f","30","true"
"null","<div style=""font-size:60px;"">+</div>","null","html-keyboard-response","314","265529","0.0-6.0-0.154","SORE","1","f","rechts","24","","fixation","","","",""
"841","img/30_240.png","70","image-keyboard-response","315","266370","0.0-6.0-1.154","SORE","1","f","rechts","24","","","object","f","30","true"
"null","<div style=""font-size:60px;"">+</div>","null","html-keyboard-response","316","266821","0.0-6.0-0.155","SORE","1","f","rechts","24","","fixation","","","",""
"596","img/90_300.png","74","image-keyboard-response","317","267418","0.0-6.0-1.155","SORE","1","f","rechts","24","","","object","j","90","true"
"null","<div style=""font-size:60px;"">+</div>","null","html-keyboard-response","318","267920","0.0-6.0-0.156","SORE","1","f","rechts","24","","fixation","","","",""
"638","img/30_300.png","74","image-keyboard-response","319","268558","0.0-6.0-1.156","SORE","1","f","rechts","24","","","object","f","30","false"
"null","<div style=""font-size:60px;"">+</div>","null","html-keyboard-response","320","269010","0.0-6.0-0.157","SORE","1","f","rechts","24","","fixation","","","",""
"867","img/120_150.png","70","image-keyboard-response","321","269877","0.0-6.0-1.157","SORE","1","f","rechts","24","","","object","j","120","false"
"null","<div style=""font-size:60px;"">+</div>","null","html-keyboard-response","322","270327","0.0-6.0-0.158","SORE","1","f","rechts","24","","fixation","","","",""
"857","img/60_180.png","70","image-keyboard-response","323","271185","0.0-6.0-1.158","SORE","1","f","rechts","24","","","object","f","60","true"
"null","<div style=""font-size:60px;"">+</div>","null","html-keyboard-response","324","271636","0.0-6.0-0.159","SORE","1","f","rechts","24","","fixation","","","",""
"961","img/90_150.png","74","image-keyboard-response","325","272599","0.0-6.0-1.159","SORE","1","f","rechts","24","","","object","j","90","true"
"null","<div style=""font-size:60px;"">+</div>","null","html-keyboard-response","326","273051","0.0-6.0-0.160","SORE","1","f","rechts","24","","fixation","","","",""
"734","img/120_210.png","70","image-keyboard-response","327","273785","0.0-6.0-1.160","SORE","1","f","rechts","24","","","object","f","120","true"
"null","<div style=""font-size:60px;"">+</div>","null","html-keyboard-response","328","274187","0.0-6.0-0.161","SORE","1","f","rechts","24","","fixation","","","",""
"726","img/60_30.png","70","image-keyboard-response","329","274913","0.0-6.0-1.161","SORE","1","f","rechts","24","","","object","f","60","true"
"null","<div style=""font-size:60px;"">+</div>","null","html-keyboard-response","330","275265","0.0-6.0-0.162","SORE","1","f","rechts","24","","fixation","","","",""
"815","img/150_60.png","70","image-keyboard-response","331","276081","0.0-6.0-1.162","SORE","1","f","rechts","24","","","object","f","150","true"
"null","<div style=""font-size:60px;"">+</div>","null","html-keyboard-response","332","276432","0.0-6.0-0.163","SORE","1","f","rechts","24","","fixation","","","",""
"777","img/L30_180.png","74","image-keyboard-response","333","277211","0.0-6.0-1.163","SORE","1","f","rechts","24","","","object","j","30","true"
"null","<div style=""font-size:60px;"">+</div>","null","html-keyboard-response","334","277612","0.0-6.0-0.164","SORE","1","f","rechts","24","","fixation","","","",""
"805","img/150_300.png","74","image-keyboard-response","335","278418","0.0-6.0-1.164","SORE","1","f","rechts","24","","","object","j","150","true"
"null","<div style=""font-size:60px;"">+</div>","null","html-keyboard-response","336","278720","0.0-6.0-0.165","SORE","1","f","rechts","24","","fixation","","","",""
"793","img/90_60.png","70","image-keyboard-response","337","279514","0.0-6.0-1.165","SORE","1","f","rechts","24","","","object","f","90","true"
"null","<div style=""font-size:60px;"">+</div>","null","html-keyboard-response","338","279965","0.0-6.0-0.166","SORE","1","f","rechts","24","","fixation","","","",""
"905","img/150_120.png","70","image-keyboard-response","339","280871","0.0-6.0-1.166","SORE","1","f","rechts","24","","","object","f","150","true"
"null","<div style=""font-size:60px;"">+</div>","null","html-keyboard-response","340","281373","0.0-6.0-0.167","SORE","1","f","rechts","24","","fixation","","","",""
"1009","img/0_300.png","70","image-keyboard-response","341","282383","0.0-6.0-1.167","SORE","1","f","rechts","24","","","object","f","0","true"
"null","<div style=""font-size:60px;"">+</div>","null","html-keyboard-response","342","282735","0.0-6.0-0.168","SORE","1","f","rechts","24","","fixation","","","",""
"830","img/120_30.png","70","image-keyboard-response","343","283567","0.0-6.0-1.168","SORE","1","f","rechts","24","","","object","f","120","true"
"null","<div style=""font-size:60px;"">+</div>","null","html-keyboard-response","344","283968","0.0-6.0-0.169","SORE","1","f","rechts","24","","fixation","","","",""
"918","img/0_330.png","70","image-keyboard-response","345","284888","0.0-6.0-1.169","SORE","1","f","rechts","24","","","object","f","0","true"
"null","<div style=""font-size:60px;"">+</div>","null","html-keyboard-response","346","285289","0.0-6.0-0.170","SORE","1","f","rechts","24","","fixation","","","",""
"940","img/L90_180.png","74","image-keyboard-response","347","286230","0.0-6.0-1.170","SORE","1","f","rechts","24","","","object","j","90","true"
"null","<div style=""font-size:60px;"">+</div>","null","html-keyboard-response","348","286582","0.0-6.0-0.171","SORE","1","f","rechts","24","","fixation","","","",""
"892","img/150_180.png","70","image-keyboard-response","349","287475","0.0-6.0-1.171","SORE","1","f","rechts","24","","","object","f","150","true"
"null","<div style=""font-size:60px;"">+</div>","null","html-keyboard-response","350","287827","0.0-6.0-0.172","SORE","1","f","rechts","24","","fixation","","","",""
"1324","img/60_90.png","70","image-keyboard-response","351","289152","0.0-6.0-1.172","SORE","1","f","rechts","24","","","object","j","60","false"
"null","<div style=""font-size:60px;"">+</div>","null","html-keyboard-response","352","289454","0.0-6.0-0.173","SORE","1","f","rechts","24","","fixation","","","",""
"926","img/120_90.png","70","image-keyboard-response","353","290381","0.0-6.0-1.173","SORE","1","f","rechts","24","","","object","f","120","true"
"null","<div style=""font-size:60px;"">+</div>","null","html-keyboard-response","354","290733","0.0-6.0-0.174","SORE","1","f","rechts","24","","fixation","","","",""
"844","img/0_210.png","70","image-keyboard-response","355","291578","0.0-6.0-1.174","SORE","1","f","rechts","24","","","object","f","0","true"
"null","<div style=""font-size:60px;"">+</div>","null","html-keyboard-response","356","292079","0.0-6.0-0.175","SORE","1","f","rechts","24","","fixation","","","",""
"834","img/0_270.png","70","image-keyboard-response","357","292913","0.0-6.0-1.175","SORE","1","f","rechts","24","","","object","f","0","true"
"null","<div style=""font-size:60px;"">+</div>","null","html-keyboard-response","358","293265","0.0-6.0-0.176","SORE","1","f","rechts","24","","fixation","","","",""
"759","img/150_270.png","74","image-keyboard-response","359","294025","0.0-6.0-1.176","SORE","1","f","rechts","24","","","object","j","150","true"
"null","<div style=""font-size:60px;"">+</div>","null","html-keyboard-response","360","294427","0.0-6.0-0.177","SORE","1","f","rechts","24","","fixation","","","",""
"823","img/90_120.png","70","image-keyboard-response","361","295251","0.0-6.0-1.177","SORE","1","f","rechts","24","","","object","j","90","false"
"null","<div style=""font-size:60px;"">+</div>","null","html-keyboard-response","362","295653","0.0-6.0-0.178","SORE","1","f","rechts","24","","fixation","","","",""
"771","img/90_300.png","74","image-keyboard-response","363","296425","0.0-6.0-1.178","SORE","1","f","rechts","24","","","object","j","90","true"
"null","<div style=""font-size:60px;"">+</div>","null","html-keyboard-response","364","296826","0.0-6.0-0.179","SORE","1","f","rechts","24","","fixation","","","",""
"821","img/60_330.png","74","image-keyboard-response","365","297648","0.0-6.0-1.179","SORE","1","f","rechts","24","","","object","j","60","true"
"null","<div style=""font-size:60px;"">+</div>","null","html-keyboard-response","366","298050","0.0-6.0-0.180","SORE","1","f","rechts","24","","fixation","","","",""
"953","img/30_60.png","70","image-keyboard-response","367","299004","0.0-6.0-1.180","SORE","1","f","rechts","24","","","object","j","30","false"
"null","<div style=""font-size:60px;"">+</div>","null","html-keyboard-response","368","299406","0.0-6.0-0.181","SORE","1","f","rechts","24","","fixation","","","",""
"653","img/60_270.png","74","image-keyboard-response","369","300060","0.0-6.0-1.181","SORE","1","f","rechts","24","","","object","f","60","false"
"null","<div style=""font-size:60px;"">+</div>","null","html-keyboard-response","370","300361","0.0-6.0-0.182","SORE","1","f","rechts","24","","fixation","","","",""
"933","img/L60_180.png","74","image-keyboard-response","371","301295","0.0-6.0-1.182","SORE","1","f","rechts","24","","","object","j","60","true"
"null","<div style=""font-size:60px;"">+</div>","null","html-keyboard-response","372","301646","0.0-6.0-0.183","SORE","1","f","rechts","24","","fixation","","","",""
"893","img/0_90.png","74","image-keyboard-response","373","302539","0.0-6.0-1.183","SORE","1","f","rechts","24","","","object","j","0","true"
"null","<div style=""font-size:60px;"">+</div>","null","html-keyboard-response","374","303041","0.0-6.0-0.184","SORE","1","f","rechts","24","","fixation","","","",""
"1079","img/30_240.png","70","image-keyboard-response","375","304120","0.0-6.0-1.184","SORE","1","f","rechts","24","","","object","f","30","true"
"null","<div style=""font-size:60px;"">+</div>","null","html-keyboard-response","376","304622","0.0-6.0-0.185","SORE","1","f","rechts","24","","fixation","","","",""
"858","img/30_90.png","74","image-keyboard-response","377","305481","0.0-6.0-1.185","SORE","1","f","rechts","24","","","object","j","30","true"
"null","<div style=""font-size:60px;"">+</div>","null","html-keyboard-response","378","305833","0.0-6.0-0.186","SORE","1","f","rechts","24","","fixation","","","",""
"895","img/120_330.png","74","image-keyboard-response","379","306728","0.0-6.0-1.186","SORE","1","f","rechts","24","","","object","j","120","true"
"null","<div style=""font-size:60px;"">+</div>","null","html-keyboard-response","380","307080","0.0-6.0-0.187","SORE","1","f","rechts","24","","fixation","","","",""
"703","img/90_330.png","74","image-keyboard-response","381","307783","0.0-6.0-1.187","SORE","1","f","rechts","24","","","object","j","90","true"
"null","<div style=""font-size:60px;"">+</div>","null","html-keyboard-response","382","308285","0.0-6.0-0.188","SORE","1","f","rechts","24","","fixation","","","",""
"999","img/L150_180.png","74","image-keyboard-response","383","309285","0.0-6.0-1.188","SORE","1","f","rechts","24","","","object","j","150","true"
"null","<div style=""font-size:60px;"">+</div>","null","html-keyboard-response","384","309637","0.0-6.0-0.189","SORE","1","f","rechts","24","","fixation","","","",""
"931","img/30_270.png","70","image-keyboard-response","385","310568","0.0-6.0-1.189","SORE","1","f","rechts","24","","","object","f","30","true"
"null","<div style=""font-size:60px;"">+</div>","null","html-keyboard-response","386","311020","0.0-6.0-0.190","SORE","1","f","rechts","24","","fixation","","","",""
"975","img/0_60.png","74","image-keyboard-response","387","311995","0.0-6.0-1.190","SORE","1","f","rechts","24","","","object","j","0","true"
"null","<div style=""font-size:60px;"">+</div>","null","html-keyboard-response","388","312346","0.0-6.0-0.191","SORE","1","f","rechts","24","","fixation","","","",""
"839","img/60_150.png","74","image-keyboard-response","389","313185","0.0-6.0-1.191","SORE","1","f","rechts","24","","","object","j","60","true"
"null","<div style=""font-size:60px;"">+</div>","null","html-keyboard-response","390","313637","0.0-6.0-0.192","SORE","1","f","rechts","24","","fixation","","","",""
"797","img/0_120.png","74","image-keyboard-response","391","314434","0.0-6.0-1.192","SORE","1","f","rechts","24","","","object","j","0","true"
"null","<div style=""font-size:60px;"">+</div>","null","html-keyboard-response","392","314935","0.0-6.0-0.193","SORE","1","f","rechts","24","","fixation","","","",""
"868","img/0_150.png","74","image-keyboard-response","393","315804","0.0-6.0-1.193","SORE","1","f","rechts","24","","","object","j","0","true"
"null","<div style=""font-size:60px;"">+</div>","null","html-keyboard-response","394","316155","0.0-6.0-0.194","SORE","1","f","rechts","24","","fixation","","","",""
"776","img/90_240.png","74","image-keyboard-response","395","316932","0.0-6.0-1.194","SORE","1","f","rechts","24","","","object","f","90","false"
"null","<div style=""font-size:60px;"">+</div>","null","html-keyboard-response","396","317434","0.0-6.0-0.195","SORE","1","f","rechts","24","","fixation","","","",""
"652","img/90_210.png","74","image-keyboard-response","397","318086","0.0-6.0-1.195","SORE","1","f","rechts","24","","","object","f","90","false"
"null","<div style=""font-size:60px;"">+</div>","null","html-keyboard-response","398","318437","0.0-6.0-0.196","SORE","1","f","rechts","24","","fixation","","","",""
"678","img/90_30.png","70","image-keyboard-response","399","319115","0.0-6.0-1.196","SORE","1","f","rechts","24","","","object","f","90","true"
"null","<div style=""font-size:60px;"">+</div>","null","html-keyboard-response","400","319567","0.0-6.0-0.197","SORE","1","f","rechts","24","","fixation","","","",""
"599","img/150_240.png","74","image-keyboard-response","401","320166","0.0-6.0-1.197","SORE","1","f","rechts","24","","","object","j","150","true"
"null","<div style=""font-size:60px;"">+</div>","null","html-keyboard-response","402","320518","0.0-6.0-0.198","SORE","1","f","rechts","24","","fixation","","","",""
"799","img/60_210.png","70","image-keyboard-response","403","321318","0.0-6.0-1.198","SORE","1","f","rechts","24","","","object","f","60","true"
"null","<div style=""font-size:60px;"">+</div>","null","html-keyboard-response","404","321620","0.0-6.0-0.199","SORE","1","f","rechts","24","","fixation","","","",""
"912","img/150_90.png","70","image-keyboard-response","405","322533","0.0-6.0-1.199","SORE","1","f","rechts","24","","","object","f","150","true"
"null","<div style=""font-size:60px;"">+</div>","null","html-keyboard-response","406","322884","0.0-6.0-0.200","SORE","1","f","rechts","24","","fixation","","","",""
"1126","img/90_180.png","70","image-keyboard-response","407","324011","0.0-6.0-1.200","SORE","1","f","rechts","24","","","object","f","90","true"
"null","<div style=""font-size:60px;"">+</div>","null","html-keyboard-response","408","324462","0.0-6.0-0.201","SORE","1","f","rechts","24","","fixation","","","",""
"1076","img/L120_180.png","74","image-keyboard-response","409","325539","0.0-6.0-1.201","SORE","1","f","rechts","24","","","object","j","120","true"
"null","<div style=""font-size:60px;"">+</div>","null","html-keyboard-response","410","325840","0.0-6.0-0.202","SORE","1","f","rechts","24","","fixation","","","",""
"1318","img/30_180.png","70","image-keyboard-response","411","327158","0.0-6.0-1.202","SORE","1","f","rechts","24","","","object","f","30","true"
"null","<div style=""font-size:60px;"">+</div>","null","html-keyboard-response","412","327660","0.0-6.0-0.203","SORE","1","f","rechts","24","","fixation","","","",""
"881","img/0_30.png","74","image-keyboard-response","413","328541","0.0-6.0-1.203","SORE","1","f","rechts","24","","","object","j","0","true"
"null","<div style=""font-size:60px;"">+</div>","null","html-keyboard-response","414","329043","0.0-6.0-0.204","SORE","1","f","rechts","24","","fixation","","","",""
"797","img/0_240.png","70","image-keyboard-response","415","329842","0.0-6.0-1.204","SORE","1","f","rechts","24","","","object","f","0","true"
"null","<div style=""font-size:60px;"">+</div>","null","html-keyboard-response","416","330193","0.0-6.0-0.205","SORE","1","f","rechts","24","","fixation","","","",""
"711","img/120_270.png","74","image-keyboard-response","417","330905","0.0-6.0-1.205","SORE","1","f","rechts","24","","","object","j","120","true"
"null","<div style=""font-size:60px;"">+</div>","null","html-keyboard-response","418","331406","0.0-6.0-0.206","SORE","1","f","rechts","24","","fixation","","","",""
"838","img/120_180.png","74","image-keyboard-response","419","332245","0.0-6.0-1.206","SORE","1","f","rechts","24","","","object","f","120","false"
"null","<div style=""font-size:60px;"">+</div>","null","html-keyboard-response","420","332697","0.0-6.0-0.207","SORE","1","f","rechts","24","","fixation","","","",""
"1070","img/30_120.png","70","image-keyboard-response","421","333767","0.0-6.0-1.207","SORE","1","f","rechts","24","","","object","j","30","false"
"9888","<p>Du hast in 80% der Versuche korrekt entschieden.</p><p>Deine durchschnittliche Reaktionszeit war  948ms.</p><p>Dr&uuml;cke eine beliebige Taste, um die Session zu beenden. Vielen Dank!</p>","72","html-keyboard-response","422","343658","0.0-7.0","SORE","1","f","rechts","24","","","","","",""
