"rt","stimulus","key_press","trial_type","trial_index","time_elapsed","internal_node_id","subject","session","sex","handedness","age","responses","test_part","condition","correct_response","angle","correct"
"1082","<p>Mental Rotation Experiment.</p> <p>Dr&uuml;cke eine beliebige Taste, um anzufangen.</p>","71","html-keyboard-response","0","1086","0.0-0.0","SORE","2","f","rechts","24","","","","","",""
"4660","","","survey-text","1","5747","0.0-1.0","SORE","2","f","rechts","24","{""Q0"":""SORE""}","","","","",""
"1104","","","survey-text","2","6852","0.0-2.0","SORE","2","f","rechts","24","{""Q0"":""2""}","","","","",""
"3411","","","survey-multi-choice","3","10265","0.0-3.0","SORE","2","f","rechts","24","{""Q0"":""f"",""Q1"":""rechts""}","","","","",""
"2108","","","survey-text","4","12376","0.0-4.0","SORE","2","f","rechts","24","{""Q0"":""24""}","","","","",""
"60888","<p>Stell dir vor, dass du vor einem runden Tisch stehst, auf dem sich ein blauer Ball am Tischrand befindet. Entlang des Tischrands ist jeweils ein verschieden langer Pfeil. Nun bleibst du an deinem Platz vor dem Tisch und rotierst den Tisch entlang des Pfeils (gleiche Richtung und Länge). </p> <img src='img/30_180.png'></img> <br><p> Nachdem du diese (vorgestellte) Rotation durchgef&uuml;hrt hast, schau in Richtung der Tischmitte, und entscheide dann, ob der Ball links oder rechts von dir liegt.</p> <p>Dr&uuml;cke die <strong>'f'</strong>-Taste f&uuml;r links, die <strong>'j'</strong>-Taste f&uuml;r rechts.</p><br><p> Das Bild wird jeweils 1 Sekunde lang pr&auml;sentiert. Du hast 3 Sekunden Zeit eine Entscheidung zu treffen.</p>","32","html-keyboard-response","5","73266","0.0-5.0","SORE","2","f","rechts","24","","","","","",""
"null","<div style=""font-size:60px;"">+</div>","null","html-keyboard-response","6","74670","0.0-6.0-0.0","SORE","2","f","rechts","24","","fixation","","","",""
"879","img/60_150.png","74","image-keyboard-response","7","75551","0.0-6.0-1.0","SORE","2","f","rechts","24","","","object","j","60","true"
"null","<div style=""font-size:60px;"">+</div>","null","html-keyboard-response","8","75953","0.0-6.0-0.1","SORE","2","f","rechts","24","","fixation","","","",""
"674","img/0_90.png","74","image-keyboard-response","9","76628","0.0-6.0-1.1","SORE","2","f","rechts","24","","","object","j","0","true"
"null","<div style=""font-size:60px;"">+</div>","null","html-keyboard-response","10","77080","0.0-6.0-0.2","SORE","2","f","rechts","24","","fixation","","","",""
"655","img/0_150.png","74","image-keyboard-response","11","77736","0.0-6.0-1.2","SORE","2","f","rechts","24","","","object","j","0","true"
"null","<div style=""font-size:60px;"">+</div>","null","html-keyboard-response","12","78037","0.0-6.0-0.3","SORE","2","f","rechts","24","","fixation","","","",""
"773","img/150_180.png","70","image-keyboard-response","13","78811","0.0-6.0-1.3","SORE","2","f","rechts","24","","","object","f","150","true"
"null","<div style=""font-size:60px;"">+</div>","null","html-keyboard-response","14","79163","0.0-6.0-0.4","SORE","2","f","rechts","24","","fixation","","","",""
"735","img/150_90.png","70","image-keyboard-response","15","79899","0.0-6.0-1.4","SORE","2","f","rechts","24","","","object","f","150","true"
"null","<div style=""font-size:60px;"">+</div>","null","html-keyboard-response","16","80350","0.0-6.0-0.5","SORE","2","f","rechts","24","","fixation","","","",""
"864","img/30_240.png","74","image-keyboard-response","17","81216","0.0-6.0-1.5","SORE","2","f","rechts","24","","","object","f","30","false"
"null","<div style=""font-size:60px;"">+</div>","null","html-keyboard-response","18","81568","0.0-6.0-0.6","SORE","2","f","rechts","24","","fixation","","","",""
"920","img/30_90.png","74","image-keyboard-response","19","82489","0.0-6.0-1.6","SORE","2","f","rechts","24","","","object","j","30","true"
"null","<div style=""font-size:60px;"">+</div>","null","html-keyboard-response","20","82791","0.0-6.0-0.7","SORE","2","f","rechts","24","","fixation","","","",""
"1003","img/150_270.png","74","image-keyboard-response","21","83795","0.0-6.0-1.7","SORE","2","f","rechts","24","","","object","j","150","true"
"null","<div style=""font-size:60px;"">+</div>","null","html-keyboard-response","22","84147","0.0-6.0-0.8","SORE","2","f","rechts","24","","fixation","","","",""
"794","img/0_240.png","70","image-keyboard-response","23","84942","0.0-6.0-1.8","SORE","2","f","rechts","24","","","object","f","0","true"
"null","<div style=""font-size:60px;"">+</div>","null","html-keyboard-response","24","85294","0.0-6.0-0.9","SORE","2","f","rechts","24","","fixation","","","",""
"764","img/90_210.png","74","image-keyboard-response","25","86059","0.0-6.0-1.9","SORE","2","f","rechts","24","","","object","f","90","false"
"null","<div style=""font-size:60px;"">+</div>","null","html-keyboard-response","26","86561","0.0-6.0-0.10","SORE","2","f","rechts","24","","fixation","","","",""
"837","img/90_180.png","70","image-keyboard-response","27","87399","0.0-6.0-1.10","SORE","2","f","rechts","24","","","object","f","90","true"
"null","<div style=""font-size:60px;"">+</div>","null","html-keyboard-response","28","87801","0.0-6.0-0.11","SORE","2","f","rechts","24","","fixation","","","",""
"735","img/90_330.png","74","image-keyboard-response","29","88537","0.0-6.0-1.11","SORE","2","f","rechts","24","","","object","j","90","true"
"null","<div style=""font-size:60px;"">+</div>","null","html-keyboard-response","30","88988","0.0-6.0-0.12","SORE","2","f","rechts","24","","fixation","","","",""
"752","img/30_180.png","70","image-keyboard-response","31","89741","0.0-6.0-1.12","SORE","2","f","rechts","24","","","object","f","30","true"
"null","<div style=""font-size:60px;"">+</div>","null","html-keyboard-response","32","90093","0.0-6.0-0.13","SORE","2","f","rechts","24","","fixation","","","",""
"1242","img/90_120.png","70","image-keyboard-response","33","91335","0.0-6.0-1.13","SORE","2","f","rechts","24","","","object","j","90","false"
"null","<div style=""font-size:60px;"">+</div>","null","html-keyboard-response","34","91787","0.0-6.0-0.14","SORE","2","f","rechts","24","","fixation","","","",""
"955","img/30_270.png","70","image-keyboard-response","35","92743","0.0-6.0-1.14","SORE","2","f","rechts","24","","","object","f","30","true"
"null","<div style=""font-size:60px;"">+</div>","null","html-keyboard-response","36","93045","0.0-6.0-0.15","SORE","2","f","rechts","24","","fixation","","","",""
"923","img/150_60.png","70","image-keyboard-response","37","93969","0.0-6.0-1.15","SORE","2","f","rechts","24","","","object","f","150","true"
"null","<div style=""font-size:60px;"">+</div>","null","html-keyboard-response","38","94370","0.0-6.0-0.16","SORE","2","f","rechts","24","","fixation","","","",""
"1131","img/30_300.png","74","image-keyboard-response","39","95503","0.0-6.0-1.16","SORE","2","f","rechts","24","","","object","f","30","false"
"null","<div style=""font-size:60px;"">+</div>","null","html-keyboard-response","40","95955","0.0-6.0-0.17","SORE","2","f","rechts","24","","fixation","","","",""
"771","img/60_330.png","74","image-keyboard-response","41","96728","0.0-6.0-1.17","SORE","2","f","rechts","24","","","object","j","60","true"
"null","<div style=""font-size:60px;"">+</div>","null","html-keyboard-response","42","97079","0.0-6.0-0.18","SORE","2","f","rechts","24","","fixation","","","",""
"768","img/0_330.png","70","image-keyboard-response","43","97848","0.0-6.0-1.18","SORE","2","f","rechts","24","","","object","f","0","true"
"null","<div style=""font-size:60px;"">+</div>","null","html-keyboard-response","44","98199","0.0-6.0-0.19","SORE","2","f","rechts","24","","fixation","","","",""
"1118","img/0_60.png","74","image-keyboard-response","45","99319","0.0-6.0-1.19","SORE","2","f","rechts","24","","","object","j","0","true"
"null","<div style=""font-size:60px;"">+</div>","null","html-keyboard-response","46","99671","0.0-6.0-0.20","SORE","2","f","rechts","24","","fixation","","","",""
"847","img/0_120.png","74","image-keyboard-response","47","100519","0.0-6.0-1.20","SORE","2","f","rechts","24","","","object","j","0","true"
"null","<div style=""font-size:60px;"">+</div>","null","html-keyboard-response","48","101020","0.0-6.0-0.21","SORE","2","f","rechts","24","","fixation","","","",""
"1382","img/L90_180.png","74","image-keyboard-response","49","102405","0.0-6.0-1.21","SORE","2","f","rechts","24","","","object","j","90","true"
"null","<div style=""font-size:60px;"">+</div>","null","html-keyboard-response","50","102857","0.0-6.0-0.22","SORE","2","f","rechts","24","","fixation","","","",""
"865","img/150_300.png","74","image-keyboard-response","51","103724","0.0-6.0-1.22","SORE","2","f","rechts","24","","","object","j","150","true"
"null","<div style=""font-size:60px;"">+</div>","null","html-keyboard-response","52","104075","0.0-6.0-0.23","SORE","2","f","rechts","24","","fixation","","","",""
"876","img/30_120.png","74","image-keyboard-response","53","104953","0.0-6.0-1.23","SORE","2","f","rechts","24","","","object","j","30","true"
"null","<div style=""font-size:60px;"">+</div>","null","html-keyboard-response","54","105454","0.0-6.0-0.24","SORE","2","f","rechts","24","","fixation","","","",""
"771","img/60_90.png","70","image-keyboard-response","55","106226","0.0-6.0-1.24","SORE","2","f","rechts","24","","","object","j","60","false"
"null","<div style=""font-size:60px;"">+</div>","null","html-keyboard-response","56","106728","0.0-6.0-0.25","SORE","2","f","rechts","24","","fixation","","","",""
"770","img/60_180.png","70","image-keyboard-response","57","107499","0.0-6.0-1.25","SORE","2","f","rechts","24","","","object","f","60","true"
"null","<div style=""font-size:60px;"">+</div>","null","html-keyboard-response","58","107851","0.0-6.0-0.26","SORE","2","f","rechts","24","","fixation","","","",""
"708","img/120_330.png","74","image-keyboard-response","59","108560","0.0-6.0-1.26","SORE","2","f","rechts","24","","","object","j","120","true"
"null","<div style=""font-size:60px;"">+</div>","null","html-keyboard-response","60","108861","0.0-6.0-0.27","SORE","2","f","rechts","24","","fixation","","","",""
"835","img/L30_180.png","74","image-keyboard-response","61","109697","0.0-6.0-1.27","SORE","2","f","rechts","24","","","object","j","30","true"
"null","<div style=""font-size:60px;"">+</div>","null","html-keyboard-response","62","110098","0.0-6.0-0.28","SORE","2","f","rechts","24","","fixation","","","",""
"882","img/120_180.png","70","image-keyboard-response","63","110982","0.0-6.0-1.28","SORE","2","f","rechts","24","","","object","f","120","true"
"null","<div style=""font-size:60px;"">+</div>","null","html-keyboard-response","64","111432","0.0-6.0-0.29","SORE","2","f","rechts","24","","fixation","","","",""
"948","img/90_150.png","74","image-keyboard-response","65","112382","0.0-6.0-1.29","SORE","2","f","rechts","24","","","object","j","90","true"
"null","<div style=""font-size:60px;"">+</div>","null","html-keyboard-response","66","112882","0.0-6.0-0.30","SORE","2","f","rechts","24","","fixation","","","",""
"1127","img/L150_180.png","74","image-keyboard-response","67","114011","0.0-6.0-1.30","SORE","2","f","rechts","24","","","object","j","150","true"
"null","<div style=""font-size:60px;"">+</div>","null","html-keyboard-response","68","114413","0.0-6.0-0.31","SORE","2","f","rechts","24","","fixation","","","",""
"1138","img/120_210.png","74","image-keyboard-response","69","115552","0.0-6.0-1.31","SORE","2","f","rechts","24","","","object","f","120","false"
"null","<div style=""font-size:60px;"">+</div>","null","html-keyboard-response","70","115954","0.0-6.0-0.32","SORE","2","f","rechts","24","","fixation","","","",""
"996","img/0_30.png","74","image-keyboard-response","71","116951","0.0-6.0-1.32","SORE","2","f","rechts","24","","","object","j","0","true"
"null","<div style=""font-size:60px;"">+</div>","null","html-keyboard-response","72","117453","0.0-6.0-0.33","SORE","2","f","rechts","24","","fixation","","","",""
"889","img/L60_180.png","74","image-keyboard-response","73","118345","0.0-6.0-1.33","SORE","2","f","rechts","24","","","object","j","60","true"
"null","<div style=""font-size:60px;"">+</div>","null","html-keyboard-response","74","118696","0.0-6.0-0.34","SORE","2","f","rechts","24","","fixation","","","",""
"1492","img/120_150.png","70","image-keyboard-response","75","120189","0.0-6.0-1.34","SORE","2","f","rechts","24","","","object","j","120","false"
"null","<div style=""font-size:60px;"">+</div>","null","html-keyboard-response","76","120541","0.0-6.0-0.35","SORE","2","f","rechts","24","","fixation","","","",""
"1432","img/60_270.png","70","image-keyboard-response","77","121974","0.0-6.0-1.35","SORE","2","f","rechts","24","","","object","f","60","true"
"null","<div style=""font-size:60px;"">+</div>","null","html-keyboard-response","78","122426","0.0-6.0-0.36","SORE","2","f","rechts","24","","fixation","","","",""
"1078","img/90_240.png","74","image-keyboard-response","79","123505","0.0-6.0-1.36","SORE","2","f","rechts","24","","","object","f","90","false"
"null","<div style=""font-size:60px;"">+</div>","null","html-keyboard-response","80","123856","0.0-6.0-0.37","SORE","2","f","rechts","24","","fixation","","","",""
"737","img/90_300.png","74","image-keyboard-response","81","124595","0.0-6.0-1.37","SORE","2","f","rechts","24","","","object","j","90","true"
"null","<div style=""font-size:60px;"">+</div>","null","html-keyboard-response","82","124897","0.0-6.0-0.38","SORE","2","f","rechts","24","","fixation","","","",""
"719","img/120_270.png","74","image-keyboard-response","83","125617","0.0-6.0-1.38","SORE","2","f","rechts","24","","","object","j","120","true"
"null","<div style=""font-size:60px;"">+</div>","null","html-keyboard-response","84","126019","0.0-6.0-0.39","SORE","2","f","rechts","24","","fixation","","","",""
"673","img/120_30.png","70","image-keyboard-response","85","126693","0.0-6.0-1.39","SORE","2","f","rechts","24","","","object","f","120","true"
"null","<div style=""font-size:60px;"">+</div>","null","html-keyboard-response","86","126994","0.0-6.0-0.40","SORE","2","f","rechts","24","","fixation","","","",""
"873","img/150_240.png","74","image-keyboard-response","87","127868","0.0-6.0-1.40","SORE","2","f","rechts","24","","","object","j","150","true"
"null","<div style=""font-size:60px;"">+</div>","null","html-keyboard-response","88","128220","0.0-6.0-0.41","SORE","2","f","rechts","24","","fixation","","","",""
"752","img/90_60.png","70","image-keyboard-response","89","128973","0.0-6.0-1.41","SORE","2","f","rechts","24","","","object","f","90","true"
"null","<div style=""font-size:60px;"">+</div>","null","html-keyboard-response","90","129324","0.0-6.0-0.42","SORE","2","f","rechts","24","","fixation","","","",""
"965","img/30_60.png","74","image-keyboard-response","91","130290","0.0-6.0-1.42","SORE","2","f","rechts","24","","","object","j","30","true"
"null","<div style=""font-size:60px;"">+</div>","null","html-keyboard-response","92","130641","0.0-6.0-0.43","SORE","2","f","rechts","24","","fixation","","","",""
"807","img/0_270.png","70","image-keyboard-response","93","131449","0.0-6.0-1.43","SORE","2","f","rechts","24","","","object","f","0","true"
"null","<div style=""font-size:60px;"">+</div>","null","html-keyboard-response","94","131801","0.0-6.0-0.44","SORE","2","f","rechts","24","","fixation","","","",""
"685","img/60_30.png","70","image-keyboard-response","95","132487","0.0-6.0-1.44","SORE","2","f","rechts","24","","","object","f","60","true"
"null","<div style=""font-size:60px;"">+</div>","null","html-keyboard-response","96","132988","0.0-6.0-0.45","SORE","2","f","rechts","24","","fixation","","","",""
"770","img/120_90.png","70","image-keyboard-response","97","133759","0.0-6.0-1.45","SORE","2","f","rechts","24","","","object","f","120","true"
"null","<div style=""font-size:60px;"">+</div>","null","html-keyboard-response","98","134209","0.0-6.0-0.46","SORE","2","f","rechts","24","","fixation","","","",""
"859","img/60_210.png","70","image-keyboard-response","99","135070","0.0-6.0-1.46","SORE","2","f","rechts","24","","","object","f","60","true"
"null","<div style=""font-size:60px;"">+</div>","null","html-keyboard-response","100","135572","0.0-6.0-0.47","SORE","2","f","rechts","24","","fixation","","","",""
"798","img/0_210.png","70","image-keyboard-response","101","136371","0.0-6.0-1.47","SORE","2","f","rechts","24","","","object","f","0","true"
"null","<div style=""font-size:60px;"">+</div>","null","html-keyboard-response","102","136823","0.0-6.0-0.48","SORE","2","f","rechts","24","","fixation","","","",""
"1121","img/0_300.png","70","image-keyboard-response","103","137945","0.0-6.0-1.48","SORE","2","f","rechts","24","","","object","f","0","true"
"null","<div style=""font-size:60px;"">+</div>","null","html-keyboard-response","104","138297","0.0-6.0-0.49","SORE","2","f","rechts","24","","fixation","","","",""
"725","img/90_30.png","70","image-keyboard-response","105","139023","0.0-6.0-1.49","SORE","2","f","rechts","24","","","object","f","90","true"
"null","<div style=""font-size:60px;"">+</div>","null","html-keyboard-response","106","139425","0.0-6.0-0.50","SORE","2","f","rechts","24","","fixation","","","",""
"971","img/L120_180.png","74","image-keyboard-response","107","140397","0.0-6.0-1.50","SORE","2","f","rechts","24","","","object","j","120","true"
"null","<div style=""font-size:60px;"">+</div>","null","html-keyboard-response","108","140699","0.0-6.0-0.51","SORE","2","f","rechts","24","","fixation","","","",""
"883","img/150_120.png","74","image-keyboard-response","109","141583","0.0-6.0-1.51","SORE","2","f","rechts","24","","","object","f","150","false"
"null","<div style=""font-size:60px;"">+</div>","null","html-keyboard-response","110","141985","0.0-6.0-0.52","SORE","2","f","rechts","24","","fixation","","","",""
"689","img/90_30.png","70","image-keyboard-response","111","142675","0.0-6.0-1.52","SORE","2","f","rechts","24","","","object","f","90","true"
"null","<div style=""font-size:60px;"">+</div>","null","html-keyboard-response","112","143077","0.0-6.0-0.53","SORE","2","f","rechts","24","","fixation","","","",""
"1783","img/L150_180.png","74","image-keyboard-response","113","144860","0.0-6.0-1.53","SORE","2","f","rechts","24","","","object","j","150","true"
"null","<div style=""font-size:60px;"">+</div>","null","html-keyboard-response","114","145312","0.0-6.0-0.54","SORE","2","f","rechts","24","","fixation","","","",""
"1078","img/150_240.png","74","image-keyboard-response","115","146390","0.0-6.0-1.54","SORE","2","f","rechts","24","","","object","j","150","true"
"null","<div style=""font-size:60px;"">+</div>","null","html-keyboard-response","116","146792","0.0-6.0-0.55","SORE","2","f","rechts","24","","fixation","","","",""
"969","img/150_90.png","70","image-keyboard-response","117","147761","0.0-6.0-1.55","SORE","2","f","rechts","24","","","object","f","150","true"
"null","<div style=""font-size:60px;"">+</div>","null","html-keyboard-response","118","148163","0.0-6.0-0.56","SORE","2","f","rechts","24","","fixation","","","",""
"1307","img/120_180.png","70","image-keyboard-response","119","149470","0.0-6.0-1.56","SORE","2","f","rechts","24","","","object","f","120","true"
"null","<div style=""font-size:60px;"">+</div>","null","html-keyboard-response","120","149771","0.0-6.0-0.57","SORE","2","f","rechts","24","","fixation","","","",""
"779","img/60_330.png","74","image-keyboard-response","121","150552","0.0-6.0-1.57","SORE","2","f","rechts","24","","","object","j","60","true"
"null","<div style=""font-size:60px;"">+</div>","null","html-keyboard-response","122","150903","0.0-6.0-0.58","SORE","2","f","rechts","24","","fixation","","","",""
"779","img/0_330.png","70","image-keyboard-response","123","151684","0.0-6.0-1.58","SORE","2","f","rechts","24","","","object","f","0","true"
"null","<div style=""font-size:60px;"">+</div>","null","html-keyboard-response","124","152034","0.0-6.0-0.59","SORE","2","f","rechts","24","","fixation","","","",""
"857","img/120_210.png","74","image-keyboard-response","125","152892","0.0-6.0-1.59","SORE","2","f","rechts","24","","","object","f","120","false"
"null","<div style=""font-size:60px;"">+</div>","null","html-keyboard-response","126","153294","0.0-6.0-0.60","SORE","2","f","rechts","24","","fixation","","","",""
"816","img/60_180.png","70","image-keyboard-response","127","154111","0.0-6.0-1.60","SORE","2","f","rechts","24","","","object","f","60","true"
"null","<div style=""font-size:60px;"">+</div>","null","html-keyboard-response","128","154612","0.0-6.0-0.61","SORE","2","f","rechts","24","","fixation","","","",""
"825","img/150_270.png","74","image-keyboard-response","129","155438","0.0-6.0-1.61","SORE","2","f","rechts","24","","","object","j","150","true"
"null","<div style=""font-size:60px;"">+</div>","null","html-keyboard-response","130","155890","0.0-6.0-0.62","SORE","2","f","rechts","24","","fixation","","","",""
"773","img/120_270.png","74","image-keyboard-response","131","156665","0.0-6.0-1.62","SORE","2","f","rechts","24","","","object","j","120","true"
"null","<div style=""font-size:60px;"">+</div>","null","html-keyboard-response","132","157166","0.0-6.0-0.63","SORE","2","f","rechts","24","","fixation","","","",""
"801","img/60_270.png","70","image-keyboard-response","133","157969","0.0-6.0-1.63","SORE","2","f","rechts","24","","","object","f","60","true"
"null","<div style=""font-size:60px;"">+</div>","null","html-keyboard-response","134","158370","0.0-6.0-0.64","SORE","2","f","rechts","24","","fixation","","","",""
"788","img/150_120.png","70","image-keyboard-response","135","159160","0.0-6.0-1.64","SORE","2","f","rechts","24","","","object","f","150","true"
"null","<div style=""font-size:60px;"">+</div>","null","html-keyboard-response","136","159661","0.0-6.0-0.65","SORE","2","f","rechts","24","","fixation","","","",""
"738","img/0_120.png","74","image-keyboard-response","137","160401","0.0-6.0-1.65","SORE","2","f","rechts","24","","","object","j","0","true"
"null","<div style=""font-size:60px;"">+</div>","null","html-keyboard-response","138","160902","0.0-6.0-0.66","SORE","2","f","rechts","24","","fixation","","","",""
"843","img/0_270.png","70","image-keyboard-response","139","161747","0.0-6.0-1.66","SORE","2","f","rechts","24","","","object","f","0","true"
"null","<div style=""font-size:60px;"">+</div>","null","html-keyboard-response","140","162148","0.0-6.0-0.67","SORE","2","f","rechts","24","","fixation","","","",""
"849","img/60_150.png","74","image-keyboard-response","141","162998","0.0-6.0-1.67","SORE","2","f","rechts","24","","","object","j","60","true"
"null","<div style=""font-size:60px;"">+</div>","null","html-keyboard-response","142","163300","0.0-6.0-0.68","SORE","2","f","rechts","24","","fixation","","","",""
"752","img/90_210.png","70","image-keyboard-response","143","164053","0.0-6.0-1.68","SORE","2","f","rechts","24","","","object","f","90","true"
"null","<div style=""font-size:60px;"">+</div>","null","html-keyboard-response","144","164455","0.0-6.0-0.69","SORE","2","f","rechts","24","","fixation","","","",""
"967","img/90_150.png","74","image-keyboard-response","145","165424","0.0-6.0-1.69","SORE","2","f","rechts","24","","","object","j","90","true"
"null","<div style=""font-size:60px;"">+</div>","null","html-keyboard-response","146","165824","0.0-6.0-0.70","SORE","2","f","rechts","24","","fixation","","","",""
"814","img/150_180.png","70","image-keyboard-response","147","166639","0.0-6.0-1.70","SORE","2","f","rechts","24","","","object","f","150","true"
"null","<div style=""font-size:60px;"">+</div>","null","html-keyboard-response","148","167141","0.0-6.0-0.71","SORE","2","f","rechts","24","","fixation","","","",""
"889","img/L120_180.png","74","image-keyboard-response","149","168031","0.0-6.0-1.71","SORE","2","f","rechts","24","","","object","j","120","true"
"null","<div style=""font-size:60px;"">+</div>","null","html-keyboard-response","150","168433","0.0-6.0-0.72","SORE","2","f","rechts","24","","fixation","","","",""
"1092","img/90_120.png","70","image-keyboard-response","151","169525","0.0-6.0-1.72","SORE","2","f","rechts","24","","","object","j","90","false"
"null","<div style=""font-size:60px;"">+</div>","null","html-keyboard-response","152","169976","0.0-6.0-0.73","SORE","2","f","rechts","24","","fixation","","","",""
"893","img/120_150.png","74","image-keyboard-response","153","170869","0.0-6.0-1.73","SORE","2","f","rechts","24","","","object","j","120","true"
"null","<div style=""font-size:60px;"">+</div>","null","html-keyboard-response","154","171271","0.0-6.0-0.74","SORE","2","f","rechts","24","","fixation","","","",""
"885","img/30_270.png","70","image-keyboard-response","155","172157","0.0-6.0-1.74","SORE","2","f","rechts","24","","","object","f","30","true"
"null","<div style=""font-size:60px;"">+</div>","null","html-keyboard-response","156","172559","0.0-6.0-0.75","SORE","2","f","rechts","24","","fixation","","","",""
"924","img/30_180.png","70","image-keyboard-response","157","173484","0.0-6.0-1.75","SORE","2","f","rechts","24","","","object","f","30","true"
"null","<div style=""font-size:60px;"">+</div>","null","html-keyboard-response","158","173936","0.0-6.0-0.76","SORE","2","f","rechts","24","","fixation","","","",""
"899","img/60_90.png","70","image-keyboard-response","159","174835","0.0-6.0-1.76","SORE","2","f","rechts","24","","","object","j","60","false"
"null","<div style=""font-size:60px;"">+</div>","null","html-keyboard-response","160","175237","0.0-6.0-0.77","SORE","2","f","rechts","24","","fixation","","","",""
"724","img/150_60.png","70","image-keyboard-response","161","175962","0.0-6.0-1.77","SORE","2","f","rechts","24","","","object","f","150","true"
"null","<div style=""font-size:60px;"">+</div>","null","html-keyboard-response","162","176463","0.0-6.0-0.78","SORE","2","f","rechts","24","","fixation","","","",""
"724","img/0_60.png","74","image-keyboard-response","163","177188","0.0-6.0-1.78","SORE","2","f","rechts","24","","","object","j","0","true"
"null","<div style=""font-size:60px;"">+</div>","null","html-keyboard-response","164","177690","0.0-6.0-0.79","SORE","2","f","rechts","24","","fixation","","","",""
"678","img/120_330.png","74","image-keyboard-response","165","178369","0.0-6.0-1.79","SORE","2","f","rechts","24","","","object","j","120","true"
"null","<div style=""font-size:60px;"">+</div>","null","html-keyboard-response","166","178871","0.0-6.0-0.80","SORE","2","f","rechts","24","","fixation","","","",""
"739","img/30_120.png","70","image-keyboard-response","167","179610","0.0-6.0-1.80","SORE","2","f","rechts","24","","","object","j","30","false"
"null","<div style=""font-size:60px;"">+</div>","null","html-keyboard-response","168","179912","0.0-6.0-0.81","SORE","2","f","rechts","24","","fixation","","","",""
"853","img/120_30.png","70","image-keyboard-response","169","180765","0.0-6.0-1.81","SORE","2","f","rechts","24","","","object","f","120","true"
"null","<div style=""font-size:60px;"">+</div>","null","html-keyboard-response","170","181117","0.0-6.0-0.82","SORE","2","f","rechts","24","","fixation","","","",""
"797","img/0_210.png","70","image-keyboard-response","171","181914","0.0-6.0-1.82","SORE","2","f","rechts","24","","","object","f","0","true"
"null","<div style=""font-size:60px;"">+</div>","null","html-keyboard-response","172","182365","0.0-6.0-0.83","SORE","2","f","rechts","24","","fixation","","","",""
"608","img/90_330.png","74","image-keyboard-response","173","182974","0.0-6.0-1.83","SORE","2","f","rechts","24","","","object","j","90","true"
"null","<div style=""font-size:60px;"">+</div>","null","html-keyboard-response","174","183276","0.0-6.0-0.84","SORE","2","f","rechts","24","","fixation","","","",""
"810","img/L90_180.png","74","image-keyboard-response","175","184086","0.0-6.0-1.84","SORE","2","f","rechts","24","","","object","j","90","true"
"null","<div style=""font-size:60px;"">+</div>","null","html-keyboard-response","176","184438","0.0-6.0-0.85","SORE","2","f","rechts","24","","fixation","","","",""
"654","img/60_30.png","70","image-keyboard-response","177","185092","0.0-6.0-1.85","SORE","2","f","rechts","24","","","object","f","60","true"
"null","<div style=""font-size:60px;"">+</div>","null","html-keyboard-response","178","185444","0.0-6.0-0.86","SORE","2","f","rechts","24","","fixation","","","",""
"733","img/L60_180.png","74","image-keyboard-response","179","186177","0.0-6.0-1.86","SORE","2","f","rechts","24","","","object","j","60","true"
"null","<div style=""font-size:60px;"">+</div>","null","html-keyboard-response","180","186529","0.0-6.0-0.87","SORE","2","f","rechts","24","","fixation","","","",""
"654","img/90_60.png","70","image-keyboard-response","181","187183","0.0-6.0-1.87","SORE","2","f","rechts","24","","","object","f","90","true"
"null","<div style=""font-size:60px;"">+</div>","null","html-keyboard-response","182","187584","0.0-6.0-0.88","SORE","2","f","rechts","24","","fixation","","","",""
"740","img/0_30.png","74","image-keyboard-response","183","188325","0.0-6.0-1.88","SORE","2","f","rechts","24","","","object","j","0","true"
"null","<div style=""font-size:60px;"">+</div>","null","html-keyboard-response","184","188777","0.0-6.0-0.89","SORE","2","f","rechts","24","","fixation","","","",""
"771","img/90_240.png","70","image-keyboard-response","185","189548","0.0-6.0-1.89","SORE","2","f","rechts","24","","","object","f","90","true"
"null","<div style=""font-size:60px;"">+</div>","null","html-keyboard-response","186","190050","0.0-6.0-0.90","SORE","2","f","rechts","24","","fixation","","","",""
"633","img/30_300.png","74","image-keyboard-response","187","190683","0.0-6.0-1.90","SORE","2","f","rechts","24","","","object","f","30","false"
"null","<div style=""font-size:60px;"">+</div>","null","html-keyboard-response","188","190985","0.0-6.0-0.91","SORE","2","f","rechts","24","","fixation","","","",""
"1151","img/30_90.png","74","image-keyboard-response","189","192137","0.0-6.0-1.91","SORE","2","f","rechts","24","","","object","j","30","true"
"null","<div style=""font-size:60px;"">+</div>","null","html-keyboard-response","190","192589","0.0-6.0-0.92","SORE","2","f","rechts","24","","fixation","","","",""
"735","img/60_210.png","70","image-keyboard-response","191","193324","0.0-6.0-1.92","SORE","2","f","rechts","24","","","object","f","60","true"
"null","<div style=""font-size:60px;"">+</div>","null","html-keyboard-response","192","193625","0.0-6.0-0.93","SORE","2","f","rechts","24","","fixation","","","",""
"801","img/0_240.png","70","image-keyboard-response","193","194427","0.0-6.0-1.93","SORE","2","f","rechts","24","","","object","f","0","true"
"null","<div style=""font-size:60px;"">+</div>","null","html-keyboard-response","194","194879","0.0-6.0-0.94","SORE","2","f","rechts","24","","fixation","","","",""
"1110","img/30_60.png","74","image-keyboard-response","195","195989","0.0-6.0-1.94","SORE","2","f","rechts","24","","","object","j","30","true"
"null","<div style=""font-size:60px;"">+</div>","null","html-keyboard-response","196","196490","0.0-6.0-0.95","SORE","2","f","rechts","24","","fixation","","","",""
"766","img/0_90.png","74","image-keyboard-response","197","197257","0.0-6.0-1.95","SORE","2","f","rechts","24","","","object","j","0","true"
"null","<div style=""font-size:60px;"">+</div>","null","html-keyboard-response","198","197759","0.0-6.0-0.96","SORE","2","f","rechts","24","","fixation","","","",""
"812","img/90_180.png","70","image-keyboard-response","199","198571","0.0-6.0-1.96","SORE","2","f","rechts","24","","","object","f","90","true"
"null","<div style=""font-size:60px;"">+</div>","null","html-keyboard-response","200","198972","0.0-6.0-0.97","SORE","2","f","rechts","24","","fixation","","","",""
"808","img/0_150.png","74","image-keyboard-response","201","199781","0.0-6.0-1.97","SORE","2","f","rechts","24","","","object","j","0","true"
"null","<div style=""font-size:60px;"">+</div>","null","html-keyboard-response","202","200183","0.0-6.0-0.98","SORE","2","f","rechts","24","","fixation","","","",""
"806","img/90_300.png","74","image-keyboard-response","203","200989","0.0-6.0-1.98","SORE","2","f","rechts","24","","","object","j","90","true"
"null","<div style=""font-size:60px;"">+</div>","null","html-keyboard-response","204","201341","0.0-6.0-0.99","SORE","2","f","rechts","24","","fixation","","","",""
"926","img/L30_180.png","74","image-keyboard-response","205","202267","0.0-6.0-1.99","SORE","2","f","rechts","24","","","object","j","30","true"
"null","<div style=""font-size:60px;"">+</div>","null","html-keyboard-response","206","202668","0.0-6.0-0.100","SORE","2","f","rechts","24","","fixation","","","",""
"839","img/150_300.png","74","image-keyboard-response","207","203508","0.0-6.0-1.100","SORE","2","f","rechts","24","","","object","j","150","true"
"null","<div style=""font-size:60px;"">+</div>","null","html-keyboard-response","208","204009","0.0-6.0-0.101","SORE","2","f","rechts","24","","fixation","","","",""
"696","img/30_240.png","70","image-keyboard-response","209","204707","0.0-6.0-1.101","SORE","2","f","rechts","24","","","object","f","30","true"
"null","<div style=""font-size:60px;"">+</div>","null","html-keyboard-response","210","205108","0.0-6.0-0.102","SORE","2","f","rechts","24","","fixation","","","",""
"909","img/120_90.png","70","image-keyboard-response","211","206019","0.0-6.0-1.102","SORE","2","f","rechts","24","","","object","f","120","true"
"null","<div style=""font-size:60px;"">+</div>","null","html-keyboard-response","212","206420","0.0-6.0-0.103","SORE","2","f","rechts","24","","fixation","","","",""
"799","img/0_300.png","70","image-keyboard-response","213","207221","0.0-6.0-1.103","SORE","2","f","rechts","24","","","object","f","0","true"
"null","<div style=""font-size:60px;"">+</div>","null","html-keyboard-response","214","207522","0.0-6.0-0.104","SORE","2","f","rechts","24","","fixation","","","",""
"731","img/150_300.png","74","image-keyboard-response","215","208254","0.0-6.0-1.104","SORE","2","f","rechts","24","","","object","j","150","true"
"null","<div style=""font-size:60px;"">+</div>","null","html-keyboard-response","216","208556","0.0-6.0-0.105","SORE","2","f","rechts","24","","fixation","","","",""
"1582","img/90_240.png","70","image-keyboard-response","217","210139","0.0-6.0-1.105","SORE","2","f","rechts","24","","","object","f","90","true"
"null","<div style=""font-size:60px;"">+</div>","null","html-keyboard-response","218","210491","0.0-6.0-0.106","SORE","2","f","rechts","24","","fixation","","","",""
"660","img/90_30.png","70","image-keyboard-response","219","211152","0.0-6.0-1.106","SORE","2","f","rechts","24","","","object","f","90","true"
"null","<div style=""font-size:60px;"">+</div>","null","html-keyboard-response","220","211654","0.0-6.0-0.107","SORE","2","f","rechts","24","","fixation","","","",""
"717","img/60_30.png","70","image-keyboard-response","221","212373","0.0-6.0-1.107","SORE","2","f","rechts","24","","","object","f","60","true"
"null","<div style=""font-size:60px;"">+</div>","null","html-keyboard-response","222","212825","0.0-6.0-0.108","SORE","2","f","rechts","24","","fixation","","","",""
"620","img/120_30.png","70","image-keyboard-response","223","213446","0.0-6.0-1.108","SORE","2","f","rechts","24","","","object","f","120","true"
"null","<div style=""font-size:60px;"">+</div>","null","html-keyboard-response","224","213796","0.0-6.0-0.109","SORE","2","f","rechts","24","","fixation","","","",""
"763","img/30_120.png","74","image-keyboard-response","225","214560","0.0-6.0-1.109","SORE","2","f","rechts","24","","","object","j","30","true"
"null","<div style=""font-size:60px;"">+</div>","null","html-keyboard-response","226","214912","0.0-6.0-0.110","SORE","2","f","rechts","24","","fixation","","","",""
"810","img/L150_180.png","74","image-keyboard-response","227","215724","0.0-6.0-1.110","SORE","2","f","rechts","24","","","object","j","150","true"
"null","<div style=""font-size:60px;"">+</div>","null","html-keyboard-response","228","216225","0.0-6.0-0.111","SORE","2","f","rechts","24","","fixation","","","",""
"1063","img/30_270.png","70","image-keyboard-response","229","217289","0.0-6.0-1.111","SORE","2","f","rechts","24","","","object","f","30","true"
"null","<div style=""font-size:60px;"">+</div>","null","html-keyboard-response","230","217591","0.0-6.0-0.112","SORE","2","f","rechts","24","","fixation","","","",""
"2178","img/0_150.png","74","image-keyboard-response","231","219770","0.0-6.0-1.112","SORE","2","f","rechts","24","","","object","j","0","true"
"null","<div style=""font-size:60px;"">+</div>","null","html-keyboard-response","232","220072","0.0-6.0-0.113","SORE","2","f","rechts","24","","fixation","","","",""
"605","img/30_60.png","70","image-keyboard-response","233","220678","0.0-6.0-1.113","SORE","2","f","rechts","24","","","object","j","30","false"
"null","<div style=""font-size:60px;"">+</div>","null","html-keyboard-response","234","221180","0.0-6.0-0.114","SORE","2","f","rechts","24","","fixation","","","",""
"839","img/90_210.png","70","image-keyboard-response","235","222019","0.0-6.0-1.114","SORE","2","f","rechts","24","","","object","f","90","true"
"null","<div style=""font-size:60px;"">+</div>","null","html-keyboard-response","236","222520","0.0-6.0-0.115","SORE","2","f","rechts","24","","fixation","","","",""
"729","img/120_330.png","74","image-keyboard-response","237","223249","0.0-6.0-1.115","SORE","2","f","rechts","24","","","object","j","120","true"
"null","<div style=""font-size:60px;"">+</div>","null","html-keyboard-response","238","223751","0.0-6.0-0.116","SORE","2","f","rechts","24","","fixation","","","",""
"790","img/120_270.png","74","image-keyboard-response","239","224542","0.0-6.0-1.116","SORE","2","f","rechts","24","","","object","j","120","true"
"null","<div style=""font-size:60px;"">+</div>","null","html-keyboard-response","240","224844","0.0-6.0-0.117","SORE","2","f","rechts","24","","fixation","","","",""
"875","img/90_180.png","70","image-keyboard-response","241","225720","0.0-6.0-1.117","SORE","2","f","rechts","24","","","object","f","90","true"
"null","<div style=""font-size:60px;"">+</div>","null","html-keyboard-response","242","226122","0.0-6.0-0.118","SORE","2","f","rechts","24","","fixation","","","",""
"796","img/0_300.png","70","image-keyboard-response","243","226919","0.0-6.0-1.118","SORE","2","f","rechts","24","","","object","f","0","true"
"null","<div style=""font-size:60px;"">+</div>","null","html-keyboard-response","244","227370","0.0-6.0-0.119","SORE","2","f","rechts","24","","fixation","","","",""
"776","img/L60_180.png","74","image-keyboard-response","245","228146","0.0-6.0-1.119","SORE","2","f","rechts","24","","","object","j","60","true"
"null","<div style=""font-size:60px;"">+</div>","null","html-keyboard-response","246","228598","0.0-6.0-0.120","SORE","2","f","rechts","24","","fixation","","","",""
"1209","img/0_330.png","70","image-keyboard-response","247","229807","0.0-6.0-1.120","SORE","2","f","rechts","24","","","object","f","0","true"
"null","<div style=""font-size:60px;"">+</div>","null","html-keyboard-response","248","230309","0.0-6.0-0.121","SORE","2","f","rechts","24","","fixation","","","",""
"996","img/L90_180.png","74","image-keyboard-response","249","231305","0.0-6.0-1.121","SORE","2","f","rechts","24","","","object","j","90","true"
"null","<div style=""font-size:60px;"">+</div>","null","html-keyboard-response","250","231807","0.0-6.0-0.122","SORE","2","f","rechts","24","","fixation","","","",""
"762","img/60_180.png","70","image-keyboard-response","251","232570","0.0-6.0-1.122","SORE","2","f","rechts","24","","","object","f","60","true"
"null","<div style=""font-size:60px;"">+</div>","null","html-keyboard-response","252","232872","0.0-6.0-0.123","SORE","2","f","rechts","24","","fixation","","","",""
"755","img/60_330.png","74","image-keyboard-response","253","233628","0.0-6.0-1.123","SORE","2","f","rechts","24","","","object","j","60","true"
"null","<div style=""font-size:60px;"">+</div>","null","html-keyboard-response","254","233980","0.0-6.0-0.124","SORE","2","f","rechts","24","","fixation","","","",""
"758","img/0_240.png","70","image-keyboard-response","255","234738","0.0-6.0-1.124","SORE","2","f","rechts","24","","","object","f","0","true"
"null","<div style=""font-size:60px;"">+</div>","null","html-keyboard-response","256","235040","0.0-6.0-0.125","SORE","2","f","rechts","24","","fixation","","","",""
"1172","img/30_300.png","70","image-keyboard-response","257","236213","0.0-6.0-1.125","SORE","2","f","rechts","24","","","object","f","30","true"
"null","<div style=""font-size:60px;"">+</div>","null","html-keyboard-response","258","236514","0.0-6.0-0.126","SORE","2","f","rechts","24","","fixation","","","",""
"826","img/0_60.png","74","image-keyboard-response","259","237341","0.0-6.0-1.126","SORE","2","f","rechts","24","","","object","j","0","true"
"null","<div style=""font-size:60px;"">+</div>","null","html-keyboard-response","260","237792","0.0-6.0-0.127","SORE","2","f","rechts","24","","fixation","","","",""
"617","img/0_90.png","74","image-keyboard-response","261","238411","0.0-6.0-1.127","SORE","2","f","rechts","24","","","object","j","0","true"
"null","<div style=""font-size:60px;"">+</div>","null","html-keyboard-response","262","238862","0.0-6.0-0.128","SORE","2","f","rechts","24","","fixation","","","",""
"870","img/120_180.png","70","image-keyboard-response","263","239733","0.0-6.0-1.128","SORE","2","f","rechts","24","","","object","f","120","true"
"null","<div style=""font-size:60px;"">+</div>","null","html-keyboard-response","264","240084","0.0-6.0-0.129","SORE","2","f","rechts","24","","fixation","","","",""
"913","img/150_180.png","70","image-keyboard-response","265","240998","0.0-6.0-1.129","SORE","2","f","rechts","24","","","object","f","150","true"
"null","<div style=""font-size:60px;"">+</div>","null","html-keyboard-response","266","241449","0.0-6.0-0.130","SORE","2","f","rechts","24","","fixation","","","",""
"1947","img/60_150.png","74","image-keyboard-response","267","243397","0.0-6.0-1.130","SORE","2","f","rechts","24","","","object","j","60","true"
"null","<div style=""font-size:60px;"">+</div>","null","html-keyboard-response","268","243899","0.0-6.0-0.131","SORE","2","f","rechts","24","","fixation","","","",""
"1181","img/60_270.png","70","image-keyboard-response","269","245081","0.0-6.0-1.131","SORE","2","f","rechts","24","","","object","f","60","true"
"null","<div style=""font-size:60px;"">+</div>","null","html-keyboard-response","270","245482","0.0-6.0-0.132","SORE","2","f","rechts","24","","fixation","","","",""
"756","img/0_270.png","70","image-keyboard-response","271","246239","0.0-6.0-1.132","SORE","2","f","rechts","24","","","object","f","0","true"
"null","<div style=""font-size:60px;"">+</div>","null","html-keyboard-response","272","246641","0.0-6.0-0.133","SORE","2","f","rechts","24","","fixation","","","",""
"1202","img/150_120.png","70","image-keyboard-response","273","247843","0.0-6.0-1.133","SORE","2","f","rechts","24","","","object","f","150","true"
"null","<div style=""font-size:60px;"">+</div>","null","html-keyboard-response","274","248244","0.0-6.0-0.134","SORE","2","f","rechts","24","","fixation","","","",""
"1078","img/150_90.png","70","image-keyboard-response","275","249323","0.0-6.0-1.134","SORE","2","f","rechts","24","","","object","f","150","true"
"null","<div style=""font-size:60px;"">+</div>","null","html-keyboard-response","276","249824","0.0-6.0-0.135","SORE","2","f","rechts","24","","fixation","","","",""
"736","img/0_120.png","74","image-keyboard-response","277","250561","0.0-6.0-1.135","SORE","2","f","rechts","24","","","object","j","0","true"
"null","<div style=""font-size:60px;"">+</div>","null","html-keyboard-response","278","251062","0.0-6.0-0.136","SORE","2","f","rechts","24","","fixation","","","",""
"702","img/90_300.png","74","image-keyboard-response","279","251765","0.0-6.0-1.136","SORE","2","f","rechts","24","","","object","j","90","true"
"null","<div style=""font-size:60px;"">+</div>","null","html-keyboard-response","280","252116","0.0-6.0-0.137","SORE","2","f","rechts","24","","fixation","","","",""
"787","img/150_60.png","70","image-keyboard-response","281","252905","0.0-6.0-1.137","SORE","2","f","rechts","24","","","object","f","150","true"
"null","<div style=""font-size:60px;"">+</div>","null","html-keyboard-response","282","253206","0.0-6.0-0.138","SORE","2","f","rechts","24","","fixation","","","",""
"944","img/L30_180.png","74","image-keyboard-response","283","254151","0.0-6.0-1.138","SORE","2","f","rechts","24","","","object","j","30","true"
"null","<div style=""font-size:60px;"">+</div>","null","html-keyboard-response","284","254652","0.0-6.0-0.139","SORE","2","f","rechts","24","","fixation","","","",""
"1355","img/150_240.png","74","image-keyboard-response","285","256009","0.0-6.0-1.139","SORE","2","f","rechts","24","","","object","j","150","true"
"null","<div style=""font-size:60px;"">+</div>","null","html-keyboard-response","286","256360","0.0-6.0-0.140","SORE","2","f","rechts","24","","fixation","","","",""
"1295","img/L120_180.png","74","image-keyboard-response","287","257656","0.0-6.0-1.140","SORE","2","f","rechts","24","","","object","j","120","true"
"null","<div style=""font-size:60px;"">+</div>","null","html-keyboard-response","288","258158","0.0-6.0-0.141","SORE","2","f","rechts","24","","fixation","","","",""
"1073","img/60_210.png","70","image-keyboard-response","289","259232","0.0-6.0-1.141","SORE","2","f","rechts","24","","","object","f","60","true"
"null","<div style=""font-size:60px;"">+</div>","null","html-keyboard-response","290","259734","0.0-6.0-0.142","SORE","2","f","rechts","24","","fixation","","","",""
"1611","img/90_120.png","74","image-keyboard-response","291","261346","0.0-6.0-1.142","SORE","2","f","rechts","24","","","object","j","90","true"
"null","<div style=""font-size:60px;"">+</div>","null","html-keyboard-response","292","261647","0.0-6.0-0.143","SORE","2","f","rechts","24","","fixation","","","",""
"1437","img/90_150.png","70","image-keyboard-response","293","263086","0.0-6.0-1.143","SORE","2","f","rechts","24","","","object","j","90","false"
"null","<div style=""font-size:60px;"">+</div>","null","html-keyboard-response","294","263536","0.0-6.0-0.144","SORE","2","f","rechts","24","","fixation","","","",""
"1005","img/120_150.png","74","image-keyboard-response","295","264542","0.0-6.0-1.144","SORE","2","f","rechts","24","","","object","j","120","true"
"null","<div style=""font-size:60px;"">+</div>","null","html-keyboard-response","296","264843","0.0-6.0-0.145","SORE","2","f","rechts","24","","fixation","","","",""
"995","img/30_240.png","74","image-keyboard-response","297","265839","0.0-6.0-1.145","SORE","2","f","rechts","24","","","object","f","30","false"
"null","<div style=""font-size:60px;"">+</div>","null","html-keyboard-response","298","266241","0.0-6.0-0.146","SORE","2","f","rechts","24","","fixation","","","",""
"1457","img/120_210.png","74","image-keyboard-response","299","267699","0.0-6.0-1.146","SORE","2","f","rechts","24","","","object","f","120","false"
"null","<div style=""font-size:60px;"">+</div>","null","html-keyboard-response","300","268201","0.0-6.0-0.147","SORE","2","f","rechts","24","","fixation","","","",""
"976","img/90_60.png","70","image-keyboard-response","301","269178","0.0-6.0-1.147","SORE","2","f","rechts","24","","","object","f","90","true"
"null","<div style=""font-size:60px;"">+</div>","null","html-keyboard-response","302","269480","0.0-6.0-0.148","SORE","2","f","rechts","24","","fixation","","","",""
"1073","img/30_180.png","70","image-keyboard-response","303","270555","0.0-6.0-1.148","SORE","2","f","rechts","24","","","object","f","30","true"
"null","<div style=""font-size:60px;"">+</div>","null","html-keyboard-response","304","271056","0.0-6.0-0.149","SORE","2","f","rechts","24","","fixation","","","",""
"794","img/0_210.png","70","image-keyboard-response","305","271851","0.0-6.0-1.149","SORE","2","f","rechts","24","","","object","f","0","true"
"null","<div style=""font-size:60px;"">+</div>","null","html-keyboard-response","306","272303","0.0-6.0-0.150","SORE","2","f","rechts","24","","fixation","","","",""
"704","img/90_330.png","74","image-keyboard-response","307","273008","0.0-6.0-1.150","SORE","2","f","rechts","24","","","object","j","90","true"
"null","<div style=""font-size:60px;"">+</div>","null","html-keyboard-response","308","273310","0.0-6.0-0.151","SORE","2","f","rechts","24","","fixation","","","",""
"897","img/120_90.png","70","image-keyboard-response","309","274208","0.0-6.0-1.151","SORE","2","f","rechts","24","","","object","f","120","true"
"null","<div style=""font-size:60px;"">+</div>","null","html-keyboard-response","310","274559","0.0-6.0-0.152","SORE","2","f","rechts","24","","fixation","","","",""
"967","img/150_270.png","74","image-keyboard-response","311","275527","0.0-6.0-1.152","SORE","2","f","rechts","24","","","object","j","150","true"
"null","<div style=""font-size:60px;"">+</div>","null","html-keyboard-response","312","276029","0.0-6.0-0.153","SORE","2","f","rechts","24","","fixation","","","",""
"1336","img/60_90.png","74","image-keyboard-response","313","277366","0.0-6.0-1.153","SORE","2","f","rechts","24","","","object","j","60","true"
"null","<div style=""font-size:60px;"">+</div>","null","html-keyboard-response","314","277668","0.0-6.0-0.154","SORE","2","f","rechts","24","","fixation","","","",""
"1040","img/0_30.png","74","image-keyboard-response","315","278709","0.0-6.0-1.154","SORE","2","f","rechts","24","","","object","j","0","true"
"null","<div style=""font-size:60px;"">+</div>","null","html-keyboard-response","316","279110","0.0-6.0-0.155","SORE","2","f","rechts","24","","fixation","","","",""
"938","img/30_90.png","74","image-keyboard-response","317","280049","0.0-6.0-1.155","SORE","2","f","rechts","24","","","object","j","30","true"
"null","<div style=""font-size:60px;"">+</div>","null","html-keyboard-response","318","280551","0.0-6.0-0.156","SORE","2","f","rechts","24","","fixation","","","",""
"939","img/150_270.png","74","image-keyboard-response","319","281491","0.0-6.0-1.156","SORE","2","f","rechts","24","","","object","j","150","true"
"null","<div style=""font-size:60px;"">+</div>","null","html-keyboard-response","320","281993","0.0-6.0-0.157","SORE","2","f","rechts","24","","fixation","","","",""
"1420","img/120_180.png","70","image-keyboard-response","321","283414","0.0-6.0-1.157","SORE","2","f","rechts","24","","","object","f","120","true"
"null","<div style=""font-size:60px;"">+</div>","null","html-keyboard-response","322","283816","0.0-6.0-0.158","SORE","2","f","rechts","24","","fixation","","","",""
"1269","img/30_300.png","70","image-keyboard-response","323","285085","0.0-6.0-1.158","SORE","2","f","rechts","24","","","object","f","30","true"
"null","<div style=""font-size:60px;"">+</div>","null","html-keyboard-response","324","285536","0.0-6.0-0.159","SORE","2","f","rechts","24","","fixation","","","",""
"1305","img/120_210.png","74","image-keyboard-response","325","286842","0.0-6.0-1.159","SORE","2","f","rechts","24","","","object","f","120","false"
"null","<div style=""font-size:60px;"">+</div>","null","html-keyboard-response","326","287244","0.0-6.0-0.160","SORE","2","f","rechts","24","","fixation","","","",""
"856","img/0_330.png","70","image-keyboard-response","327","288100","0.0-6.0-1.160","SORE","2","f","rechts","24","","","object","f","0","true"
"null","<div style=""font-size:60px;"">+</div>","null","html-keyboard-response","328","288552","0.0-6.0-0.161","SORE","2","f","rechts","24","","fixation","","","",""
"1380","img/L120_180.png","74","image-keyboard-response","329","289932","0.0-6.0-1.161","SORE","2","f","rechts","24","","","object","j","120","true"
"null","<div style=""font-size:60px;"">+</div>","null","html-keyboard-response","330","290283","0.0-6.0-0.162","SORE","2","f","rechts","24","","fixation","","","",""
"1110","img/60_270.png","70","image-keyboard-response","331","291393","0.0-6.0-1.162","SORE","2","f","rechts","24","","","object","f","60","true"
"null","<div style=""font-size:60px;"">+</div>","null","html-keyboard-response","332","291794","0.0-6.0-0.163","SORE","2","f","rechts","24","","fixation","","","",""
"797","img/0_270.png","70","image-keyboard-response","333","292592","0.0-6.0-1.163","SORE","2","f","rechts","24","","","object","f","0","true"
"null","<div style=""font-size:60px;"">+</div>","null","html-keyboard-response","334","293044","0.0-6.0-0.164","SORE","2","f","rechts","24","","fixation","","","",""
"1367","img/90_120.png","74","image-keyboard-response","335","294411","0.0-6.0-1.164","SORE","2","f","rechts","24","","","object","j","90","true"
"null","<div style=""font-size:60px;"">+</div>","null","html-keyboard-response","336","294812","0.0-6.0-0.165","SORE","2","f","rechts","24","","fixation","","","",""
"953","img/150_300.png","74","image-keyboard-response","337","295766","0.0-6.0-1.165","SORE","2","f","rechts","24","","","object","j","150","true"
"null","<div style=""font-size:60px;"">+</div>","null","html-keyboard-response","338","296268","0.0-6.0-0.166","SORE","2","f","rechts","24","","fixation","","","",""
"788","img/120_30.png","70","image-keyboard-response","339","297056","0.0-6.0-1.166","SORE","2","f","rechts","24","","","object","f","120","true"
"null","<div style=""font-size:60px;"">+</div>","null","html-keyboard-response","340","297508","0.0-6.0-0.167","SORE","2","f","rechts","24","","fixation","","","",""
"845","img/0_120.png","74","image-keyboard-response","341","298355","0.0-6.0-1.167","SORE","2","f","rechts","24","","","object","j","0","true"
"null","<div style=""font-size:60px;"">+</div>","null","html-keyboard-response","342","298706","0.0-6.0-0.168","SORE","2","f","rechts","24","","fixation","","","",""
"765","img/30_270.png","70","image-keyboard-response","343","299473","0.0-6.0-1.168","SORE","2","f","rechts","24","","","object","f","30","true"
"null","<div style=""font-size:60px;"">+</div>","null","html-keyboard-response","344","299874","0.0-6.0-0.169","SORE","2","f","rechts","24","","fixation","","","",""
"746","img/150_60.png","70","image-keyboard-response","345","300620","0.0-6.0-1.169","SORE","2","f","rechts","24","","","object","f","150","true"
"null","<div style=""font-size:60px;"">+</div>","null","html-keyboard-response","346","301071","0.0-6.0-0.170","SORE","2","f","rechts","24","","fixation","","","",""
"1249","img/30_60.png","74","image-keyboard-response","347","302320","0.0-6.0-1.170","SORE","2","f","rechts","24","","","object","j","30","true"
"null","<div style=""font-size:60px;"">+</div>","null","html-keyboard-response","348","302822","0.0-6.0-0.171","SORE","2","f","rechts","24","","fixation","","","",""
"1645","img/0_300.png","70","image-keyboard-response","349","304468","0.0-6.0-1.171","SORE","2","f","rechts","24","","","object","f","0","true"
"null","<div style=""font-size:60px;"">+</div>","null","html-keyboard-response","350","304869","0.0-6.0-0.172","SORE","2","f","rechts","24","","fixation","","","",""
"682","img/120_330.png","74","image-keyboard-response","351","305553","0.0-6.0-1.172","SORE","2","f","rechts","24","","","object","j","120","true"
"null","<div style=""font-size:60px;"">+</div>","null","html-keyboard-response","352","305954","0.0-6.0-0.173","SORE","2","f","rechts","24","","fixation","","","",""
"1645","img/L150_180.png","74","image-keyboard-response","353","307601","0.0-6.0-1.173","SORE","2","f","rechts","24","","","object","j","150","true"
"null","<div style=""font-size:60px;"">+</div>","null","html-keyboard-response","354","308002","0.0-6.0-0.174","SORE","2","f","rechts","24","","fixation","","","",""
"1213","img/120_270.png","74","image-keyboard-response","355","309216","0.0-6.0-1.174","SORE","2","f","rechts","24","","","object","j","120","true"
"null","<div style=""font-size:60px;"">+</div>","null","html-keyboard-response","356","309518","0.0-6.0-0.175","SORE","2","f","rechts","24","","fixation","","","",""
"1095","img/L90_180.png","74","image-keyboard-response","357","310615","0.0-6.0-1.175","SORE","2","f","rechts","24","","","object","j","90","true"
"null","<div style=""font-size:60px;"">+</div>","null","html-keyboard-response","358","310916","0.0-6.0-0.176","SORE","2","f","rechts","24","","fixation","","","",""
"720","img/60_30.png","70","image-keyboard-response","359","311637","0.0-6.0-1.176","SORE","2","f","rechts","24","","","object","f","60","true"
"null","<div style=""font-size:60px;"">+</div>","null","html-keyboard-response","360","312089","0.0-6.0-0.177","SORE","2","f","rechts","24","","fixation","","","",""
"805","img/60_90.png","70","image-keyboard-response","361","312895","0.0-6.0-1.177","SORE","2","f","rechts","24","","","object","j","60","false"
"null","<div style=""font-size:60px;"">+</div>","null","html-keyboard-response","362","313346","0.0-6.0-0.178","SORE","2","f","rechts","24","","fixation","","","",""
"1068","img/0_30.png","74","image-keyboard-response","363","314414","0.0-6.0-1.178","SORE","2","f","rechts","24","","","object","j","0","true"
"null","<div style=""font-size:60px;"">+</div>","null","html-keyboard-response","364","314916","0.0-6.0-0.179","SORE","2","f","rechts","24","","fixation","","","",""
"810","img/90_210.png","70","image-keyboard-response","365","315727","0.0-6.0-1.179","SORE","2","f","rechts","24","","","object","f","90","true"
"null","<div style=""font-size:60px;"">+</div>","null","html-keyboard-response","366","316028","0.0-6.0-0.180","SORE","2","f","rechts","24","","fixation","","","",""
"1070","img/0_210.png","70","image-keyboard-response","367","317099","0.0-6.0-1.180","SORE","2","f","rechts","24","","","object","f","0","true"
"null","<div style=""font-size:60px;"">+</div>","null","html-keyboard-response","368","317401","0.0-6.0-0.181","SORE","2","f","rechts","24","","fixation","","","",""
"1519","img/L60_180.png","74","image-keyboard-response","369","318920","0.0-6.0-1.181","SORE","2","f","rechts","24","","","object","j","60","true"
"null","<div style=""font-size:60px;"">+</div>","null","html-keyboard-response","370","319422","0.0-6.0-0.182","SORE","2","f","rechts","24","","fixation","","","",""
"836","img/60_210.png","70","image-keyboard-response","371","320259","0.0-6.0-1.182","SORE","2","f","rechts","24","","","object","f","60","true"
"null","<div style=""font-size:60px;"">+</div>","null","html-keyboard-response","372","320711","0.0-6.0-0.183","SORE","2","f","rechts","24","","fixation","","","",""
"831","img/120_90.png","70","image-keyboard-response","373","321543","0.0-6.0-1.183","SORE","2","f","rechts","24","","","object","f","120","true"
"null","<div style=""font-size:60px;"">+</div>","null","html-keyboard-response","374","322045","0.0-6.0-0.184","SORE","2","f","rechts","24","","fixation","","","",""
"1076","img/150_90.png","70","image-keyboard-response","375","323123","0.0-6.0-1.184","SORE","2","f","rechts","24","","","object","f","150","true"
"null","<div style=""font-size:60px;"">+</div>","null","html-keyboard-response","376","323474","0.0-6.0-0.185","SORE","2","f","rechts","24","","fixation","","","",""
"1458","img/150_180.png","70","image-keyboard-response","377","324933","0.0-6.0-1.185","SORE","2","f","rechts","24","","","object","f","150","true"
"null","<div style=""font-size:60px;"">+</div>","null","html-keyboard-response","378","325285","0.0-6.0-0.186","SORE","2","f","rechts","24","","fixation","","","",""
"1166","img/60_150.png","74","image-keyboard-response","379","326452","0.0-6.0-1.186","SORE","2","f","rechts","24","","","object","j","60","true"
"null","<div style=""font-size:60px;"">+</div>","null","html-keyboard-response","380","326803","0.0-6.0-0.187","SORE","2","f","rechts","24","","fixation","","","",""
"861","img/90_330.png","74","image-keyboard-response","381","327665","0.0-6.0-1.187","SORE","2","f","rechts","24","","","object","j","90","true"
"null","<div style=""font-size:60px;"">+</div>","null","html-keyboard-response","382","328017","0.0-6.0-0.188","SORE","2","f","rechts","24","","fixation","","","",""
"844","img/30_180.png","70","image-keyboard-response","383","328861","0.0-6.0-1.188","SORE","2","f","rechts","24","","","object","f","30","true"
"null","<div style=""font-size:60px;"">+</div>","null","html-keyboard-response","384","329213","0.0-6.0-0.189","SORE","2","f","rechts","24","","fixation","","","",""
"903","img/0_240.png","70","image-keyboard-response","385","330117","0.0-6.0-1.189","SORE","2","f","rechts","24","","","object","f","0","true"
"null","<div style=""font-size:60px;"">+</div>","null","html-keyboard-response","386","330468","0.0-6.0-0.190","SORE","2","f","rechts","24","","fixation","","","",""
"1072","img/0_60.png","70","image-keyboard-response","387","331541","0.0-6.0-1.190","SORE","2","f","rechts","24","","","object","j","0","false"
"null","<div style=""font-size:60px;"">+</div>","null","html-keyboard-response","388","331943","0.0-6.0-0.191","SORE","2","f","rechts","24","","fixation","","","",""
"1087","img/150_120.png","74","image-keyboard-response","389","333031","0.0-6.0-1.191","SORE","2","f","rechts","24","","","object","f","150","false"
"null","<div style=""font-size:60px;"">+</div>","null","html-keyboard-response","390","333433","0.0-6.0-0.192","SORE","2","f","rechts","24","","fixation","","","",""
"877","img/0_90.png","74","image-keyboard-response","391","334310","0.0-6.0-1.192","SORE","2","f","rechts","24","","","object","j","0","true"
"null","<div style=""font-size:60px;"">+</div>","null","html-keyboard-response","392","334611","0.0-6.0-0.193","SORE","2","f","rechts","24","","fixation","","","",""
"1691","img/90_300.png","74","image-keyboard-response","393","336303","0.0-6.0-1.193","SORE","2","f","rechts","24","","","object","j","90","true"
"null","<div style=""font-size:60px;"">+</div>","null","html-keyboard-response","394","336704","0.0-6.0-0.194","SORE","2","f","rechts","24","","fixation","","","",""
"1368","img/120_150.png","70","image-keyboard-response","395","338074","0.0-6.0-1.194","SORE","2","f","rechts","24","","","object","j","120","false"
"null","<div style=""font-size:60px;"">+</div>","null","html-keyboard-response","396","338475","0.0-6.0-0.195","SORE","2","f","rechts","24","","fixation","","","",""
"878","img/90_180.png","70","image-keyboard-response","397","339354","0.0-6.0-1.195","SORE","2","f","rechts","24","","","object","f","90","true"
"null","<div style=""font-size:60px;"">+</div>","null","html-keyboard-response","398","339856","0.0-6.0-0.196","SORE","2","f","rechts","24","","fixation","","","",""
"2050","img/30_120.png","74","image-keyboard-response","399","341906","0.0-6.0-1.196","SORE","2","f","rechts","24","","","object","j","30","true"
"null","<div style=""font-size:60px;"">+</div>","null","html-keyboard-response","400","342207","0.0-6.0-0.197","SORE","2","f","rechts","24","","fixation","","","",""
"1950","img/60_330.png","74","image-keyboard-response","401","344157","0.0-6.0-1.197","SORE","2","f","rechts","24","","","object","j","60","true"
"null","<div style=""font-size:60px;"">+</div>","null","html-keyboard-response","402","344508","0.0-6.0-0.198","SORE","2","f","rechts","24","","fixation","","","",""
"1678","img/90_150.png","74","image-keyboard-response","403","346187","0.0-6.0-1.198","SORE","2","f","rechts","24","","","object","j","90","true"
"null","<div style=""font-size:60px;"">+</div>","null","html-keyboard-response","404","346639","0.0-6.0-0.199","SORE","2","f","rechts","24","","fixation","","","",""
"783","img/60_180.png","70","image-keyboard-response","405","347422","0.0-6.0-1.199","SORE","2","f","rechts","24","","","object","f","60","true"
"null","<div style=""font-size:60px;"">+</div>","null","html-keyboard-response","406","347824","0.0-6.0-0.200","SORE","2","f","rechts","24","","fixation","","","",""
"1086","img/30_240.png","70","image-keyboard-response","407","348911","0.0-6.0-1.200","SORE","2","f","rechts","24","","","object","f","30","true"
"null","<div style=""font-size:60px;"">+</div>","null","html-keyboard-response","408","349412","0.0-6.0-0.201","SORE","2","f","rechts","24","","fixation","","","",""
"1015","img/30_90.png","74","image-keyboard-response","409","350429","0.0-6.0-1.201","SORE","2","f","rechts","24","","","object","j","30","true"
"null","<div style=""font-size:60px;"">+</div>","null","html-keyboard-response","410","350730","0.0-6.0-0.202","SORE","2","f","rechts","24","","fixation","","","",""
"1525","img/90_240.png","70","image-keyboard-response","411","352256","0.0-6.0-1.202","SORE","2","f","rechts","24","","","object","f","90","true"
"null","<div style=""font-size:60px;"">+</div>","null","html-keyboard-response","412","352657","0.0-6.0-0.203","SORE","2","f","rechts","24","","fixation","","","",""
"854","img/90_60.png","70","image-keyboard-response","413","353512","0.0-6.0-1.203","SORE","2","f","rechts","24","","","object","f","90","true"
"null","<div style=""font-size:60px;"">+</div>","null","html-keyboard-response","414","354013","0.0-6.0-0.204","SORE","2","f","rechts","24","","fixation","","","",""
"820","img/0_150.png","74","image-keyboard-response","415","354833","0.0-6.0-1.204","SORE","2","f","rechts","24","","","object","j","0","true"
"null","<div style=""font-size:60px;"">+</div>","null","html-keyboard-response","416","355334","0.0-6.0-0.205","SORE","2","f","rechts","24","","fixation","","","",""
"821","img/150_240.png","74","image-keyboard-response","417","356157","0.0-6.0-1.205","SORE","2","f","rechts","24","","","object","j","150","true"
"null","<div style=""font-size:60px;"">+</div>","null","html-keyboard-response","418","356508","0.0-6.0-0.206","SORE","2","f","rechts","24","","fixation","","","",""
"778","img/90_30.png","70","image-keyboard-response","419","357288","0.0-6.0-1.206","SORE","2","f","rechts","24","","","object","f","90","true"
"null","<div style=""font-size:60px;"">+</div>","null","html-keyboard-response","420","357789","0.0-6.0-0.207","SORE","2","f","rechts","24","","fixation","","","",""
"771","img/L30_180.png","74","image-keyboard-response","421","358561","0.0-6.0-1.207","SORE","2","f","rechts","24","","","object","j","30","true"
"10841","<p>Du hast in 86% der Versuche korrekt entschieden.</p><p>Deine durchschnittliche Reaktionszeit war  951ms.</p><p>Dr&uuml;cke eine beliebige Taste, um die Session zu beenden. Vielen Dank!</p>","71","html-keyboard-response","422","369405","0.0-7.0","SORE","2","f","rechts","24","","","","","",""
