"rt","stimulus","key_press","trial_type","trial_index","time_elapsed","internal_node_id","subject","session","sex","handedness","age","responses","test_part","condition","correct_response","angle","correct"
"1263","<p>Mental Rotation Experiment.</p> <p>Dr&uuml;cke eine beliebige Taste, um anzufangen.</p>","71","html-keyboard-response","0","1266","0.0-0.0","SORE","3","f","rechts","24","","","","","",""
"2320","","","survey-text","1","3588","0.0-1.0","SORE","3","f","rechts","24","{""Q0"":""SORE""}","","","","",""
"1581","","","survey-text","2","5170","0.0-2.0","SORE","3","f","rechts","24","{""Q0"":""3""}","","","","",""
"2801","","","survey-multi-choice","3","7973","0.0-3.0","SORE","3","f","rechts","24","{""Q0"":""f"",""Q1"":""rechts""}","","","","",""
"1983","","","survey-text","4","9958","0.0-4.0","SORE","3","f","rechts","24","{""Q0"":""24""}","","","","",""
"6831","<p>Stell dir vor, dass du vor einem runden Tisch stehst, auf dem sich ein blauer Ball am Tischrand befindet. Entlang des Tischrands ist jeweils ein verschieden langer Pfeil. Nun bleibst du an deinem Platz vor dem Tisch und rotierst den Tisch entlang des Pfeils (gleiche Richtung und Länge). </p> <img src='img/30_180.png'></img> <br><p> Nachdem du diese (vorgestellte) Rotation durchgef&uuml;hrt hast, schau in Richtung der Tischmitte, und entscheide dann, ob der Ball links oder rechts von dir liegt.</p> <p>Dr&uuml;cke die <strong>'f'</strong>-Taste f&uuml;r links, die <strong>'j'</strong>-Taste f&uuml;r rechts.</p><br><p> Das Bild wird jeweils 1 Sekunde lang pr&auml;sentiert. Du hast 3 Sekunden Zeit eine Entscheidung zu treffen.</p>","32","html-keyboard-response","5","16789","0.0-5.0","SORE","3","f","rechts","24","","","","","",""
"null","<div style=""font-size:60px;"">+</div>","null","html-keyboard-response","6","18093","0.0-6.0-0.0","SORE","3","f","rechts","24","","fixation","","","",""
"950","img/30_270.png","70","image-keyboard-response","7","19044","0.0-6.0-1.0","SORE","3","f","rechts","24","","","object","f","30","true"
"null","<div style=""font-size:60px;"">+</div>","null","html-keyboard-response","8","19496","0.0-6.0-0.1","SORE","3","f","rechts","24","","fixation","","","",""
"937","img/150_120.png","70","image-keyboard-response","9","20434","0.0-6.0-1.1","SORE","3","f","rechts","24","","","object","f","150","true"
"null","<div style=""font-size:60px;"">+</div>","null","html-keyboard-response","10","20886","0.0-6.0-0.2","SORE","3","f","rechts","24","","fixation","","","",""
"894","img/L90_180.png","74","image-keyboard-response","11","21782","0.0-6.0-1.2","SORE","3","f","rechts","24","","","object","j","90","true"
"null","<div style=""font-size:60px;"">+</div>","null","html-keyboard-response","12","22233","0.0-6.0-0.3","SORE","3","f","rechts","24","","fixation","","","",""
"738","img/120_30.png","70","image-keyboard-response","13","22973","0.0-6.0-1.3","SORE","3","f","rechts","24","","","object","f","120","true"
"null","<div style=""font-size:60px;"">+</div>","null","html-keyboard-response","14","23274","0.0-6.0-0.4","SORE","3","f","rechts","24","","fixation","","","",""
"762","img/90_60.png","70","image-keyboard-response","15","24037","0.0-6.0-1.4","SORE","3","f","rechts","24","","","object","f","90","true"
"null","<div style=""font-size:60px;"">+</div>","null","html-keyboard-response","16","24489","0.0-6.0-0.5","SORE","3","f","rechts","24","","fixation","","","",""
"819","img/L60_180.png","74","image-keyboard-response","17","25309","0.0-6.0-1.5","SORE","3","f","rechts","24","","","object","j","60","true"
"null","<div style=""font-size:60px;"">+</div>","null","html-keyboard-response","18","25811","0.0-6.0-0.6","SORE","3","f","rechts","24","","fixation","","","",""
"783","img/150_90.png","70","image-keyboard-response","19","26594","0.0-6.0-1.6","SORE","3","f","rechts","24","","","object","f","150","true"
"null","<div style=""font-size:60px;"">+</div>","null","html-keyboard-response","20","26996","0.0-6.0-0.7","SORE","3","f","rechts","24","","fixation","","","",""
"753","img/60_330.png","74","image-keyboard-response","21","27750","0.0-6.0-1.7","SORE","3","f","rechts","24","","","object","j","60","true"
"null","<div style=""font-size:60px;"">+</div>","null","html-keyboard-response","22","28100","0.0-6.0-0.8","SORE","3","f","rechts","24","","fixation","","","",""
"859","img/30_90.png","74","image-keyboard-response","23","28960","0.0-6.0-1.8","SORE","3","f","rechts","24","","","object","j","30","true"
"null","<div style=""font-size:60px;"">+</div>","null","html-keyboard-response","24","29460","0.0-6.0-0.9","SORE","3","f","rechts","24","","fixation","","","",""
"913","img/0_330.png","70","image-keyboard-response","25","30374","0.0-6.0-1.9","SORE","3","f","rechts","24","","","object","f","0","true"
"null","<div style=""font-size:60px;"">+</div>","null","html-keyboard-response","26","30725","0.0-6.0-0.10","SORE","3","f","rechts","24","","fixation","","","",""
"934","img/60_270.png","70","image-keyboard-response","27","31661","0.0-6.0-1.10","SORE","3","f","rechts","24","","","object","f","60","true"
"null","<div style=""font-size:60px;"">+</div>","null","html-keyboard-response","28","32062","0.0-6.0-0.11","SORE","3","f","rechts","24","","fixation","","","",""
"929","img/90_150.png","74","image-keyboard-response","29","32993","0.0-6.0-1.11","SORE","3","f","rechts","24","","","object","j","90","true"
"null","<div style=""font-size:60px;"">+</div>","null","html-keyboard-response","30","33494","0.0-6.0-0.12","SORE","3","f","rechts","24","","fixation","","","",""
"831","img/120_90.png","70","image-keyboard-response","31","34326","0.0-6.0-1.12","SORE","3","f","rechts","24","","","object","f","120","true"
"null","<div style=""font-size:60px;"">+</div>","null","html-keyboard-response","32","34678","0.0-6.0-0.13","SORE","3","f","rechts","24","","fixation","","","",""
"793","img/150_60.png","70","image-keyboard-response","33","35471","0.0-6.0-1.13","SORE","3","f","rechts","24","","","object","f","150","true"
"null","<div style=""font-size:60px;"">+</div>","null","html-keyboard-response","34","35872","0.0-6.0-0.14","SORE","3","f","rechts","24","","fixation","","","",""
"753","img/0_90.png","74","image-keyboard-response","35","36626","0.0-6.0-1.14","SORE","3","f","rechts","24","","","object","j","0","true"
"null","<div style=""font-size:60px;"">+</div>","null","html-keyboard-response","36","37028","0.0-6.0-0.15","SORE","3","f","rechts","24","","fixation","","","",""
"881","img/90_210.png","70","image-keyboard-response","37","37910","0.0-6.0-1.15","SORE","3","f","rechts","24","","","object","f","90","true"
"null","<div style=""font-size:60px;"">+</div>","null","html-keyboard-response","38","38312","0.0-6.0-0.16","SORE","3","f","rechts","24","","fixation","","","",""
"800","img/0_270.png","70","image-keyboard-response","39","39113","0.0-6.0-1.16","SORE","3","f","rechts","24","","","object","f","0","true"
"null","<div style=""font-size:60px;"">+</div>","null","html-keyboard-response","40","39615","0.0-6.0-0.17","SORE","3","f","rechts","24","","fixation","","","",""
"783","img/60_30.png","70","image-keyboard-response","41","40399","0.0-6.0-1.17","SORE","3","f","rechts","24","","","object","f","60","true"
"null","<div style=""font-size:60px;"">+</div>","null","html-keyboard-response","42","40751","0.0-6.0-0.18","SORE","3","f","rechts","24","","fixation","","","",""
"1093","img/120_150.png","70","image-keyboard-response","43","41844","0.0-6.0-1.18","SORE","3","f","rechts","24","","","object","j","120","false"
"null","<div style=""font-size:60px;"">+</div>","null","html-keyboard-response","44","42295","0.0-6.0-0.19","SORE","3","f","rechts","24","","fixation","","","",""
"1011","img/L150_180.png","74","image-keyboard-response","45","43307","0.0-6.0-1.19","SORE","3","f","rechts","24","","","object","j","150","true"
"null","<div style=""font-size:60px;"">+</div>","null","html-keyboard-response","46","43608","0.0-6.0-0.20","SORE","3","f","rechts","24","","fixation","","","",""
"1307","img/90_300.png","74","image-keyboard-response","47","44916","0.0-6.0-1.20","SORE","3","f","rechts","24","","","object","j","90","true"
"null","<div style=""font-size:60px;"">+</div>","null","html-keyboard-response","48","45267","0.0-6.0-0.21","SORE","3","f","rechts","24","","fixation","","","",""
"1140","img/30_240.png","70","image-keyboard-response","49","46408","0.0-6.0-1.21","SORE","3","f","rechts","24","","","object","f","30","true"
"null","<div style=""font-size:60px;"">+</div>","null","html-keyboard-response","50","46910","0.0-6.0-0.22","SORE","3","f","rechts","24","","fixation","","","",""
"910","img/90_180.png","70","image-keyboard-response","51","47821","0.0-6.0-1.22","SORE","3","f","rechts","24","","","object","f","90","true"
"null","<div style=""font-size:60px;"">+</div>","null","html-keyboard-response","52","48173","0.0-6.0-0.23","SORE","3","f","rechts","24","","fixation","","","",""
"1002","img/60_150.png","74","image-keyboard-response","53","49176","0.0-6.0-1.23","SORE","3","f","rechts","24","","","object","j","60","true"
"null","<div style=""font-size:60px;"">+</div>","null","html-keyboard-response","54","49628","0.0-6.0-0.24","SORE","3","f","rechts","24","","fixation","","","",""
"782","img/0_210.png","70","image-keyboard-response","55","50411","0.0-6.0-1.24","SORE","3","f","rechts","24","","","object","f","0","true"
"null","<div style=""font-size:60px;"">+</div>","null","html-keyboard-response","56","50813","0.0-6.0-0.25","SORE","3","f","rechts","24","","fixation","","","",""
"785","img/0_240.png","70","image-keyboard-response","57","51598","0.0-6.0-1.25","SORE","3","f","rechts","24","","","object","f","0","true"
"null","<div style=""font-size:60px;"">+</div>","null","html-keyboard-response","58","51999","0.0-6.0-0.26","SORE","3","f","rechts","24","","fixation","","","",""
"851","img/L30_180.png","74","image-keyboard-response","59","52852","0.0-6.0-1.26","SORE","3","f","rechts","24","","","object","j","30","true"
"null","<div style=""font-size:60px;"">+</div>","null","html-keyboard-response","60","53354","0.0-6.0-0.27","SORE","3","f","rechts","24","","fixation","","","",""
"793","img/90_30.png","70","image-keyboard-response","61","54147","0.0-6.0-1.27","SORE","3","f","rechts","24","","","object","f","90","true"
"null","<div style=""font-size:60px;"">+</div>","null","html-keyboard-response","62","54449","0.0-6.0-0.28","SORE","3","f","rechts","24","","fixation","","","",""
"955","img/120_270.png","74","image-keyboard-response","63","55404","0.0-6.0-1.28","SORE","3","f","rechts","24","","","object","j","120","true"
"null","<div style=""font-size:60px;"">+</div>","null","html-keyboard-response","64","55806","0.0-6.0-0.29","SORE","3","f","rechts","24","","fixation","","","",""
"1106","img/30_300.png","70","image-keyboard-response","65","56912","0.0-6.0-1.29","SORE","3","f","rechts","24","","","object","f","30","true"
"null","<div style=""font-size:60px;"">+</div>","null","html-keyboard-response","66","57264","0.0-6.0-0.30","SORE","3","f","rechts","24","","fixation","","","",""
"852","img/60_90.png","70","image-keyboard-response","67","58117","0.0-6.0-1.30","SORE","3","f","rechts","24","","","object","j","60","false"
"null","<div style=""font-size:60px;"">+</div>","null","html-keyboard-response","68","58469","0.0-6.0-0.31","SORE","3","f","rechts","24","","fixation","","","",""
"972","img/150_240.png","74","image-keyboard-response","69","59442","0.0-6.0-1.31","SORE","3","f","rechts","24","","","object","j","150","true"
"null","<div style=""font-size:60px;"">+</div>","null","html-keyboard-response","70","59744","0.0-6.0-0.32","SORE","3","f","rechts","24","","fixation","","","",""
"917","img/60_180.png","70","image-keyboard-response","71","60661","0.0-6.0-1.32","SORE","3","f","rechts","24","","","object","f","60","true"
"null","<div style=""font-size:60px;"">+</div>","null","html-keyboard-response","72","61163","0.0-6.0-0.33","SORE","3","f","rechts","24","","fixation","","","",""
"815","img/150_300.png","74","image-keyboard-response","73","61979","0.0-6.0-1.33","SORE","3","f","rechts","24","","","object","j","150","true"
"null","<div style=""font-size:60px;"">+</div>","null","html-keyboard-response","74","62280","0.0-6.0-0.34","SORE","3","f","rechts","24","","fixation","","","",""
"1141","img/120_180.png","70","image-keyboard-response","75","63422","0.0-6.0-1.34","SORE","3","f","rechts","24","","","object","f","120","true"
"null","<div style=""font-size:60px;"">+</div>","null","html-keyboard-response","76","63874","0.0-6.0-0.35","SORE","3","f","rechts","24","","fixation","","","",""
"843","img/30_120.png","74","image-keyboard-response","77","64718","0.0-6.0-1.35","SORE","3","f","rechts","24","","","object","j","30","true"
"null","<div style=""font-size:60px;"">+</div>","null","html-keyboard-response","78","65220","0.0-6.0-0.36","SORE","3","f","rechts","24","","fixation","","","",""
"808","img/120_210.png","70","image-keyboard-response","79","66028","0.0-6.0-1.36","SORE","3","f","rechts","24","","","object","f","120","true"
"null","<div style=""font-size:60px;"">+</div>","null","html-keyboard-response","80","66529","0.0-6.0-0.37","SORE","3","f","rechts","24","","fixation","","","",""
"1640","img/30_60.png","74","image-keyboard-response","81","68170","0.0-6.0-1.37","SORE","3","f","rechts","24","","","object","j","30","true"
"null","<div style=""font-size:60px;"">+</div>","null","html-keyboard-response","82","68672","0.0-6.0-0.38","SORE","3","f","rechts","24","","fixation","","","",""
"1134","img/150_270.png","74","image-keyboard-response","83","69807","0.0-6.0-1.38","SORE","3","f","rechts","24","","","object","j","150","true"
"null","<div style=""font-size:60px;"">+</div>","null","html-keyboard-response","84","70208","0.0-6.0-0.39","SORE","3","f","rechts","24","","fixation","","","",""
"817","img/120_330.png","74","image-keyboard-response","85","71026","0.0-6.0-1.39","SORE","3","f","rechts","24","","","object","j","120","true"
"null","<div style=""font-size:60px;"">+</div>","null","html-keyboard-response","86","71427","0.0-6.0-0.40","SORE","3","f","rechts","24","","fixation","","","",""
"1018","img/L120_180.png","74","image-keyboard-response","87","72447","0.0-6.0-1.40","SORE","3","f","rechts","24","","","object","j","120","true"
"null","<div style=""font-size:60px;"">+</div>","null","html-keyboard-response","88","72898","0.0-6.0-0.41","SORE","3","f","rechts","24","","fixation","","","",""
"829","img/0_120.png","74","image-keyboard-response","89","73728","0.0-6.0-1.41","SORE","3","f","rechts","24","","","object","j","0","true"
"null","<div style=""font-size:60px;"">+</div>","null","html-keyboard-response","90","74180","0.0-6.0-0.42","SORE","3","f","rechts","24","","fixation","","","",""
"785","img/30_180.png","70","image-keyboard-response","91","74966","0.0-6.0-1.42","SORE","3","f","rechts","24","","","object","f","30","true"
"null","<div style=""font-size:60px;"">+</div>","null","html-keyboard-response","92","75318","0.0-6.0-0.43","SORE","3","f","rechts","24","","fixation","","","",""
"810","img/0_300.png","70","image-keyboard-response","93","76130","0.0-6.0-1.43","SORE","3","f","rechts","24","","","object","f","0","true"
"null","<div style=""font-size:60px;"">+</div>","null","html-keyboard-response","94","76581","0.0-6.0-0.44","SORE","3","f","rechts","24","","fixation","","","",""
"875","img/150_180.png","70","image-keyboard-response","95","77458","0.0-6.0-1.44","SORE","3","f","rechts","24","","","object","f","150","true"
"null","<div style=""font-size:60px;"">+</div>","null","html-keyboard-response","96","77759","0.0-6.0-0.45","SORE","3","f","rechts","24","","fixation","","","",""
"883","img/0_60.png","74","image-keyboard-response","97","78643","0.0-6.0-1.45","SORE","3","f","rechts","24","","","object","j","0","true"
"null","<div style=""font-size:60px;"">+</div>","null","html-keyboard-response","98","79045","0.0-6.0-0.46","SORE","3","f","rechts","24","","fixation","","","",""
"903","img/60_210.png","70","image-keyboard-response","99","79949","0.0-6.0-1.46","SORE","3","f","rechts","24","","","object","f","60","true"
"null","<div style=""font-size:60px;"">+</div>","null","html-keyboard-response","100","80350","0.0-6.0-0.47","SORE","3","f","rechts","24","","fixation","","","",""
"1639","img/90_240.png","70","image-keyboard-response","101","81990","0.0-6.0-1.47","SORE","3","f","rechts","24","","","object","f","90","true"
"null","<div style=""font-size:60px;"">+</div>","null","html-keyboard-response","102","82341","0.0-6.0-0.48","SORE","3","f","rechts","24","","fixation","","","",""
"769","img/0_30.png","74","image-keyboard-response","103","83112","0.0-6.0-1.48","SORE","3","f","rechts","24","","","object","j","0","true"
"null","<div style=""font-size:60px;"">+</div>","null","html-keyboard-response","104","83563","0.0-6.0-0.49","SORE","3","f","rechts","24","","fixation","","","",""
"937","img/90_330.png","74","image-keyboard-response","105","84502","0.0-6.0-1.49","SORE","3","f","rechts","24","","","object","j","90","true"
"null","<div style=""font-size:60px;"">+</div>","null","html-keyboard-response","106","84903","0.0-6.0-0.50","SORE","3","f","rechts","24","","fixation","","","",""
"1079","img/0_150.png","74","image-keyboard-response","107","85984","0.0-6.0-1.50","SORE","3","f","rechts","24","","","object","j","0","true"
"null","<div style=""font-size:60px;"">+</div>","null","html-keyboard-response","108","86435","0.0-6.0-0.51","SORE","3","f","rechts","24","","fixation","","","",""
"1502","img/90_120.png","74","image-keyboard-response","109","87938","0.0-6.0-1.51","SORE","3","f","rechts","24","","","object","j","90","true"
"null","<div style=""font-size:60px;"">+</div>","null","html-keyboard-response","110","88439","0.0-6.0-0.52","SORE","3","f","rechts","24","","fixation","","","",""
"1260","img/120_30.png","70","image-keyboard-response","111","89700","0.0-6.0-1.52","SORE","3","f","rechts","24","","","object","f","120","true"
"null","<div style=""font-size:60px;"">+</div>","null","html-keyboard-response","112","90101","0.0-6.0-0.53","SORE","3","f","rechts","24","","fixation","","","",""
"799","img/0_210.png","70","image-keyboard-response","113","90901","0.0-6.0-1.53","SORE","3","f","rechts","24","","","object","f","0","true"
"null","<div style=""font-size:60px;"">+</div>","null","html-keyboard-response","114","91252","0.0-6.0-0.54","SORE","3","f","rechts","24","","fixation","","","",""
"1396","img/60_90.png","70","image-keyboard-response","115","92650","0.0-6.0-1.54","SORE","3","f","rechts","24","","","object","j","60","false"
"null","<div style=""font-size:60px;"">+</div>","null","html-keyboard-response","116","92951","0.0-6.0-0.55","SORE","3","f","rechts","24","","fixation","","","",""
"1271","img/90_60.png","70","image-keyboard-response","117","94223","0.0-6.0-1.55","SORE","3","f","rechts","24","","","object","f","90","true"
"null","<div style=""font-size:60px;"">+</div>","null","html-keyboard-response","118","94575","0.0-6.0-0.56","SORE","3","f","rechts","24","","fixation","","","",""
"714","img/0_150.png","74","image-keyboard-response","119","95290","0.0-6.0-1.56","SORE","3","f","rechts","24","","","object","j","0","true"
"null","<div style=""font-size:60px;"">+</div>","null","html-keyboard-response","120","95742","0.0-6.0-0.57","SORE","3","f","rechts","24","","fixation","","","",""
"792","img/0_90.png","74","image-keyboard-response","121","96535","0.0-6.0-1.57","SORE","3","f","rechts","24","","","object","j","0","true"
"null","<div style=""font-size:60px;"">+</div>","null","html-keyboard-response","122","96937","0.0-6.0-0.58","SORE","3","f","rechts","24","","fixation","","","",""
"672","img/0_30.png","74","image-keyboard-response","123","97610","0.0-6.0-1.58","SORE","3","f","rechts","24","","","object","j","0","true"
"null","<div style=""font-size:60px;"">+</div>","null","html-keyboard-response","124","98012","0.0-6.0-0.59","SORE","3","f","rechts","24","","fixation","","","",""
"686","img/0_60.png","74","image-keyboard-response","125","98698","0.0-6.0-1.59","SORE","3","f","rechts","24","","","object","j","0","true"
"null","<div style=""font-size:60px;"">+</div>","null","html-keyboard-response","126","99100","0.0-6.0-0.60","SORE","3","f","rechts","24","","fixation","","","",""
"1294","img/90_240.png","70","image-keyboard-response","127","100395","0.0-6.0-1.60","SORE","3","f","rechts","24","","","object","f","90","true"
"null","<div style=""font-size:60px;"">+</div>","null","html-keyboard-response","128","100697","0.0-6.0-0.61","SORE","3","f","rechts","24","","fixation","","","",""
"889","img/0_270.png","70","image-keyboard-response","129","101586","0.0-6.0-1.61","SORE","3","f","rechts","24","","","object","f","0","true"
"null","<div style=""font-size:60px;"">+</div>","null","html-keyboard-response","130","101938","0.0-6.0-0.62","SORE","3","f","rechts","24","","fixation","","","",""
"1076","img/120_90.png","70","image-keyboard-response","131","103015","0.0-6.0-1.62","SORE","3","f","rechts","24","","","object","f","120","true"
"null","<div style=""font-size:60px;"">+</div>","null","html-keyboard-response","132","103317","0.0-6.0-0.63","SORE","3","f","rechts","24","","fixation","","","",""
"908","img/120_150.png","74","image-keyboard-response","133","104225","0.0-6.0-1.63","SORE","3","f","rechts","24","","","object","j","120","true"
"null","<div style=""font-size:60px;"">+</div>","null","html-keyboard-response","134","104677","0.0-6.0-0.64","SORE","3","f","rechts","24","","fixation","","","",""
"924","img/30_270.png","70","image-keyboard-response","135","105602","0.0-6.0-1.64","SORE","3","f","rechts","24","","","object","f","30","true"
"null","<div style=""font-size:60px;"">+</div>","null","html-keyboard-response","136","105904","0.0-6.0-0.65","SORE","3","f","rechts","24","","fixation","","","",""
"802","img/30_240.png","70","image-keyboard-response","137","106707","0.0-6.0-1.65","SORE","3","f","rechts","24","","","object","f","30","true"
"null","<div style=""font-size:60px;"">+</div>","null","html-keyboard-response","138","107009","0.0-6.0-0.66","SORE","3","f","rechts","24","","fixation","","","",""
"803","img/90_210.png","74","image-keyboard-response","139","107813","0.0-6.0-1.66","SORE","3","f","rechts","24","","","object","f","90","false"
"null","<div style=""font-size:60px;"">+</div>","null","html-keyboard-response","140","108315","0.0-6.0-0.67","SORE","3","f","rechts","24","","fixation","","","",""
"1068","img/L30_180.png","74","image-keyboard-response","141","109384","0.0-6.0-1.67","SORE","3","f","rechts","24","","","object","j","30","true"
"null","<div style=""font-size:60px;"">+</div>","null","html-keyboard-response","142","109686","0.0-6.0-0.68","SORE","3","f","rechts","24","","fixation","","","",""
"994","img/150_300.png","74","image-keyboard-response","143","110680","0.0-6.0-1.68","SORE","3","f","rechts","24","","","object","j","150","true"
"null","<div style=""font-size:60px;"">+</div>","null","html-keyboard-response","144","111032","0.0-6.0-0.69","SORE","3","f","rechts","24","","fixation","","","",""
"859","img/30_180.png","70","image-keyboard-response","145","111891","0.0-6.0-1.69","SORE","3","f","rechts","24","","","object","f","30","true"
"null","<div style=""font-size:60px;"">+</div>","null","html-keyboard-response","146","112192","0.0-6.0-0.70","SORE","3","f","rechts","24","","fixation","","","",""
"814","img/120_270.png","74","image-keyboard-response","147","113006","0.0-6.0-1.70","SORE","3","f","rechts","24","","","object","j","120","true"
"null","<div style=""font-size:60px;"">+</div>","null","html-keyboard-response","148","113408","0.0-6.0-0.71","SORE","3","f","rechts","24","","fixation","","","",""
"987","img/150_60.png","70","image-keyboard-response","149","114395","0.0-6.0-1.71","SORE","3","f","rechts","24","","","object","f","150","true"
"null","<div style=""font-size:60px;"">+</div>","null","html-keyboard-response","150","114746","0.0-6.0-0.72","SORE","3","f","rechts","24","","fixation","","","",""
"2212","img/150_180.png","70","image-keyboard-response","151","116958","0.0-6.0-1.72","SORE","3","f","rechts","24","","","object","f","150","true"
"null","<div style=""font-size:60px;"">+</div>","null","html-keyboard-response","152","117260","0.0-6.0-0.73","SORE","3","f","rechts","24","","fixation","","","",""
"994","img/0_330.png","70","image-keyboard-response","153","118254","0.0-6.0-1.73","SORE","3","f","rechts","24","","","object","f","0","true"
"null","<div style=""font-size:60px;"">+</div>","null","html-keyboard-response","154","118606","0.0-6.0-0.74","SORE","3","f","rechts","24","","fixation","","","",""
"713","img/90_330.png","74","image-keyboard-response","155","119319","0.0-6.0-1.74","SORE","3","f","rechts","24","","","object","j","90","true"
"null","<div style=""font-size:60px;"">+</div>","null","html-keyboard-response","156","119771","0.0-6.0-0.75","SORE","3","f","rechts","24","","fixation","","","",""
"813","img/90_150.png","70","image-keyboard-response","157","120585","0.0-6.0-1.75","SORE","3","f","rechts","24","","","object","j","90","false"
"null","<div style=""font-size:60px;"">+</div>","null","html-keyboard-response","158","121035","0.0-6.0-0.76","SORE","3","f","rechts","24","","fixation","","","",""
"753","img/0_120.png","74","image-keyboard-response","159","121789","0.0-6.0-1.76","SORE","3","f","rechts","24","","","object","j","0","true"
"null","<div style=""font-size:60px;"">+</div>","null","html-keyboard-response","160","122190","0.0-6.0-0.77","SORE","3","f","rechts","24","","fixation","","","",""
"1061","img/120_210.png","70","image-keyboard-response","161","123252","0.0-6.0-1.77","SORE","3","f","rechts","24","","","object","f","120","true"
"null","<div style=""font-size:60px;"">+</div>","null","html-keyboard-response","162","123553","0.0-6.0-0.78","SORE","3","f","rechts","24","","fixation","","","",""
"759","img/90_30.png","70","image-keyboard-response","163","124314","0.0-6.0-1.78","SORE","3","f","rechts","24","","","object","f","90","true"
"null","<div style=""font-size:60px;"">+</div>","null","html-keyboard-response","164","124615","0.0-6.0-0.79","SORE","3","f","rechts","24","","fixation","","","",""
"1189","img/30_60.png","74","image-keyboard-response","165","125805","0.0-6.0-1.79","SORE","3","f","rechts","24","","","object","j","30","true"
"null","<div style=""font-size:60px;"">+</div>","null","html-keyboard-response","166","126306","0.0-6.0-0.80","SORE","3","f","rechts","24","","fixation","","","",""
"956","img/L120_180.png","74","image-keyboard-response","167","127263","0.0-6.0-1.80","SORE","3","f","rechts","24","","","object","j","120","true"
"null","<div style=""font-size:60px;"">+</div>","null","html-keyboard-response","168","127664","0.0-6.0-0.81","SORE","3","f","rechts","24","","fixation","","","",""
"748","img/60_30.png","70","image-keyboard-response","169","128413","0.0-6.0-1.81","SORE","3","f","rechts","24","","","object","f","60","true"
"null","<div style=""font-size:60px;"">+</div>","null","html-keyboard-response","170","128715","0.0-6.0-0.82","SORE","3","f","rechts","24","","fixation","","","",""
"889","img/90_120.png","74","image-keyboard-response","171","129605","0.0-6.0-1.82","SORE","3","f","rechts","24","","","object","j","90","true"
"null","<div style=""font-size:60px;"">+</div>","null","html-keyboard-response","172","129907","0.0-6.0-0.83","SORE","3","f","rechts","24","","fixation","","","",""
"1102","img/150_120.png","74","image-keyboard-response","173","131011","0.0-6.0-1.83","SORE","3","f","rechts","24","","","object","f","150","false"
"null","<div style=""font-size:60px;"">+</div>","null","html-keyboard-response","174","131412","0.0-6.0-0.84","SORE","3","f","rechts","24","","fixation","","","",""
"1254","img/30_300.png","70","image-keyboard-response","175","132667","0.0-6.0-1.84","SORE","3","f","rechts","24","","","object","f","30","true"
"null","<div style=""font-size:60px;"">+</div>","null","html-keyboard-response","176","133018","0.0-6.0-0.85","SORE","3","f","rechts","24","","fixation","","","",""
"1185","img/150_270.png","74","image-keyboard-response","177","134205","0.0-6.0-1.85","SORE","3","f","rechts","24","","","object","j","150","true"
"null","<div style=""font-size:60px;"">+</div>","null","html-keyboard-response","178","134706","0.0-6.0-0.86","SORE","3","f","rechts","24","","fixation","","","",""
"964","img/L60_180.png","74","image-keyboard-response","179","135672","0.0-6.0-1.86","SORE","3","f","rechts","24","","","object","j","60","true"
"null","<div style=""font-size:60px;"">+</div>","null","html-keyboard-response","180","136022","0.0-6.0-0.87","SORE","3","f","rechts","24","","fixation","","","",""
"1200","img/150_90.png","70","image-keyboard-response","181","137224","0.0-6.0-1.87","SORE","3","f","rechts","24","","","object","f","150","true"
"null","<div style=""font-size:60px;"">+</div>","null","html-keyboard-response","182","137525","0.0-6.0-0.88","SORE","3","f","rechts","24","","fixation","","","",""
"1330","img/60_150.png","74","image-keyboard-response","183","138856","0.0-6.0-1.88","SORE","3","f","rechts","24","","","object","j","60","true"
"null","<div style=""font-size:60px;"">+</div>","null","html-keyboard-response","184","139357","0.0-6.0-0.89","SORE","3","f","rechts","24","","fixation","","","",""
"766","img/L90_180.png","74","image-keyboard-response","185","140124","0.0-6.0-1.89","SORE","3","f","rechts","24","","","object","j","90","true"
"null","<div style=""font-size:60px;"">+</div>","null","html-keyboard-response","186","140625","0.0-6.0-0.90","SORE","3","f","rechts","24","","fixation","","","",""
"910","img/60_270.png","70","image-keyboard-response","187","141536","0.0-6.0-1.90","SORE","3","f","rechts","24","","","object","f","60","true"
"null","<div style=""font-size:60px;"">+</div>","null","html-keyboard-response","188","141988","0.0-6.0-0.91","SORE","3","f","rechts","24","","fixation","","","",""
"833","img/30_90.png","74","image-keyboard-response","189","142821","0.0-6.0-1.91","SORE","3","f","rechts","24","","","object","j","30","true"
"null","<div style=""font-size:60px;"">+</div>","null","html-keyboard-response","190","143323","0.0-6.0-0.92","SORE","3","f","rechts","24","","fixation","","","",""
"861","img/0_300.png","70","image-keyboard-response","191","144185","0.0-6.0-1.92","SORE","3","f","rechts","24","","","object","f","0","true"
"null","<div style=""font-size:60px;"">+</div>","null","html-keyboard-response","192","144486","0.0-6.0-0.93","SORE","3","f","rechts","24","","fixation","","","",""
"924","img/120_330.png","74","image-keyboard-response","193","145411","0.0-6.0-1.93","SORE","3","f","rechts","24","","","object","j","120","true"
"null","<div style=""font-size:60px;"">+</div>","null","html-keyboard-response","194","145813","0.0-6.0-0.94","SORE","3","f","rechts","24","","fixation","","","",""
"932","img/L150_180.png","74","image-keyboard-response","195","146746","0.0-6.0-1.94","SORE","3","f","rechts","24","","","object","j","150","true"
"null","<div style=""font-size:60px;"">+</div>","null","html-keyboard-response","196","147098","0.0-6.0-0.95","SORE","3","f","rechts","24","","fixation","","","",""
"913","img/60_180.png","70","image-keyboard-response","197","148011","0.0-6.0-1.95","SORE","3","f","rechts","24","","","object","f","60","true"
"null","<div style=""font-size:60px;"">+</div>","null","html-keyboard-response","198","148512","0.0-6.0-0.96","SORE","3","f","rechts","24","","fixation","","","",""
"687","img/60_330.png","74","image-keyboard-response","199","149199","0.0-6.0-1.96","SORE","3","f","rechts","24","","","object","j","60","true"
"null","<div style=""font-size:60px;"">+</div>","null","html-keyboard-response","200","149701","0.0-6.0-0.97","SORE","3","f","rechts","24","","fixation","","","",""
"1934","img/120_180.png","70","image-keyboard-response","201","151636","0.0-6.0-1.97","SORE","3","f","rechts","24","","","object","f","120","true"
"null","<div style=""font-size:60px;"">+</div>","null","html-keyboard-response","202","151938","0.0-6.0-0.98","SORE","3","f","rechts","24","","fixation","","","",""
"780","img/30_120.png","74","image-keyboard-response","203","152718","0.0-6.0-1.98","SORE","3","f","rechts","24","","","object","j","30","true"
"null","<div style=""font-size:60px;"">+</div>","null","html-keyboard-response","204","153120","0.0-6.0-0.99","SORE","3","f","rechts","24","","fixation","","","",""
"675","img/60_210.png","70","image-keyboard-response","205","153796","0.0-6.0-1.99","SORE","3","f","rechts","24","","","object","f","60","true"
"null","<div style=""font-size:60px;"">+</div>","null","html-keyboard-response","206","154148","0.0-6.0-0.100","SORE","3","f","rechts","24","","fixation","","","",""
"717","img/90_300.png","74","image-keyboard-response","207","154865","0.0-6.0-1.100","SORE","3","f","rechts","24","","","object","j","90","true"
"null","<div style=""font-size:60px;"">+</div>","null","html-keyboard-response","208","155217","0.0-6.0-0.101","SORE","3","f","rechts","24","","fixation","","","",""
"1300","img/150_240.png","74","image-keyboard-response","209","156518","0.0-6.0-1.101","SORE","3","f","rechts","24","","","object","j","150","true"
"null","<div style=""font-size:60px;"">+</div>","null","html-keyboard-response","210","156970","0.0-6.0-0.102","SORE","3","f","rechts","24","","fixation","","","",""
"1119","img/90_180.png","74","image-keyboard-response","211","158089","0.0-6.0-1.102","SORE","3","f","rechts","24","","","object","f","90","false"
"null","<div style=""font-size:60px;"">+</div>","null","html-keyboard-response","212","158490","0.0-6.0-0.103","SORE","3","f","rechts","24","","fixation","","","",""
"1004","img/0_240.png","70","image-keyboard-response","213","159495","0.0-6.0-1.103","SORE","3","f","rechts","24","","","object","f","0","true"
"null","<div style=""font-size:60px;"">+</div>","null","html-keyboard-response","214","159797","0.0-6.0-0.104","SORE","3","f","rechts","24","","fixation","","","",""
"819","img/30_240.png","74","image-keyboard-response","215","160616","0.0-6.0-1.104","SORE","3","f","rechts","24","","","object","f","30","false"
"null","<div style=""font-size:60px;"">+</div>","null","html-keyboard-response","216","161117","0.0-6.0-0.105","SORE","3","f","rechts","24","","fixation","","","",""
"806","img/60_30.png","70","image-keyboard-response","217","161924","0.0-6.0-1.105","SORE","3","f","rechts","24","","","object","f","60","true"
"null","<div style=""font-size:60px;"">+</div>","null","html-keyboard-response","218","162276","0.0-6.0-0.106","SORE","3","f","rechts","24","","fixation","","","",""
"788","img/60_330.png","74","image-keyboard-response","219","163064","0.0-6.0-1.106","SORE","3","f","rechts","24","","","object","j","60","true"
"null","<div style=""font-size:60px;"">+</div>","null","html-keyboard-response","220","163466","0.0-6.0-0.107","SORE","3","f","rechts","24","","fixation","","","",""
"751","img/120_330.png","74","image-keyboard-response","221","164217","0.0-6.0-1.107","SORE","3","f","rechts","24","","","object","j","120","true"
"null","<div style=""font-size:60px;"">+</div>","null","html-keyboard-response","222","164569","0.0-6.0-0.108","SORE","3","f","rechts","24","","fixation","","","",""
"833","img/0_300.png","70","image-keyboard-response","223","165402","0.0-6.0-1.108","SORE","3","f","rechts","24","","","object","f","0","true"
"null","<div style=""font-size:60px;"">+</div>","null","html-keyboard-response","224","165853","0.0-6.0-0.109","SORE","3","f","rechts","24","","fixation","","","",""
"846","img/0_90.png","74","image-keyboard-response","225","166700","0.0-6.0-1.109","SORE","3","f","rechts","24","","","object","j","0","true"
"null","<div style=""font-size:60px;"">+</div>","null","html-keyboard-response","226","167202","0.0-6.0-0.110","SORE","3","f","rechts","24","","fixation","","","",""
"832","img/30_90.png","74","image-keyboard-response","227","168034","0.0-6.0-1.110","SORE","3","f","rechts","24","","","object","j","30","true"
"null","<div style=""font-size:60px;"">+</div>","null","html-keyboard-response","228","168335","0.0-6.0-0.111","SORE","3","f","rechts","24","","fixation","","","",""
"1221","img/120_180.png","70","image-keyboard-response","229","169557","0.0-6.0-1.111","SORE","3","f","rechts","24","","","object","f","120","true"
"null","<div style=""font-size:60px;"">+</div>","null","html-keyboard-response","230","169958","0.0-6.0-0.112","SORE","3","f","rechts","24","","fixation","","","",""
"894","img/60_180.png","70","image-keyboard-response","231","170853","0.0-6.0-1.112","SORE","3","f","rechts","24","","","object","f","60","true"
"null","<div style=""font-size:60px;"">+</div>","null","html-keyboard-response","232","171354","0.0-6.0-0.113","SORE","3","f","rechts","24","","fixation","","","",""
"1189","img/60_270.png","70","image-keyboard-response","233","172544","0.0-6.0-1.113","SORE","3","f","rechts","24","","","object","f","60","true"
"null","<div style=""font-size:60px;"">+</div>","null","html-keyboard-response","234","172846","0.0-6.0-0.114","SORE","3","f","rechts","24","","fixation","","","",""
"798","img/60_150.png","74","image-keyboard-response","235","173645","0.0-6.0-1.114","SORE","3","f","rechts","24","","","object","j","60","true"
"null","<div style=""font-size:60px;"">+</div>","null","html-keyboard-response","236","174046","0.0-6.0-0.115","SORE","3","f","rechts","24","","fixation","","","",""
"671","img/0_330.png","70","image-keyboard-response","237","174718","0.0-6.0-1.115","SORE","3","f","rechts","24","","","object","f","0","true"
"null","<div style=""font-size:60px;"">+</div>","null","html-keyboard-response","238","175019","0.0-6.0-0.116","SORE","3","f","rechts","24","","fixation","","","",""
"928","img/L150_180.png","74","image-keyboard-response","239","175948","0.0-6.0-1.116","SORE","3","f","rechts","24","","","object","j","150","true"
"null","<div style=""font-size:60px;"">+</div>","null","html-keyboard-response","240","176399","0.0-6.0-0.117","SORE","3","f","rechts","24","","fixation","","","",""
"793","img/90_330.png","74","image-keyboard-response","241","177193","0.0-6.0-1.117","SORE","3","f","rechts","24","","","object","j","90","true"
"null","<div style=""font-size:60px;"">+</div>","null","html-keyboard-response","242","177694","0.0-6.0-0.118","SORE","3","f","rechts","24","","fixation","","","",""
"1952","img/90_120.png","74","image-keyboard-response","243","179647","0.0-6.0-1.118","SORE","3","f","rechts","24","","","object","j","90","true"
"null","<div style=""font-size:60px;"">+</div>","null","html-keyboard-response","244","179948","0.0-6.0-0.119","SORE","3","f","rechts","24","","fixation","","","",""
"1070","img/90_210.png","70","image-keyboard-response","245","181018","0.0-6.0-1.119","SORE","3","f","rechts","24","","","object","f","90","true"
"null","<div style=""font-size:60px;"">+</div>","null","html-keyboard-response","246","181370","0.0-6.0-0.120","SORE","3","f","rechts","24","","fixation","","","",""
"663","img/0_120.png","74","image-keyboard-response","247","182034","0.0-6.0-1.120","SORE","3","f","rechts","24","","","object","j","0","true"
"null","<div style=""font-size:60px;"">+</div>","null","html-keyboard-response","248","182385","0.0-6.0-0.121","SORE","3","f","rechts","24","","fixation","","","",""
"1069","img/120_270.png","74","image-keyboard-response","249","183455","0.0-6.0-1.121","SORE","3","f","rechts","24","","","object","j","120","true"
"null","<div style=""font-size:60px;"">+</div>","null","html-keyboard-response","250","183856","0.0-6.0-0.122","SORE","3","f","rechts","24","","fixation","","","",""
"1129","img/L60_180.png","74","image-keyboard-response","251","184987","0.0-6.0-1.122","SORE","3","f","rechts","24","","","object","j","60","true"
"null","<div style=""font-size:60px;"">+</div>","null","html-keyboard-response","252","185488","0.0-6.0-0.123","SORE","3","f","rechts","24","","fixation","","","",""
"1325","img/90_150.png","74","image-keyboard-response","253","186815","0.0-6.0-1.123","SORE","3","f","rechts","24","","","object","j","90","true"
"null","<div style=""font-size:60px;"">+</div>","null","html-keyboard-response","254","187216","0.0-6.0-0.124","SORE","3","f","rechts","24","","fixation","","","",""
"971","img/150_90.png","70","image-keyboard-response","255","188189","0.0-6.0-1.124","SORE","3","f","rechts","24","","","object","f","150","true"
"null","<div style=""font-size:60px;"">+</div>","null","html-keyboard-response","256","188540","0.0-6.0-0.125","SORE","3","f","rechts","24","","fixation","","","",""
"805","img/150_60.png","70","image-keyboard-response","257","189347","0.0-6.0-1.125","SORE","3","f","rechts","24","","","object","f","150","true"
"null","<div style=""font-size:60px;"">+</div>","null","html-keyboard-response","258","189698","0.0-6.0-0.126","SORE","3","f","rechts","24","","fixation","","","",""
"2153","img/90_240.png","74","image-keyboard-response","259","191851","0.0-6.0-1.126","SORE","3","f","rechts","24","","","object","f","90","false"
"null","<div style=""font-size:60px;"">+</div>","null","html-keyboard-response","260","192353","0.0-6.0-0.127","SORE","3","f","rechts","24","","fixation","","","",""
"792","img/60_210.png","70","image-keyboard-response","261","193147","0.0-6.0-1.127","SORE","3","f","rechts","24","","","object","f","60","true"
"null","<div style=""font-size:60px;"">+</div>","null","html-keyboard-response","262","193448","0.0-6.0-0.128","SORE","3","f","rechts","24","","fixation","","","",""
"728","img/L30_180.png","74","image-keyboard-response","263","194177","0.0-6.0-1.128","SORE","3","f","rechts","24","","","object","j","30","true"
"null","<div style=""font-size:60px;"">+</div>","null","html-keyboard-response","264","194579","0.0-6.0-0.129","SORE","3","f","rechts","24","","fixation","","","",""
"881","img/120_150.png","70","image-keyboard-response","265","195461","0.0-6.0-1.129","SORE","3","f","rechts","24","","","object","j","120","false"
"null","<div style=""font-size:60px;"">+</div>","null","html-keyboard-response","266","195913","0.0-6.0-0.130","SORE","3","f","rechts","24","","fixation","","","",""
"1871","img/60_90.png","74","image-keyboard-response","267","197786","0.0-6.0-1.130","SORE","3","f","rechts","24","","","object","j","60","true"
"null","<div style=""font-size:60px;"">+</div>","null","html-keyboard-response","268","198187","0.0-6.0-0.131","SORE","3","f","rechts","24","","fixation","","","",""
"937","img/150_180.png","70","image-keyboard-response","269","199125","0.0-6.0-1.131","SORE","3","f","rechts","24","","","object","f","150","true"
"null","<div style=""font-size:60px;"">+</div>","null","html-keyboard-response","270","199627","0.0-6.0-0.132","SORE","3","f","rechts","24","","fixation","","","",""
"769","img/90_60.png","70","image-keyboard-response","271","200397","0.0-6.0-1.132","SORE","3","f","rechts","24","","","object","f","90","true"
"null","<div style=""font-size:60px;"">+</div>","null","html-keyboard-response","272","200749","0.0-6.0-0.133","SORE","3","f","rechts","24","","fixation","","","",""
"749","img/90_300.png","74","image-keyboard-response","273","201499","0.0-6.0-1.133","SORE","3","f","rechts","24","","","object","j","90","true"
"null","<div style=""font-size:60px;"">+</div>","null","html-keyboard-response","274","201901","0.0-6.0-0.134","SORE","3","f","rechts","24","","fixation","","","",""
"873","img/L120_180.png","70","image-keyboard-response","275","202774","0.0-6.0-1.134","SORE","3","f","rechts","24","","","object","j","120","false"
"null","<div style=""font-size:60px;"">+</div>","null","html-keyboard-response","276","203076","0.0-6.0-0.135","SORE","3","f","rechts","24","","fixation","","","",""
"907","img/120_30.png","70","image-keyboard-response","277","203984","0.0-6.0-1.135","SORE","3","f","rechts","24","","","object","f","120","true"
"null","<div style=""font-size:60px;"">+</div>","null","html-keyboard-response","278","204436","0.0-6.0-0.136","SORE","3","f","rechts","24","","fixation","","","",""
"789","img/0_210.png","70","image-keyboard-response","279","205225","0.0-6.0-1.136","SORE","3","f","rechts","24","","","object","f","0","true"
"null","<div style=""font-size:60px;"">+</div>","null","html-keyboard-response","280","205727","0.0-6.0-0.137","SORE","3","f","rechts","24","","fixation","","","",""
"920","img/150_270.png","74","image-keyboard-response","281","206647","0.0-6.0-1.137","SORE","3","f","rechts","24","","","object","j","150","true"
"null","<div style=""font-size:60px;"">+</div>","null","html-keyboard-response","282","206999","0.0-6.0-0.138","SORE","3","f","rechts","24","","fixation","","","",""
"845","img/0_30.png","74","image-keyboard-response","283","207845","0.0-6.0-1.138","SORE","3","f","rechts","24","","","object","j","0","true"
"null","<div style=""font-size:60px;"">+</div>","null","html-keyboard-response","284","208147","0.0-6.0-0.139","SORE","3","f","rechts","24","","fixation","","","",""
"1181","img/120_90.png","70","image-keyboard-response","285","209329","0.0-6.0-1.139","SORE","3","f","rechts","24","","","object","f","120","true"
"null","<div style=""font-size:60px;"">+</div>","null","html-keyboard-response","286","209681","0.0-6.0-0.140","SORE","3","f","rechts","24","","fixation","","","",""
"1124","img/30_270.png","70","image-keyboard-response","287","210806","0.0-6.0-1.140","SORE","3","f","rechts","24","","","object","f","30","true"
"null","<div style=""font-size:60px;"">+</div>","null","html-keyboard-response","288","211158","0.0-6.0-0.141","SORE","3","f","rechts","24","","fixation","","","",""
"961","img/0_150.png","74","image-keyboard-response","289","212120","0.0-6.0-1.141","SORE","3","f","rechts","24","","","object","j","0","true"
"null","<div style=""font-size:60px;"">+</div>","null","html-keyboard-response","290","212521","0.0-6.0-0.142","SORE","3","f","rechts","24","","fixation","","","",""
"1076","img/150_120.png","70","image-keyboard-response","291","213598","0.0-6.0-1.142","SORE","3","f","rechts","24","","","object","f","150","true"
"null","<div style=""font-size:60px;"">+</div>","null","html-keyboard-response","292","213949","0.0-6.0-0.143","SORE","3","f","rechts","24","","fixation","","","",""
"861","img/30_300.png","70","image-keyboard-response","293","214812","0.0-6.0-1.143","SORE","3","f","rechts","24","","","object","f","30","true"
"null","<div style=""font-size:60px;"">+</div>","null","html-keyboard-response","294","215163","0.0-6.0-0.144","SORE","3","f","rechts","24","","fixation","","","",""
"1011","img/30_60.png","74","image-keyboard-response","295","216175","0.0-6.0-1.144","SORE","3","f","rechts","24","","","object","j","30","true"
"null","<div style=""font-size:60px;"">+</div>","null","html-keyboard-response","296","216476","0.0-6.0-0.145","SORE","3","f","rechts","24","","fixation","","","",""
"737","img/90_30.png","70","image-keyboard-response","297","217214","0.0-6.0-1.145","SORE","3","f","rechts","24","","","object","f","90","true"
"null","<div style=""font-size:60px;"">+</div>","null","html-keyboard-response","298","217616","0.0-6.0-0.146","SORE","3","f","rechts","24","","fixation","","","",""
"927","img/150_240.png","74","image-keyboard-response","299","218543","0.0-6.0-1.146","SORE","3","f","rechts","24","","","object","j","150","true"
"null","<div style=""font-size:60px;"">+</div>","null","html-keyboard-response","300","218995","0.0-6.0-0.147","SORE","3","f","rechts","24","","fixation","","","",""
"779","img/0_60.png","74","image-keyboard-response","301","219774","0.0-6.0-1.147","SORE","3","f","rechts","24","","","object","j","0","true"
"null","<div style=""font-size:60px;"">+</div>","null","html-keyboard-response","302","220226","0.0-6.0-0.148","SORE","3","f","rechts","24","","fixation","","","",""
"867","img/90_180.png","70","image-keyboard-response","303","221093","0.0-6.0-1.148","SORE","3","f","rechts","24","","","object","f","90","true"
"null","<div style=""font-size:60px;"">+</div>","null","html-keyboard-response","304","221544","0.0-6.0-0.149","SORE","3","f","rechts","24","","fixation","","","",""
"806","img/30_120.png","74","image-keyboard-response","305","222351","0.0-6.0-1.149","SORE","3","f","rechts","24","","","object","j","30","true"
"null","<div style=""font-size:60px;"">+</div>","null","html-keyboard-response","306","222803","0.0-6.0-0.150","SORE","3","f","rechts","24","","fixation","","","",""
"841","img/L90_180.png","74","image-keyboard-response","307","223644","0.0-6.0-1.150","SORE","3","f","rechts","24","","","object","j","90","true"
"null","<div style=""font-size:60px;"">+</div>","null","html-keyboard-response","308","224096","0.0-6.0-0.151","SORE","3","f","rechts","24","","fixation","","","",""
"773","img/30_180.png","70","image-keyboard-response","309","224870","0.0-6.0-1.151","SORE","3","f","rechts","24","","","object","f","30","true"
"null","<div style=""font-size:60px;"">+</div>","null","html-keyboard-response","310","225321","0.0-6.0-0.152","SORE","3","f","rechts","24","","fixation","","","",""
"706","img/150_300.png","74","image-keyboard-response","311","226029","0.0-6.0-1.152","SORE","3","f","rechts","24","","","object","j","150","true"
"null","<div style=""font-size:60px;"">+</div>","null","html-keyboard-response","312","226479","0.0-6.0-0.153","SORE","3","f","rechts","24","","fixation","","","",""
"865","img/0_270.png","70","image-keyboard-response","313","227345","0.0-6.0-1.153","SORE","3","f","rechts","24","","","object","f","0","true"
"null","<div style=""font-size:60px;"">+</div>","null","html-keyboard-response","314","227646","0.0-6.0-0.154","SORE","3","f","rechts","24","","fixation","","","",""
"1811","img/120_210.png","74","image-keyboard-response","315","229458","0.0-6.0-1.154","SORE","3","f","rechts","24","","","object","f","120","false"
"null","<div style=""font-size:60px;"">+</div>","null","html-keyboard-response","316","229759","0.0-6.0-0.155","SORE","3","f","rechts","24","","fixation","","","",""
"759","img/0_240.png","70","image-keyboard-response","317","230519","0.0-6.0-1.155","SORE","3","f","rechts","24","","","object","f","0","true"
"null","<div style=""font-size:60px;"">+</div>","null","html-keyboard-response","318","231021","0.0-6.0-0.156","SORE","3","f","rechts","24","","fixation","","","",""
"802","img/30_240.png","70","image-keyboard-response","319","231824","0.0-6.0-1.156","SORE","3","f","rechts","24","","","object","f","30","true"
"null","<div style=""font-size:60px;"">+</div>","null","html-keyboard-response","320","232275","0.0-6.0-0.157","SORE","3","f","rechts","24","","fixation","","","",""
"824","img/90_120.png","74","image-keyboard-response","321","233100","0.0-6.0-1.157","SORE","3","f","rechts","24","","","object","j","90","true"
"null","<div style=""font-size:60px;"">+</div>","null","html-keyboard-response","322","233602","0.0-6.0-0.158","SORE","3","f","rechts","24","","fixation","","","",""
"892","img/90_30.png","70","image-keyboard-response","323","234495","0.0-6.0-1.158","SORE","3","f","rechts","24","","","object","f","90","true"
"null","<div style=""font-size:60px;"">+</div>","null","html-keyboard-response","324","234846","0.0-6.0-0.159","SORE","3","f","rechts","24","","fixation","","","",""
"790","img/90_60.png","70","image-keyboard-response","325","235638","0.0-6.0-1.159","SORE","3","f","rechts","24","","","object","f","90","true"
"null","<div style=""font-size:60px;"">+</div>","null","html-keyboard-response","326","236039","0.0-6.0-0.160","SORE","3","f","rechts","24","","fixation","","","",""
"772","img/150_270.png","74","image-keyboard-response","327","236813","0.0-6.0-1.160","SORE","3","f","rechts","24","","","object","j","150","true"
"null","<div style=""font-size:60px;"">+</div>","null","html-keyboard-response","328","237114","0.0-6.0-0.161","SORE","3","f","rechts","24","","fixation","","","",""
"850","img/60_30.png","70","image-keyboard-response","329","237966","0.0-6.0-1.161","SORE","3","f","rechts","24","","","object","f","60","true"
"null","<div style=""font-size:60px;"">+</div>","null","html-keyboard-response","330","238367","0.0-6.0-0.162","SORE","3","f","rechts","24","","fixation","","","",""
"865","img/120_330.png","74","image-keyboard-response","331","239234","0.0-6.0-1.162","SORE","3","f","rechts","24","","","object","j","120","true"
"null","<div style=""font-size:60px;"">+</div>","null","html-keyboard-response","332","239735","0.0-6.0-0.163","SORE","3","f","rechts","24","","fixation","","","",""
"1914","img/L30_180.png","70","image-keyboard-response","333","241651","0.0-6.0-1.163","SORE","3","f","rechts","24","","","object","j","30","false"
"null","<div style=""font-size:60px;"">+</div>","null","html-keyboard-response","334","242152","0.0-6.0-0.164","SORE","3","f","rechts","24","","fixation","","","",""
"2159","img/0_30.png","74","image-keyboard-response","335","244313","0.0-6.0-1.164","SORE","3","f","rechts","24","","","object","j","0","true"
"null","<div style=""font-size:60px;"">+</div>","null","html-keyboard-response","336","244814","0.0-6.0-0.165","SORE","3","f","rechts","24","","fixation","","","",""
"1392","img/90_210.png","70","image-keyboard-response","337","246207","0.0-6.0-1.165","SORE","3","f","rechts","24","","","object","f","90","true"
"null","<div style=""font-size:60px;"">+</div>","null","html-keyboard-response","338","246558","0.0-6.0-0.166","SORE","3","f","rechts","24","","fixation","","","",""
"916","img/60_330.png","74","image-keyboard-response","339","247474","0.0-6.0-1.166","SORE","3","f","rechts","24","","","object","j","60","true"
"null","<div style=""font-size:60px;"">+</div>","null","html-keyboard-response","340","247875","0.0-6.0-0.167","SORE","3","f","rechts","24","","fixation","","","",""
"1058","img/60_270.png","70","image-keyboard-response","341","248934","0.0-6.0-1.167","SORE","3","f","rechts","24","","","object","f","60","true"
"null","<div style=""font-size:60px;"">+</div>","null","html-keyboard-response","342","249335","0.0-6.0-0.168","SORE","3","f","rechts","24","","fixation","","","",""
"802","img/150_60.png","70","image-keyboard-response","343","250138","0.0-6.0-1.168","SORE","3","f","rechts","24","","","object","f","150","true"
"null","<div style=""font-size:60px;"">+</div>","null","html-keyboard-response","344","250489","0.0-6.0-0.169","SORE","3","f","rechts","24","","fixation","","","",""
"821","img/30_120.png","74","image-keyboard-response","345","251311","0.0-6.0-1.169","SORE","3","f","rechts","24","","","object","j","30","true"
"null","<div style=""font-size:60px;"">+</div>","null","html-keyboard-response","346","251663","0.0-6.0-0.170","SORE","3","f","rechts","24","","fixation","","","",""
"866","img/120_210.png","70","image-keyboard-response","347","252529","0.0-6.0-1.170","SORE","3","f","rechts","24","","","object","f","120","true"
"null","<div style=""font-size:60px;"">+</div>","null","html-keyboard-response","348","252830","0.0-6.0-0.171","SORE","3","f","rechts","24","","fixation","","","",""
"812","img/0_240.png","70","image-keyboard-response","349","253643","0.0-6.0-1.171","SORE","3","f","rechts","24","","","object","f","0","true"
"null","<div style=""font-size:60px;"">+</div>","null","html-keyboard-response","350","254045","0.0-6.0-0.172","SORE","3","f","rechts","24","","fixation","","","",""
"693","img/30_90.png","74","image-keyboard-response","351","254738","0.0-6.0-1.172","SORE","3","f","rechts","24","","","object","j","30","true"
"null","<div style=""font-size:60px;"">+</div>","null","html-keyboard-response","352","255090","0.0-6.0-0.173","SORE","3","f","rechts","24","","fixation","","","",""
"773","img/60_180.png","70","image-keyboard-response","353","255864","0.0-6.0-1.173","SORE","3","f","rechts","24","","","object","f","60","true"
"null","<div style=""font-size:60px;"">+</div>","null","html-keyboard-response","354","256366","0.0-6.0-0.174","SORE","3","f","rechts","24","","fixation","","","",""
"863","img/0_150.png","74","image-keyboard-response","355","257229","0.0-6.0-1.174","SORE","3","f","rechts","24","","","object","j","0","true"
"null","<div style=""font-size:60px;"">+</div>","null","html-keyboard-response","356","257730","0.0-6.0-0.175","SORE","3","f","rechts","24","","fixation","","","",""
"848","img/90_180.png","70","image-keyboard-response","357","258579","0.0-6.0-1.175","SORE","3","f","rechts","24","","","object","f","90","true"
"null","<div style=""font-size:60px;"">+</div>","null","html-keyboard-response","358","259080","0.0-6.0-0.176","SORE","3","f","rechts","24","","fixation","","","",""
"699","img/0_60.png","74","image-keyboard-response","359","259779","0.0-6.0-1.176","SORE","3","f","rechts","24","","","object","j","0","true"
"null","<div style=""font-size:60px;"">+</div>","null","html-keyboard-response","360","260280","0.0-6.0-0.177","SORE","3","f","rechts","24","","fixation","","","",""
"714","img/0_120.png","74","image-keyboard-response","361","260995","0.0-6.0-1.177","SORE","3","f","rechts","24","","","object","j","0","true"
"null","<div style=""font-size:60px;"">+</div>","null","html-keyboard-response","362","261297","0.0-6.0-0.178","SORE","3","f","rechts","24","","fixation","","","",""
"834","img/90_300.png","74","image-keyboard-response","363","262132","0.0-6.0-1.178","SORE","3","f","rechts","24","","","object","j","90","true"
"null","<div style=""font-size:60px;"">+</div>","null","html-keyboard-response","364","262584","0.0-6.0-0.179","SORE","3","f","rechts","24","","fixation","","","",""
"701","img/0_300.png","70","image-keyboard-response","365","263286","0.0-6.0-1.179","SORE","3","f","rechts","24","","","object","f","0","true"
"null","<div style=""font-size:60px;"">+</div>","null","html-keyboard-response","366","263638","0.0-6.0-0.180","SORE","3","f","rechts","24","","fixation","","","",""
"946","img/120_180.png","70","image-keyboard-response","367","264584","0.0-6.0-1.180","SORE","3","f","rechts","24","","","object","f","120","true"
"null","<div style=""font-size:60px;"">+</div>","null","html-keyboard-response","368","265036","0.0-6.0-0.181","SORE","3","f","rechts","24","","fixation","","","",""
"743","img/150_300.png","74","image-keyboard-response","369","265779","0.0-6.0-1.181","SORE","3","f","rechts","24","","","object","j","150","true"
"null","<div style=""font-size:60px;"">+</div>","null","html-keyboard-response","370","266281","0.0-6.0-0.182","SORE","3","f","rechts","24","","fixation","","","",""
"739","img/30_180.png","70","image-keyboard-response","371","267020","0.0-6.0-1.182","SORE","3","f","rechts","24","","","object","f","30","true"
"null","<div style=""font-size:60px;"">+</div>","null","html-keyboard-response","372","267321","0.0-6.0-0.183","SORE","3","f","rechts","24","","fixation","","","",""
"951","img/0_330.png","70","image-keyboard-response","373","268273","0.0-6.0-1.183","SORE","3","f","rechts","24","","","object","f","0","true"
"null","<div style=""font-size:60px;"">+</div>","null","html-keyboard-response","374","268625","0.0-6.0-0.184","SORE","3","f","rechts","24","","fixation","","","",""
"843","img/120_90.png","70","image-keyboard-response","375","269468","0.0-6.0-1.184","SORE","3","f","rechts","24","","","object","f","120","true"
"null","<div style=""font-size:60px;"">+</div>","null","html-keyboard-response","376","269969","0.0-6.0-0.185","SORE","3","f","rechts","24","","fixation","","","",""
"962","img/90_150.png","74","image-keyboard-response","377","270932","0.0-6.0-1.185","SORE","3","f","rechts","24","","","object","j","90","true"
"null","<div style=""font-size:60px;"">+</div>","null","html-keyboard-response","378","271283","0.0-6.0-0.186","SORE","3","f","rechts","24","","fixation","","","",""
"892","img/0_210.png","70","image-keyboard-response","379","272176","0.0-6.0-1.186","SORE","3","f","rechts","24","","","object","f","0","true"
"null","<div style=""font-size:60px;"">+</div>","null","html-keyboard-response","380","272578","0.0-6.0-0.187","SORE","3","f","rechts","24","","fixation","","","",""
"776","img/60_150.png","74","image-keyboard-response","381","273354","0.0-6.0-1.187","SORE","3","f","rechts","24","","","object","j","60","true"
"null","<div style=""font-size:60px;"">+</div>","null","html-keyboard-response","382","273755","0.0-6.0-0.188","SORE","3","f","rechts","24","","fixation","","","",""
"784","img/60_210.png","70","image-keyboard-response","383","274539","0.0-6.0-1.188","SORE","3","f","rechts","24","","","object","f","60","true"
"null","<div style=""font-size:60px;"">+</div>","null","html-keyboard-response","384","274890","0.0-6.0-0.189","SORE","3","f","rechts","24","","fixation","","","",""
"975","img/30_60.png","70","image-keyboard-response","385","275866","0.0-6.0-1.189","SORE","3","f","rechts","24","","","object","j","30","false"
"null","<div style=""font-size:60px;"">+</div>","null","html-keyboard-response","386","276217","0.0-6.0-0.190","SORE","3","f","rechts","24","","fixation","","","",""
"1074","img/150_180.png","70","image-keyboard-response","387","277292","0.0-6.0-1.190","SORE","3","f","rechts","24","","","object","f","150","true"
"null","<div style=""font-size:60px;"">+</div>","null","html-keyboard-response","388","277694","0.0-6.0-0.191","SORE","3","f","rechts","24","","fixation","","","",""
"793","img/120_30.png","70","image-keyboard-response","389","278488","0.0-6.0-1.191","SORE","3","f","rechts","24","","","object","f","120","true"
"null","<div style=""font-size:60px;"">+</div>","null","html-keyboard-response","390","278940","0.0-6.0-0.192","SORE","3","f","rechts","24","","fixation","","","",""
"734","img/0_90.png","74","image-keyboard-response","391","279675","0.0-6.0-1.192","SORE","3","f","rechts","24","","","object","j","0","true"
"null","<div style=""font-size:60px;"">+</div>","null","html-keyboard-response","392","280076","0.0-6.0-0.193","SORE","3","f","rechts","24","","fixation","","","",""
"746","img/150_90.png","70","image-keyboard-response","393","280824","0.0-6.0-1.193","SORE","3","f","rechts","24","","","object","f","150","true"
"null","<div style=""font-size:60px;"">+</div>","null","html-keyboard-response","394","281174","0.0-6.0-0.194","SORE","3","f","rechts","24","","fixation","","","",""
"744","img/0_270.png","70","image-keyboard-response","395","281919","0.0-6.0-1.194","SORE","3","f","rechts","24","","","object","f","0","true"
"null","<div style=""font-size:60px;"">+</div>","null","html-keyboard-response","396","282321","0.0-6.0-0.195","SORE","3","f","rechts","24","","fixation","","","",""
"708","img/150_240.png","74","image-keyboard-response","397","283030","0.0-6.0-1.195","SORE","3","f","rechts","24","","","object","j","150","true"
"null","<div style=""font-size:60px;"">+</div>","null","html-keyboard-response","398","283531","0.0-6.0-0.196","SORE","3","f","rechts","24","","fixation","","","",""
"1207","img/L120_180.png","74","image-keyboard-response","399","284740","0.0-6.0-1.196","SORE","3","f","rechts","24","","","object","j","120","true"
"null","<div style=""font-size:60px;"">+</div>","null","html-keyboard-response","400","285041","0.0-6.0-0.197","SORE","3","f","rechts","24","","fixation","","","",""
"1079","img/30_270.png","70","image-keyboard-response","401","286120","0.0-6.0-1.197","SORE","3","f","rechts","24","","","object","f","30","true"
"null","<div style=""font-size:60px;"">+</div>","null","html-keyboard-response","402","286422","0.0-6.0-0.198","SORE","3","f","rechts","24","","fixation","","","",""
"911","img/L90_180.png","74","image-keyboard-response","403","287333","0.0-6.0-1.198","SORE","3","f","rechts","24","","","object","j","90","true"
"null","<div style=""font-size:60px;"">+</div>","null","html-keyboard-response","404","287685","0.0-6.0-0.199","SORE","3","f","rechts","24","","fixation","","","",""
"1192","img/60_90.png","74","image-keyboard-response","405","288879","0.0-6.0-1.199","SORE","3","f","rechts","24","","","object","j","60","true"
"null","<div style=""font-size:60px;"">+</div>","null","html-keyboard-response","406","289330","0.0-6.0-0.200","SORE","3","f","rechts","24","","fixation","","","",""
"907","img/90_330.png","74","image-keyboard-response","407","290238","0.0-6.0-1.200","SORE","3","f","rechts","24","","","object","j","90","true"
"null","<div style=""font-size:60px;"">+</div>","null","html-keyboard-response","408","290639","0.0-6.0-0.201","SORE","3","f","rechts","24","","fixation","","","",""
"890","img/30_300.png","70","image-keyboard-response","409","291530","0.0-6.0-1.201","SORE","3","f","rechts","24","","","object","f","30","true"
"null","<div style=""font-size:60px;"">+</div>","null","html-keyboard-response","410","291832","0.0-6.0-0.202","SORE","3","f","rechts","24","","fixation","","","",""
"969","img/150_120.png","74","image-keyboard-response","411","292802","0.0-6.0-1.202","SORE","3","f","rechts","24","","","object","f","150","false"
"null","<div style=""font-size:60px;"">+</div>","null","html-keyboard-response","412","293254","0.0-6.0-0.203","SORE","3","f","rechts","24","","fixation","","","",""
"1580","img/L150_180.png","74","image-keyboard-response","413","294835","0.0-6.0-1.203","SORE","3","f","rechts","24","","","object","j","150","true"
"null","<div style=""font-size:60px;"">+</div>","null","html-keyboard-response","414","295237","0.0-6.0-0.204","SORE","3","f","rechts","24","","fixation","","","",""
"1835","img/120_270.png","74","image-keyboard-response","415","297073","0.0-6.0-1.204","SORE","3","f","rechts","24","","","object","j","120","true"
"null","<div style=""font-size:60px;"">+</div>","null","html-keyboard-response","416","297575","0.0-6.0-0.205","SORE","3","f","rechts","24","","fixation","","","",""
"1324","img/L60_180.png","74","image-keyboard-response","417","298899","0.0-6.0-1.205","SORE","3","f","rechts","24","","","object","j","60","true"
"null","<div style=""font-size:60px;"">+</div>","null","html-keyboard-response","418","299251","0.0-6.0-0.206","SORE","3","f","rechts","24","","fixation","","","",""
"926","img/90_240.png","70","image-keyboard-response","419","300178","0.0-6.0-1.206","SORE","3","f","rechts","24","","","object","f","90","true"
"null","<div style=""font-size:60px;"">+</div>","null","html-keyboard-response","420","300630","0.0-6.0-0.207","SORE","3","f","rechts","24","","fixation","","","",""
"987","img/120_150.png","74","image-keyboard-response","421","301618","0.0-6.0-1.207","SORE","3","f","rechts","24","","","object","j","120","true"
"8871","<p>Du hast in 90% der Versuche korrekt entschieden.</p><p>Deine durchschnittliche Reaktionszeit war  948ms.</p><p>Dr&uuml;cke eine beliebige Taste, um die Session zu beenden. Vielen Dank!</p>","74","html-keyboard-response","422","310490","0.0-7.0","SORE","3","f","rechts","24","","","","","",""
