"rt","stimulus","key_press","trial_type","trial_index","time_elapsed","internal_node_id","subject","session","sex","handedness","age","responses","test_part","condition","correct_response","angle","correct"
"911","<p>Mental Rotation Experiment.</p> <p>Dr&uuml;cke eine beliebige Taste, um anzufangen.</p>","70","html-keyboard-response","0","913","0.0-0.0","SORE","2","f","rechts","24","","","","","",""
"3509","","","survey-text","1","4425","0.0-1.0","SORE","2","f","rechts","24","{""Q0"":""SORE""}","","","","",""
"1663","","","survey-text","2","6089","0.0-2.0","SORE","2","f","rechts","24","{""Q0"":""2""}","","","","",""
"2752","","","survey-multi-choice","3","8843","0.0-3.0","SORE","2","f","rechts","24","{""Q0"":""f"",""Q1"":""rechts""}","","","","",""
"11213","","","survey-text","4","20057","0.0-4.0","SORE","2","f","rechts","24","{""Q0"":""24""}","","","","",""
"88621","<p> Stell dir vor, dass du vor einem runden Tisch stehst, auf dem sich ein blauer Ball am Tischrand befindet. Entlang des Tischrands ist jeweils ein verschieden langer Pfeil. Nun bewegst du dich entlang dieses Pfeils bis an seine Spitze. Wenn du am Ende des Pfeils angekommen bist, schau zur Tischmitte. </p> <img src='img/90_180.png'></img> <br> <p>Entscheide dann, ob der Ball von deiner neuen (vorgestellten) Position links oder rechts von dir liegt.</p> <p>Dr&uuml;cke die <strong>'f'</strong>-Taste f&uuml;r links, die <strong>'j'</strong>-Taste f&uuml;r rechts.</p> <br><p> Das Bild wird jeweils 1 Sekunde lang pr&auml;sentiert. Du hast 3 Sekunden Zeit eine Entscheidung zu treffen.</p>","32","html-keyboard-response","5","108681","0.0-5.0","SORE","2","f","rechts","24","","","","","",""
"null","<div style=""font-size:60px;"">+</div>","null","html-keyboard-response","6","110184","0.0-6.0-0.0","SORE","2","f","rechts","24","","fixation","","","",""
"957","img/0_300.png","70","image-keyboard-response","7","111143","0.0-6.0-1.0","SORE","2","f","rechts","24","","","self","f","0","true"
"null","<div style=""font-size:60px;"">+</div>","null","html-keyboard-response","8","111595","0.0-6.0-0.1","SORE","2","f","rechts","24","","fixation","","","",""
"852","img/L30_180.png","70","image-keyboard-response","9","112449","0.0-6.0-1.1","SORE","2","f","rechts","24","","","self","f","30","true"
"null","<div style=""font-size:60px;"">+</div>","null","html-keyboard-response","10","112799","0.0-6.0-0.2","SORE","2","f","rechts","24","","fixation","","","",""
"885","img/0_60.png","74","image-keyboard-response","11","113685","0.0-6.0-1.2","SORE","2","f","rechts","24","","","self","j","0","true"
"null","<div style=""font-size:60px;"">+</div>","null","html-keyboard-response","12","114087","0.0-6.0-0.3","SORE","2","f","rechts","24","","fixation","","","",""
"832","img/0_270.png","70","image-keyboard-response","13","114920","0.0-6.0-1.3","SORE","2","f","rechts","24","","","self","f","0","true"
"null","<div style=""font-size:60px;"">+</div>","null","html-keyboard-response","14","115371","0.0-6.0-0.4","SORE","2","f","rechts","24","","fixation","","","",""
"1559","img/L150_180.png","70","image-keyboard-response","15","116932","0.0-6.0-1.4","SORE","2","f","rechts","24","","","self","f","150","true"
"null","<div style=""font-size:60px;"">+</div>","null","html-keyboard-response","16","117383","0.0-6.0-0.5","SORE","2","f","rechts","24","","fixation","","","",""
"884","img/L60_180.png","70","image-keyboard-response","17","118269","0.0-6.0-1.5","SORE","2","f","rechts","24","","","self","f","60","true"
"null","<div style=""font-size:60px;"">+</div>","null","html-keyboard-response","18","118670","0.0-6.0-0.6","SORE","2","f","rechts","24","","fixation","","","",""
"1139","img/60_30.png","74","image-keyboard-response","19","119810","0.0-6.0-1.6","SORE","2","f","rechts","24","","","self","j","60","true"
"null","<div style=""font-size:60px;"">+</div>","null","html-keyboard-response","20","120262","0.0-6.0-0.7","SORE","2","f","rechts","24","","fixation","","","",""
"1278","img/120_330.png","70","image-keyboard-response","21","121541","0.0-6.0-1.7","SORE","2","f","rechts","24","","","self","f","120","true"
"null","<div style=""font-size:60px;"">+</div>","null","html-keyboard-response","22","121843","0.0-6.0-0.8","SORE","2","f","rechts","24","","fixation","","","",""
"1273","img/L120_180.png","70","image-keyboard-response","23","123117","0.0-6.0-1.8","SORE","2","f","rechts","24","","","self","f","120","true"
"null","<div style=""font-size:60px;"">+</div>","null","html-keyboard-response","24","123419","0.0-6.0-0.9","SORE","2","f","rechts","24","","fixation","","","",""
"1402","img/150_120.png","70","image-keyboard-response","25","124822","0.0-6.0-1.9","SORE","2","f","rechts","24","","","self","f","150","true"
"null","<div style=""font-size:60px;"">+</div>","null","html-keyboard-response","26","125274","0.0-6.0-0.10","SORE","2","f","rechts","24","","fixation","","","",""
"1239","img/90_60.png","74","image-keyboard-response","27","126514","0.0-6.0-1.10","SORE","2","f","rechts","24","","","self","j","90","true"
"null","<div style=""font-size:60px;"">+</div>","null","html-keyboard-response","28","126815","0.0-6.0-0.11","SORE","2","f","rechts","24","","fixation","","","",""
"978","img/150_180.png","74","image-keyboard-response","29","127794","0.0-6.0-1.11","SORE","2","f","rechts","24","","","self","j","150","true"
"null","<div style=""font-size:60px;"">+</div>","null","html-keyboard-response","30","128296","0.0-6.0-0.12","SORE","2","f","rechts","24","","fixation","","","",""
"1077","img/60_150.png","70","image-keyboard-response","31","129374","0.0-6.0-1.12","SORE","2","f","rechts","24","","","self","f","60","true"
"null","<div style=""font-size:60px;"">+</div>","null","html-keyboard-response","32","129875","0.0-6.0-0.13","SORE","2","f","rechts","24","","fixation","","","",""
"947","img/90_330.png","70","image-keyboard-response","33","130824","0.0-6.0-1.13","SORE","2","f","rechts","24","","","self","f","90","true"
"null","<div style=""font-size:60px;"">+</div>","null","html-keyboard-response","34","131326","0.0-6.0-0.14","SORE","2","f","rechts","24","","fixation","","","",""
"1952","img/120_90.png","70","image-keyboard-response","35","133279","0.0-6.0-1.14","SORE","2","f","rechts","24","","","self","f","120","true"
"null","<div style=""font-size:60px;"">+</div>","null","html-keyboard-response","36","133581","0.0-6.0-0.15","SORE","2","f","rechts","24","","fixation","","","",""
"1237","img/30_180.png","74","image-keyboard-response","37","134819","0.0-6.0-1.15","SORE","2","f","rechts","24","","","self","j","30","true"
"null","<div style=""font-size:60px;"">+</div>","null","html-keyboard-response","38","135321","0.0-6.0-0.16","SORE","2","f","rechts","24","","fixation","","","",""
"944","img/0_30.png","74","image-keyboard-response","39","136266","0.0-6.0-1.16","SORE","2","f","rechts","24","","","self","j","0","true"
"null","<div style=""font-size:60px;"">+</div>","null","html-keyboard-response","40","136568","0.0-6.0-0.17","SORE","2","f","rechts","24","","fixation","","","",""
"1556","img/90_300.png","70","image-keyboard-response","41","138125","0.0-6.0-1.17","SORE","2","f","rechts","24","","","self","f","90","true"
"null","<div style=""font-size:60px;"">+</div>","null","html-keyboard-response","42","138577","0.0-6.0-0.18","SORE","2","f","rechts","24","","fixation","","","",""
"1792","img/150_90.png","70","image-keyboard-response","43","140370","0.0-6.0-1.18","SORE","2","f","rechts","24","","","self","f","150","true"
"null","<div style=""font-size:60px;"">+</div>","null","html-keyboard-response","44","140772","0.0-6.0-0.19","SORE","2","f","rechts","24","","fixation","","","",""
"1204","img/L90_180.png","70","image-keyboard-response","45","141977","0.0-6.0-1.19","SORE","2","f","rechts","24","","","self","f","90","true"
"null","<div style=""font-size:60px;"">+</div>","null","html-keyboard-response","46","142329","0.0-6.0-0.20","SORE","2","f","rechts","24","","fixation","","","",""
"1368","img/60_90.png","70","image-keyboard-response","47","143699","0.0-6.0-1.20","SORE","2","f","rechts","24","","","self","j","60","false"
"null","<div style=""font-size:60px;"">+</div>","null","html-keyboard-response","48","144150","0.0-6.0-0.21","SORE","2","f","rechts","24","","fixation","","","",""
"768","img/0_330.png","70","image-keyboard-response","49","144920","0.0-6.0-1.21","SORE","2","f","rechts","24","","","self","f","0","true"
"null","<div style=""font-size:60px;"">+</div>","null","html-keyboard-response","50","145422","0.0-6.0-0.22","SORE","2","f","rechts","24","","fixation","","","",""
"970","img/90_120.png","70","image-keyboard-response","51","146393","0.0-6.0-1.22","SORE","2","f","rechts","24","","","self","f","90","true"
"null","<div style=""font-size:60px;"">+</div>","null","html-keyboard-response","52","146695","0.0-6.0-0.23","SORE","2","f","rechts","24","","fixation","","","",""
"1186","img/120_180.png","74","image-keyboard-response","53","147882","0.0-6.0-1.23","SORE","2","f","rechts","24","","","self","j","120","true"
"null","<div style=""font-size:60px;"">+</div>","null","html-keyboard-response","54","148182","0.0-6.0-0.24","SORE","2","f","rechts","24","","fixation","","","",""
"898","img/120_210.png","74","image-keyboard-response","55","149081","0.0-6.0-1.24","SORE","2","f","rechts","24","","","self","j","120","true"
"null","<div style=""font-size:60px;"">+</div>","null","html-keyboard-response","56","149383","0.0-6.0-0.25","SORE","2","f","rechts","24","","fixation","","","",""
"1878","img/30_120.png","74","image-keyboard-response","57","151262","0.0-6.0-1.25","SORE","2","f","rechts","24","","","self","j","30","true"
"null","<div style=""font-size:60px;"">+</div>","null","html-keyboard-response","58","151563","0.0-6.0-0.26","SORE","2","f","rechts","24","","fixation","","","",""
"1775","img/0_120.png","74","image-keyboard-response","59","153340","0.0-6.0-1.26","SORE","2","f","rechts","24","","","self","j","0","true"
"null","<div style=""font-size:60px;"">+</div>","null","html-keyboard-response","60","153791","0.0-6.0-0.27","SORE","2","f","rechts","24","","fixation","","","",""
"1064","img/60_180.png","74","image-keyboard-response","61","154856","0.0-6.0-1.27","SORE","2","f","rechts","24","","","self","j","60","true"
"null","<div style=""font-size:60px;"">+</div>","null","html-keyboard-response","62","155207","0.0-6.0-0.28","SORE","2","f","rechts","24","","fixation","","","",""
"1162","img/60_270.png","74","image-keyboard-response","63","156371","0.0-6.0-1.28","SORE","2","f","rechts","24","","","self","f","60","false"
"null","<div style=""font-size:60px;"">+</div>","null","html-keyboard-response","64","156672","0.0-6.0-0.29","SORE","2","f","rechts","24","","fixation","","","",""
"1072","img/150_60.png","70","image-keyboard-response","65","157745","0.0-6.0-1.29","SORE","2","f","rechts","24","","","self","f","150","true"
"null","<div style=""font-size:60px;"">+</div>","null","html-keyboard-response","66","158147","0.0-6.0-0.30","SORE","2","f","rechts","24","","fixation","","","",""
"1685","img/30_300.png","70","image-keyboard-response","67","159833","0.0-6.0-1.30","SORE","2","f","rechts","24","","","self","f","30","true"
"null","<div style=""font-size:60px;"">+</div>","null","html-keyboard-response","68","160134","0.0-6.0-0.31","SORE","2","f","rechts","24","","fixation","","","",""
"1064","img/60_330.png","70","image-keyboard-response","69","161200","0.0-6.0-1.31","SORE","2","f","rechts","24","","","self","f","60","true"
"null","<div style=""font-size:60px;"">+</div>","null","html-keyboard-response","70","161702","0.0-6.0-0.32","SORE","2","f","rechts","24","","fixation","","","",""
"1004","img/90_240.png","74","image-keyboard-response","71","162707","0.0-6.0-1.32","SORE","2","f","rechts","24","","","self","j","90","true"
"null","<div style=""font-size:60px;"">+</div>","null","html-keyboard-response","72","163009","0.0-6.0-0.33","SORE","2","f","rechts","24","","fixation","","","",""
"923","img/0_90.png","74","image-keyboard-response","73","163933","0.0-6.0-1.33","SORE","2","f","rechts","24","","","self","j","0","true"
"null","<div style=""font-size:60px;"">+</div>","null","html-keyboard-response","74","164385","0.0-6.0-0.34","SORE","2","f","rechts","24","","fixation","","","",""
"956","img/30_240.png","74","image-keyboard-response","75","165343","0.0-6.0-1.34","SORE","2","f","rechts","24","","","self","f","30","false"
"null","<div style=""font-size:60px;"">+</div>","null","html-keyboard-response","76","165694","0.0-6.0-0.35","SORE","2","f","rechts","24","","fixation","","","",""
"992","img/0_210.png","70","image-keyboard-response","77","166688","0.0-6.0-1.35","SORE","2","f","rechts","24","","","self","f","0","true"
"null","<div style=""font-size:60px;"">+</div>","null","html-keyboard-response","78","167090","0.0-6.0-0.36","SORE","2","f","rechts","24","","fixation","","","",""
"910","img/120_270.png","74","image-keyboard-response","79","168002","0.0-6.0-1.36","SORE","2","f","rechts","24","","","self","j","120","true"
"null","<div style=""font-size:60px;"">+</div>","null","html-keyboard-response","80","168353","0.0-6.0-0.37","SORE","2","f","rechts","24","","fixation","","","",""
"759","img/0_240.png","70","image-keyboard-response","81","169114","0.0-6.0-1.37","SORE","2","f","rechts","24","","","self","f","0","true"
"null","<div style=""font-size:60px;"">+</div>","null","html-keyboard-response","82","169465","0.0-6.0-0.38","SORE","2","f","rechts","24","","fixation","","","",""
"1098","img/30_60.png","74","image-keyboard-response","83","170566","0.0-6.0-1.38","SORE","2","f","rechts","24","","","self","j","30","true"
"null","<div style=""font-size:60px;"">+</div>","null","html-keyboard-response","84","171066","0.0-6.0-0.39","SORE","2","f","rechts","24","","fixation","","","",""
"1040","img/60_210.png","74","image-keyboard-response","85","172109","0.0-6.0-1.39","SORE","2","f","rechts","24","","","self","j","60","true"
"null","<div style=""font-size:60px;"">+</div>","null","html-keyboard-response","86","172460","0.0-6.0-0.40","SORE","2","f","rechts","24","","fixation","","","",""
"1636","img/120_150.png","70","image-keyboard-response","87","174097","0.0-6.0-1.40","SORE","2","f","rechts","24","","","self","f","120","true"
"null","<div style=""font-size:60px;"">+</div>","null","html-keyboard-response","88","174549","0.0-6.0-0.41","SORE","2","f","rechts","24","","fixation","","","",""
"1251","img/150_240.png","74","image-keyboard-response","89","175801","0.0-6.0-1.41","SORE","2","f","rechts","24","","","self","j","150","true"
"null","<div style=""font-size:60px;"">+</div>","null","html-keyboard-response","90","176253","0.0-6.0-0.42","SORE","2","f","rechts","24","","fixation","","","",""
"879","img/0_150.png","74","image-keyboard-response","91","177133","0.0-6.0-1.42","SORE","2","f","rechts","24","","","self","j","0","true"
"null","<div style=""font-size:60px;"">+</div>","null","html-keyboard-response","92","177585","0.0-6.0-0.43","SORE","2","f","rechts","24","","fixation","","","",""
"1757","img/120_30.png","74","image-keyboard-response","93","179343","0.0-6.0-1.43","SORE","2","f","rechts","24","","","self","j","120","true"
"null","<div style=""font-size:60px;"">+</div>","null","html-keyboard-response","94","179695","0.0-6.0-0.44","SORE","2","f","rechts","24","","fixation","","","",""
"1266","img/90_150.png","70","image-keyboard-response","95","180963","0.0-6.0-1.44","SORE","2","f","rechts","24","","","self","f","90","true"
"null","<div style=""font-size:60px;"">+</div>","null","html-keyboard-response","96","181264","0.0-6.0-0.45","SORE","2","f","rechts","24","","fixation","","","",""
"1230","img/90_180.png","74","image-keyboard-response","97","182495","0.0-6.0-1.45","SORE","2","f","rechts","24","","","self","j","90","true"
"null","<div style=""font-size:60px;"">+</div>","null","html-keyboard-response","98","182897","0.0-6.0-0.46","SORE","2","f","rechts","24","","fixation","","","",""
"1187","img/150_270.png","74","image-keyboard-response","99","184085","0.0-6.0-1.46","SORE","2","f","rechts","24","","","self","j","150","true"
"null","<div style=""font-size:60px;"">+</div>","null","html-keyboard-response","100","184487","0.0-6.0-0.47","SORE","2","f","rechts","24","","fixation","","","",""
"1148","img/90_210.png","74","image-keyboard-response","101","185636","0.0-6.0-1.47","SORE","2","f","rechts","24","","","self","j","90","true"
"null","<div style=""font-size:60px;"">+</div>","null","html-keyboard-response","102","185938","0.0-6.0-0.48","SORE","2","f","rechts","24","","fixation","","","",""
"2168","img/30_90.png","74","image-keyboard-response","103","188107","0.0-6.0-1.48","SORE","2","f","rechts","24","","","self","j","30","true"
"null","<div style=""font-size:60px;"">+</div>","null","html-keyboard-response","104","188559","0.0-6.0-0.49","SORE","2","f","rechts","24","","fixation","","","",""
"1387","img/30_270.png","70","image-keyboard-response","105","189947","0.0-6.0-1.49","SORE","2","f","rechts","24","","","self","f","30","true"
"null","<div style=""font-size:60px;"">+</div>","null","html-keyboard-response","106","190249","0.0-6.0-0.50","SORE","2","f","rechts","24","","fixation","","","",""
"1095","img/150_300.png","74","image-keyboard-response","107","191345","0.0-6.0-1.50","SORE","2","f","rechts","24","","","self","j","150","true"
"null","<div style=""font-size:60px;"">+</div>","null","html-keyboard-response","108","191646","0.0-6.0-0.51","SORE","2","f","rechts","24","","fixation","","","",""
"1326","img/90_30.png","74","image-keyboard-response","109","192973","0.0-6.0-1.51","SORE","2","f","rechts","24","","","self","j","90","true"
"null","<div style=""font-size:60px;"">+</div>","null","html-keyboard-response","110","193375","0.0-6.0-0.52","SORE","2","f","rechts","24","","fixation","","","",""
"1075","img/150_240.png","74","image-keyboard-response","111","194452","0.0-6.0-1.52","SORE","2","f","rechts","24","","","self","j","150","true"
"null","<div style=""font-size:60px;"">+</div>","null","html-keyboard-response","112","194853","0.0-6.0-0.53","SORE","2","f","rechts","24","","fixation","","","",""
"1231","img/L120_180.png","70","image-keyboard-response","113","196085","0.0-6.0-1.53","SORE","2","f","rechts","24","","","self","f","120","true"
"null","<div style=""font-size:60px;"">+</div>","null","html-keyboard-response","114","196386","0.0-6.0-0.54","SORE","2","f","rechts","24","","fixation","","","",""
"919","img/0_270.png","70","image-keyboard-response","115","197305","0.0-6.0-1.54","SORE","2","f","rechts","24","","","self","f","0","true"
"null","<div style=""font-size:60px;"">+</div>","null","html-keyboard-response","116","197706","0.0-6.0-0.55","SORE","2","f","rechts","24","","fixation","","","",""
"881","img/0_60.png","74","image-keyboard-response","117","198587","0.0-6.0-1.55","SORE","2","f","rechts","24","","","self","j","0","true"
"null","<div style=""font-size:60px;"">+</div>","null","html-keyboard-response","118","199089","0.0-6.0-0.56","SORE","2","f","rechts","24","","fixation","","","",""
"762","img/0_30.png","74","image-keyboard-response","119","199852","0.0-6.0-1.56","SORE","2","f","rechts","24","","","self","j","0","true"
"null","<div style=""font-size:60px;"">+</div>","null","html-keyboard-response","120","200204","0.0-6.0-0.57","SORE","2","f","rechts","24","","fixation","","","",""
"1005","img/90_180.png","74","image-keyboard-response","121","201209","0.0-6.0-1.57","SORE","2","f","rechts","24","","","self","j","90","true"
"null","<div style=""font-size:60px;"">+</div>","null","html-keyboard-response","122","201611","0.0-6.0-0.58","SORE","2","f","rechts","24","","fixation","","","",""
"1543","img/150_120.png","70","image-keyboard-response","123","203154","0.0-6.0-1.58","SORE","2","f","rechts","24","","","self","f","150","true"
"null","<div style=""font-size:60px;"">+</div>","null","html-keyboard-response","124","203506","0.0-6.0-0.59","SORE","2","f","rechts","24","","fixation","","","",""
"959","img/90_240.png","74","image-keyboard-response","125","204465","0.0-6.0-1.59","SORE","2","f","rechts","24","","","self","j","90","true"
"null","<div style=""font-size:60px;"">+</div>","null","html-keyboard-response","126","204767","0.0-6.0-0.60","SORE","2","f","rechts","24","","fixation","","","",""
"941","img/0_150.png","74","image-keyboard-response","127","205708","0.0-6.0-1.60","SORE","2","f","rechts","24","","","self","j","0","true"
"null","<div style=""font-size:60px;"">+</div>","null","html-keyboard-response","128","206009","0.0-6.0-0.61","SORE","2","f","rechts","24","","fixation","","","",""
"963","img/60_180.png","74","image-keyboard-response","129","206973","0.0-6.0-1.61","SORE","2","f","rechts","24","","","self","j","60","true"
"null","<div style=""font-size:60px;"">+</div>","null","html-keyboard-response","130","207275","0.0-6.0-0.62","SORE","2","f","rechts","24","","fixation","","","",""
"1052","img/0_210.png","70","image-keyboard-response","131","208328","0.0-6.0-1.62","SORE","2","f","rechts","24","","","self","f","0","true"
"null","<div style=""font-size:60px;"">+</div>","null","html-keyboard-response","132","208830","0.0-6.0-0.63","SORE","2","f","rechts","24","","fixation","","","",""
"839","img/60_210.png","74","image-keyboard-response","133","209669","0.0-6.0-1.63","SORE","2","f","rechts","24","","","self","j","60","true"
"null","<div style=""font-size:60px;"">+</div>","null","html-keyboard-response","134","210020","0.0-6.0-0.64","SORE","2","f","rechts","24","","fixation","","","",""
"1010","img/90_150.png","70","image-keyboard-response","135","211032","0.0-6.0-1.64","SORE","2","f","rechts","24","","","self","f","90","true"
"null","<div style=""font-size:60px;"">+</div>","null","html-keyboard-response","136","211483","0.0-6.0-0.65","SORE","2","f","rechts","24","","fixation","","","",""
"862","img/0_300.png","70","image-keyboard-response","137","212346","0.0-6.0-1.65","SORE","2","f","rechts","24","","","self","f","0","true"
"null","<div style=""font-size:60px;"">+</div>","null","html-keyboard-response","138","212848","0.0-6.0-0.66","SORE","2","f","rechts","24","","fixation","","","",""
"1236","img/60_150.png","70","image-keyboard-response","139","214086","0.0-6.0-1.66","SORE","2","f","rechts","24","","","self","f","60","true"
"null","<div style=""font-size:60px;"">+</div>","null","html-keyboard-response","140","214437","0.0-6.0-0.67","SORE","2","f","rechts","24","","fixation","","","",""
"991","img/30_300.png","70","image-keyboard-response","141","215430","0.0-6.0-1.67","SORE","2","f","rechts","24","","","self","f","30","true"
"null","<div style=""font-size:60px;"">+</div>","null","html-keyboard-response","142","215930","0.0-6.0-0.68","SORE","2","f","rechts","24","","fixation","","","",""
"909","img/30_180.png","74","image-keyboard-response","143","216841","0.0-6.0-1.68","SORE","2","f","rechts","24","","","self","j","30","true"
"null","<div style=""font-size:60px;"">+</div>","null","html-keyboard-response","144","217192","0.0-6.0-0.69","SORE","2","f","rechts","24","","fixation","","","",""
"947","img/150_270.png","74","image-keyboard-response","145","218141","0.0-6.0-1.69","SORE","2","f","rechts","24","","","self","j","150","true"
"null","<div style=""font-size:60px;"">+</div>","null","html-keyboard-response","146","218642","0.0-6.0-0.70","SORE","2","f","rechts","24","","fixation","","","",""
"1098","img/150_90.png","70","image-keyboard-response","147","219742","0.0-6.0-1.70","SORE","2","f","rechts","24","","","self","f","150","true"
"null","<div style=""font-size:60px;"">+</div>","null","html-keyboard-response","148","220243","0.0-6.0-0.71","SORE","2","f","rechts","24","","fixation","","","",""
"808","img/150_60.png","70","image-keyboard-response","149","221052","0.0-6.0-1.71","SORE","2","f","rechts","24","","","self","f","150","true"
"null","<div style=""font-size:60px;"">+</div>","null","html-keyboard-response","150","221404","0.0-6.0-0.72","SORE","2","f","rechts","24","","fixation","","","",""
"798","img/0_330.png","70","image-keyboard-response","151","222203","0.0-6.0-1.72","SORE","2","f","rechts","24","","","self","f","0","true"
"null","<div style=""font-size:60px;"">+</div>","null","html-keyboard-response","152","222655","0.0-6.0-0.73","SORE","2","f","rechts","24","","fixation","","","",""
"1162","img/30_90.png","74","image-keyboard-response","153","223819","0.0-6.0-1.73","SORE","2","f","rechts","24","","","self","j","30","true"
"null","<div style=""font-size:60px;"">+</div>","null","html-keyboard-response","154","224320","0.0-6.0-0.74","SORE","2","f","rechts","24","","fixation","","","",""
"1078","img/120_270.png","74","image-keyboard-response","155","225399","0.0-6.0-1.74","SORE","2","f","rechts","24","","","self","j","120","true"
"null","<div style=""font-size:60px;"">+</div>","null","html-keyboard-response","156","225750","0.0-6.0-0.75","SORE","2","f","rechts","24","","fixation","","","",""
"906","img/L60_180.png","70","image-keyboard-response","157","226657","0.0-6.0-1.75","SORE","2","f","rechts","24","","","self","f","60","true"
"null","<div style=""font-size:60px;"">+</div>","null","html-keyboard-response","158","227059","0.0-6.0-0.76","SORE","2","f","rechts","24","","fixation","","","",""
"1285","img/L150_180.png","70","image-keyboard-response","159","228345","0.0-6.0-1.76","SORE","2","f","rechts","24","","","self","f","150","true"
"null","<div style=""font-size:60px;"">+</div>","null","html-keyboard-response","160","228647","0.0-6.0-0.77","SORE","2","f","rechts","24","","fixation","","","",""
"929","img/L90_180.png","70","image-keyboard-response","161","229578","0.0-6.0-1.77","SORE","2","f","rechts","24","","","self","f","90","true"
"null","<div style=""font-size:60px;"">+</div>","null","html-keyboard-response","162","229929","0.0-6.0-0.78","SORE","2","f","rechts","24","","fixation","","","",""
"1135","img/120_330.png","74","image-keyboard-response","163","231065","0.0-6.0-1.78","SORE","2","f","rechts","24","","","self","f","120","false"
"null","<div style=""font-size:60px;"">+</div>","null","html-keyboard-response","164","231367","0.0-6.0-0.79","SORE","2","f","rechts","24","","fixation","","","",""
"1463","img/30_60.png","74","image-keyboard-response","165","232831","0.0-6.0-1.79","SORE","2","f","rechts","24","","","self","j","30","true"
"null","<div style=""font-size:60px;"">+</div>","null","html-keyboard-response","166","233133","0.0-6.0-0.80","SORE","2","f","rechts","24","","fixation","","","",""
"1136","img/30_120.png","74","image-keyboard-response","167","234270","0.0-6.0-1.80","SORE","2","f","rechts","24","","","self","j","30","true"
"null","<div style=""font-size:60px;"">+</div>","null","html-keyboard-response","168","234572","0.0-6.0-0.81","SORE","2","f","rechts","24","","fixation","","","",""
"1070","img/0_240.png","70","image-keyboard-response","169","235643","0.0-6.0-1.81","SORE","2","f","rechts","24","","","self","f","0","true"
"null","<div style=""font-size:60px;"">+</div>","null","html-keyboard-response","170","235944","0.0-6.0-0.82","SORE","2","f","rechts","24","","fixation","","","",""
"873","img/120_90.png","70","image-keyboard-response","171","236818","0.0-6.0-1.82","SORE","2","f","rechts","24","","","self","f","120","true"
"null","<div style=""font-size:60px;"">+</div>","null","html-keyboard-response","172","237270","0.0-6.0-0.83","SORE","2","f","rechts","24","","fixation","","","",""
"1248","img/30_270.png","70","image-keyboard-response","173","238519","0.0-6.0-1.83","SORE","2","f","rechts","24","","","self","f","30","true"
"null","<div style=""font-size:60px;"">+</div>","null","html-keyboard-response","174","238871","0.0-6.0-0.84","SORE","2","f","rechts","24","","fixation","","","",""
"1414","img/60_30.png","74","image-keyboard-response","175","240286","0.0-6.0-1.84","SORE","2","f","rechts","24","","","self","j","60","true"
"null","<div style=""font-size:60px;"">+</div>","null","html-keyboard-response","176","240688","0.0-6.0-0.85","SORE","2","f","rechts","24","","fixation","","","",""
"1058","img/120_180.png","74","image-keyboard-response","177","241746","0.0-6.0-1.85","SORE","2","f","rechts","24","","","self","j","120","true"
"null","<div style=""font-size:60px;"">+</div>","null","html-keyboard-response","178","242248","0.0-6.0-0.86","SORE","2","f","rechts","24","","fixation","","","",""
"827","img/90_210.png","74","image-keyboard-response","179","243076","0.0-6.0-1.86","SORE","2","f","rechts","24","","","self","j","90","true"
"null","<div style=""font-size:60px;"">+</div>","null","html-keyboard-response","180","243427","0.0-6.0-0.87","SORE","2","f","rechts","24","","fixation","","","",""
"1265","img/60_270.png","70","image-keyboard-response","181","244693","0.0-6.0-1.87","SORE","2","f","rechts","24","","","self","f","60","true"
"null","<div style=""font-size:60px;"">+</div>","null","html-keyboard-response","182","245194","0.0-6.0-0.88","SORE","2","f","rechts","24","","fixation","","","",""
"1291","img/90_120.png","70","image-keyboard-response","183","246486","0.0-6.0-1.88","SORE","2","f","rechts","24","","","self","f","90","true"
"null","<div style=""font-size:60px;"">+</div>","null","html-keyboard-response","184","246988","0.0-6.0-0.89","SORE","2","f","rechts","24","","fixation","","","",""
"1081","img/60_330.png","70","image-keyboard-response","185","248069","0.0-6.0-1.89","SORE","2","f","rechts","24","","","self","f","60","true"
"null","<div style=""font-size:60px;"">+</div>","null","html-keyboard-response","186","248421","0.0-6.0-0.90","SORE","2","f","rechts","24","","fixation","","","",""
"883","img/150_300.png","74","image-keyboard-response","187","249304","0.0-6.0-1.90","SORE","2","f","rechts","24","","","self","j","150","true"
"null","<div style=""font-size:60px;"">+</div>","null","html-keyboard-response","188","249656","0.0-6.0-0.91","SORE","2","f","rechts","24","","fixation","","","",""
"1342","img/120_30.png","70","image-keyboard-response","189","250998","0.0-6.0-1.91","SORE","2","f","rechts","24","","","self","j","120","false"
"null","<div style=""font-size:60px;"">+</div>","null","html-keyboard-response","190","251400","0.0-6.0-0.92","SORE","2","f","rechts","24","","fixation","","","",""
"1529","img/120_150.png","70","image-keyboard-response","191","252929","0.0-6.0-1.92","SORE","2","f","rechts","24","","","self","f","120","true"
"null","<div style=""font-size:60px;"">+</div>","null","html-keyboard-response","192","253281","0.0-6.0-0.93","SORE","2","f","rechts","24","","fixation","","","",""
"1064","img/90_60.png","74","image-keyboard-response","193","254346","0.0-6.0-1.93","SORE","2","f","rechts","24","","","self","j","90","true"
"null","<div style=""font-size:60px;"">+</div>","null","html-keyboard-response","194","254747","0.0-6.0-0.94","SORE","2","f","rechts","24","","fixation","","","",""
"907","img/0_120.png","74","image-keyboard-response","195","255656","0.0-6.0-1.94","SORE","2","f","rechts","24","","","self","j","0","true"
"null","<div style=""font-size:60px;"">+</div>","null","html-keyboard-response","196","256157","0.0-6.0-0.95","SORE","2","f","rechts","24","","fixation","","","",""
"1014","img/90_300.png","70","image-keyboard-response","197","257172","0.0-6.0-1.95","SORE","2","f","rechts","24","","","self","f","90","true"
"null","<div style=""font-size:60px;"">+</div>","null","html-keyboard-response","198","257524","0.0-6.0-0.96","SORE","2","f","rechts","24","","fixation","","","",""
"1305","img/L30_180.png","70","image-keyboard-response","199","258830","0.0-6.0-1.96","SORE","2","f","rechts","24","","","self","f","30","true"
"null","<div style=""font-size:60px;"">+</div>","null","html-keyboard-response","200","259231","0.0-6.0-0.97","SORE","2","f","rechts","24","","fixation","","","",""
"1324","img/90_30.png","74","image-keyboard-response","201","260557","0.0-6.0-1.97","SORE","2","f","rechts","24","","","self","j","90","true"
"null","<div style=""font-size:60px;"">+</div>","null","html-keyboard-response","202","261058","0.0-6.0-0.98","SORE","2","f","rechts","24","","fixation","","","",""
"1863","img/60_90.png","70","image-keyboard-response","203","262923","0.0-6.0-1.98","SORE","2","f","rechts","24","","","self","j","60","false"
"null","<div style=""font-size:60px;"">+</div>","null","html-keyboard-response","204","263325","0.0-6.0-0.99","SORE","2","f","rechts","24","","fixation","","","",""
"1248","img/0_90.png","74","image-keyboard-response","205","264574","0.0-6.0-1.99","SORE","2","f","rechts","24","","","self","j","0","true"
"null","<div style=""font-size:60px;"">+</div>","null","html-keyboard-response","206","264875","0.0-6.0-0.100","SORE","2","f","rechts","24","","fixation","","","",""
"1197","img/120_210.png","74","image-keyboard-response","207","266073","0.0-6.0-1.100","SORE","2","f","rechts","24","","","self","j","120","true"
"null","<div style=""font-size:60px;"">+</div>","null","html-keyboard-response","208","266474","0.0-6.0-0.101","SORE","2","f","rechts","24","","fixation","","","",""
"1782","img/30_240.png","70","image-keyboard-response","209","268257","0.0-6.0-1.101","SORE","2","f","rechts","24","","","self","f","30","true"
"null","<div style=""font-size:60px;"">+</div>","null","html-keyboard-response","210","268708","0.0-6.0-0.102","SORE","2","f","rechts","24","","fixation","","","",""
"1589","img/150_180.png","74","image-keyboard-response","211","270298","0.0-6.0-1.102","SORE","2","f","rechts","24","","","self","j","150","true"
"null","<div style=""font-size:60px;"">+</div>","null","html-keyboard-response","212","270650","0.0-6.0-0.103","SORE","2","f","rechts","24","","fixation","","","",""
"1195","img/90_330.png","70","image-keyboard-response","213","271846","0.0-6.0-1.103","SORE","2","f","rechts","24","","","self","f","90","true"
"null","<div style=""font-size:60px;"">+</div>","null","html-keyboard-response","214","272298","0.0-6.0-0.104","SORE","2","f","rechts","24","","fixation","","","",""
"1071","img/0_120.png","74","image-keyboard-response","215","273371","0.0-6.0-1.104","SORE","2","f","rechts","24","","","self","j","0","true"
"null","<div style=""font-size:60px;"">+</div>","null","html-keyboard-response","216","273872","0.0-6.0-0.105","SORE","2","f","rechts","24","","fixation","","","",""
"1193","img/90_330.png","70","image-keyboard-response","217","275066","0.0-6.0-1.105","SORE","2","f","rechts","24","","","self","f","90","true"
"null","<div style=""font-size:60px;"">+</div>","null","html-keyboard-response","218","275418","0.0-6.0-0.106","SORE","2","f","rechts","24","","fixation","","","",""
"1181","img/L60_180.png","70","image-keyboard-response","219","276600","0.0-6.0-1.106","SORE","2","f","rechts","24","","","self","f","60","true"
"null","<div style=""font-size:60px;"">+</div>","null","html-keyboard-response","220","277002","0.0-6.0-0.107","SORE","2","f","rechts","24","","fixation","","","",""
"1073","img/0_150.png","70","image-keyboard-response","221","278076","0.0-6.0-1.107","SORE","2","f","rechts","24","","","self","j","0","false"
"null","<div style=""font-size:60px;"">+</div>","null","html-keyboard-response","222","278577","0.0-6.0-0.108","SORE","2","f","rechts","24","","fixation","","","",""
"1600","img/150_180.png","74","image-keyboard-response","223","280177","0.0-6.0-1.108","SORE","2","f","rechts","24","","","self","j","150","true"
"null","<div style=""font-size:60px;"">+</div>","null","html-keyboard-response","224","280628","0.0-6.0-0.109","SORE","2","f","rechts","24","","fixation","","","",""
"1114","img/0_30.png","74","image-keyboard-response","225","281743","0.0-6.0-1.109","SORE","2","f","rechts","24","","","self","j","0","true"
"null","<div style=""font-size:60px;"">+</div>","null","html-keyboard-response","226","282194","0.0-6.0-0.110","SORE","2","f","rechts","24","","fixation","","","",""
"1366","img/90_30.png","74","image-keyboard-response","227","283562","0.0-6.0-1.110","SORE","2","f","rechts","24","","","self","j","90","true"
"null","<div style=""font-size:60px;"">+</div>","null","html-keyboard-response","228","283963","0.0-6.0-0.111","SORE","2","f","rechts","24","","fixation","","","",""
"1643","img/120_30.png","74","image-keyboard-response","229","285606","0.0-6.0-1.111","SORE","2","f","rechts","24","","","self","j","120","true"
"null","<div style=""font-size:60px;"">+</div>","null","html-keyboard-response","230","286108","0.0-6.0-0.112","SORE","2","f","rechts","24","","fixation","","","",""
"1266","img/0_300.png","70","image-keyboard-response","231","287374","0.0-6.0-1.112","SORE","2","f","rechts","24","","","self","f","0","true"
"null","<div style=""font-size:60px;"">+</div>","null","html-keyboard-response","232","287726","0.0-6.0-0.113","SORE","2","f","rechts","24","","fixation","","","",""
"1792","img/L30_180.png","70","image-keyboard-response","233","289518","0.0-6.0-1.113","SORE","2","f","rechts","24","","","self","f","30","true"
"null","<div style=""font-size:60px;"">+</div>","null","html-keyboard-response","234","290019","0.0-6.0-0.114","SORE","2","f","rechts","24","","fixation","","","",""
"1008","img/L120_180.png","70","image-keyboard-response","235","291028","0.0-6.0-1.114","SORE","2","f","rechts","24","","","self","f","120","true"
"null","<div style=""font-size:60px;"">+</div>","null","html-keyboard-response","236","291480","0.0-6.0-0.115","SORE","2","f","rechts","24","","fixation","","","",""
"1948","img/60_270.png","70","image-keyboard-response","237","293428","0.0-6.0-1.115","SORE","2","f","rechts","24","","","self","f","60","true"
"null","<div style=""font-size:60px;"">+</div>","null","html-keyboard-response","238","293780","0.0-6.0-0.116","SORE","2","f","rechts","24","","fixation","","","",""
"887","img/90_210.png","74","image-keyboard-response","239","294667","0.0-6.0-1.116","SORE","2","f","rechts","24","","","self","j","90","true"
"null","<div style=""font-size:60px;"">+</div>","null","html-keyboard-response","240","295018","0.0-6.0-0.117","SORE","2","f","rechts","24","","fixation","","","",""
"1278","img/60_90.png","74","image-keyboard-response","241","296297","0.0-6.0-1.117","SORE","2","f","rechts","24","","","self","j","60","true"
"null","<div style=""font-size:60px;"">+</div>","null","html-keyboard-response","242","296648","0.0-6.0-0.118","SORE","2","f","rechts","24","","fixation","","","",""
"915","img/90_180.png","74","image-keyboard-response","243","297563","0.0-6.0-1.118","SORE","2","f","rechts","24","","","self","j","90","true"
"null","<div style=""font-size:60px;"">+</div>","null","html-keyboard-response","244","297864","0.0-6.0-0.119","SORE","2","f","rechts","24","","fixation","","","",""
"1006","img/120_330.png","74","image-keyboard-response","245","298871","0.0-6.0-1.119","SORE","2","f","rechts","24","","","self","f","120","false"
"null","<div style=""font-size:60px;"">+</div>","null","html-keyboard-response","246","299222","0.0-6.0-0.120","SORE","2","f","rechts","24","","fixation","","","",""
"1270","img/120_210.png","74","image-keyboard-response","247","300493","0.0-6.0-1.120","SORE","2","f","rechts","24","","","self","j","120","true"
"null","<div style=""font-size:60px;"">+</div>","null","html-keyboard-response","248","300844","0.0-6.0-0.121","SORE","2","f","rechts","24","","fixation","","","",""
"820","img/0_270.png","70","image-keyboard-response","249","301665","0.0-6.0-1.121","SORE","2","f","rechts","24","","","self","f","0","true"
"null","<div style=""font-size:60px;"">+</div>","null","html-keyboard-response","250","302167","0.0-6.0-0.122","SORE","2","f","rechts","24","","fixation","","","",""
"892","img/60_210.png","74","image-keyboard-response","251","303059","0.0-6.0-1.122","SORE","2","f","rechts","24","","","self","j","60","true"
"null","<div style=""font-size:60px;"">+</div>","null","html-keyboard-response","252","303411","0.0-6.0-0.123","SORE","2","f","rechts","24","","fixation","","","",""
"911","img/90_240.png","74","image-keyboard-response","253","304322","0.0-6.0-1.123","SORE","2","f","rechts","24","","","self","j","90","true"
"null","<div style=""font-size:60px;"">+</div>","null","html-keyboard-response","254","304823","0.0-6.0-0.124","SORE","2","f","rechts","24","","fixation","","","",""
"1576","img/30_300.png","70","image-keyboard-response","255","306399","0.0-6.0-1.124","SORE","2","f","rechts","24","","","self","f","30","true"
"null","<div style=""font-size:60px;"">+</div>","null","html-keyboard-response","256","306851","0.0-6.0-0.125","SORE","2","f","rechts","24","","fixation","","","",""
"869","img/150_120.png","70","image-keyboard-response","257","307720","0.0-6.0-1.125","SORE","2","f","rechts","24","","","self","f","150","true"
"null","<div style=""font-size:60px;"">+</div>","null","html-keyboard-response","258","308221","0.0-6.0-0.126","SORE","2","f","rechts","24","","fixation","","","",""
"843","img/60_150.png","70","image-keyboard-response","259","309065","0.0-6.0-1.126","SORE","2","f","rechts","24","","","self","f","60","true"
"null","<div style=""font-size:60px;"">+</div>","null","html-keyboard-response","260","309367","0.0-6.0-0.127","SORE","2","f","rechts","24","","fixation","","","",""
"1002","img/L90_180.png","70","image-keyboard-response","261","310369","0.0-6.0-1.127","SORE","2","f","rechts","24","","","self","f","90","true"
"null","<div style=""font-size:60px;"">+</div>","null","html-keyboard-response","262","310670","0.0-6.0-0.128","SORE","2","f","rechts","24","","fixation","","","",""
"813","img/60_180.png","74","image-keyboard-response","263","311484","0.0-6.0-1.128","SORE","2","f","rechts","24","","","self","j","60","true"
"null","<div style=""font-size:60px;"">+</div>","null","html-keyboard-response","264","311835","0.0-6.0-0.129","SORE","2","f","rechts","24","","fixation","","","",""
"931","img/150_300.png","74","image-keyboard-response","265","312768","0.0-6.0-1.129","SORE","2","f","rechts","24","","","self","j","150","true"
"null","<div style=""font-size:60px;"">+</div>","null","html-keyboard-response","266","313169","0.0-6.0-0.130","SORE","2","f","rechts","24","","fixation","","","",""
"1319","img/60_30.png","74","image-keyboard-response","267","314490","0.0-6.0-1.130","SORE","2","f","rechts","24","","","self","j","60","true"
"null","<div style=""font-size:60px;"">+</div>","null","html-keyboard-response","268","314792","0.0-6.0-0.131","SORE","2","f","rechts","24","","fixation","","","",""
"1086","img/90_150.png","70","image-keyboard-response","269","315879","0.0-6.0-1.131","SORE","2","f","rechts","24","","","self","f","90","true"
"null","<div style=""font-size:60px;"">+</div>","null","html-keyboard-response","270","316280","0.0-6.0-0.132","SORE","2","f","rechts","24","","fixation","","","",""
"1076","img/150_270.png","74","image-keyboard-response","271","317358","0.0-6.0-1.132","SORE","2","f","rechts","24","","","self","j","150","true"
"null","<div style=""font-size:60px;"">+</div>","null","html-keyboard-response","272","317759","0.0-6.0-0.133","SORE","2","f","rechts","24","","fixation","","","",""
"1065","img/90_60.png","74","image-keyboard-response","273","318825","0.0-6.0-1.133","SORE","2","f","rechts","24","","","self","j","90","true"
"null","<div style=""font-size:60px;"">+</div>","null","html-keyboard-response","274","319127","0.0-6.0-0.134","SORE","2","f","rechts","24","","fixation","","","",""
"835","img/0_330.png","70","image-keyboard-response","275","319964","0.0-6.0-1.134","SORE","2","f","rechts","24","","","self","f","0","true"
"null","<div style=""font-size:60px;"">+</div>","null","html-keyboard-response","276","320415","0.0-6.0-0.135","SORE","2","f","rechts","24","","fixation","","","",""
"963","img/90_300.png","70","image-keyboard-response","277","321379","0.0-6.0-1.135","SORE","2","f","rechts","24","","","self","f","90","true"
"null","<div style=""font-size:60px;"">+</div>","null","html-keyboard-response","278","321830","0.0-6.0-0.136","SORE","2","f","rechts","24","","fixation","","","",""
"1079","img/0_60.png","74","image-keyboard-response","279","322910","0.0-6.0-1.136","SORE","2","f","rechts","24","","","self","j","0","true"
"null","<div style=""font-size:60px;"">+</div>","null","html-keyboard-response","280","323412","0.0-6.0-0.137","SORE","2","f","rechts","24","","fixation","","","",""
"740","img/30_270.png","70","image-keyboard-response","281","324153","0.0-6.0-1.137","SORE","2","f","rechts","24","","","self","f","30","true"
"null","<div style=""font-size:60px;"">+</div>","null","html-keyboard-response","282","324455","0.0-6.0-0.138","SORE","2","f","rechts","24","","fixation","","","",""
"1543","img/L150_180.png","70","image-keyboard-response","283","325999","0.0-6.0-1.138","SORE","2","f","rechts","24","","","self","f","150","true"
"null","<div style=""font-size:60px;"">+</div>","null","html-keyboard-response","284","326501","0.0-6.0-0.139","SORE","2","f","rechts","24","","fixation","","","",""
"1165","img/150_90.png","70","image-keyboard-response","285","327667","0.0-6.0-1.139","SORE","2","f","rechts","24","","","self","f","150","true"
"null","<div style=""font-size:60px;"">+</div>","null","html-keyboard-response","286","328019","0.0-6.0-0.140","SORE","2","f","rechts","24","","fixation","","","",""
"938","img/0_90.png","74","image-keyboard-response","287","328958","0.0-6.0-1.140","SORE","2","f","rechts","24","","","self","j","0","true"
"null","<div style=""font-size:60px;"">+</div>","null","html-keyboard-response","288","329360","0.0-6.0-0.141","SORE","2","f","rechts","24","","fixation","","","",""
"1127","img/0_210.png","70","image-keyboard-response","289","330488","0.0-6.0-1.141","SORE","2","f","rechts","24","","","self","f","0","true"
"null","<div style=""font-size:60px;"">+</div>","null","html-keyboard-response","290","330940","0.0-6.0-0.142","SORE","2","f","rechts","24","","fixation","","","",""
"865","img/120_270.png","74","image-keyboard-response","291","331806","0.0-6.0-1.142","SORE","2","f","rechts","24","","","self","j","120","true"
"null","<div style=""font-size:60px;"">+</div>","null","html-keyboard-response","292","332157","0.0-6.0-0.143","SORE","2","f","rechts","24","","fixation","","","",""
"1489","img/30_180.png","74","image-keyboard-response","293","333646","0.0-6.0-1.143","SORE","2","f","rechts","24","","","self","j","30","true"
"null","<div style=""font-size:60px;"">+</div>","null","html-keyboard-response","294","334148","0.0-6.0-0.144","SORE","2","f","rechts","24","","fixation","","","",""
"1158","img/60_330.png","70","image-keyboard-response","295","335307","0.0-6.0-1.144","SORE","2","f","rechts","24","","","self","f","60","true"
"null","<div style=""font-size:60px;"">+</div>","null","html-keyboard-response","296","335759","0.0-6.0-0.145","SORE","2","f","rechts","24","","fixation","","","",""
"891","img/90_120.png","70","image-keyboard-response","297","336650","0.0-6.0-1.145","SORE","2","f","rechts","24","","","self","f","90","true"
"null","<div style=""font-size:60px;"">+</div>","null","html-keyboard-response","298","336952","0.0-6.0-0.146","SORE","2","f","rechts","24","","fixation","","","",""
"822","img/0_240.png","70","image-keyboard-response","299","337775","0.0-6.0-1.146","SORE","2","f","rechts","24","","","self","f","0","true"
"null","<div style=""font-size:60px;"">+</div>","null","html-keyboard-response","300","338227","0.0-6.0-0.147","SORE","2","f","rechts","24","","fixation","","","",""
"1669","img/30_60.png","74","image-keyboard-response","301","339897","0.0-6.0-1.147","SORE","2","f","rechts","24","","","self","j","30","true"
"null","<div style=""font-size:60px;"">+</div>","null","html-keyboard-response","302","340299","0.0-6.0-0.148","SORE","2","f","rechts","24","","fixation","","","",""
"1133","img/120_90.png","70","image-keyboard-response","303","341433","0.0-6.0-1.148","SORE","2","f","rechts","24","","","self","f","120","true"
"null","<div style=""font-size:60px;"">+</div>","null","html-keyboard-response","304","341735","0.0-6.0-0.149","SORE","2","f","rechts","24","","fixation","","","",""
"1264","img/120_150.png","70","image-keyboard-response","305","343000","0.0-6.0-1.149","SORE","2","f","rechts","24","","","self","f","120","true"
"null","<div style=""font-size:60px;"">+</div>","null","html-keyboard-response","306","343302","0.0-6.0-0.150","SORE","2","f","rechts","24","","fixation","","","",""
"1393","img/150_240.png","74","image-keyboard-response","307","344695","0.0-6.0-1.150","SORE","2","f","rechts","24","","","self","j","150","true"
"null","<div style=""font-size:60px;"">+</div>","null","html-keyboard-response","308","345196","0.0-6.0-0.151","SORE","2","f","rechts","24","","fixation","","","",""
"2145","img/30_90.png","74","image-keyboard-response","309","347342","0.0-6.0-1.151","SORE","2","f","rechts","24","","","self","j","30","true"
"null","<div style=""font-size:60px;"">+</div>","null","html-keyboard-response","310","347643","0.0-6.0-0.152","SORE","2","f","rechts","24","","fixation","","","",""
"1062","img/120_180.png","74","image-keyboard-response","311","348706","0.0-6.0-1.152","SORE","2","f","rechts","24","","","self","j","120","true"
"null","<div style=""font-size:60px;"">+</div>","null","html-keyboard-response","312","349207","0.0-6.0-0.153","SORE","2","f","rechts","24","","fixation","","","",""
"1099","img/30_240.png","74","image-keyboard-response","313","350307","0.0-6.0-1.153","SORE","2","f","rechts","24","","","self","f","30","false"
"null","<div style=""font-size:60px;"">+</div>","null","html-keyboard-response","314","350809","0.0-6.0-0.154","SORE","2","f","rechts","24","","fixation","","","",""
"1439","img/30_120.png","70","image-keyboard-response","315","352249","0.0-6.0-1.154","SORE","2","f","rechts","24","","","self","j","30","false"
"null","<div style=""font-size:60px;"">+</div>","null","html-keyboard-response","316","352600","0.0-6.0-0.155","SORE","2","f","rechts","24","","fixation","","","",""
"836","img/150_60.png","74","image-keyboard-response","317","353437","0.0-6.0-1.155","SORE","2","f","rechts","24","","","self","f","150","false"
"null","<div style=""font-size:60px;"">+</div>","null","html-keyboard-response","318","353788","0.0-6.0-0.156","SORE","2","f","rechts","24","","fixation","","","",""
"1063","img/0_120.png","74","image-keyboard-response","319","354851","0.0-6.0-1.156","SORE","2","f","rechts","24","","","self","j","0","true"
"null","<div style=""font-size:60px;"">+</div>","null","html-keyboard-response","320","355153","0.0-6.0-0.157","SORE","2","f","rechts","24","","fixation","","","",""
"1407","img/150_120.png","70","image-keyboard-response","321","356561","0.0-6.0-1.157","SORE","2","f","rechts","24","","","self","f","150","true"
"null","<div style=""font-size:60px;"">+</div>","null","html-keyboard-response","322","356962","0.0-6.0-0.158","SORE","2","f","rechts","24","","fixation","","","",""
"814","img/0_210.png","70","image-keyboard-response","323","357777","0.0-6.0-1.158","SORE","2","f","rechts","24","","","self","f","0","true"
"null","<div style=""font-size:60px;"">+</div>","null","html-keyboard-response","324","358229","0.0-6.0-0.159","SORE","2","f","rechts","24","","fixation","","","",""
"790","img/150_240.png","74","image-keyboard-response","325","359020","0.0-6.0-1.159","SORE","2","f","rechts","24","","","self","j","150","true"
"null","<div style=""font-size:60px;"">+</div>","null","html-keyboard-response","326","359471","0.0-6.0-0.160","SORE","2","f","rechts","24","","fixation","","","",""
"1165","img/L30_180.png","70","image-keyboard-response","327","360638","0.0-6.0-1.160","SORE","2","f","rechts","24","","","self","f","30","true"
"null","<div style=""font-size:60px;"">+</div>","null","html-keyboard-response","328","361089","0.0-6.0-0.161","SORE","2","f","rechts","24","","fixation","","","",""
"1686","img/90_300.png","70","image-keyboard-response","329","362777","0.0-6.0-1.161","SORE","2","f","rechts","24","","","self","f","90","true"
"null","<div style=""font-size:60px;"">+</div>","null","html-keyboard-response","330","363278","0.0-6.0-0.162","SORE","2","f","rechts","24","","fixation","","","",""
"964","img/90_150.png","70","image-keyboard-response","331","364243","0.0-6.0-1.162","SORE","2","f","rechts","24","","","self","f","90","true"
"null","<div style=""font-size:60px;"">+</div>","null","html-keyboard-response","332","364694","0.0-6.0-0.163","SORE","2","f","rechts","24","","fixation","","","",""
"1567","img/60_90.png","70","image-keyboard-response","333","366263","0.0-6.0-1.163","SORE","2","f","rechts","24","","","self","j","60","false"
"null","<div style=""font-size:60px;"">+</div>","null","html-keyboard-response","334","366764","0.0-6.0-0.164","SORE","2","f","rechts","24","","fixation","","","",""
"778","img/0_240.png","70","image-keyboard-response","335","367544","0.0-6.0-1.164","SORE","2","f","rechts","24","","","self","f","0","true"
"null","<div style=""font-size:60px;"">+</div>","null","html-keyboard-response","336","367895","0.0-6.0-0.165","SORE","2","f","rechts","24","","fixation","","","",""
"1073","img/30_300.png","70","image-keyboard-response","337","368970","0.0-6.0-1.165","SORE","2","f","rechts","24","","","self","f","30","true"
"null","<div style=""font-size:60px;"">+</div>","null","html-keyboard-response","338","369470","0.0-6.0-0.166","SORE","2","f","rechts","24","","fixation","","","",""
"1384","img/120_180.png","74","image-keyboard-response","339","370855","0.0-6.0-1.166","SORE","2","f","rechts","24","","","self","j","120","true"
"null","<div style=""font-size:60px;"">+</div>","null","html-keyboard-response","340","371307","0.0-6.0-0.167","SORE","2","f","rechts","24","","fixation","","","",""
"970","img/60_150.png","70","image-keyboard-response","341","372278","0.0-6.0-1.167","SORE","2","f","rechts","24","","","self","f","60","true"
"null","<div style=""font-size:60px;"">+</div>","null","html-keyboard-response","342","372630","0.0-6.0-0.168","SORE","2","f","rechts","24","","fixation","","","",""
"908","img/120_150.png","70","image-keyboard-response","343","373540","0.0-6.0-1.168","SORE","2","f","rechts","24","","","self","f","120","true"
"null","<div style=""font-size:60px;"">+</div>","null","html-keyboard-response","344","373991","0.0-6.0-0.169","SORE","2","f","rechts","24","","fixation","","","",""
"916","img/60_180.png","74","image-keyboard-response","345","374909","0.0-6.0-1.169","SORE","2","f","rechts","24","","","self","j","60","true"
"null","<div style=""font-size:60px;"">+</div>","null","html-keyboard-response","346","375410","0.0-6.0-0.170","SORE","2","f","rechts","24","","fixation","","","",""
"1624","img/30_90.png","70","image-keyboard-response","347","377035","0.0-6.0-1.170","SORE","2","f","rechts","24","","","self","j","30","false"
"null","<div style=""font-size:60px;"">+</div>","null","html-keyboard-response","348","377437","0.0-6.0-0.171","SORE","2","f","rechts","24","","fixation","","","",""
"956","img/30_60.png","74","image-keyboard-response","349","378394","0.0-6.0-1.171","SORE","2","f","rechts","24","","","self","j","30","true"
"null","<div style=""font-size:60px;"">+</div>","null","html-keyboard-response","350","378896","0.0-6.0-0.172","SORE","2","f","rechts","24","","fixation","","","",""
"1475","img/60_270.png","70","image-keyboard-response","351","380372","0.0-6.0-1.172","SORE","2","f","rechts","24","","","self","f","60","true"
"null","<div style=""font-size:60px;"">+</div>","null","html-keyboard-response","352","380674","0.0-6.0-0.173","SORE","2","f","rechts","24","","fixation","","","",""
"848","img/0_270.png","70","image-keyboard-response","353","381523","0.0-6.0-1.173","SORE","2","f","rechts","24","","","self","f","0","true"
"null","<div style=""font-size:60px;"">+</div>","null","html-keyboard-response","354","381925","0.0-6.0-0.174","SORE","2","f","rechts","24","","fixation","","","",""
"849","img/150_60.png","74","image-keyboard-response","355","382775","0.0-6.0-1.174","SORE","2","f","rechts","24","","","self","f","150","false"
"null","<div style=""font-size:60px;"">+</div>","null","html-keyboard-response","356","383176","0.0-6.0-0.175","SORE","2","f","rechts","24","","fixation","","","",""
"1463","img/L60_180.png","70","image-keyboard-response","357","384640","0.0-6.0-1.175","SORE","2","f","rechts","24","","","self","f","60","true"
"null","<div style=""font-size:60px;"">+</div>","null","html-keyboard-response","358","385142","0.0-6.0-0.176","SORE","2","f","rechts","24","","fixation","","","",""
"1519","img/120_210.png","74","image-keyboard-response","359","386662","0.0-6.0-1.176","SORE","2","f","rechts","24","","","self","j","120","true"
"null","<div style=""font-size:60px;"">+</div>","null","html-keyboard-response","360","387164","0.0-6.0-0.177","SORE","2","f","rechts","24","","fixation","","","",""
"1356","img/120_270.png","74","image-keyboard-response","361","388521","0.0-6.0-1.177","SORE","2","f","rechts","24","","","self","j","120","true"
"null","<div style=""font-size:60px;"">+</div>","null","html-keyboard-response","362","388873","0.0-6.0-0.178","SORE","2","f","rechts","24","","fixation","","","",""
"1214","img/90_180.png","74","image-keyboard-response","363","390088","0.0-6.0-1.178","SORE","2","f","rechts","24","","","self","j","90","true"
"null","<div style=""font-size:60px;"">+</div>","null","html-keyboard-response","364","390490","0.0-6.0-0.179","SORE","2","f","rechts","24","","fixation","","","",""
"2055","img/120_30.png","74","image-keyboard-response","365","392546","0.0-6.0-1.179","SORE","2","f","rechts","24","","","self","j","120","true"
"null","<div style=""font-size:60px;"">+</div>","null","html-keyboard-response","366","392997","0.0-6.0-0.180","SORE","2","f","rechts","24","","fixation","","","",""
"1084","img/150_270.png","74","image-keyboard-response","367","394082","0.0-6.0-1.180","SORE","2","f","rechts","24","","","self","j","150","true"
"null","<div style=""font-size:60px;"">+</div>","null","html-keyboard-response","368","394384","0.0-6.0-0.181","SORE","2","f","rechts","24","","fixation","","","",""
"1169","img/L150_180.png","70","image-keyboard-response","369","395553","0.0-6.0-1.181","SORE","2","f","rechts","24","","","self","f","150","true"
"null","<div style=""font-size:60px;"">+</div>","null","html-keyboard-response","370","395855","0.0-6.0-0.182","SORE","2","f","rechts","24","","fixation","","","",""
"1314","img/60_330.png","70","image-keyboard-response","371","397169","0.0-6.0-1.182","SORE","2","f","rechts","24","","","self","f","60","true"
"null","<div style=""font-size:60px;"">+</div>","null","html-keyboard-response","372","397571","0.0-6.0-0.183","SORE","2","f","rechts","24","","fixation","","","",""
"1103","img/90_210.png","74","image-keyboard-response","373","398674","0.0-6.0-1.183","SORE","2","f","rechts","24","","","self","j","90","true"
"null","<div style=""font-size:60px;"">+</div>","null","html-keyboard-response","374","399125","0.0-6.0-0.184","SORE","2","f","rechts","24","","fixation","","","",""
"855","img/0_150.png","74","image-keyboard-response","375","399981","0.0-6.0-1.184","SORE","2","f","rechts","24","","","self","j","0","true"
"null","<div style=""font-size:60px;"">+</div>","null","html-keyboard-response","376","400333","0.0-6.0-0.185","SORE","2","f","rechts","24","","fixation","","","",""
"878","img/90_240.png","74","image-keyboard-response","377","401212","0.0-6.0-1.185","SORE","2","f","rechts","24","","","self","j","90","true"
"null","<div style=""font-size:60px;"">+</div>","null","html-keyboard-response","378","401664","0.0-6.0-0.186","SORE","2","f","rechts","24","","fixation","","","",""
"1130","img/150_180.png","74","image-keyboard-response","379","402794","0.0-6.0-1.186","SORE","2","f","rechts","24","","","self","j","150","true"
"null","<div style=""font-size:60px;"">+</div>","null","html-keyboard-response","380","403196","0.0-6.0-0.187","SORE","2","f","rechts","24","","fixation","","","",""
"2232","img/90_60.png","74","image-keyboard-response","381","405428","0.0-6.0-1.187","SORE","2","f","rechts","24","","","self","j","90","true"
"null","<div style=""font-size:60px;"">+</div>","null","html-keyboard-response","382","405780","0.0-6.0-0.188","SORE","2","f","rechts","24","","fixation","","","",""
"1066","img/60_210.png","74","image-keyboard-response","383","406846","0.0-6.0-1.188","SORE","2","f","rechts","24","","","self","j","60","true"
"null","<div style=""font-size:60px;"">+</div>","null","html-keyboard-response","384","407248","0.0-6.0-0.189","SORE","2","f","rechts","24","","fixation","","","",""
"1006","img/0_300.png","70","image-keyboard-response","385","408255","0.0-6.0-1.189","SORE","2","f","rechts","24","","","self","f","0","true"
"null","<div style=""font-size:60px;"">+</div>","null","html-keyboard-response","386","408657","0.0-6.0-0.190","SORE","2","f","rechts","24","","fixation","","","",""
"2133","img/120_90.png","70","image-keyboard-response","387","410791","0.0-6.0-1.190","SORE","2","f","rechts","24","","","self","f","120","true"
"null","<div style=""font-size:60px;"">+</div>","null","html-keyboard-response","388","411193","0.0-6.0-0.191","SORE","2","f","rechts","24","","fixation","","","",""
"946","img/0_60.png","74","image-keyboard-response","389","412140","0.0-6.0-1.191","SORE","2","f","rechts","24","","","self","j","0","true"
"null","<div style=""font-size:60px;"">+</div>","null","html-keyboard-response","390","412442","0.0-6.0-0.192","SORE","2","f","rechts","24","","fixation","","","",""
"804","img/0_330.png","70","image-keyboard-response","391","413246","0.0-6.0-1.192","SORE","2","f","rechts","24","","","self","f","0","true"
"null","<div style=""font-size:60px;"">+</div>","null","html-keyboard-response","392","413597","0.0-6.0-0.193","SORE","2","f","rechts","24","","fixation","","","",""
"1418","img/120_330.png","74","image-keyboard-response","393","415016","0.0-6.0-1.193","SORE","2","f","rechts","24","","","self","f","120","false"
"null","<div style=""font-size:60px;"">+</div>","null","html-keyboard-response","394","415468","0.0-6.0-0.194","SORE","2","f","rechts","24","","fixation","","","",""
"1073","img/60_30.png","74","image-keyboard-response","395","416542","0.0-6.0-1.194","SORE","2","f","rechts","24","","","self","j","60","true"
"null","<div style=""font-size:60px;"">+</div>","null","html-keyboard-response","396","416844","0.0-6.0-0.195","SORE","2","f","rechts","24","","fixation","","","",""
"1508","img/L90_180.png","70","image-keyboard-response","397","418353","0.0-6.0-1.195","SORE","2","f","rechts","24","","","self","f","90","true"
"null","<div style=""font-size:60px;"">+</div>","null","html-keyboard-response","398","418654","0.0-6.0-0.196","SORE","2","f","rechts","24","","fixation","","","",""
"1958","img/150_90.png","70","image-keyboard-response","399","420613","0.0-6.0-1.196","SORE","2","f","rechts","24","","","self","f","150","true"
"null","<div style=""font-size:60px;"">+</div>","null","html-keyboard-response","400","420965","0.0-6.0-0.197","SORE","2","f","rechts","24","","fixation","","","",""
"1325","img/L120_180.png","70","image-keyboard-response","401","422292","0.0-6.0-1.197","SORE","2","f","rechts","24","","","self","f","120","true"
"null","<div style=""font-size:60px;"">+</div>","null","html-keyboard-response","402","422693","0.0-6.0-0.198","SORE","2","f","rechts","24","","fixation","","","",""
"1444","img/30_240.png","74","image-keyboard-response","403","424138","0.0-6.0-1.198","SORE","2","f","rechts","24","","","self","f","30","false"
"null","<div style=""font-size:60px;"">+</div>","null","html-keyboard-response","404","424640","0.0-6.0-0.199","SORE","2","f","rechts","24","","fixation","","","",""
"958","img/30_180.png","74","image-keyboard-response","405","425599","0.0-6.0-1.199","SORE","2","f","rechts","24","","","self","j","30","true"
"null","<div style=""font-size:60px;"">+</div>","null","html-keyboard-response","406","425901","0.0-6.0-0.200","SORE","2","f","rechts","24","","fixation","","","",""
"1323","img/90_330.png","70","image-keyboard-response","407","427225","0.0-6.0-1.200","SORE","2","f","rechts","24","","","self","f","90","true"
"null","<div style=""font-size:60px;"">+</div>","null","html-keyboard-response","408","427577","0.0-6.0-0.201","SORE","2","f","rechts","24","","fixation","","","",""
"1098","img/0_30.png","74","image-keyboard-response","409","428676","0.0-6.0-1.201","SORE","2","f","rechts","24","","","self","j","0","true"
"null","<div style=""font-size:60px;"">+</div>","null","html-keyboard-response","410","428978","0.0-6.0-0.202","SORE","2","f","rechts","24","","fixation","","","",""
"1048","img/90_120.png","70","image-keyboard-response","411","430027","0.0-6.0-1.202","SORE","2","f","rechts","24","","","self","f","90","true"
"null","<div style=""font-size:60px;"">+</div>","null","html-keyboard-response","412","430479","0.0-6.0-0.203","SORE","2","f","rechts","24","","fixation","","","",""
"919","img/0_90.png","74","image-keyboard-response","413","431399","0.0-6.0-1.203","SORE","2","f","rechts","24","","","self","j","0","true"
"null","<div style=""font-size:60px;"">+</div>","null","html-keyboard-response","414","431901","0.0-6.0-0.204","SORE","2","f","rechts","24","","fixation","","","",""
"1102","img/150_300.png","74","image-keyboard-response","415","433004","0.0-6.0-1.204","SORE","2","f","rechts","24","","","self","j","150","true"
"null","<div style=""font-size:60px;"">+</div>","null","html-keyboard-response","416","433455","0.0-6.0-0.205","SORE","2","f","rechts","24","","fixation","","","",""
"1065","img/90_30.png","74","image-keyboard-response","417","434521","0.0-6.0-1.205","SORE","2","f","rechts","24","","","self","j","90","true"
"null","<div style=""font-size:60px;"">+</div>","null","html-keyboard-response","418","434873","0.0-6.0-0.206","SORE","2","f","rechts","24","","fixation","","","",""
"1124","img/30_270.png","70","image-keyboard-response","419","435998","0.0-6.0-1.206","SORE","2","f","rechts","24","","","self","f","30","true"
"null","<div style=""font-size:60px;"">+</div>","null","html-keyboard-response","420","436400","0.0-6.0-0.207","SORE","2","f","rechts","24","","fixation","","","",""
"1073","img/30_120.png","74","image-keyboard-response","421","437474","0.0-6.0-1.207","SORE","2","f","rechts","24","","","self","j","30","true"
"20474","<p>Du hast in 90% der Versuche korrekt entschieden.</p><p>Deine durchschnittliche Reaktionszeit war  1169ms.</p><p>Dr&uuml;cke eine beliebige Taste, um die Session zu beenden. Vielen Dank!</p>","72","html-keyboard-response","422","457949","0.0-7.0","SORE","2","f","rechts","24","","","","","",""
