"rt","stimulus","key_press","trial_type","trial_index","time_elapsed","internal_node_id","subject","session","sex","handedness","age","responses","test_part","condition","correct_response","angle","correct"
"1673","<p>Mental Rotation Experiment.</p> <p>Dr&uuml;cke eine beliebige Taste, um anzufangen.</p>","70","html-keyboard-response","0","1677","0.0-0.0","SORE","1","f","rechts","24","","","","","",""
"5817","","","survey-text","1","7495","0.0-1.0","SORE","1","f","rechts","24","{""Q0"":""SORE""}","","","","",""
"1938","","","survey-text","2","9434","0.0-2.0","SORE","1","f","rechts","24","{""Q0"":""1""}","","","","",""
"3750","","","survey-multi-choice","3","13190","0.0-3.0","SORE","1","f","rechts","24","{""Q0"":""f"",""Q1"":""rechts""}","","","","",""
"2853","","","survey-text","4","16043","0.0-4.0","SORE","1","f","rechts","24","{""Q0"":""24""}","","","","",""
"17610","<p> Stell dir vor, dass du vor einem runden Tisch stehst, auf dem sich ein blauer Ball am Tischrand befindet. Entlang des Tischrands ist jeweils ein verschieden langer Pfeil. Nun bewegst du dich entlang dieses Pfeils bis an seine Spitze. Wenn du am Ende des Pfeils angekommen bist, schau zur Tischmitte. </p> <img src='img/90_180.png'></img> <br> <p>Entscheide dann, ob der Ball von deiner neuen (vorgestellten) Position links oder rechts von dir liegt.</p> <p>Dr&uuml;cke die <strong>'f'</strong>-Taste f&uuml;r links, die <strong>'j'</strong>-Taste f&uuml;r rechts.</p> <br><p> Das Bild wird jeweils 1 Sekunde lang pr&auml;sentiert. Du hast 3 Sekunden Zeit eine Entscheidung zu treffen.</p>","32","html-keyboard-response","5","33655","0.0-5.0","SORE","1","f","rechts","24","","","","","",""
"null","<div style=""font-size:60px;"">+</div>","null","html-keyboard-response","6","35108","0.0-6.0-0.0","SORE","1","f","rechts","24","","fixation","","","",""
"1135","img/90_120.png","70","image-keyboard-response","7","36246","0.0-6.0-1.0","SORE","1","f","rechts","24","","","self","f","90","true"
"null","<div style=""font-size:60px;"">+</div>","null","html-keyboard-response","8","36748","0.0-6.0-0.1","SORE","1","f","rechts","24","","fixation","","","",""
"967","img/90_60.png","74","image-keyboard-response","9","37716","0.0-6.0-1.1","SORE","1","f","rechts","24","","","self","j","90","true"
"null","<div style=""font-size:60px;"">+</div>","null","html-keyboard-response","10","38218","0.0-6.0-0.2","SORE","1","f","rechts","24","","fixation","","","",""
"1013","img/30_300.png","70","image-keyboard-response","11","39232","0.0-6.0-1.2","SORE","1","f","rechts","24","","","self","f","30","true"
"null","<div style=""font-size:60px;"">+</div>","null","html-keyboard-response","12","39733","0.0-6.0-0.3","SORE","1","f","rechts","24","","fixation","","","",""
"1076","img/150_270.png","74","image-keyboard-response","13","40809","0.0-6.0-1.3","SORE","1","f","rechts","24","","","self","j","150","true"
"null","<div style=""font-size:60px;"">+</div>","null","html-keyboard-response","14","41310","0.0-6.0-0.4","SORE","1","f","rechts","24","","fixation","","","",""
"940","img/150_90.png","70","image-keyboard-response","15","42252","0.0-6.0-1.4","SORE","1","f","rechts","24","","","self","f","150","true"
"null","<div style=""font-size:60px;"">+</div>","null","html-keyboard-response","16","42654","0.0-6.0-0.5","SORE","1","f","rechts","24","","fixation","","","",""
"1145","img/L60_180.png","70","image-keyboard-response","17","43800","0.0-6.0-1.5","SORE","1","f","rechts","24","","","self","f","60","true"
"null","<div style=""font-size:60px;"">+</div>","null","html-keyboard-response","18","44202","0.0-6.0-0.6","SORE","1","f","rechts","24","","fixation","","","",""
"841","img/150_120.png","70","image-keyboard-response","19","45044","0.0-6.0-1.6","SORE","1","f","rechts","24","","","self","f","150","true"
"null","<div style=""font-size:60px;"">+</div>","null","html-keyboard-response","20","45496","0.0-6.0-0.7","SORE","1","f","rechts","24","","fixation","","","",""
"1429","img/30_120.png","74","image-keyboard-response","21","46927","0.0-6.0-1.7","SORE","1","f","rechts","24","","","self","j","30","true"
"null","<div style=""font-size:60px;"">+</div>","null","html-keyboard-response","22","47429","0.0-6.0-0.8","SORE","1","f","rechts","24","","fixation","","","",""
"978","img/90_210.png","74","image-keyboard-response","23","48409","0.0-6.0-1.8","SORE","1","f","rechts","24","","","self","j","90","true"
"null","<div style=""font-size:60px;"">+</div>","null","html-keyboard-response","24","48911","0.0-6.0-0.9","SORE","1","f","rechts","24","","fixation","","","",""
"923","img/60_150.png","70","image-keyboard-response","25","49835","0.0-6.0-1.9","SORE","1","f","rechts","24","","","self","f","60","true"
"null","<div style=""font-size:60px;"">+</div>","null","html-keyboard-response","26","50287","0.0-6.0-0.10","SORE","1","f","rechts","24","","fixation","","","",""
"825","img/0_240.png","70","image-keyboard-response","27","51113","0.0-6.0-1.10","SORE","1","f","rechts","24","","","self","f","0","true"
"null","<div style=""font-size:60px;"">+</div>","null","html-keyboard-response","28","51415","0.0-6.0-0.11","SORE","1","f","rechts","24","","fixation","","","",""
"1325","img/120_30.png","74","image-keyboard-response","29","52741","0.0-6.0-1.11","SORE","1","f","rechts","24","","","self","j","120","true"
"null","<div style=""font-size:60px;"">+</div>","null","html-keyboard-response","30","53193","0.0-6.0-0.12","SORE","1","f","rechts","24","","fixation","","","",""
"1767","img/60_330.png","70","image-keyboard-response","31","54961","0.0-6.0-1.12","SORE","1","f","rechts","24","","","self","f","60","true"
"null","<div style=""font-size:60px;"">+</div>","null","html-keyboard-response","32","55263","0.0-6.0-0.13","SORE","1","f","rechts","24","","fixation","","","",""
"946","img/0_330.png","70","image-keyboard-response","33","56210","0.0-6.0-1.13","SORE","1","f","rechts","24","","","self","f","0","true"
"null","<div style=""font-size:60px;"">+</div>","null","html-keyboard-response","34","56662","0.0-6.0-0.14","SORE","1","f","rechts","24","","fixation","","","",""
"1181","img/120_150.png","70","image-keyboard-response","35","57844","0.0-6.0-1.14","SORE","1","f","rechts","24","","","self","f","120","true"
"null","<div style=""font-size:60px;"">+</div>","null","html-keyboard-response","36","58246","0.0-6.0-0.15","SORE","1","f","rechts","24","","fixation","","","",""
"1252","img/60_270.png","70","image-keyboard-response","37","59499","0.0-6.0-1.15","SORE","1","f","rechts","24","","","self","f","60","true"
"null","<div style=""font-size:60px;"">+</div>","null","html-keyboard-response","38","59850","0.0-6.0-0.16","SORE","1","f","rechts","24","","fixation","","","",""
"1079","img/60_210.png","74","image-keyboard-response","39","60930","0.0-6.0-1.16","SORE","1","f","rechts","24","","","self","j","60","true"
"null","<div style=""font-size:60px;"">+</div>","null","html-keyboard-response","40","61381","0.0-6.0-0.17","SORE","1","f","rechts","24","","fixation","","","",""
"1727","img/90_240.png","74","image-keyboard-response","41","63109","0.0-6.0-1.17","SORE","1","f","rechts","24","","","self","j","90","true"
"null","<div style=""font-size:60px;"">+</div>","null","html-keyboard-response","42","63561","0.0-6.0-0.18","SORE","1","f","rechts","24","","fixation","","","",""
"742","img/0_120.png","74","image-keyboard-response","43","64304","0.0-6.0-1.18","SORE","1","f","rechts","24","","","self","j","0","true"
"null","<div style=""font-size:60px;"">+</div>","null","html-keyboard-response","44","64805","0.0-6.0-0.19","SORE","1","f","rechts","24","","fixation","","","",""
"1389","img/120_210.png","74","image-keyboard-response","45","66195","0.0-6.0-1.19","SORE","1","f","rechts","24","","","self","j","120","true"
"null","<div style=""font-size:60px;"">+</div>","null","html-keyboard-response","46","66547","0.0-6.0-0.20","SORE","1","f","rechts","24","","fixation","","","",""
"1406","img/L30_180.png","70","image-keyboard-response","47","67954","0.0-6.0-1.20","SORE","1","f","rechts","24","","","self","f","30","true"
"null","<div style=""font-size:60px;"">+</div>","null","html-keyboard-response","48","68406","0.0-6.0-0.21","SORE","1","f","rechts","24","","fixation","","","",""
"1499","img/30_240.png","70","image-keyboard-response","49","69906","0.0-6.0-1.21","SORE","1","f","rechts","24","","","self","f","30","true"
"null","<div style=""font-size:60px;"">+</div>","null","html-keyboard-response","50","70357","0.0-6.0-0.22","SORE","1","f","rechts","24","","fixation","","","",""
"1116","img/120_180.png","74","image-keyboard-response","51","71475","0.0-6.0-1.22","SORE","1","f","rechts","24","","","self","j","120","true"
"null","<div style=""font-size:60px;"">+</div>","null","html-keyboard-response","52","71876","0.0-6.0-0.23","SORE","1","f","rechts","24","","fixation","","","",""
"866","img/0_270.png","70","image-keyboard-response","53","72743","0.0-6.0-1.23","SORE","1","f","rechts","24","","","self","f","0","true"
"null","<div style=""font-size:60px;"">+</div>","null","html-keyboard-response","54","73044","0.0-6.0-0.24","SORE","1","f","rechts","24","","fixation","","","",""
"1280","img/150_180.png","74","image-keyboard-response","55","74326","0.0-6.0-1.24","SORE","1","f","rechts","24","","","self","j","150","true"
"null","<div style=""font-size:60px;"">+</div>","null","html-keyboard-response","56","74627","0.0-6.0-0.25","SORE","1","f","rechts","24","","fixation","","","",""
"1339","img/120_330.png","70","image-keyboard-response","57","75967","0.0-6.0-1.25","SORE","1","f","rechts","24","","","self","f","120","true"
"null","<div style=""font-size:60px;"">+</div>","null","html-keyboard-response","58","76369","0.0-6.0-0.26","SORE","1","f","rechts","24","","fixation","","","",""
"1060","img/90_330.png","70","image-keyboard-response","59","77430","0.0-6.0-1.26","SORE","1","f","rechts","24","","","self","f","90","true"
"null","<div style=""font-size:60px;"">+</div>","null","html-keyboard-response","60","77832","0.0-6.0-0.27","SORE","1","f","rechts","24","","fixation","","","",""
"884","img/90_150.png","70","image-keyboard-response","61","78718","0.0-6.0-1.27","SORE","1","f","rechts","24","","","self","f","90","true"
"null","<div style=""font-size:60px;"">+</div>","null","html-keyboard-response","62","79019","0.0-6.0-0.28","SORE","1","f","rechts","24","","fixation","","","",""
"1517","img/L120_180.png","70","image-keyboard-response","63","80538","0.0-6.0-1.28","SORE","1","f","rechts","24","","","self","f","120","true"
"null","<div style=""font-size:60px;"">+</div>","null","html-keyboard-response","64","80939","0.0-6.0-0.29","SORE","1","f","rechts","24","","fixation","","","",""
"1110","img/30_270.png","70","image-keyboard-response","65","82051","0.0-6.0-1.29","SORE","1","f","rechts","24","","","self","f","30","true"
"null","<div style=""font-size:60px;"">+</div>","null","html-keyboard-response","66","82502","0.0-6.0-0.30","SORE","1","f","rechts","24","","fixation","","","",""
"1271","img/90_300.png","70","image-keyboard-response","67","83774","0.0-6.0-1.30","SORE","1","f","rechts","24","","","self","f","90","true"
"null","<div style=""font-size:60px;"">+</div>","null","html-keyboard-response","68","84276","0.0-6.0-0.31","SORE","1","f","rechts","24","","fixation","","","",""
"1441","img/150_240.png","74","image-keyboard-response","69","85718","0.0-6.0-1.31","SORE","1","f","rechts","24","","","self","j","150","true"
"null","<div style=""font-size:60px;"">+</div>","null","html-keyboard-response","70","86119","0.0-6.0-0.32","SORE","1","f","rechts","24","","fixation","","","",""
"1906","img/120_90.png","70","image-keyboard-response","71","88027","0.0-6.0-1.32","SORE","1","f","rechts","24","","","self","f","120","true"
"null","<div style=""font-size:60px;"">+</div>","null","html-keyboard-response","72","88328","0.0-6.0-0.33","SORE","1","f","rechts","24","","fixation","","","",""
"1315","img/60_30.png","74","image-keyboard-response","73","89646","0.0-6.0-1.33","SORE","1","f","rechts","24","","","self","j","60","true"
"null","<div style=""font-size:60px;"">+</div>","null","html-keyboard-response","74","90047","0.0-6.0-0.34","SORE","1","f","rechts","24","","fixation","","","",""
"878","img/0_210.png","70","image-keyboard-response","75","90927","0.0-6.0-1.34","SORE","1","f","rechts","24","","","self","f","0","true"
"null","<div style=""font-size:60px;"">+</div>","null","html-keyboard-response","76","91278","0.0-6.0-0.35","SORE","1","f","rechts","24","","fixation","","","",""
"1457","img/30_90.png","74","image-keyboard-response","77","92737","0.0-6.0-1.35","SORE","1","f","rechts","24","","","self","j","30","true"
"null","<div style=""font-size:60px;"">+</div>","null","html-keyboard-response","78","93139","0.0-6.0-0.36","SORE","1","f","rechts","24","","fixation","","","",""
"1863","img/30_60.png","74","image-keyboard-response","79","95003","0.0-6.0-1.36","SORE","1","f","rechts","24","","","self","j","30","true"
"null","<div style=""font-size:60px;"">+</div>","null","html-keyboard-response","80","95405","0.0-6.0-0.37","SORE","1","f","rechts","24","","fixation","","","",""
"1353","img/150_300.png","74","image-keyboard-response","81","96759","0.0-6.0-1.37","SORE","1","f","rechts","24","","","self","j","150","true"
"null","<div style=""font-size:60px;"">+</div>","null","html-keyboard-response","82","97061","0.0-6.0-0.38","SORE","1","f","rechts","24","","fixation","","","",""
"1501","img/L150_180.png","70","image-keyboard-response","83","98563","0.0-6.0-1.38","SORE","1","f","rechts","24","","","self","f","150","true"
"null","<div style=""font-size:60px;"">+</div>","null","html-keyboard-response","84","98915","0.0-6.0-0.39","SORE","1","f","rechts","24","","fixation","","","",""
"1490","img/150_60.png","70","image-keyboard-response","85","100406","0.0-6.0-1.39","SORE","1","f","rechts","24","","","self","f","150","true"
"null","<div style=""font-size:60px;"">+</div>","null","html-keyboard-response","86","100808","0.0-6.0-0.40","SORE","1","f","rechts","24","","fixation","","","",""
"1561","img/60_90.png","74","image-keyboard-response","87","102370","0.0-6.0-1.40","SORE","1","f","rechts","24","","","self","j","60","true"
"null","<div style=""font-size:60px;"">+</div>","null","html-keyboard-response","88","102672","0.0-6.0-0.41","SORE","1","f","rechts","24","","fixation","","","",""
"1279","img/90_30.png","74","image-keyboard-response","89","103952","0.0-6.0-1.41","SORE","1","f","rechts","24","","","self","j","90","true"
"null","<div style=""font-size:60px;"">+</div>","null","html-keyboard-response","90","104304","0.0-6.0-0.42","SORE","1","f","rechts","24","","fixation","","","",""
"880","img/0_150.png","74","image-keyboard-response","91","105185","0.0-6.0-1.42","SORE","1","f","rechts","24","","","self","j","0","true"
"null","<div style=""font-size:60px;"">+</div>","null","html-keyboard-response","92","105586","0.0-6.0-0.43","SORE","1","f","rechts","24","","fixation","","","",""
"1076","img/90_180.png","74","image-keyboard-response","93","106663","0.0-6.0-1.43","SORE","1","f","rechts","24","","","self","j","90","true"
"null","<div style=""font-size:60px;"">+</div>","null","html-keyboard-response","94","107115","0.0-6.0-0.44","SORE","1","f","rechts","24","","fixation","","","",""
"1061","img/0_300.png","70","image-keyboard-response","95","108177","0.0-6.0-1.44","SORE","1","f","rechts","24","","","self","f","0","true"
"null","<div style=""font-size:60px;"">+</div>","null","html-keyboard-response","96","108579","0.0-6.0-0.45","SORE","1","f","rechts","24","","fixation","","","",""
"1120","img/30_180.png","74","image-keyboard-response","97","109700","0.0-6.0-1.45","SORE","1","f","rechts","24","","","self","j","30","true"
"null","<div style=""font-size:60px;"">+</div>","null","html-keyboard-response","98","110202","0.0-6.0-0.46","SORE","1","f","rechts","24","","fixation","","","",""
"941","img/0_30.png","74","image-keyboard-response","99","111144","0.0-6.0-1.46","SORE","1","f","rechts","24","","","self","j","0","true"
"null","<div style=""font-size:60px;"">+</div>","null","html-keyboard-response","100","111596","0.0-6.0-0.47","SORE","1","f","rechts","24","","fixation","","","",""
"1116","img/120_270.png","74","image-keyboard-response","101","112713","0.0-6.0-1.47","SORE","1","f","rechts","24","","","self","j","120","true"
"null","<div style=""font-size:60px;"">+</div>","null","html-keyboard-response","102","113114","0.0-6.0-0.48","SORE","1","f","rechts","24","","fixation","","","",""
"1008","img/0_90.png","74","image-keyboard-response","103","114123","0.0-6.0-1.48","SORE","1","f","rechts","24","","","self","j","0","true"
"null","<div style=""font-size:60px;"">+</div>","null","html-keyboard-response","104","114525","0.0-6.0-0.49","SORE","1","f","rechts","24","","fixation","","","",""
"981","img/60_180.png","74","image-keyboard-response","105","115507","0.0-6.0-1.49","SORE","1","f","rechts","24","","","self","j","60","true"
"null","<div style=""font-size:60px;"">+</div>","null","html-keyboard-response","106","115958","0.0-6.0-0.50","SORE","1","f","rechts","24","","fixation","","","",""
"807","img/0_60.png","74","image-keyboard-response","107","116766","0.0-6.0-1.50","SORE","1","f","rechts","24","","","self","j","0","true"
"null","<div style=""font-size:60px;"">+</div>","null","html-keyboard-response","108","117167","0.0-6.0-0.51","SORE","1","f","rechts","24","","fixation","","","",""
"1071","img/L90_180.png","70","image-keyboard-response","109","118239","0.0-6.0-1.51","SORE","1","f","rechts","24","","","self","f","90","true"
"null","<div style=""font-size:60px;"">+</div>","null","html-keyboard-response","110","118691","0.0-6.0-0.52","SORE","1","f","rechts","24","","fixation","","","",""
"733","img/90_210.png","74","image-keyboard-response","111","119425","0.0-6.0-1.52","SORE","1","f","rechts","24","","","self","j","90","true"
"null","<div style=""font-size:60px;"">+</div>","null","html-keyboard-response","112","119725","0.0-6.0-0.53","SORE","1","f","rechts","24","","fixation","","","",""
"1066","img/150_180.png","74","image-keyboard-response","113","120792","0.0-6.0-1.53","SORE","1","f","rechts","24","","","self","j","150","true"
"null","<div style=""font-size:60px;"">+</div>","null","html-keyboard-response","114","121093","0.0-6.0-0.54","SORE","1","f","rechts","24","","fixation","","","",""
"1636","img/30_120.png","74","image-keyboard-response","115","122730","0.0-6.0-1.54","SORE","1","f","rechts","24","","","self","j","30","true"
"null","<div style=""font-size:60px;"">+</div>","null","html-keyboard-response","116","123132","0.0-6.0-0.55","SORE","1","f","rechts","24","","fixation","","","",""
"952","img/90_180.png","74","image-keyboard-response","117","124085","0.0-6.0-1.55","SORE","1","f","rechts","24","","","self","j","90","true"
"null","<div style=""font-size:60px;"">+</div>","null","html-keyboard-response","118","124386","0.0-6.0-0.56","SORE","1","f","rechts","24","","fixation","","","",""
"1109","img/L120_180.png","70","image-keyboard-response","119","125496","0.0-6.0-1.56","SORE","1","f","rechts","24","","","self","f","120","true"
"null","<div style=""font-size:60px;"">+</div>","null","html-keyboard-response","120","125998","0.0-6.0-0.57","SORE","1","f","rechts","24","","fixation","","","",""
"852","img/0_30.png","74","image-keyboard-response","121","126850","0.0-6.0-1.57","SORE","1","f","rechts","24","","","self","j","0","true"
"null","<div style=""font-size:60px;"">+</div>","null","html-keyboard-response","122","127151","0.0-6.0-0.58","SORE","1","f","rechts","24","","fixation","","","",""
"1506","img/90_120.png","70","image-keyboard-response","123","128658","0.0-6.0-1.58","SORE","1","f","rechts","24","","","self","f","90","true"
"null","<div style=""font-size:60px;"">+</div>","null","html-keyboard-response","124","129158","0.0-6.0-0.59","SORE","1","f","rechts","24","","fixation","","","",""
"760","img/0_330.png","70","image-keyboard-response","125","129920","0.0-6.0-1.59","SORE","1","f","rechts","24","","","self","f","0","true"
"null","<div style=""font-size:60px;"">+</div>","null","html-keyboard-response","126","130321","0.0-6.0-0.60","SORE","1","f","rechts","24","","fixation","","","",""
"1562","img/120_90.png","70","image-keyboard-response","127","131884","0.0-6.0-1.60","SORE","1","f","rechts","24","","","self","f","120","true"
"null","<div style=""font-size:60px;"">+</div>","null","html-keyboard-response","128","132186","0.0-6.0-0.61","SORE","1","f","rechts","24","","fixation","","","",""
"1071","img/90_150.png","70","image-keyboard-response","129","133258","0.0-6.0-1.61","SORE","1","f","rechts","24","","","self","f","90","true"
"null","<div style=""font-size:60px;"">+</div>","null","html-keyboard-response","130","133760","0.0-6.0-0.62","SORE","1","f","rechts","24","","fixation","","","",""
"1569","img/60_90.png","74","image-keyboard-response","131","135330","0.0-6.0-1.62","SORE","1","f","rechts","24","","","self","j","60","true"
"null","<div style=""font-size:60px;"">+</div>","null","html-keyboard-response","132","135681","0.0-6.0-0.63","SORE","1","f","rechts","24","","fixation","","","",""
"1219","img/L150_180.png","70","image-keyboard-response","133","136902","0.0-6.0-1.63","SORE","1","f","rechts","24","","","self","f","150","true"
"null","<div style=""font-size:60px;"">+</div>","null","html-keyboard-response","134","137403","0.0-6.0-0.64","SORE","1","f","rechts","24","","fixation","","","",""
"1227","img/90_300.png","70","image-keyboard-response","135","138632","0.0-6.0-1.64","SORE","1","f","rechts","24","","","self","f","90","true"
"null","<div style=""font-size:60px;"">+</div>","null","html-keyboard-response","136","139133","0.0-6.0-0.65","SORE","1","f","rechts","24","","fixation","","","",""
"1600","img/150_90.png","70","image-keyboard-response","137","140734","0.0-6.0-1.65","SORE","1","f","rechts","24","","","self","f","150","true"
"null","<div style=""font-size:60px;"">+</div>","null","html-keyboard-response","138","141135","0.0-6.0-0.66","SORE","1","f","rechts","24","","fixation","","","",""
"1179","img/30_180.png","74","image-keyboard-response","139","142315","0.0-6.0-1.66","SORE","1","f","rechts","24","","","self","j","30","true"
"null","<div style=""font-size:60px;"">+</div>","null","html-keyboard-response","140","142617","0.0-6.0-0.67","SORE","1","f","rechts","24","","fixation","","","",""
"1927","img/90_60.png","74","image-keyboard-response","141","144545","0.0-6.0-1.67","SORE","1","f","rechts","24","","","self","j","90","true"
"null","<div style=""font-size:60px;"">+</div>","null","html-keyboard-response","142","145047","0.0-6.0-0.68","SORE","1","f","rechts","24","","fixation","","","",""
"962","img/120_270.png","74","image-keyboard-response","143","146010","0.0-6.0-1.68","SORE","1","f","rechts","24","","","self","j","120","true"
"null","<div style=""font-size:60px;"">+</div>","null","html-keyboard-response","144","146312","0.0-6.0-0.69","SORE","1","f","rechts","24","","fixation","","","",""
"1177","img/60_330.png","70","image-keyboard-response","145","147490","0.0-6.0-1.69","SORE","1","f","rechts","24","","","self","f","60","true"
"null","<div style=""font-size:60px;"">+</div>","null","html-keyboard-response","146","147992","0.0-6.0-0.70","SORE","1","f","rechts","24","","fixation","","","",""
"1620","img/30_90.png","74","image-keyboard-response","147","149612","0.0-6.0-1.70","SORE","1","f","rechts","24","","","self","j","30","true"
"null","<div style=""font-size:60px;"">+</div>","null","html-keyboard-response","148","149914","0.0-6.0-0.71","SORE","1","f","rechts","24","","fixation","","","",""
"1248","img/90_330.png","70","image-keyboard-response","149","151163","0.0-6.0-1.71","SORE","1","f","rechts","24","","","self","f","90","true"
"null","<div style=""font-size:60px;"">+</div>","null","html-keyboard-response","150","151465","0.0-6.0-0.72","SORE","1","f","rechts","24","","fixation","","","",""
"1277","img/60_210.png","74","image-keyboard-response","151","152743","0.0-6.0-1.72","SORE","1","f","rechts","24","","","self","j","60","true"
"null","<div style=""font-size:60px;"">+</div>","null","html-keyboard-response","152","153195","0.0-6.0-0.73","SORE","1","f","rechts","24","","fixation","","","",""
"1066","img/120_210.png","74","image-keyboard-response","153","154263","0.0-6.0-1.73","SORE","1","f","rechts","24","","","self","j","120","true"
"null","<div style=""font-size:60px;"">+</div>","null","html-keyboard-response","154","154764","0.0-6.0-0.74","SORE","1","f","rechts","24","","fixation","","","",""
"1305","img/L60_180.png","70","image-keyboard-response","155","156069","0.0-6.0-1.74","SORE","1","f","rechts","24","","","self","f","60","true"
"null","<div style=""font-size:60px;"">+</div>","null","html-keyboard-response","156","156571","0.0-6.0-0.75","SORE","1","f","rechts","24","","fixation","","","",""
"896","img/0_150.png","74","image-keyboard-response","157","157467","0.0-6.0-1.75","SORE","1","f","rechts","24","","","self","j","0","true"
"null","<div style=""font-size:60px;"">+</div>","null","html-keyboard-response","158","157919","0.0-6.0-0.76","SORE","1","f","rechts","24","","fixation","","","",""
"991","img/60_270.png","70","image-keyboard-response","159","158910","0.0-6.0-1.76","SORE","1","f","rechts","24","","","self","f","60","true"
"null","<div style=""font-size:60px;"">+</div>","null","html-keyboard-response","160","159312","0.0-6.0-0.77","SORE","1","f","rechts","24","","fixation","","","",""
"812","img/0_210.png","70","image-keyboard-response","161","160125","0.0-6.0-1.77","SORE","1","f","rechts","24","","","self","f","0","true"
"null","<div style=""font-size:60px;"">+</div>","null","html-keyboard-response","162","160527","0.0-6.0-0.78","SORE","1","f","rechts","24","","fixation","","","",""
"1286","img/60_150.png","70","image-keyboard-response","163","161813","0.0-6.0-1.78","SORE","1","f","rechts","24","","","self","f","60","true"
"null","<div style=""font-size:60px;"">+</div>","null","html-keyboard-response","164","162114","0.0-6.0-0.79","SORE","1","f","rechts","24","","fixation","","","",""
"929","img/150_60.png","74","image-keyboard-response","165","163044","0.0-6.0-1.79","SORE","1","f","rechts","24","","","self","f","150","false"
"null","<div style=""font-size:60px;"">+</div>","null","html-keyboard-response","166","163496","0.0-6.0-0.80","SORE","1","f","rechts","24","","fixation","","","",""
"2754","img/120_30.png","70","image-keyboard-response","167","166250","0.0-6.0-1.80","SORE","1","f","rechts","24","","","self","j","120","false"
"null","<div style=""font-size:60px;"">+</div>","null","html-keyboard-response","168","166652","0.0-6.0-0.81","SORE","1","f","rechts","24","","fixation","","","",""
"1713","img/30_60.png","74","image-keyboard-response","169","168366","0.0-6.0-1.81","SORE","1","f","rechts","24","","","self","j","30","true"
"null","<div style=""font-size:60px;"">+</div>","null","html-keyboard-response","170","168767","0.0-6.0-0.82","SORE","1","f","rechts","24","","fixation","","","",""
"743","img/0_270.png","70","image-keyboard-response","171","169511","0.0-6.0-1.82","SORE","1","f","rechts","24","","","self","f","0","true"
"null","<div style=""font-size:60px;"">+</div>","null","html-keyboard-response","172","170013","0.0-6.0-0.83","SORE","1","f","rechts","24","","fixation","","","",""
"709","img/0_240.png","70","image-keyboard-response","173","170722","0.0-6.0-1.83","SORE","1","f","rechts","24","","","self","f","0","true"
"null","<div style=""font-size:60px;"">+</div>","null","html-keyboard-response","174","171224","0.0-6.0-0.84","SORE","1","f","rechts","24","","fixation","","","",""
"873","img/0_60.png","74","image-keyboard-response","175","172097","0.0-6.0-1.84","SORE","1","f","rechts","24","","","self","j","0","true"
"null","<div style=""font-size:60px;"">+</div>","null","html-keyboard-response","176","172599","0.0-6.0-0.85","SORE","1","f","rechts","24","","fixation","","","",""
"633","img/0_90.png","74","image-keyboard-response","177","173233","0.0-6.0-1.85","SORE","1","f","rechts","24","","","self","j","0","true"
"null","<div style=""font-size:60px;"">+</div>","null","html-keyboard-response","178","173535","0.0-6.0-0.86","SORE","1","f","rechts","24","","fixation","","","",""
"1762","img/150_300.png","74","image-keyboard-response","179","175298","0.0-6.0-1.86","SORE","1","f","rechts","24","","","self","j","150","true"
"null","<div style=""font-size:60px;"">+</div>","null","html-keyboard-response","180","175600","0.0-6.0-0.87","SORE","1","f","rechts","24","","fixation","","","",""
"1419","img/120_150.png","70","image-keyboard-response","181","177019","0.0-6.0-1.87","SORE","1","f","rechts","24","","","self","f","120","true"
"null","<div style=""font-size:60px;"">+</div>","null","html-keyboard-response","182","177521","0.0-6.0-0.88","SORE","1","f","rechts","24","","fixation","","","",""
"1432","img/L30_180.png","70","image-keyboard-response","183","178954","0.0-6.0-1.88","SORE","1","f","rechts","24","","","self","f","30","true"
"null","<div style=""font-size:60px;"">+</div>","null","html-keyboard-response","184","179456","0.0-6.0-0.89","SORE","1","f","rechts","24","","fixation","","","",""
"987","img/150_270.png","74","image-keyboard-response","185","180445","0.0-6.0-1.89","SORE","1","f","rechts","24","","","self","j","150","true"
"null","<div style=""font-size:60px;"">+</div>","null","html-keyboard-response","186","180946","0.0-6.0-0.90","SORE","1","f","rechts","24","","fixation","","","",""
"1522","img/60_180.png","74","image-keyboard-response","187","182468","0.0-6.0-1.90","SORE","1","f","rechts","24","","","self","j","60","true"
"null","<div style=""font-size:60px;"">+</div>","null","html-keyboard-response","188","182819","0.0-6.0-0.91","SORE","1","f","rechts","24","","fixation","","","",""
"1933","img/30_270.png","70","image-keyboard-response","189","184753","0.0-6.0-1.91","SORE","1","f","rechts","24","","","self","f","30","true"
"null","<div style=""font-size:60px;"">+</div>","null","html-keyboard-response","190","185155","0.0-6.0-0.92","SORE","1","f","rechts","24","","fixation","","","",""
"870","img/0_120.png","74","image-keyboard-response","191","186025","0.0-6.0-1.92","SORE","1","f","rechts","24","","","self","j","0","true"
"null","<div style=""font-size:60px;"">+</div>","null","html-keyboard-response","192","186427","0.0-6.0-0.93","SORE","1","f","rechts","24","","fixation","","","",""
"1349","img/L90_180.png","70","image-keyboard-response","193","187776","0.0-6.0-1.93","SORE","1","f","rechts","24","","","self","f","90","true"
"null","<div style=""font-size:60px;"">+</div>","null","html-keyboard-response","194","188078","0.0-6.0-0.94","SORE","1","f","rechts","24","","fixation","","","",""
"1671","img/90_30.png","74","image-keyboard-response","195","189750","0.0-6.0-1.94","SORE","1","f","rechts","24","","","self","j","90","true"
"null","<div style=""font-size:60px;"">+</div>","null","html-keyboard-response","196","190052","0.0-6.0-0.95","SORE","1","f","rechts","24","","fixation","","","",""
"1318","img/120_330.png","74","image-keyboard-response","197","191370","0.0-6.0-1.95","SORE","1","f","rechts","24","","","self","f","120","false"
"null","<div style=""font-size:60px;"">+</div>","null","html-keyboard-response","198","191822","0.0-6.0-0.96","SORE","1","f","rechts","24","","fixation","","","",""
"1456","img/150_240.png","74","image-keyboard-response","199","193280","0.0-6.0-1.96","SORE","1","f","rechts","24","","","self","j","150","true"
"null","<div style=""font-size:60px;"">+</div>","null","html-keyboard-response","200","193681","0.0-6.0-0.97","SORE","1","f","rechts","24","","fixation","","","",""
"1288","img/90_240.png","74","image-keyboard-response","201","194971","0.0-6.0-1.97","SORE","1","f","rechts","24","","","self","j","90","true"
"null","<div style=""font-size:60px;"">+</div>","null","html-keyboard-response","202","195471","0.0-6.0-0.98","SORE","1","f","rechts","24","","fixation","","","",""
"1229","img/120_180.png","74","image-keyboard-response","203","196702","0.0-6.0-1.98","SORE","1","f","rechts","24","","","self","j","120","true"
"null","<div style=""font-size:60px;"">+</div>","null","html-keyboard-response","204","197053","0.0-6.0-0.99","SORE","1","f","rechts","24","","fixation","","","",""
"1102","img/150_120.png","70","image-keyboard-response","205","198157","0.0-6.0-1.99","SORE","1","f","rechts","24","","","self","f","150","true"
"null","<div style=""font-size:60px;"">+</div>","null","html-keyboard-response","206","198559","0.0-6.0-0.100","SORE","1","f","rechts","24","","fixation","","","",""
"2032","img/60_30.png","74","image-keyboard-response","207","200591","0.0-6.0-1.100","SORE","1","f","rechts","24","","","self","j","60","true"
"null","<div style=""font-size:60px;"">+</div>","null","html-keyboard-response","208","200991","0.0-6.0-0.101","SORE","1","f","rechts","24","","fixation","","","",""
"1513","img/30_300.png","70","image-keyboard-response","209","202506","0.0-6.0-1.101","SORE","1","f","rechts","24","","","self","f","30","true"
"null","<div style=""font-size:60px;"">+</div>","null","html-keyboard-response","210","202857","0.0-6.0-0.102","SORE","1","f","rechts","24","","fixation","","","",""
"893","img/0_300.png","70","image-keyboard-response","211","203751","0.0-6.0-1.102","SORE","1","f","rechts","24","","","self","f","0","true"
"null","<div style=""font-size:60px;"">+</div>","null","html-keyboard-response","212","204202","0.0-6.0-0.103","SORE","1","f","rechts","24","","fixation","","","",""
"1898","img/30_240.png","74","image-keyboard-response","213","206101","0.0-6.0-1.103","SORE","1","f","rechts","24","","","self","f","30","false"
"null","<div style=""font-size:60px;"">+</div>","null","html-keyboard-response","214","206403","0.0-6.0-0.104","SORE","1","f","rechts","24","","fixation","","","",""
"1634","img/L90_180.png","70","image-keyboard-response","215","208037","0.0-6.0-1.104","SORE","1","f","rechts","24","","","self","f","90","true"
"null","<div style=""font-size:60px;"">+</div>","null","html-keyboard-response","216","208339","0.0-6.0-0.105","SORE","1","f","rechts","24","","fixation","","","",""
"1077","img/0_60.png","74","image-keyboard-response","217","209416","0.0-6.0-1.105","SORE","1","f","rechts","24","","","self","j","0","true"
"null","<div style=""font-size:60px;"">+</div>","null","html-keyboard-response","218","209718","0.0-6.0-0.106","SORE","1","f","rechts","24","","fixation","","","",""
"1350","img/30_120.png","74","image-keyboard-response","219","211068","0.0-6.0-1.106","SORE","1","f","rechts","24","","","self","j","30","true"
"null","<div style=""font-size:60px;"">+</div>","null","html-keyboard-response","220","211370","0.0-6.0-0.107","SORE","1","f","rechts","24","","fixation","","","",""
"1794","img/90_30.png","74","image-keyboard-response","221","213166","0.0-6.0-1.107","SORE","1","f","rechts","24","","","self","j","90","true"
"null","<div style=""font-size:60px;"">+</div>","null","html-keyboard-response","222","213667","0.0-6.0-0.108","SORE","1","f","rechts","24","","fixation","","","",""
"889","img/30_270.png","70","image-keyboard-response","223","214557","0.0-6.0-1.108","SORE","1","f","rechts","24","","","self","f","30","true"
"null","<div style=""font-size:60px;"">+</div>","null","html-keyboard-response","224","214958","0.0-6.0-0.109","SORE","1","f","rechts","24","","fixation","","","",""
"1659","img/120_180.png","74","image-keyboard-response","225","216619","0.0-6.0-1.109","SORE","1","f","rechts","24","","","self","j","120","true"
"null","<div style=""font-size:60px;"">+</div>","null","html-keyboard-response","226","217020","0.0-6.0-0.110","SORE","1","f","rechts","24","","fixation","","","",""
"1288","img/90_180.png","74","image-keyboard-response","227","218309","0.0-6.0-1.110","SORE","1","f","rechts","24","","","self","j","90","true"
"null","<div style=""font-size:60px;"">+</div>","null","html-keyboard-response","228","218711","0.0-6.0-0.111","SORE","1","f","rechts","24","","fixation","","","",""
"1757","img/150_90.png","70","image-keyboard-response","229","220468","0.0-6.0-1.111","SORE","1","f","rechts","24","","","self","f","150","true"
"null","<div style=""font-size:60px;"">+</div>","null","html-keyboard-response","230","220870","0.0-6.0-0.112","SORE","1","f","rechts","24","","fixation","","","",""
"1322","img/L150_180.png","70","image-keyboard-response","231","222193","0.0-6.0-1.112","SORE","1","f","rechts","24","","","self","f","150","true"
"null","<div style=""font-size:60px;"">+</div>","null","html-keyboard-response","232","222494","0.0-6.0-0.113","SORE","1","f","rechts","24","","fixation","","","",""
"1496","img/90_240.png","74","image-keyboard-response","233","223991","0.0-6.0-1.113","SORE","1","f","rechts","24","","","self","j","90","true"
"null","<div style=""font-size:60px;"">+</div>","null","html-keyboard-response","234","224342","0.0-6.0-0.114","SORE","1","f","rechts","24","","fixation","","","",""
"1708","img/30_60.png","74","image-keyboard-response","235","226051","0.0-6.0-1.114","SORE","1","f","rechts","24","","","self","j","30","true"
"null","<div style=""font-size:60px;"">+</div>","null","html-keyboard-response","236","226352","0.0-6.0-0.115","SORE","1","f","rechts","24","","fixation","","","",""
"1284","img/90_60.png","74","image-keyboard-response","237","227638","0.0-6.0-1.115","SORE","1","f","rechts","24","","","self","j","90","true"
"null","<div style=""font-size:60px;"">+</div>","null","html-keyboard-response","238","228089","0.0-6.0-0.116","SORE","1","f","rechts","24","","fixation","","","",""
"1418","img/30_240.png","70","image-keyboard-response","239","229509","0.0-6.0-1.116","SORE","1","f","rechts","24","","","self","f","30","true"
"null","<div style=""font-size:60px;"">+</div>","null","html-keyboard-response","240","229910","0.0-6.0-0.117","SORE","1","f","rechts","24","","fixation","","","",""
"1572","img/60_150.png","70","image-keyboard-response","241","231484","0.0-6.0-1.117","SORE","1","f","rechts","24","","","self","f","60","true"
"null","<div style=""font-size:60px;"">+</div>","null","html-keyboard-response","242","231835","0.0-6.0-0.118","SORE","1","f","rechts","24","","fixation","","","",""
"1893","img/150_60.png","70","image-keyboard-response","243","233729","0.0-6.0-1.118","SORE","1","f","rechts","24","","","self","f","150","true"
"null","<div style=""font-size:60px;"">+</div>","null","html-keyboard-response","244","234080","0.0-6.0-0.119","SORE","1","f","rechts","24","","fixation","","","",""
"1086","img/120_90.png","70","image-keyboard-response","245","235168","0.0-6.0-1.119","SORE","1","f","rechts","24","","","self","f","120","true"
"null","<div style=""font-size:60px;"">+</div>","null","html-keyboard-response","246","235519","0.0-6.0-0.120","SORE","1","f","rechts","24","","fixation","","","",""
"1119","img/90_120.png","70","image-keyboard-response","247","236640","0.0-6.0-1.120","SORE","1","f","rechts","24","","","self","f","90","true"
"null","<div style=""font-size:60px;"">+</div>","null","html-keyboard-response","248","236941","0.0-6.0-0.121","SORE","1","f","rechts","24","","fixation","","","",""
"1206","img/90_210.png","74","image-keyboard-response","249","238149","0.0-6.0-1.121","SORE","1","f","rechts","24","","","self","j","90","true"
"null","<div style=""font-size:60px;"">+</div>","null","html-keyboard-response","250","238500","0.0-6.0-0.122","SORE","1","f","rechts","24","","fixation","","","",""
"1702","img/60_270.png","74","image-keyboard-response","251","240203","0.0-6.0-1.122","SORE","1","f","rechts","24","","","self","f","60","false"
"null","<div style=""font-size:60px;"">+</div>","null","html-keyboard-response","252","240655","0.0-6.0-0.123","SORE","1","f","rechts","24","","fixation","","","",""
"1405","img/120_210.png","74","image-keyboard-response","253","242060","0.0-6.0-1.123","SORE","1","f","rechts","24","","","self","j","120","true"
"null","<div style=""font-size:60px;"">+</div>","null","html-keyboard-response","254","242561","0.0-6.0-0.124","SORE","1","f","rechts","24","","fixation","","","",""
"1071","img/0_30.png","74","image-keyboard-response","255","243634","0.0-6.0-1.124","SORE","1","f","rechts","24","","","self","j","0","true"
"null","<div style=""font-size:60px;"">+</div>","null","html-keyboard-response","256","244085","0.0-6.0-0.125","SORE","1","f","rechts","24","","fixation","","","",""
"1304","img/0_90.png","74","image-keyboard-response","257","245390","0.0-6.0-1.125","SORE","1","f","rechts","24","","","self","j","0","true"
"null","<div style=""font-size:60px;"">+</div>","null","html-keyboard-response","258","245792","0.0-6.0-0.126","SORE","1","f","rechts","24","","fixation","","","",""
"1335","img/30_90.png","74","image-keyboard-response","259","247128","0.0-6.0-1.126","SORE","1","f","rechts","24","","","self","j","30","true"
"null","<div style=""font-size:60px;"">+</div>","null","html-keyboard-response","260","247430","0.0-6.0-0.127","SORE","1","f","rechts","24","","fixation","","","",""
"1438","img/150_240.png","74","image-keyboard-response","261","248869","0.0-6.0-1.127","SORE","1","f","rechts","24","","","self","j","150","true"
"null","<div style=""font-size:60px;"">+</div>","null","html-keyboard-response","262","249171","0.0-6.0-0.128","SORE","1","f","rechts","24","","fixation","","","",""
"1601","img/L60_180.png","70","image-keyboard-response","263","250772","0.0-6.0-1.128","SORE","1","f","rechts","24","","","self","f","60","true"
"null","<div style=""font-size:60px;"">+</div>","null","html-keyboard-response","264","251124","0.0-6.0-0.129","SORE","1","f","rechts","24","","fixation","","","",""
"802","img/0_240.png","70","image-keyboard-response","265","251926","0.0-6.0-1.129","SORE","1","f","rechts","24","","","self","f","0","true"
"null","<div style=""font-size:60px;"">+</div>","null","html-keyboard-response","266","252228","0.0-6.0-0.130","SORE","1","f","rechts","24","","fixation","","","",""
"1583","img/90_300.png","70","image-keyboard-response","267","253812","0.0-6.0-1.130","SORE","1","f","rechts","24","","","self","f","90","true"
"null","<div style=""font-size:60px;"">+</div>","null","html-keyboard-response","268","254114","0.0-6.0-0.131","SORE","1","f","rechts","24","","fixation","","","",""
"1646","img/90_330.png","70","image-keyboard-response","269","255761","0.0-6.0-1.131","SORE","1","f","rechts","24","","","self","f","90","true"
"null","<div style=""font-size:60px;"">+</div>","null","html-keyboard-response","270","256263","0.0-6.0-0.132","SORE","1","f","rechts","24","","fixation","","","",""
"1041","img/60_180.png","74","image-keyboard-response","271","257305","0.0-6.0-1.132","SORE","1","f","rechts","24","","","self","j","60","true"
"null","<div style=""font-size:60px;"">+</div>","null","html-keyboard-response","272","257807","0.0-6.0-0.133","SORE","1","f","rechts","24","","fixation","","","",""
"870","img/60_210.png","74","image-keyboard-response","273","258678","0.0-6.0-1.133","SORE","1","f","rechts","24","","","self","j","60","true"
"null","<div style=""font-size:60px;"">+</div>","null","html-keyboard-response","274","259130","0.0-6.0-0.134","SORE","1","f","rechts","24","","fixation","","","",""
"846","img/0_270.png","70","image-keyboard-response","275","259977","0.0-6.0-1.134","SORE","1","f","rechts","24","","","self","f","0","true"
"null","<div style=""font-size:60px;"">+</div>","null","html-keyboard-response","276","260479","0.0-6.0-0.135","SORE","1","f","rechts","24","","fixation","","","",""
"928","img/150_120.png","70","image-keyboard-response","277","261407","0.0-6.0-1.135","SORE","1","f","rechts","24","","","self","f","150","true"
"null","<div style=""font-size:60px;"">+</div>","null","html-keyboard-response","278","261709","0.0-6.0-0.136","SORE","1","f","rechts","24","","fixation","","","",""
"711","img/0_150.png","74","image-keyboard-response","279","262420","0.0-6.0-1.136","SORE","1","f","rechts","24","","","self","j","0","true"
"null","<div style=""font-size:60px;"">+</div>","null","html-keyboard-response","280","262771","0.0-6.0-0.137","SORE","1","f","rechts","24","","fixation","","","",""
"764","img/30_180.png","74","image-keyboard-response","281","263535","0.0-6.0-1.137","SORE","1","f","rechts","24","","","self","j","30","true"
"null","<div style=""font-size:60px;"">+</div>","null","html-keyboard-response","282","263887","0.0-6.0-0.138","SORE","1","f","rechts","24","","fixation","","","",""
"2250","img/30_300.png","70","image-keyboard-response","283","266138","0.0-6.0-1.138","SORE","1","f","rechts","24","","","self","f","30","true"
"null","<div style=""font-size:60px;"">+</div>","null","html-keyboard-response","284","266589","0.0-6.0-0.139","SORE","1","f","rechts","24","","fixation","","","",""
"766","img/60_330.png","70","image-keyboard-response","285","267356","0.0-6.0-1.139","SORE","1","f","rechts","24","","","self","f","60","true"
"null","<div style=""font-size:60px;"">+</div>","null","html-keyboard-response","286","267706","0.0-6.0-0.140","SORE","1","f","rechts","24","","fixation","","","",""
"1071","img/L120_180.png","70","image-keyboard-response","287","268778","0.0-6.0-1.140","SORE","1","f","rechts","24","","","self","f","120","true"
"null","<div style=""font-size:60px;"">+</div>","null","html-keyboard-response","288","269080","0.0-6.0-0.141","SORE","1","f","rechts","24","","fixation","","","",""
"1065","img/60_90.png","74","image-keyboard-response","289","270145","0.0-6.0-1.141","SORE","1","f","rechts","24","","","self","j","60","true"
"null","<div style=""font-size:60px;"">+</div>","null","html-keyboard-response","290","270647","0.0-6.0-0.142","SORE","1","f","rechts","24","","fixation","","","",""
"755","img/0_120.png","74","image-keyboard-response","291","271403","0.0-6.0-1.142","SORE","1","f","rechts","24","","","self","j","0","true"
"null","<div style=""font-size:60px;"">+</div>","null","html-keyboard-response","292","271755","0.0-6.0-0.143","SORE","1","f","rechts","24","","fixation","","","",""
"1270","img/150_270.png","74","image-keyboard-response","293","273025","0.0-6.0-1.143","SORE","1","f","rechts","24","","","self","j","150","true"
"null","<div style=""font-size:60px;"">+</div>","null","html-keyboard-response","294","273476","0.0-6.0-0.144","SORE","1","f","rechts","24","","fixation","","","",""
"1098","img/60_30.png","74","image-keyboard-response","295","274574","0.0-6.0-1.144","SORE","1","f","rechts","24","","","self","j","60","true"
"null","<div style=""font-size:60px;"">+</div>","null","html-keyboard-response","296","274976","0.0-6.0-0.145","SORE","1","f","rechts","24","","fixation","","","",""
"1280","img/120_270.png","74","image-keyboard-response","297","276257","0.0-6.0-1.145","SORE","1","f","rechts","24","","","self","j","120","true"
"null","<div style=""font-size:60px;"">+</div>","null","html-keyboard-response","298","276708","0.0-6.0-0.146","SORE","1","f","rechts","24","","fixation","","","",""
"1442","img/150_180.png","74","image-keyboard-response","299","278151","0.0-6.0-1.146","SORE","1","f","rechts","24","","","self","j","150","true"
"null","<div style=""font-size:60px;"">+</div>","null","html-keyboard-response","300","278452","0.0-6.0-0.147","SORE","1","f","rechts","24","","fixation","","","",""
"878","img/0_300.png","70","image-keyboard-response","301","279332","0.0-6.0-1.147","SORE","1","f","rechts","24","","","self","f","0","true"
"null","<div style=""font-size:60px;"">+</div>","null","html-keyboard-response","302","279633","0.0-6.0-0.148","SORE","1","f","rechts","24","","fixation","","","",""
"1123","img/150_300.png","74","image-keyboard-response","303","280758","0.0-6.0-1.148","SORE","1","f","rechts","24","","","self","j","150","true"
"null","<div style=""font-size:60px;"">+</div>","null","html-keyboard-response","304","281109","0.0-6.0-0.149","SORE","1","f","rechts","24","","fixation","","","",""
"1553","img/120_150.png","70","image-keyboard-response","305","282664","0.0-6.0-1.149","SORE","1","f","rechts","24","","","self","f","120","true"
"null","<div style=""font-size:60px;"">+</div>","null","html-keyboard-response","306","283015","0.0-6.0-0.150","SORE","1","f","rechts","24","","fixation","","","",""
"770","img/90_150.png","70","image-keyboard-response","307","283787","0.0-6.0-1.150","SORE","1","f","rechts","24","","","self","f","90","true"
"null","<div style=""font-size:60px;"">+</div>","null","html-keyboard-response","308","284238","0.0-6.0-0.151","SORE","1","f","rechts","24","","fixation","","","",""
"2389","img/L30_180.png","70","image-keyboard-response","309","286629","0.0-6.0-1.151","SORE","1","f","rechts","24","","","self","f","30","true"
"null","<div style=""font-size:60px;"">+</div>","null","html-keyboard-response","310","287031","0.0-6.0-0.152","SORE","1","f","rechts","24","","fixation","","","",""
"1450","img/120_30.png","74","image-keyboard-response","311","288482","0.0-6.0-1.152","SORE","1","f","rechts","24","","","self","j","120","true"
"null","<div style=""font-size:60px;"">+</div>","null","html-keyboard-response","312","288832","0.0-6.0-0.153","SORE","1","f","rechts","24","","fixation","","","",""
"1073","img/0_330.png","70","image-keyboard-response","313","289906","0.0-6.0-1.153","SORE","1","f","rechts","24","","","self","f","0","true"
"null","<div style=""font-size:60px;"">+</div>","null","html-keyboard-response","314","290407","0.0-6.0-0.154","SORE","1","f","rechts","24","","fixation","","","",""
"1416","img/120_330.png","74","image-keyboard-response","315","291824","0.0-6.0-1.154","SORE","1","f","rechts","24","","","self","f","120","false"
"null","<div style=""font-size:60px;"">+</div>","null","html-keyboard-response","316","292276","0.0-6.0-0.155","SORE","1","f","rechts","24","","fixation","","","",""
"1406","img/0_210.png","70","image-keyboard-response","317","293683","0.0-6.0-1.155","SORE","1","f","rechts","24","","","self","f","0","true"
"null","<div style=""font-size:60px;"">+</div>","null","html-keyboard-response","318","294035","0.0-6.0-0.156","SORE","1","f","rechts","24","","fixation","","","",""
"1563","img/120_150.png","70","image-keyboard-response","319","295599","0.0-6.0-1.156","SORE","1","f","rechts","24","","","self","f","120","true"
"null","<div style=""font-size:60px;"">+</div>","null","html-keyboard-response","320","296101","0.0-6.0-0.157","SORE","1","f","rechts","24","","fixation","","","",""
"1148","img/60_210.png","74","image-keyboard-response","321","297250","0.0-6.0-1.157","SORE","1","f","rechts","24","","","self","j","60","true"
"null","<div style=""font-size:60px;"">+</div>","null","html-keyboard-response","322","297702","0.0-6.0-0.158","SORE","1","f","rechts","24","","fixation","","","",""
"982","img/0_300.png","70","image-keyboard-response","323","298685","0.0-6.0-1.158","SORE","1","f","rechts","24","","","self","f","0","true"
"null","<div style=""font-size:60px;"">+</div>","null","html-keyboard-response","324","299087","0.0-6.0-0.159","SORE","1","f","rechts","24","","fixation","","","",""
"1325","img/150_90.png","70","image-keyboard-response","325","300413","0.0-6.0-1.159","SORE","1","f","rechts","24","","","self","f","150","true"
"null","<div style=""font-size:60px;"">+</div>","null","html-keyboard-response","326","300915","0.0-6.0-0.160","SORE","1","f","rechts","24","","fixation","","","",""
"1125","img/90_150.png","70","image-keyboard-response","327","302041","0.0-6.0-1.160","SORE","1","f","rechts","24","","","self","f","90","true"
"null","<div style=""font-size:60px;"">+</div>","null","html-keyboard-response","328","302343","0.0-6.0-0.161","SORE","1","f","rechts","24","","fixation","","","",""
"1067","img/90_120.png","70","image-keyboard-response","329","303411","0.0-6.0-1.161","SORE","1","f","rechts","24","","","self","f","90","true"
"null","<div style=""font-size:60px;"">+</div>","null","html-keyboard-response","330","303813","0.0-6.0-0.162","SORE","1","f","rechts","24","","fixation","","","",""
"1724","img/L60_180.png","70","image-keyboard-response","331","305538","0.0-6.0-1.162","SORE","1","f","rechts","24","","","self","f","60","true"
"null","<div style=""font-size:60px;"">+</div>","null","html-keyboard-response","332","305990","0.0-6.0-0.163","SORE","1","f","rechts","24","","fixation","","","",""
"1826","img/60_30.png","74","image-keyboard-response","333","307817","0.0-6.0-1.163","SORE","1","f","rechts","24","","","self","j","60","true"
"null","<div style=""font-size:60px;"">+</div>","null","html-keyboard-response","334","308319","0.0-6.0-0.164","SORE","1","f","rechts","24","","fixation","","","",""
"1133","img/90_210.png","74","image-keyboard-response","335","309453","0.0-6.0-1.164","SORE","1","f","rechts","24","","","self","j","90","true"
"null","<div style=""font-size:60px;"">+</div>","null","html-keyboard-response","336","309754","0.0-6.0-0.165","SORE","1","f","rechts","24","","fixation","","","",""
"1313","img/90_30.png","74","image-keyboard-response","337","311068","0.0-6.0-1.165","SORE","1","f","rechts","24","","","self","j","90","true"
"null","<div style=""font-size:60px;"">+</div>","null","html-keyboard-response","338","311470","0.0-6.0-0.166","SORE","1","f","rechts","24","","fixation","","","",""
"1165","img/0_60.png","74","image-keyboard-response","339","312635","0.0-6.0-1.166","SORE","1","f","rechts","24","","","self","j","0","true"
"null","<div style=""font-size:60px;"">+</div>","null","html-keyboard-response","340","313037","0.0-6.0-0.167","SORE","1","f","rechts","24","","fixation","","","",""
"1729","img/150_120.png","70","image-keyboard-response","341","314766","0.0-6.0-1.167","SORE","1","f","rechts","24","","","self","f","150","true"
"null","<div style=""font-size:60px;"">+</div>","null","html-keyboard-response","342","315117","0.0-6.0-0.168","SORE","1","f","rechts","24","","fixation","","","",""
"935","img/60_180.png","74","image-keyboard-response","343","316053","0.0-6.0-1.168","SORE","1","f","rechts","24","","","self","j","60","true"
"null","<div style=""font-size:60px;"">+</div>","null","html-keyboard-response","344","316555","0.0-6.0-0.169","SORE","1","f","rechts","24","","fixation","","","",""
"1974","img/150_270.png","74","image-keyboard-response","345","318530","0.0-6.0-1.169","SORE","1","f","rechts","24","","","self","j","150","true"
"null","<div style=""font-size:60px;"">+</div>","null","html-keyboard-response","346","318931","0.0-6.0-0.170","SORE","1","f","rechts","24","","fixation","","","",""
"1363","img/150_60.png","70","image-keyboard-response","347","320294","0.0-6.0-1.170","SORE","1","f","rechts","24","","","self","f","150","true"
"null","<div style=""font-size:60px;"">+</div>","null","html-keyboard-response","348","320696","0.0-6.0-0.171","SORE","1","f","rechts","24","","fixation","","","",""
"1472","img/120_180.png","74","image-keyboard-response","349","322169","0.0-6.0-1.171","SORE","1","f","rechts","24","","","self","j","120","true"
"null","<div style=""font-size:60px;"">+</div>","null","html-keyboard-response","350","322520","0.0-6.0-0.172","SORE","1","f","rechts","24","","fixation","","","",""
"800","img/0_90.png","74","image-keyboard-response","351","323321","0.0-6.0-1.172","SORE","1","f","rechts","24","","","self","j","0","true"
"null","<div style=""font-size:60px;"">+</div>","null","html-keyboard-response","352","323823","0.0-6.0-0.173","SORE","1","f","rechts","24","","fixation","","","",""
"1073","img/30_240.png","74","image-keyboard-response","353","324897","0.0-6.0-1.173","SORE","1","f","rechts","24","","","self","f","30","false"
"null","<div style=""font-size:60px;"">+</div>","null","html-keyboard-response","354","325348","0.0-6.0-0.174","SORE","1","f","rechts","24","","fixation","","","",""
"910","img/0_210.png","70","image-keyboard-response","355","326259","0.0-6.0-1.174","SORE","1","f","rechts","24","","","self","f","0","true"
"null","<div style=""font-size:60px;"">+</div>","null","html-keyboard-response","356","326661","0.0-6.0-0.175","SORE","1","f","rechts","24","","fixation","","","",""
"1379","img/90_240.png","74","image-keyboard-response","357","328040","0.0-6.0-1.175","SORE","1","f","rechts","24","","","self","j","90","true"
"null","<div style=""font-size:60px;"">+</div>","null","html-keyboard-response","358","328341","0.0-6.0-0.176","SORE","1","f","rechts","24","","fixation","","","",""
"1179","img/90_60.png","74","image-keyboard-response","359","329522","0.0-6.0-1.176","SORE","1","f","rechts","24","","","self","j","90","true"
"null","<div style=""font-size:60px;"">+</div>","null","html-keyboard-response","360","329923","0.0-6.0-0.177","SORE","1","f","rechts","24","","fixation","","","",""
"1563","img/30_180.png","74","image-keyboard-response","361","331487","0.0-6.0-1.177","SORE","1","f","rechts","24","","","self","j","30","true"
"null","<div style=""font-size:60px;"">+</div>","null","html-keyboard-response","362","331939","0.0-6.0-0.178","SORE","1","f","rechts","24","","fixation","","","",""
"1281","img/60_90.png","70","image-keyboard-response","363","333221","0.0-6.0-1.178","SORE","1","f","rechts","24","","","self","j","60","false"
"null","<div style=""font-size:60px;"">+</div>","null","html-keyboard-response","364","333573","0.0-6.0-0.179","SORE","1","f","rechts","24","","fixation","","","",""
"1068","img/60_270.png","70","image-keyboard-response","365","334642","0.0-6.0-1.179","SORE","1","f","rechts","24","","","self","f","60","true"
"null","<div style=""font-size:60px;"">+</div>","null","html-keyboard-response","366","334944","0.0-6.0-0.180","SORE","1","f","rechts","24","","fixation","","","",""
"903","img/0_270.png","70","image-keyboard-response","367","335848","0.0-6.0-1.180","SORE","1","f","rechts","24","","","self","f","0","true"
"null","<div style=""font-size:60px;"">+</div>","null","html-keyboard-response","368","336199","0.0-6.0-0.181","SORE","1","f","rechts","24","","fixation","","","",""
"1300","img/150_300.png","74","image-keyboard-response","369","337501","0.0-6.0-1.181","SORE","1","f","rechts","24","","","self","j","150","true"
"null","<div style=""font-size:60px;"">+</div>","null","html-keyboard-response","370","338002","0.0-6.0-0.182","SORE","1","f","rechts","24","","fixation","","","",""
"1365","img/120_90.png","70","image-keyboard-response","371","339369","0.0-6.0-1.182","SORE","1","f","rechts","24","","","self","f","120","true"
"null","<div style=""font-size:60px;"">+</div>","null","html-keyboard-response","372","339720","0.0-6.0-0.183","SORE","1","f","rechts","24","","fixation","","","",""
"1006","img/0_150.png","74","image-keyboard-response","373","340727","0.0-6.0-1.183","SORE","1","f","rechts","24","","","self","j","0","true"
"null","<div style=""font-size:60px;"">+</div>","null","html-keyboard-response","374","341028","0.0-6.0-0.184","SORE","1","f","rechts","24","","fixation","","","",""
"1370","img/L30_180.png","70","image-keyboard-response","375","342400","0.0-6.0-1.184","SORE","1","f","rechts","24","","","self","f","30","true"
"null","<div style=""font-size:60px;"">+</div>","null","html-keyboard-response","376","342901","0.0-6.0-0.185","SORE","1","f","rechts","24","","fixation","","","",""
"1165","img/30_270.png","70","image-keyboard-response","377","344067","0.0-6.0-1.185","SORE","1","f","rechts","24","","","self","f","30","true"
"null","<div style=""font-size:60px;"">+</div>","null","html-keyboard-response","378","344519","0.0-6.0-0.186","SORE","1","f","rechts","24","","fixation","","","",""
"1069","img/90_300.png","74","image-keyboard-response","379","345589","0.0-6.0-1.186","SORE","1","f","rechts","24","","","self","f","90","false"
"null","<div style=""font-size:60px;"">+</div>","null","html-keyboard-response","380","345941","0.0-6.0-0.187","SORE","1","f","rechts","24","","fixation","","","",""
"1366","img/0_30.png","74","image-keyboard-response","381","347308","0.0-6.0-1.187","SORE","1","f","rechts","24","","","self","j","0","true"
"null","<div style=""font-size:60px;"">+</div>","null","html-keyboard-response","382","347760","0.0-6.0-0.188","SORE","1","f","rechts","24","","fixation","","","",""
"1269","img/60_330.png","70","image-keyboard-response","383","349030","0.0-6.0-1.188","SORE","1","f","rechts","24","","","self","f","60","true"
"null","<div style=""font-size:60px;"">+</div>","null","html-keyboard-response","384","349332","0.0-6.0-0.189","SORE","1","f","rechts","24","","fixation","","","",""
"1139","img/120_210.png","74","image-keyboard-response","385","350471","0.0-6.0-1.189","SORE","1","f","rechts","24","","","self","j","120","true"
"null","<div style=""font-size:60px;"">+</div>","null","html-keyboard-response","386","350973","0.0-6.0-0.190","SORE","1","f","rechts","24","","fixation","","","",""
"1163","img/30_60.png","74","image-keyboard-response","387","352136","0.0-6.0-1.190","SORE","1","f","rechts","24","","","self","j","30","true"
"null","<div style=""font-size:60px;"">+</div>","null","html-keyboard-response","388","352538","0.0-6.0-0.191","SORE","1","f","rechts","24","","fixation","","","",""
"987","img/L150_180.png","70","image-keyboard-response","389","353526","0.0-6.0-1.191","SORE","1","f","rechts","24","","","self","f","150","true"
"null","<div style=""font-size:60px;"">+</div>","null","html-keyboard-response","390","353878","0.0-6.0-0.192","SORE","1","f","rechts","24","","fixation","","","",""
"1238","img/120_270.png","74","image-keyboard-response","391","355116","0.0-6.0-1.192","SORE","1","f","rechts","24","","","self","j","120","true"
"null","<div style=""font-size:60px;"">+</div>","null","html-keyboard-response","392","355568","0.0-6.0-0.193","SORE","1","f","rechts","24","","fixation","","","",""
"836","img/120_30.png","74","image-keyboard-response","393","356404","0.0-6.0-1.193","SORE","1","f","rechts","24","","","self","j","120","true"
"null","<div style=""font-size:60px;"">+</div>","null","html-keyboard-response","394","356856","0.0-6.0-0.194","SORE","1","f","rechts","24","","fixation","","","",""
"1063","img/150_180.png","74","image-keyboard-response","395","357920","0.0-6.0-1.194","SORE","1","f","rechts","24","","","self","j","150","true"
"null","<div style=""font-size:60px;"">+</div>","null","html-keyboard-response","396","358422","0.0-6.0-0.195","SORE","1","f","rechts","24","","fixation","","","",""
"850","img/60_150.png","70","image-keyboard-response","397","359273","0.0-6.0-1.195","SORE","1","f","rechts","24","","","self","f","60","true"
"null","<div style=""font-size:60px;"">+</div>","null","html-keyboard-response","398","359725","0.0-6.0-0.196","SORE","1","f","rechts","24","","fixation","","","",""
"836","img/30_300.png","70","image-keyboard-response","399","360561","0.0-6.0-1.196","SORE","1","f","rechts","24","","","self","f","30","true"
"null","<div style=""font-size:60px;"">+</div>","null","html-keyboard-response","400","360963","0.0-6.0-0.197","SORE","1","f","rechts","24","","fixation","","","",""
"797","img/30_120.png","74","image-keyboard-response","401","361761","0.0-6.0-1.197","SORE","1","f","rechts","24","","","self","j","30","true"
"null","<div style=""font-size:60px;"">+</div>","null","html-keyboard-response","402","362113","0.0-6.0-0.198","SORE","1","f","rechts","24","","fixation","","","",""
"1510","img/120_330.png","70","image-keyboard-response","403","363624","0.0-6.0-1.198","SORE","1","f","rechts","24","","","self","f","120","true"
"null","<div style=""font-size:60px;"">+</div>","null","html-keyboard-response","404","363926","0.0-6.0-0.199","SORE","1","f","rechts","24","","fixation","","","",""
"1296","img/30_90.png","74","image-keyboard-response","405","365223","0.0-6.0-1.199","SORE","1","f","rechts","24","","","self","j","30","true"
"null","<div style=""font-size:60px;"">+</div>","null","html-keyboard-response","406","365525","0.0-6.0-0.200","SORE","1","f","rechts","24","","fixation","","","",""
"1084","img/90_180.png","70","image-keyboard-response","407","366609","0.0-6.0-1.200","SORE","1","f","rechts","24","","","self","j","90","false"
"null","<div style=""font-size:60px;"">+</div>","null","html-keyboard-response","408","367060","0.0-6.0-0.201","SORE","1","f","rechts","24","","fixation","","","",""
"1113","img/L90_180.png","70","image-keyboard-response","409","368174","0.0-6.0-1.201","SORE","1","f","rechts","24","","","self","f","90","true"
"null","<div style=""font-size:60px;"">+</div>","null","html-keyboard-response","410","368475","0.0-6.0-0.202","SORE","1","f","rechts","24","","fixation","","","",""
"846","img/0_240.png","70","image-keyboard-response","411","369322","0.0-6.0-1.202","SORE","1","f","rechts","24","","","self","f","0","true"
"null","<div style=""font-size:60px;"">+</div>","null","html-keyboard-response","412","369674","0.0-6.0-0.203","SORE","1","f","rechts","24","","fixation","","","",""
"927","img/150_240.png","74","image-keyboard-response","413","370602","0.0-6.0-1.203","SORE","1","f","rechts","24","","","self","j","150","true"
"null","<div style=""font-size:60px;"">+</div>","null","html-keyboard-response","414","370904","0.0-6.0-0.204","SORE","1","f","rechts","24","","fixation","","","",""
"1077","img/L120_180.png","70","image-keyboard-response","415","371982","0.0-6.0-1.204","SORE","1","f","rechts","24","","","self","f","120","true"
"null","<div style=""font-size:60px;"">+</div>","null","html-keyboard-response","416","372384","0.0-6.0-0.205","SORE","1","f","rechts","24","","fixation","","","",""
"782","img/0_330.png","70","image-keyboard-response","417","373167","0.0-6.0-1.205","SORE","1","f","rechts","24","","","self","f","0","true"
"null","<div style=""font-size:60px;"">+</div>","null","html-keyboard-response","418","373469","0.0-6.0-0.206","SORE","1","f","rechts","24","","fixation","","","",""
"778","img/0_120.png","74","image-keyboard-response","419","374247","0.0-6.0-1.206","SORE","1","f","rechts","24","","","self","j","0","true"
"null","<div style=""font-size:60px;"">+</div>","null","html-keyboard-response","420","374748","0.0-6.0-0.207","SORE","1","f","rechts","24","","fixation","","","",""
"881","img/90_330.png","70","image-keyboard-response","421","375630","0.0-6.0-1.207","SORE","1","f","rechts","24","","","self","f","90","true"
"10114","<p>Du hast in 93% der Versuche korrekt entschieden.</p><p>Deine durchschnittliche Reaktionszeit war  1227ms.</p><p>Dr&uuml;cke eine beliebige Taste, um die Session zu beenden. Vielen Dank!</p>","71","html-keyboard-response","422","385746","0.0-7.0","SORE","1","f","rechts","24","","","","","",""
