"rt","stimulus","key_press","trial_type","trial_index","time_elapsed","internal_node_id","subject","session","sex","handedness","age","responses","test_part","condition","correct_response","angle","correct"
"1259","<p>Mental Rotation Experiment.</p> <p>Dr&uuml;cke eine beliebige Taste, um anzufangen.</p>","72","html-keyboard-response","0","1262","0.0-0.0","SORE","4","f","rechts","24","","","","","",""
"3145","","","survey-text","1","4409","0.0-1.0","SORE","4","f","rechts","24","{""Q0"":""SORE""}","","","","",""
"3317","","","survey-text","2","7726","0.0-2.0","SORE","4","f","rechts","24","{""Q0"":""4""}","","","","",""
"4762","","","survey-multi-choice","3","12490","0.0-3.0","SORE","4","f","rechts","24","{""Q0"":""f"",""Q1"":""rechts""}","","","","",""
"3142","","","survey-text","4","15634","0.0-4.0","SORE","4","f","rechts","24","{""Q0"":""24""}","","","","",""
"11692","<p> Stell dir vor, dass du vor einem runden Tisch stehst, auf dem sich ein blauer Ball am Tischrand befindet. Entlang des Tischrands ist jeweils ein verschieden langer Pfeil. Nun bewegst du dich entlang dieses Pfeils bis an seine Spitze. Wenn du am Ende des Pfeils angekommen bist, schau zur Tischmitte. </p> <img src='img/90_180.png'></img> <br> <p>Entscheide dann, ob der Ball von deiner neuen (vorgestellten) Position links oder rechts von dir liegt.</p> <p>Dr&uuml;cke die <strong>'f'</strong>-Taste f&uuml;r links, die <strong>'j'</strong>-Taste f&uuml;r rechts.</p> <br><p> Das Bild wird jeweils 1 Sekunde lang pr&auml;sentiert. Du hast 3 Sekunden Zeit eine Entscheidung zu treffen.</p>","32","html-keyboard-response","5","27330","0.0-5.0","SORE","4","f","rechts","24","","","","","",""
"null","<div style=""font-size:60px;"">+</div>","null","html-keyboard-response","6","28733","0.0-6.0-0.0","SORE","4","f","rechts","24","","fixation","","","",""
"853","img/0_330.png","70","image-keyboard-response","7","29588","0.0-6.0-1.0","SORE","4","f","rechts","24","","","self","f","0","true"
"null","<div style=""font-size:60px;"">+</div>","null","html-keyboard-response","8","29940","0.0-6.0-0.1","SORE","4","f","rechts","24","","fixation","","","",""
"1414","img/60_90.png","74","image-keyboard-response","9","31355","0.0-6.0-1.1","SORE","4","f","rechts","24","","","self","j","60","true"
"null","<div style=""font-size:60px;"">+</div>","null","html-keyboard-response","10","31657","0.0-6.0-0.2","SORE","4","f","rechts","24","","fixation","","","",""
"989","img/90_180.png","74","image-keyboard-response","11","32646","0.0-6.0-1.2","SORE","4","f","rechts","24","","","self","j","90","true"
"null","<div style=""font-size:60px;"">+</div>","null","html-keyboard-response","12","32948","0.0-6.0-0.3","SORE","4","f","rechts","24","","fixation","","","",""
"1072","img/30_300.png","70","image-keyboard-response","13","34021","0.0-6.0-1.3","SORE","4","f","rechts","24","","","self","f","30","true"
"null","<div style=""font-size:60px;"">+</div>","null","html-keyboard-response","14","34323","0.0-6.0-0.4","SORE","4","f","rechts","24","","fixation","","","",""
"996","img/150_60.png","70","image-keyboard-response","15","35320","0.0-6.0-1.4","SORE","4","f","rechts","24","","","self","f","150","true"
"null","<div style=""font-size:60px;"">+</div>","null","html-keyboard-response","16","35722","0.0-6.0-0.5","SORE","4","f","rechts","24","","fixation","","","",""
"932","img/150_180.png","74","image-keyboard-response","17","36654","0.0-6.0-1.5","SORE","4","f","rechts","24","","","self","j","150","true"
"null","<div style=""font-size:60px;"">+</div>","null","html-keyboard-response","18","37105","0.0-6.0-0.6","SORE","4","f","rechts","24","","fixation","","","",""
"839","img/120_180.png","74","image-keyboard-response","19","37945","0.0-6.0-1.6","SORE","4","f","rechts","24","","","self","j","120","true"
"null","<div style=""font-size:60px;"">+</div>","null","html-keyboard-response","20","38346","0.0-6.0-0.7","SORE","4","f","rechts","24","","fixation","","","",""
"1077","img/30_60.png","74","image-keyboard-response","21","39424","0.0-6.0-1.7","SORE","4","f","rechts","24","","","self","j","30","true"
"null","<div style=""font-size:60px;"">+</div>","null","html-keyboard-response","22","39875","0.0-6.0-0.8","SORE","4","f","rechts","24","","fixation","","","",""
"1069","img/90_150.png","70","image-keyboard-response","23","40945","0.0-6.0-1.8","SORE","4","f","rechts","24","","","self","f","90","true"
"null","<div style=""font-size:60px;"">+</div>","null","html-keyboard-response","24","41396","0.0-6.0-0.9","SORE","4","f","rechts","24","","fixation","","","",""
"1064","img/90_60.png","74","image-keyboard-response","25","42461","0.0-6.0-1.9","SORE","4","f","rechts","24","","","self","j","90","true"
"null","<div style=""font-size:60px;"">+</div>","null","html-keyboard-response","26","42763","0.0-6.0-0.10","SORE","4","f","rechts","24","","fixation","","","",""
"1076","img/30_270.png","70","image-keyboard-response","27","43839","0.0-6.0-1.10","SORE","4","f","rechts","24","","","self","f","30","true"
"null","<div style=""font-size:60px;"">+</div>","null","html-keyboard-response","28","44341","0.0-6.0-0.11","SORE","4","f","rechts","24","","fixation","","","",""
"942","img/L150_180.png","70","image-keyboard-response","29","45284","0.0-6.0-1.11","SORE","4","f","rechts","24","","","self","f","150","true"
"null","<div style=""font-size:60px;"">+</div>","null","html-keyboard-response","30","45785","0.0-6.0-0.12","SORE","4","f","rechts","24","","fixation","","","",""
"811","img/0_150.png","74","image-keyboard-response","31","46597","0.0-6.0-1.12","SORE","4","f","rechts","24","","","self","j","0","true"
"null","<div style=""font-size:60px;"">+</div>","null","html-keyboard-response","32","46948","0.0-6.0-0.13","SORE","4","f","rechts","24","","fixation","","","",""
"775","img/0_90.png","74","image-keyboard-response","33","47724","0.0-6.0-1.13","SORE","4","f","rechts","24","","","self","j","0","true"
"null","<div style=""font-size:60px;"">+</div>","null","html-keyboard-response","34","48225","0.0-6.0-0.14","SORE","4","f","rechts","24","","fixation","","","",""
"794","img/L120_180.png","70","image-keyboard-response","35","49020","0.0-6.0-1.14","SORE","4","f","rechts","24","","","self","f","120","true"
"null","<div style=""font-size:60px;"">+</div>","null","html-keyboard-response","36","49522","0.0-6.0-0.15","SORE","4","f","rechts","24","","fixation","","","",""
"706","img/120_90.png","70","image-keyboard-response","37","50229","0.0-6.0-1.15","SORE","4","f","rechts","24","","","self","f","120","true"
"null","<div style=""font-size:60px;"">+</div>","null","html-keyboard-response","38","50581","0.0-6.0-0.16","SORE","4","f","rechts","24","","fixation","","","",""
"772","img/150_270.png","74","image-keyboard-response","39","51354","0.0-6.0-1.16","SORE","4","f","rechts","24","","","self","j","150","true"
"null","<div style=""font-size:60px;"">+</div>","null","html-keyboard-response","40","51805","0.0-6.0-0.17","SORE","4","f","rechts","24","","fixation","","","",""
"720","img/60_30.png","74","image-keyboard-response","41","52526","0.0-6.0-1.17","SORE","4","f","rechts","24","","","self","j","60","true"
"null","<div style=""font-size:60px;"">+</div>","null","html-keyboard-response","42","52828","0.0-6.0-0.18","SORE","4","f","rechts","24","","fixation","","","",""
"944","img/30_120.png","70","image-keyboard-response","43","53772","0.0-6.0-1.18","SORE","4","f","rechts","24","","","self","j","30","false"
"null","<div style=""font-size:60px;"">+</div>","null","html-keyboard-response","44","54274","0.0-6.0-0.19","SORE","4","f","rechts","24","","fixation","","","",""
"734","img/150_120.png","70","image-keyboard-response","45","55010","0.0-6.0-1.19","SORE","4","f","rechts","24","","","self","f","150","true"
"null","<div style=""font-size:60px;"">+</div>","null","html-keyboard-response","46","55411","0.0-6.0-0.20","SORE","4","f","rechts","24","","fixation","","","",""
"1290","img/120_330.png","74","image-keyboard-response","47","56703","0.0-6.0-1.20","SORE","4","f","rechts","24","","","self","f","120","false"
"null","<div style=""font-size:60px;"">+</div>","null","html-keyboard-response","48","57004","0.0-6.0-0.21","SORE","4","f","rechts","24","","fixation","","","",""
"903","img/90_330.png","70","image-keyboard-response","49","57909","0.0-6.0-1.21","SORE","4","f","rechts","24","","","self","f","90","true"
"null","<div style=""font-size:60px;"">+</div>","null","html-keyboard-response","50","58311","0.0-6.0-0.22","SORE","4","f","rechts","24","","fixation","","","",""
"812","img/60_330.png","70","image-keyboard-response","51","59124","0.0-6.0-1.22","SORE","4","f","rechts","24","","","self","f","60","true"
"null","<div style=""font-size:60px;"">+</div>","null","html-keyboard-response","52","59476","0.0-6.0-0.23","SORE","4","f","rechts","24","","fixation","","","",""
"789","img/0_60.png","74","image-keyboard-response","53","60266","0.0-6.0-1.23","SORE","4","f","rechts","24","","","self","j","0","true"
"null","<div style=""font-size:60px;"">+</div>","null","html-keyboard-response","54","60568","0.0-6.0-0.24","SORE","4","f","rechts","24","","fixation","","","",""
"799","img/150_240.png","74","image-keyboard-response","55","61368","0.0-6.0-1.24","SORE","4","f","rechts","24","","","self","j","150","true"
"null","<div style=""font-size:60px;"">+</div>","null","html-keyboard-response","56","61720","0.0-6.0-0.25","SORE","4","f","rechts","24","","fixation","","","",""
"768","img/150_300.png","74","image-keyboard-response","57","62489","0.0-6.0-1.25","SORE","4","f","rechts","24","","","self","j","150","true"
"null","<div style=""font-size:60px;"">+</div>","null","html-keyboard-response","58","62841","0.0-6.0-0.26","SORE","4","f","rechts","24","","fixation","","","",""
"811","img/60_210.png","74","image-keyboard-response","59","63653","0.0-6.0-1.26","SORE","4","f","rechts","24","","","self","j","60","true"
"null","<div style=""font-size:60px;"">+</div>","null","html-keyboard-response","60","63955","0.0-6.0-0.27","SORE","4","f","rechts","24","","fixation","","","",""
"1067","img/30_90.png","74","image-keyboard-response","61","65023","0.0-6.0-1.27","SORE","4","f","rechts","24","","","self","j","30","true"
"null","<div style=""font-size:60px;"">+</div>","null","html-keyboard-response","62","65375","0.0-6.0-0.28","SORE","4","f","rechts","24","","fixation","","","",""
"868","img/0_120.png","74","image-keyboard-response","63","66244","0.0-6.0-1.28","SORE","4","f","rechts","24","","","self","j","0","true"
"null","<div style=""font-size:60px;"">+</div>","null","html-keyboard-response","64","66546","0.0-6.0-0.29","SORE","4","f","rechts","24","","fixation","","","",""
"804","img/0_210.png","70","image-keyboard-response","65","67351","0.0-6.0-1.29","SORE","4","f","rechts","24","","","self","f","0","true"
"null","<div style=""font-size:60px;"">+</div>","null","html-keyboard-response","66","67753","0.0-6.0-0.30","SORE","4","f","rechts","24","","fixation","","","",""
"1188","img/30_240.png","70","image-keyboard-response","67","68942","0.0-6.0-1.30","SORE","4","f","rechts","24","","","self","f","30","true"
"null","<div style=""font-size:60px;"">+</div>","null","html-keyboard-response","68","69344","0.0-6.0-0.31","SORE","4","f","rechts","24","","fixation","","","",""
"718","img/0_240.png","70","image-keyboard-response","69","70063","0.0-6.0-1.31","SORE","4","f","rechts","24","","","self","f","0","true"
"null","<div style=""font-size:60px;"">+</div>","null","html-keyboard-response","70","70365","0.0-6.0-0.32","SORE","4","f","rechts","24","","fixation","","","",""
"1003","img/90_30.png","74","image-keyboard-response","71","71369","0.0-6.0-1.32","SORE","4","f","rechts","24","","","self","j","90","true"
"null","<div style=""font-size:60px;"">+</div>","null","html-keyboard-response","72","71721","0.0-6.0-0.33","SORE","4","f","rechts","24","","fixation","","","",""
"992","img/90_300.png","70","image-keyboard-response","73","72714","0.0-6.0-1.33","SORE","4","f","rechts","24","","","self","f","90","true"
"null","<div style=""font-size:60px;"">+</div>","null","html-keyboard-response","74","73216","0.0-6.0-0.34","SORE","4","f","rechts","24","","fixation","","","",""
"701","img/0_300.png","70","image-keyboard-response","75","73918","0.0-6.0-1.34","SORE","4","f","rechts","24","","","self","f","0","true"
"null","<div style=""font-size:60px;"">+</div>","null","html-keyboard-response","76","74220","0.0-6.0-0.35","SORE","4","f","rechts","24","","fixation","","","",""
"861","img/0_270.png","70","image-keyboard-response","77","75081","0.0-6.0-1.35","SORE","4","f","rechts","24","","","self","f","0","true"
"null","<div style=""font-size:60px;"">+</div>","null","html-keyboard-response","78","75433","0.0-6.0-0.36","SORE","4","f","rechts","24","","fixation","","","",""
"961","img/150_90.png","70","image-keyboard-response","79","76395","0.0-6.0-1.36","SORE","4","f","rechts","24","","","self","f","150","true"
"null","<div style=""font-size:60px;"">+</div>","null","html-keyboard-response","80","76847","0.0-6.0-0.37","SORE","4","f","rechts","24","","fixation","","","",""
"771","img/120_150.png","70","image-keyboard-response","81","77619","0.0-6.0-1.37","SORE","4","f","rechts","24","","","self","f","120","true"
"null","<div style=""font-size:60px;"">+</div>","null","html-keyboard-response","82","78121","0.0-6.0-0.38","SORE","4","f","rechts","24","","fixation","","","",""
"969","img/90_120.png","70","image-keyboard-response","83","79091","0.0-6.0-1.38","SORE","4","f","rechts","24","","","self","f","90","true"
"null","<div style=""font-size:60px;"">+</div>","null","html-keyboard-response","84","79593","0.0-6.0-0.39","SORE","4","f","rechts","24","","fixation","","","",""
"1102","img/120_30.png","74","image-keyboard-response","85","80696","0.0-6.0-1.39","SORE","4","f","rechts","24","","","self","j","120","true"
"null","<div style=""font-size:60px;"">+</div>","null","html-keyboard-response","86","81148","0.0-6.0-0.40","SORE","4","f","rechts","24","","fixation","","","",""
"1405","img/120_270.png","74","image-keyboard-response","87","82553","0.0-6.0-1.40","SORE","4","f","rechts","24","","","self","j","120","true"
"null","<div style=""font-size:60px;"">+</div>","null","html-keyboard-response","88","82905","0.0-6.0-0.41","SORE","4","f","rechts","24","","fixation","","","",""
"1083","img/90_210.png","74","image-keyboard-response","89","83988","0.0-6.0-1.41","SORE","4","f","rechts","24","","","self","j","90","true"
"null","<div style=""font-size:60px;"">+</div>","null","html-keyboard-response","90","84490","0.0-6.0-0.42","SORE","4","f","rechts","24","","fixation","","","",""
"777","img/120_210.png","74","image-keyboard-response","91","85267","0.0-6.0-1.42","SORE","4","f","rechts","24","","","self","j","120","true"
"null","<div style=""font-size:60px;"">+</div>","null","html-keyboard-response","92","85618","0.0-6.0-0.43","SORE","4","f","rechts","24","","fixation","","","",""
"907","img/L60_180.png","70","image-keyboard-response","93","86526","0.0-6.0-1.43","SORE","4","f","rechts","24","","","self","f","60","true"
"null","<div style=""font-size:60px;"">+</div>","null","html-keyboard-response","94","86827","0.0-6.0-0.44","SORE","4","f","rechts","24","","fixation","","","",""
"841","img/0_30.png","74","image-keyboard-response","95","87669","0.0-6.0-1.44","SORE","4","f","rechts","24","","","self","j","0","true"
"null","<div style=""font-size:60px;"">+</div>","null","html-keyboard-response","96","88020","0.0-6.0-0.45","SORE","4","f","rechts","24","","fixation","","","",""
"809","img/60_150.png","70","image-keyboard-response","97","88829","0.0-6.0-1.45","SORE","4","f","rechts","24","","","self","f","60","true"
"null","<div style=""font-size:60px;"">+</div>","null","html-keyboard-response","98","89131","0.0-6.0-0.46","SORE","4","f","rechts","24","","fixation","","","",""
"844","img/L90_180.png","70","image-keyboard-response","99","89976","0.0-6.0-1.46","SORE","4","f","rechts","24","","","self","f","90","true"
"null","<div style=""font-size:60px;"">+</div>","null","html-keyboard-response","100","90328","0.0-6.0-0.47","SORE","4","f","rechts","24","","fixation","","","",""
"780","img/30_180.png","74","image-keyboard-response","101","91109","0.0-6.0-1.47","SORE","4","f","rechts","24","","","self","j","30","true"
"null","<div style=""font-size:60px;"">+</div>","null","html-keyboard-response","102","91511","0.0-6.0-0.48","SORE","4","f","rechts","24","","fixation","","","",""
"1077","img/60_270.png","74","image-keyboard-response","103","92589","0.0-6.0-1.48","SORE","4","f","rechts","24","","","self","f","60","false"
"null","<div style=""font-size:60px;"">+</div>","null","html-keyboard-response","104","92940","0.0-6.0-0.49","SORE","4","f","rechts","24","","fixation","","","",""
"1121","img/90_240.png","74","image-keyboard-response","105","94063","0.0-6.0-1.49","SORE","4","f","rechts","24","","","self","j","90","true"
"null","<div style=""font-size:60px;"">+</div>","null","html-keyboard-response","106","94514","0.0-6.0-0.50","SORE","4","f","rechts","24","","fixation","","","",""
"743","img/L30_180.png","70","image-keyboard-response","107","95258","0.0-6.0-1.50","SORE","4","f","rechts","24","","","self","f","30","true"
"null","<div style=""font-size:60px;"">+</div>","null","html-keyboard-response","108","95759","0.0-6.0-0.51","SORE","4","f","rechts","24","","fixation","","","",""
"781","img/60_180.png","74","image-keyboard-response","109","96541","0.0-6.0-1.51","SORE","4","f","rechts","24","","","self","j","60","true"
"null","<div style=""font-size:60px;"">+</div>","null","html-keyboard-response","110","96893","0.0-6.0-0.52","SORE","4","f","rechts","24","","fixation","","","",""
"833","img/90_120.png","70","image-keyboard-response","111","97727","0.0-6.0-1.52","SORE","4","f","rechts","24","","","self","f","90","true"
"null","<div style=""font-size:60px;"">+</div>","null","html-keyboard-response","112","98228","0.0-6.0-0.53","SORE","4","f","rechts","24","","fixation","","","",""
"692","img/90_210.png","74","image-keyboard-response","113","98921","0.0-6.0-1.53","SORE","4","f","rechts","24","","","self","j","90","true"
"null","<div style=""font-size:60px;"">+</div>","null","html-keyboard-response","114","99323","0.0-6.0-0.54","SORE","4","f","rechts","24","","fixation","","","",""
"1092","img/60_270.png","70","image-keyboard-response","115","100416","0.0-6.0-1.54","SORE","4","f","rechts","24","","","self","f","60","true"
"null","<div style=""font-size:60px;"">+</div>","null","html-keyboard-response","116","100817","0.0-6.0-0.55","SORE","4","f","rechts","24","","fixation","","","",""
"682","img/30_90.png","74","image-keyboard-response","117","101500","0.0-6.0-1.55","SORE","4","f","rechts","24","","","self","j","30","true"
"null","<div style=""font-size:60px;"">+</div>","null","html-keyboard-response","118","102001","0.0-6.0-0.56","SORE","4","f","rechts","24","","fixation","","","",""
"914","img/30_270.png","70","image-keyboard-response","119","102917","0.0-6.0-1.56","SORE","4","f","rechts","24","","","self","f","30","true"
"null","<div style=""font-size:60px;"">+</div>","null","html-keyboard-response","120","103218","0.0-6.0-0.57","SORE","4","f","rechts","24","","fixation","","","",""
"1131","img/30_240.png","74","image-keyboard-response","121","104351","0.0-6.0-1.57","SORE","4","f","rechts","24","","","self","f","30","false"
"null","<div style=""font-size:60px;"">+</div>","null","html-keyboard-response","122","104752","0.0-6.0-0.58","SORE","4","f","rechts","24","","fixation","","","",""
"885","img/90_30.png","74","image-keyboard-response","123","105639","0.0-6.0-1.58","SORE","4","f","rechts","24","","","self","j","90","true"
"null","<div style=""font-size:60px;"">+</div>","null","html-keyboard-response","124","106040","0.0-6.0-0.59","SORE","4","f","rechts","24","","fixation","","","",""
"747","img/120_210.png","74","image-keyboard-response","125","106789","0.0-6.0-1.59","SORE","4","f","rechts","24","","","self","j","120","true"
"null","<div style=""font-size:60px;"">+</div>","null","html-keyboard-response","126","107290","0.0-6.0-0.60","SORE","4","f","rechts","24","","fixation","","","",""
"778","img/150_180.png","74","image-keyboard-response","127","108070","0.0-6.0-1.60","SORE","4","f","rechts","24","","","self","j","150","true"
"null","<div style=""font-size:60px;"">+</div>","null","html-keyboard-response","128","108371","0.0-6.0-0.61","SORE","4","f","rechts","24","","fixation","","","",""
"813","img/90_180.png","74","image-keyboard-response","129","109185","0.0-6.0-1.61","SORE","4","f","rechts","24","","","self","j","90","true"
"null","<div style=""font-size:60px;"">+</div>","null","html-keyboard-response","130","109587","0.0-6.0-0.62","SORE","4","f","rechts","24","","fixation","","","",""
"770","img/120_180.png","74","image-keyboard-response","131","110358","0.0-6.0-1.62","SORE","4","f","rechts","24","","","self","j","120","true"
"null","<div style=""font-size:60px;"">+</div>","null","html-keyboard-response","132","110659","0.0-6.0-0.63","SORE","4","f","rechts","24","","fixation","","","",""
"815","img/0_210.png","70","image-keyboard-response","133","111475","0.0-6.0-1.63","SORE","4","f","rechts","24","","","self","f","0","true"
"null","<div style=""font-size:60px;"">+</div>","null","html-keyboard-response","134","111977","0.0-6.0-0.64","SORE","4","f","rechts","24","","fixation","","","",""
"814","img/0_240.png","70","image-keyboard-response","135","112792","0.0-6.0-1.64","SORE","4","f","rechts","24","","","self","f","0","true"
"null","<div style=""font-size:60px;"">+</div>","null","html-keyboard-response","136","113094","0.0-6.0-0.65","SORE","4","f","rechts","24","","fixation","","","",""
"813","img/0_330.png","70","image-keyboard-response","137","113908","0.0-6.0-1.65","SORE","4","f","rechts","24","","","self","f","0","true"
"null","<div style=""font-size:60px;"">+</div>","null","html-keyboard-response","138","114410","0.0-6.0-0.66","SORE","4","f","rechts","24","","fixation","","","",""
"658","img/0_60.png","74","image-keyboard-response","139","115069","0.0-6.0-1.66","SORE","4","f","rechts","24","","","self","j","0","true"
"null","<div style=""font-size:60px;"">+</div>","null","html-keyboard-response","140","115571","0.0-6.0-0.67","SORE","4","f","rechts","24","","fixation","","","",""
"1379","img/150_60.png","70","image-keyboard-response","141","116951","0.0-6.0-1.67","SORE","4","f","rechts","24","","","self","f","150","true"
"null","<div style=""font-size:60px;"">+</div>","null","html-keyboard-response","142","117253","0.0-6.0-0.68","SORE","4","f","rechts","24","","fixation","","","",""
"832","img/60_210.png","74","image-keyboard-response","143","118086","0.0-6.0-1.68","SORE","4","f","rechts","24","","","self","j","60","true"
"null","<div style=""font-size:60px;"">+</div>","null","html-keyboard-response","144","118588","0.0-6.0-0.69","SORE","4","f","rechts","24","","fixation","","","",""
"758","img/90_240.png","74","image-keyboard-response","145","119346","0.0-6.0-1.69","SORE","4","f","rechts","24","","","self","j","90","true"
"null","<div style=""font-size:60px;"">+</div>","null","html-keyboard-response","146","119798","0.0-6.0-0.70","SORE","4","f","rechts","24","","fixation","","","",""
"799","img/L90_180.png","70","image-keyboard-response","147","120598","0.0-6.0-1.70","SORE","4","f","rechts","24","","","self","f","90","true"
"null","<div style=""font-size:60px;"">+</div>","null","html-keyboard-response","148","121000","0.0-6.0-0.71","SORE","4","f","rechts","24","","fixation","","","",""
"698","img/30_180.png","74","image-keyboard-response","149","121699","0.0-6.0-1.71","SORE","4","f","rechts","24","","","self","j","30","true"
"null","<div style=""font-size:60px;"">+</div>","null","html-keyboard-response","150","122001","0.0-6.0-0.72","SORE","4","f","rechts","24","","fixation","","","",""
"913","img/60_150.png","70","image-keyboard-response","151","122915","0.0-6.0-1.72","SORE","4","f","rechts","24","","","self","f","60","true"
"null","<div style=""font-size:60px;"">+</div>","null","html-keyboard-response","152","123417","0.0-6.0-0.73","SORE","4","f","rechts","24","","fixation","","","",""
"1934","img/60_90.png","74","image-keyboard-response","153","125351","0.0-6.0-1.73","SORE","4","f","rechts","24","","","self","j","60","true"
"null","<div style=""font-size:60px;"">+</div>","null","html-keyboard-response","154","125653","0.0-6.0-0.74","SORE","4","f","rechts","24","","fixation","","","",""
"1846","img/30_120.png","70","image-keyboard-response","155","127500","0.0-6.0-1.74","SORE","4","f","rechts","24","","","self","j","30","false"
"null","<div style=""font-size:60px;"">+</div>","null","html-keyboard-response","156","127852","0.0-6.0-0.75","SORE","4","f","rechts","24","","fixation","","","",""
"1292","img/30_60.png","74","image-keyboard-response","157","129144","0.0-6.0-1.75","SORE","4","f","rechts","24","","","self","j","30","true"
"null","<div style=""font-size:60px;"">+</div>","null","html-keyboard-response","158","129646","0.0-6.0-0.76","SORE","4","f","rechts","24","","fixation","","","",""
"727","img/0_300.png","70","image-keyboard-response","159","130373","0.0-6.0-1.76","SORE","4","f","rechts","24","","","self","f","0","true"
"null","<div style=""font-size:60px;"">+</div>","null","html-keyboard-response","160","130725","0.0-6.0-0.77","SORE","4","f","rechts","24","","fixation","","","",""
"961","img/60_30.png","74","image-keyboard-response","161","131687","0.0-6.0-1.77","SORE","4","f","rechts","24","","","self","j","60","true"
"null","<div style=""font-size:60px;"">+</div>","null","html-keyboard-response","162","131989","0.0-6.0-0.78","SORE","4","f","rechts","24","","fixation","","","",""
"853","img/150_240.png","74","image-keyboard-response","163","132843","0.0-6.0-1.78","SORE","4","f","rechts","24","","","self","j","150","true"
"null","<div style=""font-size:60px;"">+</div>","null","html-keyboard-response","164","133294","0.0-6.0-0.79","SORE","4","f","rechts","24","","fixation","","","",""
"778","img/L30_180.png","70","image-keyboard-response","165","134073","0.0-6.0-1.79","SORE","4","f","rechts","24","","","self","f","30","true"
"null","<div style=""font-size:60px;"">+</div>","null","html-keyboard-response","166","134574","0.0-6.0-0.80","SORE","4","f","rechts","24","","fixation","","","",""
"996","img/90_60.png","70","image-keyboard-response","167","135571","0.0-6.0-1.80","SORE","4","f","rechts","24","","","self","j","90","false"
"null","<div style=""font-size:60px;"">+</div>","null","html-keyboard-response","168","136073","0.0-6.0-0.81","SORE","4","f","rechts","24","","fixation","","","",""
"1055","img/120_90.png","70","image-keyboard-response","169","137128","0.0-6.0-1.81","SORE","4","f","rechts","24","","","self","f","120","true"
"null","<div style=""font-size:60px;"">+</div>","null","html-keyboard-response","170","137530","0.0-6.0-0.82","SORE","4","f","rechts","24","","fixation","","","",""
"912","img/60_330.png","70","image-keyboard-response","171","138442","0.0-6.0-1.82","SORE","4","f","rechts","24","","","self","f","60","true"
"null","<div style=""font-size:60px;"">+</div>","null","html-keyboard-response","172","138793","0.0-6.0-0.83","SORE","4","f","rechts","24","","fixation","","","",""
"961","img/90_150.png","70","image-keyboard-response","173","139755","0.0-6.0-1.83","SORE","4","f","rechts","24","","","self","f","90","true"
"null","<div style=""font-size:60px;"">+</div>","null","html-keyboard-response","174","140157","0.0-6.0-0.84","SORE","4","f","rechts","24","","fixation","","","",""
"864","img/120_270.png","74","image-keyboard-response","175","141022","0.0-6.0-1.84","SORE","4","f","rechts","24","","","self","j","120","true"
"null","<div style=""font-size:60px;"">+</div>","null","html-keyboard-response","176","141373","0.0-6.0-0.85","SORE","4","f","rechts","24","","fixation","","","",""
"1078","img/90_300.png","70","image-keyboard-response","177","142452","0.0-6.0-1.85","SORE","4","f","rechts","24","","","self","f","90","true"
"null","<div style=""font-size:60px;"">+</div>","null","html-keyboard-response","178","142904","0.0-6.0-0.86","SORE","4","f","rechts","24","","fixation","","","",""
"1065","img/90_330.png","74","image-keyboard-response","179","143969","0.0-6.0-1.86","SORE","4","f","rechts","24","","","self","f","90","false"
"null","<div style=""font-size:60px;"">+</div>","null","html-keyboard-response","180","144420","0.0-6.0-0.87","SORE","4","f","rechts","24","","fixation","","","",""
"843","img/150_300.png","74","image-keyboard-response","181","145264","0.0-6.0-1.87","SORE","4","f","rechts","24","","","self","j","150","true"
"null","<div style=""font-size:60px;"">+</div>","null","html-keyboard-response","182","145666","0.0-6.0-0.88","SORE","4","f","rechts","24","","fixation","","","",""
"926","img/120_150.png","74","image-keyboard-response","183","146594","0.0-6.0-1.88","SORE","4","f","rechts","24","","","self","f","120","false"
"null","<div style=""font-size:60px;"">+</div>","null","html-keyboard-response","184","146995","0.0-6.0-0.89","SORE","4","f","rechts","24","","fixation","","","",""
"771","img/0_150.png","74","image-keyboard-response","185","147768","0.0-6.0-1.89","SORE","4","f","rechts","24","","","self","j","0","true"
"null","<div style=""font-size:60px;"">+</div>","null","html-keyboard-response","186","148269","0.0-6.0-0.90","SORE","4","f","rechts","24","","fixation","","","",""
"801","img/0_30.png","74","image-keyboard-response","187","149071","0.0-6.0-1.90","SORE","4","f","rechts","24","","","self","j","0","true"
"null","<div style=""font-size:60px;"">+</div>","null","html-keyboard-response","188","149422","0.0-6.0-0.91","SORE","4","f","rechts","24","","fixation","","","",""
"760","img/60_180.png","74","image-keyboard-response","189","150183","0.0-6.0-1.91","SORE","4","f","rechts","24","","","self","j","60","true"
"null","<div style=""font-size:60px;"">+</div>","null","html-keyboard-response","190","150484","0.0-6.0-0.92","SORE","4","f","rechts","24","","fixation","","","",""
"751","img/L150_180.png","70","image-keyboard-response","191","151236","0.0-6.0-1.92","SORE","4","f","rechts","24","","","self","f","150","true"
"null","<div style=""font-size:60px;"">+</div>","null","html-keyboard-response","192","151687","0.0-6.0-0.93","SORE","4","f","rechts","24","","fixation","","","",""
"640","img/0_270.png","70","image-keyboard-response","193","152328","0.0-6.0-1.93","SORE","4","f","rechts","24","","","self","f","0","true"
"null","<div style=""font-size:60px;"">+</div>","null","html-keyboard-response","194","152629","0.0-6.0-0.94","SORE","4","f","rechts","24","","fixation","","","",""
"652","img/150_270.png","74","image-keyboard-response","195","153282","0.0-6.0-1.94","SORE","4","f","rechts","24","","","self","j","150","true"
"null","<div style=""font-size:60px;"">+</div>","null","html-keyboard-response","196","153733","0.0-6.0-0.95","SORE","4","f","rechts","24","","fixation","","","",""
"1474","img/120_330.png","70","image-keyboard-response","197","155209","0.0-6.0-1.95","SORE","4","f","rechts","24","","","self","f","120","true"
"null","<div style=""font-size:60px;"">+</div>","null","html-keyboard-response","198","155660","0.0-6.0-0.96","SORE","4","f","rechts","24","","fixation","","","",""
"899","img/150_120.png","70","image-keyboard-response","199","156561","0.0-6.0-1.96","SORE","4","f","rechts","24","","","self","f","150","true"
"null","<div style=""font-size:60px;"">+</div>","null","html-keyboard-response","200","156862","0.0-6.0-0.97","SORE","4","f","rechts","24","","fixation","","","",""
"1658","img/30_300.png","70","image-keyboard-response","201","158521","0.0-6.0-1.97","SORE","4","f","rechts","24","","","self","f","30","true"
"null","<div style=""font-size:60px;"">+</div>","null","html-keyboard-response","202","159023","0.0-6.0-0.98","SORE","4","f","rechts","24","","fixation","","","",""
"683","img/0_90.png","74","image-keyboard-response","203","159706","0.0-6.0-1.98","SORE","4","f","rechts","24","","","self","j","0","true"
"null","<div style=""font-size:60px;"">+</div>","null","html-keyboard-response","204","160208","0.0-6.0-0.99","SORE","4","f","rechts","24","","fixation","","","",""
"1576","img/120_30.png","74","image-keyboard-response","205","161785","0.0-6.0-1.99","SORE","4","f","rechts","24","","","self","j","120","true"
"null","<div style=""font-size:60px;"">+</div>","null","html-keyboard-response","206","162237","0.0-6.0-0.100","SORE","4","f","rechts","24","","fixation","","","",""
"685","img/0_120.png","74","image-keyboard-response","207","162923","0.0-6.0-1.100","SORE","4","f","rechts","24","","","self","j","0","true"
"null","<div style=""font-size:60px;"">+</div>","null","html-keyboard-response","208","163275","0.0-6.0-0.101","SORE","4","f","rechts","24","","fixation","","","",""
"703","img/L60_180.png","70","image-keyboard-response","209","163980","0.0-6.0-1.101","SORE","4","f","rechts","24","","","self","f","60","true"
"null","<div style=""font-size:60px;"">+</div>","null","html-keyboard-response","210","164381","0.0-6.0-0.102","SORE","4","f","rechts","24","","fixation","","","",""
"831","img/150_90.png","70","image-keyboard-response","211","165213","0.0-6.0-1.102","SORE","4","f","rechts","24","","","self","f","150","true"
"null","<div style=""font-size:60px;"">+</div>","null","html-keyboard-response","212","165565","0.0-6.0-0.103","SORE","4","f","rechts","24","","fixation","","","",""
"697","img/L120_180.png","70","image-keyboard-response","213","166263","0.0-6.0-1.103","SORE","4","f","rechts","24","","","self","f","120","true"
"null","<div style=""font-size:60px;"">+</div>","null","html-keyboard-response","214","166565","0.0-6.0-0.104","SORE","4","f","rechts","24","","fixation","","","",""
"710","img/150_180.png","74","image-keyboard-response","215","167276","0.0-6.0-1.104","SORE","4","f","rechts","24","","","self","j","150","true"
"null","<div style=""font-size:60px;"">+</div>","null","html-keyboard-response","216","167778","0.0-6.0-0.105","SORE","4","f","rechts","24","","fixation","","","",""
"654","img/0_240.png","70","image-keyboard-response","217","168433","0.0-6.0-1.105","SORE","4","f","rechts","24","","","self","f","0","true"
"null","<div style=""font-size:60px;"">+</div>","null","html-keyboard-response","218","168835","0.0-6.0-0.106","SORE","4","f","rechts","24","","fixation","","","",""
"752","img/60_210.png","74","image-keyboard-response","219","169588","0.0-6.0-1.106","SORE","4","f","rechts","24","","","self","j","60","true"
"null","<div style=""font-size:60px;"">+</div>","null","html-keyboard-response","220","169940","0.0-6.0-0.107","SORE","4","f","rechts","24","","fixation","","","",""
"670","img/90_210.png","74","image-keyboard-response","221","170612","0.0-6.0-1.107","SORE","4","f","rechts","24","","","self","j","90","true"
"null","<div style=""font-size:60px;"">+</div>","null","html-keyboard-response","222","170912","0.0-6.0-0.108","SORE","4","f","rechts","24","","fixation","","","",""
"729","img/0_270.png","70","image-keyboard-response","223","171642","0.0-6.0-1.108","SORE","4","f","rechts","24","","","self","f","0","true"
"null","<div style=""font-size:60px;"">+</div>","null","html-keyboard-response","224","171994","0.0-6.0-0.109","SORE","4","f","rechts","24","","fixation","","","",""
"720","img/30_180.png","74","image-keyboard-response","225","172715","0.0-6.0-1.109","SORE","4","f","rechts","24","","","self","j","30","true"
"null","<div style=""font-size:60px;"">+</div>","null","html-keyboard-response","226","173017","0.0-6.0-0.110","SORE","4","f","rechts","24","","fixation","","","",""
"1377","img/120_30.png","74","image-keyboard-response","227","174395","0.0-6.0-1.110","SORE","4","f","rechts","24","","","self","j","120","true"
"null","<div style=""font-size:60px;"">+</div>","null","html-keyboard-response","228","174846","0.0-6.0-0.111","SORE","4","f","rechts","24","","fixation","","","",""
"775","img/90_180.png","74","image-keyboard-response","229","175622","0.0-6.0-1.111","SORE","4","f","rechts","24","","","self","j","90","true"
"null","<div style=""font-size:60px;"">+</div>","null","html-keyboard-response","230","175923","0.0-6.0-0.112","SORE","4","f","rechts","24","","fixation","","","",""
"920","img/90_240.png","74","image-keyboard-response","231","176844","0.0-6.0-1.112","SORE","4","f","rechts","24","","","self","j","90","true"
"null","<div style=""font-size:60px;"">+</div>","null","html-keyboard-response","232","177145","0.0-6.0-0.113","SORE","4","f","rechts","24","","fixation","","","",""
"1146","img/90_60.png","74","image-keyboard-response","233","178291","0.0-6.0-1.113","SORE","4","f","rechts","24","","","self","j","90","true"
"null","<div style=""font-size:60px;"">+</div>","null","html-keyboard-response","234","178593","0.0-6.0-0.114","SORE","4","f","rechts","24","","fixation","","","",""
"752","img/0_300.png","70","image-keyboard-response","235","179345","0.0-6.0-1.114","SORE","4","f","rechts","24","","","self","f","0","true"
"null","<div style=""font-size:60px;"">+</div>","null","html-keyboard-response","236","179796","0.0-6.0-0.115","SORE","4","f","rechts","24","","fixation","","","",""
"616","img/0_150.png","74","image-keyboard-response","237","180412","0.0-6.0-1.115","SORE","4","f","rechts","24","","","self","j","0","true"
"null","<div style=""font-size:60px;"">+</div>","null","html-keyboard-response","238","180913","0.0-6.0-0.116","SORE","4","f","rechts","24","","fixation","","","",""
"602","img/0_120.png","74","image-keyboard-response","239","181515","0.0-6.0-1.116","SORE","4","f","rechts","24","","","self","j","0","true"
"null","<div style=""font-size:60px;"">+</div>","null","html-keyboard-response","240","181967","0.0-6.0-0.117","SORE","4","f","rechts","24","","fixation","","","",""
"945","img/L150_180.png","70","image-keyboard-response","241","182912","0.0-6.0-1.117","SORE","4","f","rechts","24","","","self","f","150","true"
"null","<div style=""font-size:60px;"">+</div>","null","html-keyboard-response","242","183314","0.0-6.0-0.118","SORE","4","f","rechts","24","","fixation","","","",""
"919","img/90_120.png","70","image-keyboard-response","243","184234","0.0-6.0-1.118","SORE","4","f","rechts","24","","","self","f","90","true"
"null","<div style=""font-size:60px;"">+</div>","null","html-keyboard-response","244","184535","0.0-6.0-0.119","SORE","4","f","rechts","24","","fixation","","","",""
"848","img/150_240.png","74","image-keyboard-response","245","185384","0.0-6.0-1.119","SORE","4","f","rechts","24","","","self","j","150","true"
"null","<div style=""font-size:60px;"">+</div>","null","html-keyboard-response","246","185836","0.0-6.0-0.120","SORE","4","f","rechts","24","","fixation","","","",""
"1063","img/90_30.png","74","image-keyboard-response","247","186899","0.0-6.0-1.120","SORE","4","f","rechts","24","","","self","j","90","true"
"null","<div style=""font-size:60px;"">+</div>","null","html-keyboard-response","248","187201","0.0-6.0-0.121","SORE","4","f","rechts","24","","fixation","","","",""
"1275","img/120_330.png","70","image-keyboard-response","249","188477","0.0-6.0-1.121","SORE","4","f","rechts","24","","","self","f","120","true"
"null","<div style=""font-size:60px;"">+</div>","null","html-keyboard-response","250","188979","0.0-6.0-0.122","SORE","4","f","rechts","24","","fixation","","","",""
"1071","img/90_300.png","70","image-keyboard-response","251","190050","0.0-6.0-1.122","SORE","4","f","rechts","24","","","self","f","90","true"
"null","<div style=""font-size:60px;"">+</div>","null","html-keyboard-response","252","190451","0.0-6.0-0.123","SORE","4","f","rechts","24","","fixation","","","",""
"1914","img/30_120.png","74","image-keyboard-response","253","192366","0.0-6.0-1.123","SORE","4","f","rechts","24","","","self","j","30","true"
"null","<div style=""font-size:60px;"">+</div>","null","html-keyboard-response","254","192717","0.0-6.0-0.124","SORE","4","f","rechts","24","","fixation","","","",""
"790","img/120_150.png","70","image-keyboard-response","255","193508","0.0-6.0-1.124","SORE","4","f","rechts","24","","","self","f","120","true"
"null","<div style=""font-size:60px;"">+</div>","null","html-keyboard-response","256","193860","0.0-6.0-0.125","SORE","4","f","rechts","24","","fixation","","","",""
"676","img/0_30.png","74","image-keyboard-response","257","194536","0.0-6.0-1.125","SORE","4","f","rechts","24","","","self","j","0","true"
"null","<div style=""font-size:60px;"">+</div>","null","html-keyboard-response","258","194937","0.0-6.0-0.126","SORE","4","f","rechts","24","","fixation","","","",""
"1776","img/60_90.png","70","image-keyboard-response","259","196713","0.0-6.0-1.126","SORE","4","f","rechts","24","","","self","j","60","false"
"null","<div style=""font-size:60px;"">+</div>","null","html-keyboard-response","260","197165","0.0-6.0-0.127","SORE","4","f","rechts","24","","fixation","","","",""
"931","img/30_300.png","70","image-keyboard-response","261","198096","0.0-6.0-1.127","SORE","4","f","rechts","24","","","self","f","30","true"
"null","<div style=""font-size:60px;"">+</div>","null","html-keyboard-response","262","198548","0.0-6.0-0.128","SORE","4","f","rechts","24","","fixation","","","",""
"929","img/L90_180.png","70","image-keyboard-response","263","199478","0.0-6.0-1.128","SORE","4","f","rechts","24","","","self","f","90","true"
"null","<div style=""font-size:60px;"">+</div>","null","html-keyboard-response","264","199929","0.0-6.0-0.129","SORE","4","f","rechts","24","","fixation","","","",""
"938","img/L30_180.png","70","image-keyboard-response","265","200869","0.0-6.0-1.129","SORE","4","f","rechts","24","","","self","f","30","true"
"null","<div style=""font-size:60px;"">+</div>","null","html-keyboard-response","266","201370","0.0-6.0-0.130","SORE","4","f","rechts","24","","fixation","","","",""
"728","img/60_270.png","70","image-keyboard-response","267","202099","0.0-6.0-1.130","SORE","4","f","rechts","24","","","self","f","60","true"
"null","<div style=""font-size:60px;"">+</div>","null","html-keyboard-response","268","202550","0.0-6.0-0.131","SORE","4","f","rechts","24","","fixation","","","",""
"828","img/150_270.png","74","image-keyboard-response","269","203379","0.0-6.0-1.131","SORE","4","f","rechts","24","","","self","j","150","true"
"null","<div style=""font-size:60px;"">+</div>","null","html-keyboard-response","270","203781","0.0-6.0-0.132","SORE","4","f","rechts","24","","fixation","","","",""
"709","img/0_60.png","74","image-keyboard-response","271","204491","0.0-6.0-1.132","SORE","4","f","rechts","24","","","self","j","0","true"
"null","<div style=""font-size:60px;"">+</div>","null","html-keyboard-response","272","204992","0.0-6.0-0.133","SORE","4","f","rechts","24","","fixation","","","",""
"1592","img/30_90.png","74","image-keyboard-response","273","206585","0.0-6.0-1.133","SORE","4","f","rechts","24","","","self","j","30","true"
"null","<div style=""font-size:60px;"">+</div>","null","html-keyboard-response","274","207086","0.0-6.0-0.134","SORE","4","f","rechts","24","","fixation","","","",""
"790","img/0_330.png","70","image-keyboard-response","275","207877","0.0-6.0-1.134","SORE","4","f","rechts","24","","","self","f","0","true"
"null","<div style=""font-size:60px;"">+</div>","null","html-keyboard-response","276","208179","0.0-6.0-0.135","SORE","4","f","rechts","24","","fixation","","","",""
"844","img/120_180.png","74","image-keyboard-response","277","209025","0.0-6.0-1.135","SORE","4","f","rechts","24","","","self","j","120","true"
"null","<div style=""font-size:60px;"">+</div>","null","html-keyboard-response","278","209476","0.0-6.0-0.136","SORE","4","f","rechts","24","","fixation","","","",""
"1258","img/30_240.png","74","image-keyboard-response","279","210735","0.0-6.0-1.136","SORE","4","f","rechts","24","","","self","f","30","false"
"null","<div style=""font-size:60px;"">+</div>","null","html-keyboard-response","280","211187","0.0-6.0-0.137","SORE","4","f","rechts","24","","fixation","","","",""
"724","img/0_90.png","74","image-keyboard-response","281","211912","0.0-6.0-1.137","SORE","4","f","rechts","24","","","self","j","0","true"
"null","<div style=""font-size:60px;"">+</div>","null","html-keyboard-response","282","212363","0.0-6.0-0.138","SORE","4","f","rechts","24","","fixation","","","",""
"1207","img/150_60.png","70","image-keyboard-response","283","213571","0.0-6.0-1.138","SORE","4","f","rechts","24","","","self","f","150","true"
"null","<div style=""font-size:60px;"">+</div>","null","html-keyboard-response","284","213923","0.0-6.0-0.139","SORE","4","f","rechts","24","","fixation","","","",""
"792","img/0_210.png","70","image-keyboard-response","285","214717","0.0-6.0-1.139","SORE","4","f","rechts","24","","","self","f","0","true"
"null","<div style=""font-size:60px;"">+</div>","null","html-keyboard-response","286","215118","0.0-6.0-0.140","SORE","4","f","rechts","24","","fixation","","","",""
"805","img/150_300.png","74","image-keyboard-response","287","215924","0.0-6.0-1.140","SORE","4","f","rechts","24","","","self","j","150","true"
"null","<div style=""font-size:60px;"">+</div>","null","html-keyboard-response","288","216226","0.0-6.0-0.141","SORE","4","f","rechts","24","","fixation","","","",""
"1090","img/60_330.png","70","image-keyboard-response","289","217316","0.0-6.0-1.141","SORE","4","f","rechts","24","","","self","f","60","true"
"null","<div style=""font-size:60px;"">+</div>","null","html-keyboard-response","290","217718","0.0-6.0-0.142","SORE","4","f","rechts","24","","fixation","","","",""
"889","img/150_120.png","70","image-keyboard-response","291","218608","0.0-6.0-1.142","SORE","4","f","rechts","24","","","self","f","150","true"
"null","<div style=""font-size:60px;"">+</div>","null","html-keyboard-response","292","219110","0.0-6.0-0.143","SORE","4","f","rechts","24","","fixation","","","",""
"796","img/30_60.png","74","image-keyboard-response","293","219907","0.0-6.0-1.143","SORE","4","f","rechts","24","","","self","j","30","true"
"null","<div style=""font-size:60px;"">+</div>","null","html-keyboard-response","294","220358","0.0-6.0-0.144","SORE","4","f","rechts","24","","fixation","","","",""
"1076","img/90_150.png","70","image-keyboard-response","295","221434","0.0-6.0-1.144","SORE","4","f","rechts","24","","","self","f","90","true"
"null","<div style=""font-size:60px;"">+</div>","null","html-keyboard-response","296","221886","0.0-6.0-0.145","SORE","4","f","rechts","24","","fixation","","","",""
"1077","img/L60_180.png","70","image-keyboard-response","297","222963","0.0-6.0-1.145","SORE","4","f","rechts","24","","","self","f","60","true"
"null","<div style=""font-size:60px;"">+</div>","null","html-keyboard-response","298","223314","0.0-6.0-0.146","SORE","4","f","rechts","24","","fixation","","","",""
"932","img/30_270.png","70","image-keyboard-response","299","224247","0.0-6.0-1.146","SORE","4","f","rechts","24","","","self","f","30","true"
"null","<div style=""font-size:60px;"">+</div>","null","html-keyboard-response","300","224649","0.0-6.0-0.147","SORE","4","f","rechts","24","","fixation","","","",""
"1214","img/60_150.png","70","image-keyboard-response","301","225864","0.0-6.0-1.147","SORE","4","f","rechts","24","","","self","f","60","true"
"null","<div style=""font-size:60px;"">+</div>","null","html-keyboard-response","302","226166","0.0-6.0-0.148","SORE","4","f","rechts","24","","fixation","","","",""
"1130","img/L120_180.png","70","image-keyboard-response","303","227297","0.0-6.0-1.148","SORE","4","f","rechts","24","","","self","f","120","true"
"null","<div style=""font-size:60px;"">+</div>","null","html-keyboard-response","304","227749","0.0-6.0-0.149","SORE","4","f","rechts","24","","fixation","","","",""
"872","img/90_330.png","70","image-keyboard-response","305","228622","0.0-6.0-1.149","SORE","4","f","rechts","24","","","self","f","90","true"
"null","<div style=""font-size:60px;"">+</div>","null","html-keyboard-response","306","229124","0.0-6.0-0.150","SORE","4","f","rechts","24","","fixation","","","",""
"1127","img/60_30.png","74","image-keyboard-response","307","230252","0.0-6.0-1.150","SORE","4","f","rechts","24","","","self","j","60","true"
"null","<div style=""font-size:60px;"">+</div>","null","html-keyboard-response","308","230653","0.0-6.0-0.151","SORE","4","f","rechts","24","","fixation","","","",""
"1025","img/60_180.png","74","image-keyboard-response","309","231679","0.0-6.0-1.151","SORE","4","f","rechts","24","","","self","j","60","true"
"null","<div style=""font-size:60px;"">+</div>","null","html-keyboard-response","310","231981","0.0-6.0-0.152","SORE","4","f","rechts","24","","fixation","","","",""
"798","img/150_90.png","70","image-keyboard-response","311","232779","0.0-6.0-1.152","SORE","4","f","rechts","24","","","self","f","150","true"
"null","<div style=""font-size:60px;"">+</div>","null","html-keyboard-response","312","233181","0.0-6.0-0.153","SORE","4","f","rechts","24","","fixation","","","",""
"911","img/120_210.png","74","image-keyboard-response","313","234092","0.0-6.0-1.153","SORE","4","f","rechts","24","","","self","j","120","true"
"null","<div style=""font-size:60px;"">+</div>","null","html-keyboard-response","314","234593","0.0-6.0-0.154","SORE","4","f","rechts","24","","fixation","","","",""
"863","img/120_90.png","70","image-keyboard-response","315","235456","0.0-6.0-1.154","SORE","4","f","rechts","24","","","self","f","120","true"
"null","<div style=""font-size:60px;"">+</div>","null","html-keyboard-response","316","235958","0.0-6.0-0.155","SORE","4","f","rechts","24","","fixation","","","",""
"711","img/120_270.png","74","image-keyboard-response","317","236669","0.0-6.0-1.155","SORE","4","f","rechts","24","","","self","j","120","true"
"null","<div style=""font-size:60px;"">+</div>","null","html-keyboard-response","318","237121","0.0-6.0-0.156","SORE","4","f","rechts","24","","fixation","","","",""
"809","img/0_90.png","74","image-keyboard-response","319","237930","0.0-6.0-1.156","SORE","4","f","rechts","24","","","self","j","0","true"
"null","<div style=""font-size:60px;"">+</div>","null","html-keyboard-response","320","238231","0.0-6.0-0.157","SORE","4","f","rechts","24","","fixation","","","",""
"910","img/0_210.png","70","image-keyboard-response","321","239142","0.0-6.0-1.157","SORE","4","f","rechts","24","","","self","f","0","true"
"null","<div style=""font-size:60px;"">+</div>","null","html-keyboard-response","322","239594","0.0-6.0-0.158","SORE","4","f","rechts","24","","fixation","","","",""
"777","img/0_30.png","74","image-keyboard-response","323","240372","0.0-6.0-1.158","SORE","4","f","rechts","24","","","self","j","0","true"
"null","<div style=""font-size:60px;"">+</div>","null","html-keyboard-response","324","240823","0.0-6.0-0.159","SORE","4","f","rechts","24","","fixation","","","",""
"691","img/60_330.png","70","image-keyboard-response","325","241515","0.0-6.0-1.159","SORE","4","f","rechts","24","","","self","f","60","true"
"null","<div style=""font-size:60px;"">+</div>","null","html-keyboard-response","326","241916","0.0-6.0-0.160","SORE","4","f","rechts","24","","fixation","","","",""
"893","img/0_270.png","70","image-keyboard-response","327","242811","0.0-6.0-1.160","SORE","4","f","rechts","24","","","self","f","0","true"
"null","<div style=""font-size:60px;"">+</div>","null","html-keyboard-response","328","243212","0.0-6.0-0.161","SORE","4","f","rechts","24","","fixation","","","",""
"723","img/60_210.png","74","image-keyboard-response","329","243936","0.0-6.0-1.161","SORE","4","f","rechts","24","","","self","j","60","true"
"null","<div style=""font-size:60px;"">+</div>","null","html-keyboard-response","330","244388","0.0-6.0-0.162","SORE","4","f","rechts","24","","fixation","","","",""
"1093","img/90_30.png","74","image-keyboard-response","331","245481","0.0-6.0-1.162","SORE","4","f","rechts","24","","","self","j","90","true"
"null","<div style=""font-size:60px;"">+</div>","null","html-keyboard-response","332","245933","0.0-6.0-0.163","SORE","4","f","rechts","24","","fixation","","","",""
"763","img/0_150.png","74","image-keyboard-response","333","246697","0.0-6.0-1.163","SORE","4","f","rechts","24","","","self","j","0","true"
"null","<div style=""font-size:60px;"">+</div>","null","html-keyboard-response","334","247148","0.0-6.0-0.164","SORE","4","f","rechts","24","","fixation","","","",""
"1058","img/120_30.png","74","image-keyboard-response","335","248207","0.0-6.0-1.164","SORE","4","f","rechts","24","","","self","j","120","true"
"null","<div style=""font-size:60px;"">+</div>","null","html-keyboard-response","336","248559","0.0-6.0-0.165","SORE","4","f","rechts","24","","fixation","","","",""
"910","img/150_240.png","74","image-keyboard-response","337","249469","0.0-6.0-1.165","SORE","4","f","rechts","24","","","self","j","150","true"
"null","<div style=""font-size:60px;"">+</div>","null","html-keyboard-response","338","249920","0.0-6.0-0.166","SORE","4","f","rechts","24","","fixation","","","",""
"850","img/150_180.png","74","image-keyboard-response","339","250771","0.0-6.0-1.166","SORE","4","f","rechts","24","","","self","j","150","true"
"null","<div style=""font-size:60px;"">+</div>","null","html-keyboard-response","340","251122","0.0-6.0-0.167","SORE","4","f","rechts","24","","fixation","","","",""
"883","img/L150_180.png","70","image-keyboard-response","341","252006","0.0-6.0-1.167","SORE","4","f","rechts","24","","","self","f","150","true"
"null","<div style=""font-size:60px;"">+</div>","null","html-keyboard-response","342","252507","0.0-6.0-0.168","SORE","4","f","rechts","24","","fixation","","","",""
"767","img/60_180.png","74","image-keyboard-response","343","253276","0.0-6.0-1.168","SORE","4","f","rechts","24","","","self","j","60","true"
"null","<div style=""font-size:60px;"">+</div>","null","html-keyboard-response","344","253777","0.0-6.0-0.169","SORE","4","f","rechts","24","","fixation","","","",""
"779","img/L60_180.png","70","image-keyboard-response","345","254557","0.0-6.0-1.169","SORE","4","f","rechts","24","","","self","f","60","true"
"null","<div style=""font-size:60px;"">+</div>","null","html-keyboard-response","346","255008","0.0-6.0-0.170","SORE","4","f","rechts","24","","fixation","","","",""
"944","img/0_300.png","70","image-keyboard-response","347","255954","0.0-6.0-1.170","SORE","4","f","rechts","24","","","self","f","0","true"
"null","<div style=""font-size:60px;"">+</div>","null","html-keyboard-response","348","256455","0.0-6.0-0.171","SORE","4","f","rechts","24","","fixation","","","",""
"1062","img/90_300.png","70","image-keyboard-response","349","257518","0.0-6.0-1.171","SORE","4","f","rechts","24","","","self","f","90","true"
"null","<div style=""font-size:60px;"">+</div>","null","html-keyboard-response","350","257820","0.0-6.0-0.172","SORE","4","f","rechts","24","","fixation","","","",""
"866","img/120_180.png","74","image-keyboard-response","351","258688","0.0-6.0-1.172","SORE","4","f","rechts","24","","","self","j","120","true"
"null","<div style=""font-size:60px;"">+</div>","null","html-keyboard-response","352","258989","0.0-6.0-0.173","SORE","4","f","rechts","24","","fixation","","","",""
"821","img/120_150.png","70","image-keyboard-response","353","259811","0.0-6.0-1.173","SORE","4","f","rechts","24","","","self","f","120","true"
"null","<div style=""font-size:60px;"">+</div>","null","html-keyboard-response","354","260263","0.0-6.0-0.174","SORE","4","f","rechts","24","","fixation","","","",""
"1107","img/30_90.png","74","image-keyboard-response","355","261372","0.0-6.0-1.174","SORE","4","f","rechts","24","","","self","j","30","true"
"null","<div style=""font-size:60px;"">+</div>","null","html-keyboard-response","356","261873","0.0-6.0-0.175","SORE","4","f","rechts","24","","fixation","","","",""
"968","img/30_60.png","74","image-keyboard-response","357","262842","0.0-6.0-1.175","SORE","4","f","rechts","24","","","self","j","30","true"
"null","<div style=""font-size:60px;"">+</div>","null","html-keyboard-response","358","263344","0.0-6.0-0.176","SORE","4","f","rechts","24","","fixation","","","",""
"867","img/120_90.png","70","image-keyboard-response","359","264212","0.0-6.0-1.176","SORE","4","f","rechts","24","","","self","f","120","true"
"null","<div style=""font-size:60px;"">+</div>","null","html-keyboard-response","360","264714","0.0-6.0-0.177","SORE","4","f","rechts","24","","fixation","","","",""
"793","img/90_210.png","74","image-keyboard-response","361","265508","0.0-6.0-1.177","SORE","4","f","rechts","24","","","self","j","90","true"
"null","<div style=""font-size:60px;"">+</div>","null","html-keyboard-response","362","266010","0.0-6.0-0.178","SORE","4","f","rechts","24","","fixation","","","",""
"967","img/150_90.png","70","image-keyboard-response","363","266978","0.0-6.0-1.178","SORE","4","f","rechts","24","","","self","f","150","true"
"null","<div style=""font-size:60px;"">+</div>","null","html-keyboard-response","364","267480","0.0-6.0-0.179","SORE","4","f","rechts","24","","fixation","","","",""
"2315","img/30_120.png","70","image-keyboard-response","365","269796","0.0-6.0-1.179","SORE","4","f","rechts","24","","","self","j","30","false"
"null","<div style=""font-size:60px;"">+</div>","null","html-keyboard-response","366","270098","0.0-6.0-0.180","SORE","4","f","rechts","24","","fixation","","","",""
"776","img/150_300.png","74","image-keyboard-response","367","270875","0.0-6.0-1.180","SORE","4","f","rechts","24","","","self","j","150","true"
"null","<div style=""font-size:60px;"">+</div>","null","html-keyboard-response","368","271377","0.0-6.0-0.181","SORE","4","f","rechts","24","","fixation","","","",""
"844","img/90_330.png","74","image-keyboard-response","369","272222","0.0-6.0-1.181","SORE","4","f","rechts","24","","","self","f","90","false"
"null","<div style=""font-size:60px;"">+</div>","null","html-keyboard-response","370","272673","0.0-6.0-0.182","SORE","4","f","rechts","24","","fixation","","","",""
"857","img/120_270.png","74","image-keyboard-response","371","273531","0.0-6.0-1.182","SORE","4","f","rechts","24","","","self","j","120","true"
"null","<div style=""font-size:60px;"">+</div>","null","html-keyboard-response","372","273883","0.0-6.0-0.183","SORE","4","f","rechts","24","","fixation","","","",""
"978","img/30_180.png","74","image-keyboard-response","373","274862","0.0-6.0-1.183","SORE","4","f","rechts","24","","","self","j","30","true"
"null","<div style=""font-size:60px;"">+</div>","null","html-keyboard-response","374","275214","0.0-6.0-0.184","SORE","4","f","rechts","24","","fixation","","","",""
"1470","img/90_120.png","70","image-keyboard-response","375","276685","0.0-6.0-1.184","SORE","4","f","rechts","24","","","self","f","90","true"
"null","<div style=""font-size:60px;"">+</div>","null","html-keyboard-response","376","277086","0.0-6.0-0.185","SORE","4","f","rechts","24","","fixation","","","",""
"1188","img/60_30.png","74","image-keyboard-response","377","278274","0.0-6.0-1.185","SORE","4","f","rechts","24","","","self","j","60","true"
"null","<div style=""font-size:60px;"">+</div>","null","html-keyboard-response","378","278625","0.0-6.0-0.186","SORE","4","f","rechts","24","","fixation","","","",""
"978","img/L120_180.png","70","image-keyboard-response","379","279604","0.0-6.0-1.186","SORE","4","f","rechts","24","","","self","f","120","true"
"null","<div style=""font-size:60px;"">+</div>","null","html-keyboard-response","380","280056","0.0-6.0-0.187","SORE","4","f","rechts","24","","fixation","","","",""
"786","img/90_180.png","74","image-keyboard-response","381","280843","0.0-6.0-1.187","SORE","4","f","rechts","24","","","self","j","90","true"
"null","<div style=""font-size:60px;"">+</div>","null","html-keyboard-response","382","281294","0.0-6.0-0.188","SORE","4","f","rechts","24","","fixation","","","",""
"842","img/90_150.png","70","image-keyboard-response","383","282136","0.0-6.0-1.188","SORE","4","f","rechts","24","","","self","f","90","true"
"null","<div style=""font-size:60px;"">+</div>","null","html-keyboard-response","384","282637","0.0-6.0-0.189","SORE","4","f","rechts","24","","fixation","","","",""
"780","img/0_330.png","70","image-keyboard-response","385","283418","0.0-6.0-1.189","SORE","4","f","rechts","24","","","self","f","0","true"
"null","<div style=""font-size:60px;"">+</div>","null","html-keyboard-response","386","283770","0.0-6.0-0.190","SORE","4","f","rechts","24","","fixation","","","",""
"1075","img/0_240.png","70","image-keyboard-response","387","284845","0.0-6.0-1.190","SORE","4","f","rechts","24","","","self","f","0","true"
"null","<div style=""font-size:60px;"">+</div>","null","html-keyboard-response","388","285295","0.0-6.0-0.191","SORE","4","f","rechts","24","","fixation","","","",""
"1637","img/30_270.png","70","image-keyboard-response","389","286933","0.0-6.0-1.191","SORE","4","f","rechts","24","","","self","f","30","true"
"null","<div style=""font-size:60px;"">+</div>","null","html-keyboard-response","390","287335","0.0-6.0-0.192","SORE","4","f","rechts","24","","fixation","","","",""
"936","img/L30_180.png","70","image-keyboard-response","391","288271","0.0-6.0-1.192","SORE","4","f","rechts","24","","","self","f","30","true"
"null","<div style=""font-size:60px;"">+</div>","null","html-keyboard-response","392","288623","0.0-6.0-0.193","SORE","4","f","rechts","24","","fixation","","","",""
"797","img/0_120.png","74","image-keyboard-response","393","289420","0.0-6.0-1.193","SORE","4","f","rechts","24","","","self","j","0","true"
"null","<div style=""font-size:60px;"">+</div>","null","html-keyboard-response","394","289772","0.0-6.0-0.194","SORE","4","f","rechts","24","","fixation","","","",""
"997","img/90_60.png","74","image-keyboard-response","395","290770","0.0-6.0-1.194","SORE","4","f","rechts","24","","","self","j","90","true"
"null","<div style=""font-size:60px;"">+</div>","null","html-keyboard-response","396","291122","0.0-6.0-0.195","SORE","4","f","rechts","24","","fixation","","","",""
"770","img/30_300.png","70","image-keyboard-response","397","291892","0.0-6.0-1.195","SORE","4","f","rechts","24","","","self","f","30","true"
"null","<div style=""font-size:60px;"">+</div>","null","html-keyboard-response","398","292244","0.0-6.0-0.196","SORE","4","f","rechts","24","","fixation","","","",""
"1540","img/60_90.png","70","image-keyboard-response","399","293784","0.0-6.0-1.196","SORE","4","f","rechts","24","","","self","j","60","false"
"null","<div style=""font-size:60px;"">+</div>","null","html-keyboard-response","400","294085","0.0-6.0-0.197","SORE","4","f","rechts","24","","fixation","","","",""
"1015","img/60_150.png","70","image-keyboard-response","401","295101","0.0-6.0-1.197","SORE","4","f","rechts","24","","","self","f","60","true"
"null","<div style=""font-size:60px;"">+</div>","null","html-keyboard-response","402","295603","0.0-6.0-0.198","SORE","4","f","rechts","24","","fixation","","","",""
"2129","img/60_270.png","70","image-keyboard-response","403","297732","0.0-6.0-1.198","SORE","4","f","rechts","24","","","self","f","60","true"
"null","<div style=""font-size:60px;"">+</div>","null","html-keyboard-response","404","298134","0.0-6.0-0.199","SORE","4","f","rechts","24","","fixation","","","",""
"1957","img/150_270.png","74","image-keyboard-response","405","300091","0.0-6.0-1.199","SORE","4","f","rechts","24","","","self","j","150","true"
"null","<div style=""font-size:60px;"">+</div>","null","html-keyboard-response","406","300593","0.0-6.0-0.200","SORE","4","f","rechts","24","","fixation","","","",""
"2621","img/150_60.png","70","image-keyboard-response","407","303216","0.0-6.0-1.200","SORE","4","f","rechts","24","","","self","f","150","true"
"null","<div style=""font-size:60px;"">+</div>","null","html-keyboard-response","408","303617","0.0-6.0-0.201","SORE","4","f","rechts","24","","fixation","","","",""
"922","img/90_240.png","74","image-keyboard-response","409","304540","0.0-6.0-1.201","SORE","4","f","rechts","24","","","self","j","90","true"
"null","<div style=""font-size:60px;"">+</div>","null","html-keyboard-response","410","304892","0.0-6.0-0.202","SORE","4","f","rechts","24","","fixation","","","",""
"970","img/120_330.png","70","image-keyboard-response","411","305864","0.0-6.0-1.202","SORE","4","f","rechts","24","","","self","f","120","true"
"null","<div style=""font-size:60px;"">+</div>","null","html-keyboard-response","412","306315","0.0-6.0-0.203","SORE","4","f","rechts","24","","fixation","","","",""
"719","img/0_60.png","74","image-keyboard-response","413","307036","0.0-6.0-1.203","SORE","4","f","rechts","24","","","self","j","0","true"
"null","<div style=""font-size:60px;"">+</div>","null","html-keyboard-response","414","307437","0.0-6.0-0.204","SORE","4","f","rechts","24","","fixation","","","",""
"766","img/150_120.png","70","image-keyboard-response","415","308205","0.0-6.0-1.204","SORE","4","f","rechts","24","","","self","f","150","true"
"null","<div style=""font-size:60px;"">+</div>","null","html-keyboard-response","416","308706","0.0-6.0-0.205","SORE","4","f","rechts","24","","fixation","","","",""
"787","img/L90_180.png","70","image-keyboard-response","417","309495","0.0-6.0-1.205","SORE","4","f","rechts","24","","","self","f","90","true"
"null","<div style=""font-size:60px;"">+</div>","null","html-keyboard-response","418","309845","0.0-6.0-0.206","SORE","4","f","rechts","24","","fixation","","","",""
"960","img/30_240.png","70","image-keyboard-response","419","310806","0.0-6.0-1.206","SORE","4","f","rechts","24","","","self","f","30","true"
"null","<div style=""font-size:60px;"">+</div>","null","html-keyboard-response","420","311157","0.0-6.0-0.207","SORE","4","f","rechts","24","","fixation","","","",""
"767","img/120_210.png","74","image-keyboard-response","421","311926","0.0-6.0-1.207","SORE","4","f","rechts","24","","","self","j","120","true"
"9970","<p>Du hast in 91% der Versuche korrekt entschieden.</p><p>Deine durchschnittliche Reaktionszeit war  934ms.</p><p>Dr&uuml;cke eine beliebige Taste, um die Session zu beenden. Vielen Dank!</p>","72","html-keyboard-response","422","321898","0.0-7.0","SORE","4","f","rechts","24","","","","","",""
