"rt","stimulus","key_press","trial_type","trial_index","time_elapsed","internal_node_id","subject","session","sex","handedness","age","responses","test_part","condition","correct_response","angle","correct"
"1299","<p>Mental Rotation Experiment.</p> <p>Dr&uuml;cke eine beliebige Taste, um anzufangen.</p>","72","html-keyboard-response","0","1299","0.0-0.0","SORE","3","f","rechts","24","","","","","",""
"6072","","","survey-text","1","7373","0.0-1.0","SORE","3","f","rechts","24","{""Q0"":""SORE""}","","","","",""
"11461","","","survey-text","2","18836","0.0-2.0","SORE","3","f","rechts","24","{""Q0"":""3""}","","","","",""
"10906","","","survey-multi-choice","3","29744","0.0-3.0","SORE","3","f","rechts","24","{""Q0"":""f"",""Q1"":""rechts""}","","","","",""
"3897","","","survey-text","4","33642","0.0-4.0","SORE","3","f","rechts","24","{""Q0"":""24""}","","","","",""
"132279","<p> Stell dir vor, dass du vor einem runden Tisch stehst, auf dem sich ein blauer Ball am Tischrand befindet. Entlang des Tischrands ist jeweils ein verschieden langer Pfeil. Nun bewegst du dich entlang dieses Pfeils bis an seine Spitze. Wenn du am Ende des Pfeils angekommen bist, schau zur Tischmitte. </p> <img src='img/90_180.png'></img> <br> <p>Entscheide dann, ob der Ball von deiner neuen (vorgestellten) Position links oder rechts von dir liegt.</p> <p>Dr&uuml;cke die <strong>'f'</strong>-Taste f&uuml;r links, die <strong>'j'</strong>-Taste f&uuml;r rechts.</p> <br><p> Das Bild wird jeweils 1 Sekunde lang pr&auml;sentiert. Du hast 3 Sekunden Zeit eine Entscheidung zu treffen.</p>","32","html-keyboard-response","5","165921","0.0-5.0","SORE","3","f","rechts","24","","","","","",""
"null","<div style=""font-size:60px;"">+</div>","null","html-keyboard-response","6","167375","0.0-6.0-0.0","SORE","3","f","rechts","24","","fixation","","","",""
"801","img/0_60.png","74","image-keyboard-response","7","168177","0.0-6.0-1.0","SORE","3","f","rechts","24","","","self","j","0","true"
"null","<div style=""font-size:60px;"">+</div>","null","html-keyboard-response","8","168479","0.0-6.0-0.1","SORE","3","f","rechts","24","","fixation","","","",""
"1543","img/30_120.png","74","image-keyboard-response","9","170023","0.0-6.0-1.1","SORE","3","f","rechts","24","","","self","j","30","true"
"null","<div style=""font-size:60px;"">+</div>","null","html-keyboard-response","10","170325","0.0-6.0-0.2","SORE","3","f","rechts","24","","fixation","","","",""
"1050","img/150_240.png","74","image-keyboard-response","11","171376","0.0-6.0-1.2","SORE","3","f","rechts","24","","","self","j","150","true"
"null","<div style=""font-size:60px;"">+</div>","null","html-keyboard-response","12","171778","0.0-6.0-0.3","SORE","3","f","rechts","24","","fixation","","","",""
"1047","img/30_300.png","70","image-keyboard-response","13","172827","0.0-6.0-1.3","SORE","3","f","rechts","24","","","self","f","30","true"
"null","<div style=""font-size:60px;"">+</div>","null","html-keyboard-response","14","173228","0.0-6.0-0.4","SORE","3","f","rechts","24","","fixation","","","",""
"1937","img/120_330.png","74","image-keyboard-response","15","175166","0.0-6.0-1.4","SORE","3","f","rechts","24","","","self","f","120","false"
"null","<div style=""font-size:60px;"">+</div>","null","html-keyboard-response","16","175518","0.0-6.0-0.5","SORE","3","f","rechts","24","","fixation","","","",""
"1064","img/150_300.png","74","image-keyboard-response","17","176583","0.0-6.0-1.5","SORE","3","f","rechts","24","","","self","j","150","true"
"null","<div style=""font-size:60px;"">+</div>","null","html-keyboard-response","18","176985","0.0-6.0-0.6","SORE","3","f","rechts","24","","fixation","","","",""
"1065","img/60_150.png","70","image-keyboard-response","19","178051","0.0-6.0-1.6","SORE","3","f","rechts","24","","","self","f","60","true"
"null","<div style=""font-size:60px;"">+</div>","null","html-keyboard-response","20","178452","0.0-6.0-0.7","SORE","3","f","rechts","24","","fixation","","","",""
"858","img/0_90.png","74","image-keyboard-response","21","179311","0.0-6.0-1.7","SORE","3","f","rechts","24","","","self","j","0","true"
"null","<div style=""font-size:60px;"">+</div>","null","html-keyboard-response","22","179763","0.0-6.0-0.8","SORE","3","f","rechts","24","","fixation","","","",""
"969","img/120_270.png","74","image-keyboard-response","23","180733","0.0-6.0-1.8","SORE","3","f","rechts","24","","","self","j","120","true"
"null","<div style=""font-size:60px;"">+</div>","null","html-keyboard-response","24","181085","0.0-6.0-0.9","SORE","3","f","rechts","24","","fixation","","","",""
"1092","img/90_150.png","70","image-keyboard-response","25","182178","0.0-6.0-1.9","SORE","3","f","rechts","24","","","self","f","90","true"
"null","<div style=""font-size:60px;"">+</div>","null","html-keyboard-response","26","182528","0.0-6.0-0.10","SORE","3","f","rechts","24","","fixation","","","",""
"1081","img/120_150.png","70","image-keyboard-response","27","183610","0.0-6.0-1.10","SORE","3","f","rechts","24","","","self","f","120","true"
"null","<div style=""font-size:60px;"">+</div>","null","html-keyboard-response","28","184060","0.0-6.0-0.11","SORE","3","f","rechts","24","","fixation","","","",""
"868","img/0_270.png","70","image-keyboard-response","29","184929","0.0-6.0-1.11","SORE","3","f","rechts","24","","","self","f","0","true"
"null","<div style=""font-size:60px;"">+</div>","null","html-keyboard-response","30","185230","0.0-6.0-0.12","SORE","3","f","rechts","24","","fixation","","","",""
"979","img/120_90.png","70","image-keyboard-response","31","186210","0.0-6.0-1.12","SORE","3","f","rechts","24","","","self","f","120","true"
"null","<div style=""font-size:60px;"">+</div>","null","html-keyboard-response","32","186661","0.0-6.0-0.13","SORE","3","f","rechts","24","","fixation","","","",""
"892","img/150_270.png","74","image-keyboard-response","33","187554","0.0-6.0-1.13","SORE","3","f","rechts","24","","","self","j","150","true"
"null","<div style=""font-size:60px;"">+</div>","null","html-keyboard-response","34","188056","0.0-6.0-0.14","SORE","3","f","rechts","24","","fixation","","","",""
"1058","img/90_210.png","74","image-keyboard-response","35","189115","0.0-6.0-1.14","SORE","3","f","rechts","24","","","self","j","90","true"
"null","<div style=""font-size:60px;"">+</div>","null","html-keyboard-response","36","189616","0.0-6.0-0.15","SORE","3","f","rechts","24","","fixation","","","",""
"989","img/0_240.png","70","image-keyboard-response","37","190606","0.0-6.0-1.15","SORE","3","f","rechts","24","","","self","f","0","true"
"null","<div style=""font-size:60px;"">+</div>","null","html-keyboard-response","38","190957","0.0-6.0-0.16","SORE","3","f","rechts","24","","fixation","","","",""
"1072","img/30_240.png","74","image-keyboard-response","39","192030","0.0-6.0-1.16","SORE","3","f","rechts","24","","","self","f","30","false"
"null","<div style=""font-size:60px;"">+</div>","null","html-keyboard-response","40","192332","0.0-6.0-0.17","SORE","3","f","rechts","24","","fixation","","","",""
"1303","img/90_60.png","74","image-keyboard-response","41","193636","0.0-6.0-1.17","SORE","3","f","rechts","24","","","self","j","90","true"
"null","<div style=""font-size:60px;"">+</div>","null","html-keyboard-response","42","193988","0.0-6.0-0.18","SORE","3","f","rechts","24","","fixation","","","",""
"1225","img/150_60.png","70","image-keyboard-response","43","195215","0.0-6.0-1.18","SORE","3","f","rechts","24","","","self","f","150","true"
"null","<div style=""font-size:60px;"">+</div>","null","html-keyboard-response","44","195616","0.0-6.0-0.19","SORE","3","f","rechts","24","","fixation","","","",""
"1003","img/120_210.png","74","image-keyboard-response","45","196621","0.0-6.0-1.19","SORE","3","f","rechts","24","","","self","j","120","true"
"null","<div style=""font-size:60px;"">+</div>","null","html-keyboard-response","46","197121","0.0-6.0-0.20","SORE","3","f","rechts","24","","fixation","","","",""
"1053","img/120_180.png","74","image-keyboard-response","47","198175","0.0-6.0-1.20","SORE","3","f","rechts","24","","","self","j","120","true"
"null","<div style=""font-size:60px;"">+</div>","null","html-keyboard-response","48","198477","0.0-6.0-0.21","SORE","3","f","rechts","24","","fixation","","","",""
"1006","img/0_150.png","74","image-keyboard-response","49","199484","0.0-6.0-1.21","SORE","3","f","rechts","24","","","self","j","0","true"
"null","<div style=""font-size:60px;"">+</div>","null","html-keyboard-response","50","199986","0.0-6.0-0.22","SORE","3","f","rechts","24","","fixation","","","",""
"945","img/60_180.png","74","image-keyboard-response","51","200933","0.0-6.0-1.22","SORE","3","f","rechts","24","","","self","j","60","true"
"null","<div style=""font-size:60px;"">+</div>","null","html-keyboard-response","52","201334","0.0-6.0-0.23","SORE","3","f","rechts","24","","fixation","","","",""
"1125","img/60_330.png","70","image-keyboard-response","53","202460","0.0-6.0-1.23","SORE","3","f","rechts","24","","","self","f","60","true"
"null","<div style=""font-size:60px;"">+</div>","null","html-keyboard-response","54","202912","0.0-6.0-0.24","SORE","3","f","rechts","24","","fixation","","","",""
"840","img/30_180.png","74","image-keyboard-response","55","203753","0.0-6.0-1.24","SORE","3","f","rechts","24","","","self","j","30","true"
"null","<div style=""font-size:60px;"">+</div>","null","html-keyboard-response","56","204255","0.0-6.0-0.25","SORE","3","f","rechts","24","","fixation","","","",""
"1374","img/60_30.png","74","image-keyboard-response","57","205630","0.0-6.0-1.25","SORE","3","f","rechts","24","","","self","j","60","true"
"null","<div style=""font-size:60px;"">+</div>","null","html-keyboard-response","58","205932","0.0-6.0-0.26","SORE","3","f","rechts","24","","fixation","","","",""
"1150","img/60_270.png","74","image-keyboard-response","59","207083","0.0-6.0-1.26","SORE","3","f","rechts","24","","","self","f","60","false"
"null","<div style=""font-size:60px;"">+</div>","null","html-keyboard-response","60","207485","0.0-6.0-0.27","SORE","3","f","rechts","24","","fixation","","","",""
"1082","img/L30_180.png","70","image-keyboard-response","61","208568","0.0-6.0-1.27","SORE","3","f","rechts","24","","","self","f","30","true"
"null","<div style=""font-size:60px;"">+</div>","null","html-keyboard-response","62","208870","0.0-6.0-0.28","SORE","3","f","rechts","24","","fixation","","","",""
"967","img/150_180.png","74","image-keyboard-response","63","209838","0.0-6.0-1.28","SORE","3","f","rechts","24","","","self","j","150","true"
"null","<div style=""font-size:60px;"">+</div>","null","html-keyboard-response","64","210290","0.0-6.0-0.29","SORE","3","f","rechts","24","","fixation","","","",""
"870","img/30_60.png","74","image-keyboard-response","65","211161","0.0-6.0-1.29","SORE","3","f","rechts","24","","","self","j","30","true"
"null","<div style=""font-size:60px;"">+</div>","null","html-keyboard-response","66","211663","0.0-6.0-0.30","SORE","3","f","rechts","24","","fixation","","","",""
"1076","img/90_120.png","70","image-keyboard-response","67","212740","0.0-6.0-1.30","SORE","3","f","rechts","24","","","self","f","90","true"
"null","<div style=""font-size:60px;"">+</div>","null","html-keyboard-response","68","213241","0.0-6.0-0.31","SORE","3","f","rechts","24","","fixation","","","",""
"1195","img/90_30.png","74","image-keyboard-response","69","214437","0.0-6.0-1.31","SORE","3","f","rechts","24","","","self","j","90","true"
"null","<div style=""font-size:60px;"">+</div>","null","html-keyboard-response","70","214789","0.0-6.0-0.32","SORE","3","f","rechts","24","","fixation","","","",""
"1003","img/60_210.png","74","image-keyboard-response","71","215793","0.0-6.0-1.32","SORE","3","f","rechts","24","","","self","j","60","true"
"null","<div style=""font-size:60px;"">+</div>","null","html-keyboard-response","72","216194","0.0-6.0-0.33","SORE","3","f","rechts","24","","fixation","","","",""
"1184","img/150_120.png","70","image-keyboard-response","73","217379","0.0-6.0-1.33","SORE","3","f","rechts","24","","","self","f","150","true"
"null","<div style=""font-size:60px;"">+</div>","null","html-keyboard-response","74","217781","0.0-6.0-0.34","SORE","3","f","rechts","24","","fixation","","","",""
"904","img/L150_180.png","70","image-keyboard-response","75","218686","0.0-6.0-1.34","SORE","3","f","rechts","24","","","self","f","150","true"
"null","<div style=""font-size:60px;"">+</div>","null","html-keyboard-response","76","219088","0.0-6.0-0.35","SORE","3","f","rechts","24","","fixation","","","",""
"1016","img/30_270.png","70","image-keyboard-response","77","220105","0.0-6.0-1.35","SORE","3","f","rechts","24","","","self","f","30","true"
"null","<div style=""font-size:60px;"">+</div>","null","html-keyboard-response","78","220457","0.0-6.0-0.36","SORE","3","f","rechts","24","","fixation","","","",""
"991","img/L60_180.png","70","image-keyboard-response","79","221449","0.0-6.0-1.36","SORE","3","f","rechts","24","","","self","f","60","true"
"null","<div style=""font-size:60px;"">+</div>","null","html-keyboard-response","80","221900","0.0-6.0-0.37","SORE","3","f","rechts","24","","fixation","","","",""
"1131","img/90_300.png","70","image-keyboard-response","81","223032","0.0-6.0-1.37","SORE","3","f","rechts","24","","","self","f","90","true"
"null","<div style=""font-size:60px;"">+</div>","null","html-keyboard-response","82","223333","0.0-6.0-0.38","SORE","3","f","rechts","24","","fixation","","","",""
"1359","img/120_30.png","74","image-keyboard-response","83","224693","0.0-6.0-1.38","SORE","3","f","rechts","24","","","self","j","120","true"
"null","<div style=""font-size:60px;"">+</div>","null","html-keyboard-response","84","224994","0.0-6.0-0.39","SORE","3","f","rechts","24","","fixation","","","",""
"1122","img/90_330.png","70","image-keyboard-response","85","226117","0.0-6.0-1.39","SORE","3","f","rechts","24","","","self","f","90","true"
"null","<div style=""font-size:60px;"">+</div>","null","html-keyboard-response","86","226619","0.0-6.0-0.40","SORE","3","f","rechts","24","","fixation","","","",""
"971","img/150_90.png","70","image-keyboard-response","87","227591","0.0-6.0-1.40","SORE","3","f","rechts","24","","","self","f","150","true"
"null","<div style=""font-size:60px;"">+</div>","null","html-keyboard-response","88","228092","0.0-6.0-0.41","SORE","3","f","rechts","24","","fixation","","","",""
"1066","img/L120_180.png","70","image-keyboard-response","89","229160","0.0-6.0-1.41","SORE","3","f","rechts","24","","","self","f","120","true"
"null","<div style=""font-size:60px;"">+</div>","null","html-keyboard-response","90","229460","0.0-6.0-0.42","SORE","3","f","rechts","24","","fixation","","","",""
"873","img/0_210.png","70","image-keyboard-response","91","230334","0.0-6.0-1.42","SORE","3","f","rechts","24","","","self","f","0","true"
"null","<div style=""font-size:60px;"">+</div>","null","html-keyboard-response","92","230835","0.0-6.0-0.43","SORE","3","f","rechts","24","","fixation","","","",""
"919","img/90_240.png","74","image-keyboard-response","93","231755","0.0-6.0-1.43","SORE","3","f","rechts","24","","","self","j","90","true"
"null","<div style=""font-size:60px;"">+</div>","null","html-keyboard-response","94","232106","0.0-6.0-0.44","SORE","3","f","rechts","24","","fixation","","","",""
"1075","img/0_300.png","70","image-keyboard-response","95","233182","0.0-6.0-1.44","SORE","3","f","rechts","24","","","self","f","0","true"
"null","<div style=""font-size:60px;"">+</div>","null","html-keyboard-response","96","233684","0.0-6.0-0.45","SORE","3","f","rechts","24","","fixation","","","",""
"836","img/90_180.png","74","image-keyboard-response","97","234521","0.0-6.0-1.45","SORE","3","f","rechts","24","","","self","j","90","true"
"null","<div style=""font-size:60px;"">+</div>","null","html-keyboard-response","98","234922","0.0-6.0-0.46","SORE","3","f","rechts","24","","fixation","","","",""
"915","img/30_90.png","74","image-keyboard-response","99","235838","0.0-6.0-1.46","SORE","3","f","rechts","24","","","self","j","30","true"
"null","<div style=""font-size:60px;"">+</div>","null","html-keyboard-response","100","236139","0.0-6.0-0.47","SORE","3","f","rechts","24","","fixation","","","",""
"1064","img/60_90.png","74","image-keyboard-response","101","237204","0.0-6.0-1.47","SORE","3","f","rechts","24","","","self","j","60","true"
"null","<div style=""font-size:60px;"">+</div>","null","html-keyboard-response","102","237555","0.0-6.0-0.48","SORE","3","f","rechts","24","","fixation","","","",""
"841","img/0_30.png","74","image-keyboard-response","103","238397","0.0-6.0-1.48","SORE","3","f","rechts","24","","","self","j","0","true"
"null","<div style=""font-size:60px;"">+</div>","null","html-keyboard-response","104","238899","0.0-6.0-0.49","SORE","3","f","rechts","24","","fixation","","","",""
"922","img/L90_180.png","70","image-keyboard-response","105","239822","0.0-6.0-1.49","SORE","3","f","rechts","24","","","self","f","90","true"
"null","<div style=""font-size:60px;"">+</div>","null","html-keyboard-response","106","240173","0.0-6.0-0.50","SORE","3","f","rechts","24","","fixation","","","",""
"772","img/0_120.png","74","image-keyboard-response","107","240946","0.0-6.0-1.50","SORE","3","f","rechts","24","","","self","j","0","true"
"null","<div style=""font-size:60px;"">+</div>","null","html-keyboard-response","108","241347","0.0-6.0-0.51","SORE","3","f","rechts","24","","fixation","","","",""
"855","img/0_330.png","70","image-keyboard-response","109","242204","0.0-6.0-1.51","SORE","3","f","rechts","24","","","self","f","0","true"
"null","<div style=""font-size:60px;"">+</div>","null","html-keyboard-response","110","242505","0.0-6.0-0.52","SORE","3","f","rechts","24","","fixation","","","",""
"1008","img/60_30.png","74","image-keyboard-response","111","243514","0.0-6.0-1.52","SORE","3","f","rechts","24","","","self","j","60","true"
"null","<div style=""font-size:60px;"">+</div>","null","html-keyboard-response","112","244015","0.0-6.0-0.53","SORE","3","f","rechts","24","","fixation","","","",""
"828","img/120_150.png","70","image-keyboard-response","113","244843","0.0-6.0-1.53","SORE","3","f","rechts","24","","","self","f","120","true"
"null","<div style=""font-size:60px;"">+</div>","null","html-keyboard-response","114","245295","0.0-6.0-0.54","SORE","3","f","rechts","24","","fixation","","","",""
"681","img/L120_180.png","70","image-keyboard-response","115","245977","0.0-6.0-1.54","SORE","3","f","rechts","24","","","self","f","120","true"
"null","<div style=""font-size:60px;"">+</div>","null","html-keyboard-response","116","246278","0.0-6.0-0.55","SORE","3","f","rechts","24","","fixation","","","",""
"953","img/120_90.png","70","image-keyboard-response","117","247233","0.0-6.0-1.55","SORE","3","f","rechts","24","","","self","f","120","true"
"null","<div style=""font-size:60px;"">+</div>","null","html-keyboard-response","118","247684","0.0-6.0-0.56","SORE","3","f","rechts","24","","fixation","","","",""
"751","img/150_90.png","70","image-keyboard-response","119","248437","0.0-6.0-1.56","SORE","3","f","rechts","24","","","self","f","150","true"
"null","<div style=""font-size:60px;"">+</div>","null","html-keyboard-response","120","248888","0.0-6.0-0.57","SORE","3","f","rechts","24","","fixation","","","",""
"751","img/30_180.png","74","image-keyboard-response","121","249641","0.0-6.0-1.57","SORE","3","f","rechts","24","","","self","j","30","true"
"null","<div style=""font-size:60px;"">+</div>","null","html-keyboard-response","122","249942","0.0-6.0-0.58","SORE","3","f","rechts","24","","fixation","","","",""
"935","img/120_180.png","74","image-keyboard-response","123","250878","0.0-6.0-1.58","SORE","3","f","rechts","24","","","self","j","120","true"
"null","<div style=""font-size:60px;"">+</div>","null","html-keyboard-response","124","251230","0.0-6.0-0.59","SORE","3","f","rechts","24","","fixation","","","",""
"878","img/30_90.png","74","image-keyboard-response","125","252109","0.0-6.0-1.59","SORE","3","f","rechts","24","","","self","j","30","true"
"null","<div style=""font-size:60px;"">+</div>","null","html-keyboard-response","126","252610","0.0-6.0-0.60","SORE","3","f","rechts","24","","fixation","","","",""
"811","img/150_300.png","74","image-keyboard-response","127","253423","0.0-6.0-1.60","SORE","3","f","rechts","24","","","self","j","150","true"
"null","<div style=""font-size:60px;"">+</div>","null","html-keyboard-response","128","253924","0.0-6.0-0.61","SORE","3","f","rechts","24","","fixation","","","",""
"1205","img/60_90.png","74","image-keyboard-response","129","255130","0.0-6.0-1.61","SORE","3","f","rechts","24","","","self","j","60","true"
"null","<div style=""font-size:60px;"">+</div>","null","html-keyboard-response","130","255582","0.0-6.0-0.62","SORE","3","f","rechts","24","","fixation","","","",""
"995","img/L30_180.png","70","image-keyboard-response","131","256578","0.0-6.0-1.62","SORE","3","f","rechts","24","","","self","f","30","true"
"null","<div style=""font-size:60px;"">+</div>","null","html-keyboard-response","132","256880","0.0-6.0-0.63","SORE","3","f","rechts","24","","fixation","","","",""
"1072","img/90_120.png","70","image-keyboard-response","133","257953","0.0-6.0-1.63","SORE","3","f","rechts","24","","","self","f","90","true"
"null","<div style=""font-size:60px;"">+</div>","null","html-keyboard-response","134","258355","0.0-6.0-0.64","SORE","3","f","rechts","24","","fixation","","","",""
"902","img/90_180.png","74","image-keyboard-response","135","259257","0.0-6.0-1.64","SORE","3","f","rechts","24","","","self","j","90","true"
"null","<div style=""font-size:60px;"">+</div>","null","html-keyboard-response","136","259709","0.0-6.0-0.65","SORE","3","f","rechts","24","","fixation","","","",""
"878","img/120_270.png","74","image-keyboard-response","137","260587","0.0-6.0-1.65","SORE","3","f","rechts","24","","","self","j","120","true"
"null","<div style=""font-size:60px;"">+</div>","null","html-keyboard-response","138","261089","0.0-6.0-0.66","SORE","3","f","rechts","24","","fixation","","","",""
"1004","img/90_210.png","74","image-keyboard-response","139","262094","0.0-6.0-1.66","SORE","3","f","rechts","24","","","self","j","90","true"
"null","<div style=""font-size:60px;"">+</div>","null","html-keyboard-response","140","262445","0.0-6.0-0.67","SORE","3","f","rechts","24","","fixation","","","",""
"924","img/90_150.png","70","image-keyboard-response","141","263370","0.0-6.0-1.67","SORE","3","f","rechts","24","","","self","f","90","true"
"null","<div style=""font-size:60px;"">+</div>","null","html-keyboard-response","142","263672","0.0-6.0-0.68","SORE","3","f","rechts","24","","fixation","","","",""
"942","img/0_30.png","74","image-keyboard-response","143","264614","0.0-6.0-1.68","SORE","3","f","rechts","24","","","self","j","0","true"
"null","<div style=""font-size:60px;"">+</div>","null","html-keyboard-response","144","265016","0.0-6.0-0.69","SORE","3","f","rechts","24","","fixation","","","",""
"994","img/150_240.png","74","image-keyboard-response","145","266010","0.0-6.0-1.69","SORE","3","f","rechts","24","","","self","j","150","true"
"null","<div style=""font-size:60px;"">+</div>","null","html-keyboard-response","146","266362","0.0-6.0-0.70","SORE","3","f","rechts","24","","fixation","","","",""
"1063","img/150_60.png","70","image-keyboard-response","147","267425","0.0-6.0-1.70","SORE","3","f","rechts","24","","","self","f","150","true"
"null","<div style=""font-size:60px;"">+</div>","null","html-keyboard-response","148","267727","0.0-6.0-0.71","SORE","3","f","rechts","24","","fixation","","","",""
"1102","img/90_300.png","74","image-keyboard-response","149","268829","0.0-6.0-1.71","SORE","3","f","rechts","24","","","self","f","90","false"
"null","<div style=""font-size:60px;"">+</div>","null","html-keyboard-response","150","269331","0.0-6.0-0.72","SORE","3","f","rechts","24","","fixation","","","",""
"1121","img/90_30.png","74","image-keyboard-response","151","270452","0.0-6.0-1.72","SORE","3","f","rechts","24","","","self","j","90","true"
"null","<div style=""font-size:60px;"">+</div>","null","html-keyboard-response","152","270853","0.0-6.0-0.73","SORE","3","f","rechts","24","","fixation","","","",""
"873","img/0_210.png","70","image-keyboard-response","153","271727","0.0-6.0-1.73","SORE","3","f","rechts","24","","","self","f","0","true"
"null","<div style=""font-size:60px;"">+</div>","null","html-keyboard-response","154","272229","0.0-6.0-0.74","SORE","3","f","rechts","24","","fixation","","","",""
"956","img/L90_180.png","70","image-keyboard-response","155","273185","0.0-6.0-1.74","SORE","3","f","rechts","24","","","self","f","90","true"
"null","<div style=""font-size:60px;"">+</div>","null","html-keyboard-response","156","273686","0.0-6.0-0.75","SORE","3","f","rechts","24","","fixation","","","",""
"1860","img/30_270.png","70","image-keyboard-response","157","275547","0.0-6.0-1.75","SORE","3","f","rechts","24","","","self","f","30","true"
"null","<div style=""font-size:60px;"">+</div>","null","html-keyboard-response","158","275849","0.0-6.0-0.76","SORE","3","f","rechts","24","","fixation","","","",""
"948","img/0_120.png","74","image-keyboard-response","159","276798","0.0-6.0-1.76","SORE","3","f","rechts","24","","","self","j","0","true"
"null","<div style=""font-size:60px;"">+</div>","null","html-keyboard-response","160","277199","0.0-6.0-0.77","SORE","3","f","rechts","24","","fixation","","","",""
"1619","img/30_60.png","74","image-keyboard-response","161","278819","0.0-6.0-1.77","SORE","3","f","rechts","24","","","self","j","30","true"
"null","<div style=""font-size:60px;"">+</div>","null","html-keyboard-response","162","279321","0.0-6.0-0.78","SORE","3","f","rechts","24","","fixation","","","",""
"1167","img/60_150.png","70","image-keyboard-response","163","280488","0.0-6.0-1.78","SORE","3","f","rechts","24","","","self","f","60","true"
"null","<div style=""font-size:60px;"">+</div>","null","html-keyboard-response","164","280989","0.0-6.0-0.79","SORE","3","f","rechts","24","","fixation","","","",""
"1721","img/120_330.png","70","image-keyboard-response","165","282711","0.0-6.0-1.79","SORE","3","f","rechts","24","","","self","f","120","true"
"null","<div style=""font-size:60px;"">+</div>","null","html-keyboard-response","166","283063","0.0-6.0-0.80","SORE","3","f","rechts","24","","fixation","","","",""
"1321","img/150_270.png","74","image-keyboard-response","167","284385","0.0-6.0-1.80","SORE","3","f","rechts","24","","","self","j","150","true"
"null","<div style=""font-size:60px;"">+</div>","null","html-keyboard-response","168","284836","0.0-6.0-0.81","SORE","3","f","rechts","24","","fixation","","","",""
"895","img/0_330.png","70","image-keyboard-response","169","285732","0.0-6.0-1.81","SORE","3","f","rechts","24","","","self","f","0","true"
"null","<div style=""font-size:60px;"">+</div>","null","html-keyboard-response","170","286084","0.0-6.0-0.82","SORE","3","f","rechts","24","","fixation","","","",""
"1067","img/90_240.png","74","image-keyboard-response","171","287151","0.0-6.0-1.82","SORE","3","f","rechts","24","","","self","j","90","true"
"null","<div style=""font-size:60px;"">+</div>","null","html-keyboard-response","172","287502","0.0-6.0-0.83","SORE","3","f","rechts","24","","fixation","","","",""
"1289","img/L60_180.png","70","image-keyboard-response","173","288793","0.0-6.0-1.83","SORE","3","f","rechts","24","","","self","f","60","true"
"null","<div style=""font-size:60px;"">+</div>","null","html-keyboard-response","174","289294","0.0-6.0-0.84","SORE","3","f","rechts","24","","fixation","","","",""
"1701","img/120_30.png","74","image-keyboard-response","175","290996","0.0-6.0-1.84","SORE","3","f","rechts","24","","","self","j","120","true"
"null","<div style=""font-size:60px;"">+</div>","null","html-keyboard-response","176","291296","0.0-6.0-0.85","SORE","3","f","rechts","24","","fixation","","","",""
"956","img/150_180.png","74","image-keyboard-response","177","292254","0.0-6.0-1.85","SORE","3","f","rechts","24","","","self","j","150","true"
"null","<div style=""font-size:60px;"">+</div>","null","html-keyboard-response","178","292705","0.0-6.0-0.86","SORE","3","f","rechts","24","","fixation","","","",""
"735","img/0_60.png","74","image-keyboard-response","179","293441","0.0-6.0-1.86","SORE","3","f","rechts","24","","","self","j","0","true"
"null","<div style=""font-size:60px;"">+</div>","null","html-keyboard-response","180","293942","0.0-6.0-0.87","SORE","3","f","rechts","24","","fixation","","","",""
"1836","img/30_120.png","74","image-keyboard-response","181","295780","0.0-6.0-1.87","SORE","3","f","rechts","24","","","self","j","30","true"
"null","<div style=""font-size:60px;"">+</div>","null","html-keyboard-response","182","296281","0.0-6.0-0.88","SORE","3","f","rechts","24","","fixation","","","",""
"824","img/0_300.png","70","image-keyboard-response","183","297106","0.0-6.0-1.88","SORE","3","f","rechts","24","","","self","f","0","true"
"null","<div style=""font-size:60px;"">+</div>","null","html-keyboard-response","184","297408","0.0-6.0-0.89","SORE","3","f","rechts","24","","fixation","","","",""
"918","img/60_210.png","74","image-keyboard-response","185","298326","0.0-6.0-1.89","SORE","3","f","rechts","24","","","self","j","60","true"
"null","<div style=""font-size:60px;"">+</div>","null","html-keyboard-response","186","298628","0.0-6.0-0.90","SORE","3","f","rechts","24","","fixation","","","",""
"1815","img/30_240.png","70","image-keyboard-response","187","300445","0.0-6.0-1.90","SORE","3","f","rechts","24","","","self","f","30","true"
"null","<div style=""font-size:60px;"">+</div>","null","html-keyboard-response","188","300796","0.0-6.0-0.91","SORE","3","f","rechts","24","","fixation","","","",""
"1075","img/0_240.png","70","image-keyboard-response","189","301872","0.0-6.0-1.91","SORE","3","f","rechts","24","","","self","f","0","true"
"null","<div style=""font-size:60px;"">+</div>","null","html-keyboard-response","190","302273","0.0-6.0-0.92","SORE","3","f","rechts","24","","fixation","","","",""
"949","img/90_60.png","74","image-keyboard-response","191","303224","0.0-6.0-1.92","SORE","3","f","rechts","24","","","self","j","90","true"
"null","<div style=""font-size:60px;"">+</div>","null","html-keyboard-response","192","303725","0.0-6.0-0.93","SORE","3","f","rechts","24","","fixation","","","",""
"1324","img/60_270.png","70","image-keyboard-response","193","305050","0.0-6.0-1.93","SORE","3","f","rechts","24","","","self","f","60","true"
"null","<div style=""font-size:60px;"">+</div>","null","html-keyboard-response","194","305552","0.0-6.0-0.94","SORE","3","f","rechts","24","","fixation","","","",""
"972","img/60_180.png","74","image-keyboard-response","195","306525","0.0-6.0-1.94","SORE","3","f","rechts","24","","","self","j","60","true"
"null","<div style=""font-size:60px;"">+</div>","null","html-keyboard-response","196","306877","0.0-6.0-0.95","SORE","3","f","rechts","24","","fixation","","","",""
"791","img/0_90.png","74","image-keyboard-response","197","307670","0.0-6.0-1.95","SORE","3","f","rechts","24","","","self","j","0","true"
"null","<div style=""font-size:60px;"">+</div>","null","html-keyboard-response","198","307970","0.0-6.0-0.96","SORE","3","f","rechts","24","","fixation","","","",""
"763","img/0_270.png","70","image-keyboard-response","199","308734","0.0-6.0-1.96","SORE","3","f","rechts","24","","","self","f","0","true"
"null","<div style=""font-size:60px;"">+</div>","null","html-keyboard-response","200","309136","0.0-6.0-0.97","SORE","3","f","rechts","24","","fixation","","","",""
"1064","img/120_210.png","74","image-keyboard-response","201","310200","0.0-6.0-1.97","SORE","3","f","rechts","24","","","self","j","120","true"
"null","<div style=""font-size:60px;"">+</div>","null","html-keyboard-response","202","310502","0.0-6.0-0.98","SORE","3","f","rechts","24","","fixation","","","",""
"1055","img/L150_180.png","74","image-keyboard-response","203","311558","0.0-6.0-1.98","SORE","3","f","rechts","24","","","self","f","150","false"
"null","<div style=""font-size:60px;"">+</div>","null","html-keyboard-response","204","311960","0.0-6.0-0.99","SORE","3","f","rechts","24","","fixation","","","",""
"986","img/150_120.png","70","image-keyboard-response","205","312947","0.0-6.0-1.99","SORE","3","f","rechts","24","","","self","f","150","true"
"null","<div style=""font-size:60px;"">+</div>","null","html-keyboard-response","206","313299","0.0-6.0-0.100","SORE","3","f","rechts","24","","fixation","","","",""
"1153","img/60_330.png","70","image-keyboard-response","207","314452","0.0-6.0-1.100","SORE","3","f","rechts","24","","","self","f","60","true"
"null","<div style=""font-size:60px;"">+</div>","null","html-keyboard-response","208","314854","0.0-6.0-0.101","SORE","3","f","rechts","24","","fixation","","","",""
"894","img/0_150.png","74","image-keyboard-response","209","315749","0.0-6.0-1.101","SORE","3","f","rechts","24","","","self","j","0","true"
"null","<div style=""font-size:60px;"">+</div>","null","html-keyboard-response","210","316101","0.0-6.0-0.102","SORE","3","f","rechts","24","","fixation","","","",""
"1078","img/30_300.png","70","image-keyboard-response","211","317179","0.0-6.0-1.102","SORE","3","f","rechts","24","","","self","f","30","true"
"null","<div style=""font-size:60px;"">+</div>","null","html-keyboard-response","212","317581","0.0-6.0-0.103","SORE","3","f","rechts","24","","fixation","","","",""
"1391","img/90_330.png","70","image-keyboard-response","213","318972","0.0-6.0-1.103","SORE","3","f","rechts","24","","","self","f","90","true"
"null","<div style=""font-size:60px;"">+</div>","null","html-keyboard-response","214","319424","0.0-6.0-0.104","SORE","3","f","rechts","24","","fixation","","","",""
"1984","img/90_240.png","74","image-keyboard-response","215","321408","0.0-6.0-1.104","SORE","3","f","rechts","24","","","self","j","90","true"
"null","<div style=""font-size:60px;"">+</div>","null","html-keyboard-response","216","321860","0.0-6.0-0.105","SORE","3","f","rechts","24","","fixation","","","",""
"767","img/0_120.png","74","image-keyboard-response","217","322627","0.0-6.0-1.105","SORE","3","f","rechts","24","","","self","j","0","true"
"null","<div style=""font-size:60px;"">+</div>","null","html-keyboard-response","218","322928","0.0-6.0-0.106","SORE","3","f","rechts","24","","fixation","","","",""
"1296","img/150_60.png","70","image-keyboard-response","219","324224","0.0-6.0-1.106","SORE","3","f","rechts","24","","","self","f","150","true"
"null","<div style=""font-size:60px;"">+</div>","null","html-keyboard-response","220","324576","0.0-6.0-0.107","SORE","3","f","rechts","24","","fixation","","","",""
"1468","img/60_90.png","74","image-keyboard-response","221","326044","0.0-6.0-1.107","SORE","3","f","rechts","24","","","self","j","60","true"
"null","<div style=""font-size:60px;"">+</div>","null","html-keyboard-response","222","326496","0.0-6.0-0.108","SORE","3","f","rechts","24","","fixation","","","",""
"2278","img/30_90.png","74","image-keyboard-response","223","328775","0.0-6.0-1.108","SORE","3","f","rechts","24","","","self","j","30","true"
"null","<div style=""font-size:60px;"">+</div>","null","html-keyboard-response","224","329076","0.0-6.0-0.109","SORE","3","f","rechts","24","","fixation","","","",""
"1353","img/60_180.png","74","image-keyboard-response","225","330431","0.0-6.0-1.109","SORE","3","f","rechts","24","","","self","j","60","true"
"null","<div style=""font-size:60px;"">+</div>","null","html-keyboard-response","226","330731","0.0-6.0-0.110","SORE","3","f","rechts","24","","fixation","","","",""
"958","img/150_180.png","74","image-keyboard-response","227","331690","0.0-6.0-1.110","SORE","3","f","rechts","24","","","self","j","150","true"
"null","<div style=""font-size:60px;"">+</div>","null","html-keyboard-response","228","332142","0.0-6.0-0.111","SORE","3","f","rechts","24","","fixation","","","",""
"1060","img/L120_180.png","70","image-keyboard-response","229","333202","0.0-6.0-1.111","SORE","3","f","rechts","24","","","self","f","120","true"
"null","<div style=""font-size:60px;"">+</div>","null","html-keyboard-response","230","333704","0.0-6.0-0.112","SORE","3","f","rechts","24","","fixation","","","",""
"762","img/0_270.png","70","image-keyboard-response","231","334466","0.0-6.0-1.112","SORE","3","f","rechts","24","","","self","f","0","true"
"null","<div style=""font-size:60px;"">+</div>","null","html-keyboard-response","232","334766","0.0-6.0-0.113","SORE","3","f","rechts","24","","fixation","","","",""
"897","img/90_180.png","74","image-keyboard-response","233","335665","0.0-6.0-1.113","SORE","3","f","rechts","24","","","self","j","90","true"
"null","<div style=""font-size:60px;"">+</div>","null","html-keyboard-response","234","336016","0.0-6.0-0.114","SORE","3","f","rechts","24","","fixation","","","",""
"1075","img/90_30.png","74","image-keyboard-response","235","337093","0.0-6.0-1.114","SORE","3","f","rechts","24","","","self","j","90","true"
"null","<div style=""font-size:60px;"">+</div>","null","html-keyboard-response","236","337444","0.0-6.0-0.115","SORE","3","f","rechts","24","","fixation","","","",""
"915","img/L60_180.png","70","image-keyboard-response","237","338361","0.0-6.0-1.115","SORE","3","f","rechts","24","","","self","f","60","true"
"null","<div style=""font-size:60px;"">+</div>","null","html-keyboard-response","238","338762","0.0-6.0-0.116","SORE","3","f","rechts","24","","fixation","","","",""
"1063","img/30_270.png","70","image-keyboard-response","239","339826","0.0-6.0-1.116","SORE","3","f","rechts","24","","","self","f","30","true"
"null","<div style=""font-size:60px;"">+</div>","null","html-keyboard-response","240","340278","0.0-6.0-0.117","SORE","3","f","rechts","24","","fixation","","","",""
"859","img/30_60.png","74","image-keyboard-response","241","341138","0.0-6.0-1.117","SORE","3","f","rechts","24","","","self","j","30","true"
"null","<div style=""font-size:60px;"">+</div>","null","html-keyboard-response","242","341490","0.0-6.0-0.118","SORE","3","f","rechts","24","","fixation","","","",""
"1097","img/120_210.png","74","image-keyboard-response","243","342589","0.0-6.0-1.118","SORE","3","f","rechts","24","","","self","j","120","true"
"null","<div style=""font-size:60px;"">+</div>","null","html-keyboard-response","244","343040","0.0-6.0-0.119","SORE","3","f","rechts","24","","fixation","","","",""
"1176","img/120_90.png","70","image-keyboard-response","245","344218","0.0-6.0-1.119","SORE","3","f","rechts","24","","","self","f","120","true"
"null","<div style=""font-size:60px;"">+</div>","null","html-keyboard-response","246","344619","0.0-6.0-0.120","SORE","3","f","rechts","24","","fixation","","","",""
"1062","img/30_300.png","70","image-keyboard-response","247","345682","0.0-6.0-1.120","SORE","3","f","rechts","24","","","self","f","30","true"
"null","<div style=""font-size:60px;"">+</div>","null","html-keyboard-response","248","346134","0.0-6.0-0.121","SORE","3","f","rechts","24","","fixation","","","",""
"827","img/120_180.png","74","image-keyboard-response","249","346963","0.0-6.0-1.121","SORE","3","f","rechts","24","","","self","j","120","true"
"null","<div style=""font-size:60px;"">+</div>","null","html-keyboard-response","250","347364","0.0-6.0-0.122","SORE","3","f","rechts","24","","fixation","","","",""
"796","img/0_240.png","70","image-keyboard-response","251","348162","0.0-6.0-1.122","SORE","3","f","rechts","24","","","self","f","0","true"
"null","<div style=""font-size:60px;"">+</div>","null","html-keyboard-response","252","348563","0.0-6.0-0.123","SORE","3","f","rechts","24","","fixation","","","",""
"1062","img/L150_180.png","70","image-keyboard-response","253","349626","0.0-6.0-1.123","SORE","3","f","rechts","24","","","self","f","150","true"
"null","<div style=""font-size:60px;"">+</div>","null","html-keyboard-response","254","349977","0.0-6.0-0.124","SORE","3","f","rechts","24","","fixation","","","",""
"1614","img/90_300.png","70","image-keyboard-response","255","351592","0.0-6.0-1.124","SORE","3","f","rechts","24","","","self","f","90","true"
"null","<div style=""font-size:60px;"">+</div>","null","html-keyboard-response","256","351894","0.0-6.0-0.125","SORE","3","f","rechts","24","","fixation","","","",""
"916","img/60_150.png","70","image-keyboard-response","257","352811","0.0-6.0-1.125","SORE","3","f","rechts","24","","","self","f","60","true"
"null","<div style=""font-size:60px;"">+</div>","null","html-keyboard-response","258","353113","0.0-6.0-0.126","SORE","3","f","rechts","24","","fixation","","","",""
"849","img/0_60.png","74","image-keyboard-response","259","353962","0.0-6.0-1.126","SORE","3","f","rechts","24","","","self","j","0","true"
"null","<div style=""font-size:60px;"">+</div>","null","html-keyboard-response","260","354364","0.0-6.0-0.127","SORE","3","f","rechts","24","","fixation","","","",""
"956","img/0_210.png","70","image-keyboard-response","261","355321","0.0-6.0-1.127","SORE","3","f","rechts","24","","","self","f","0","true"
"null","<div style=""font-size:60px;"">+</div>","null","html-keyboard-response","262","355773","0.0-6.0-0.128","SORE","3","f","rechts","24","","fixation","","","",""
"780","img/30_180.png","74","image-keyboard-response","263","356553","0.0-6.0-1.128","SORE","3","f","rechts","24","","","self","j","30","true"
"null","<div style=""font-size:60px;"">+</div>","null","html-keyboard-response","264","357055","0.0-6.0-0.129","SORE","3","f","rechts","24","","fixation","","","",""
"871","img/150_240.png","74","image-keyboard-response","265","357927","0.0-6.0-1.129","SORE","3","f","rechts","24","","","self","j","150","true"
"null","<div style=""font-size:60px;"">+</div>","null","html-keyboard-response","266","358428","0.0-6.0-0.130","SORE","3","f","rechts","24","","fixation","","","",""
"846","img/150_270.png","74","image-keyboard-response","267","359275","0.0-6.0-1.130","SORE","3","f","rechts","24","","","self","j","150","true"
"null","<div style=""font-size:60px;"">+</div>","null","html-keyboard-response","268","359777","0.0-6.0-0.131","SORE","3","f","rechts","24","","fixation","","","",""
"1558","img/30_120.png","74","image-keyboard-response","269","361336","0.0-6.0-1.131","SORE","3","f","rechts","24","","","self","j","30","true"
"null","<div style=""font-size:60px;"">+</div>","null","html-keyboard-response","270","361838","0.0-6.0-0.132","SORE","3","f","rechts","24","","fixation","","","",""
"1161","img/L90_180.png","70","image-keyboard-response","271","363000","0.0-6.0-1.132","SORE","3","f","rechts","24","","","self","f","90","true"
"null","<div style=""font-size:60px;"">+</div>","null","html-keyboard-response","272","363402","0.0-6.0-0.133","SORE","3","f","rechts","24","","fixation","","","",""
"916","img/0_330.png","70","image-keyboard-response","273","364319","0.0-6.0-1.133","SORE","3","f","rechts","24","","","self","f","0","true"
"null","<div style=""font-size:60px;"">+</div>","null","html-keyboard-response","274","364821","0.0-6.0-0.134","SORE","3","f","rechts","24","","fixation","","","",""
"1160","img/60_30.png","74","image-keyboard-response","275","365982","0.0-6.0-1.134","SORE","3","f","rechts","24","","","self","j","60","true"
"null","<div style=""font-size:60px;"">+</div>","null","html-keyboard-response","276","366484","0.0-6.0-0.135","SORE","3","f","rechts","24","","fixation","","","",""
"1348","img/120_330.png","70","image-keyboard-response","277","367832","0.0-6.0-1.135","SORE","3","f","rechts","24","","","self","f","120","true"
"null","<div style=""font-size:60px;"">+</div>","null","html-keyboard-response","278","368333","0.0-6.0-0.136","SORE","3","f","rechts","24","","fixation","","","",""
"821","img/0_150.png","74","image-keyboard-response","279","369155","0.0-6.0-1.136","SORE","3","f","rechts","24","","","self","j","0","true"
"null","<div style=""font-size:60px;"">+</div>","null","html-keyboard-response","280","369457","0.0-6.0-0.137","SORE","3","f","rechts","24","","fixation","","","",""
"1220","img/150_120.png","70","image-keyboard-response","281","370677","0.0-6.0-1.137","SORE","3","f","rechts","24","","","self","f","150","true"
"null","<div style=""font-size:60px;"">+</div>","null","html-keyboard-response","282","371079","0.0-6.0-0.138","SORE","3","f","rechts","24","","fixation","","","",""
"934","img/150_300.png","74","image-keyboard-response","283","372013","0.0-6.0-1.138","SORE","3","f","rechts","24","","","self","j","150","true"
"null","<div style=""font-size:60px;"">+</div>","null","html-keyboard-response","284","372415","0.0-6.0-0.139","SORE","3","f","rechts","24","","fixation","","","",""
"1079","img/90_330.png","70","image-keyboard-response","285","373494","0.0-6.0-1.139","SORE","3","f","rechts","24","","","self","f","90","true"
"null","<div style=""font-size:60px;"">+</div>","null","html-keyboard-response","286","373996","0.0-6.0-0.140","SORE","3","f","rechts","24","","fixation","","","",""
"1139","img/60_270.png","74","image-keyboard-response","287","375136","0.0-6.0-1.140","SORE","3","f","rechts","24","","","self","f","60","false"
"null","<div style=""font-size:60px;"">+</div>","null","html-keyboard-response","288","375588","0.0-6.0-0.141","SORE","3","f","rechts","24","","fixation","","","",""
"1016","img/120_270.png","74","image-keyboard-response","289","376604","0.0-6.0-1.141","SORE","3","f","rechts","24","","","self","j","120","true"
"null","<div style=""font-size:60px;"">+</div>","null","html-keyboard-response","290","377056","0.0-6.0-0.142","SORE","3","f","rechts","24","","fixation","","","",""
"1103","img/60_210.png","74","image-keyboard-response","291","378159","0.0-6.0-1.142","SORE","3","f","rechts","24","","","self","j","60","true"
"null","<div style=""font-size:60px;"">+</div>","null","html-keyboard-response","292","378461","0.0-6.0-0.143","SORE","3","f","rechts","24","","fixation","","","",""
"1074","img/90_210.png","74","image-keyboard-response","293","379535","0.0-6.0-1.143","SORE","3","f","rechts","24","","","self","j","90","true"
"null","<div style=""font-size:60px;"">+</div>","null","html-keyboard-response","294","379836","0.0-6.0-0.144","SORE","3","f","rechts","24","","fixation","","","",""
"1557","img/30_240.png","74","image-keyboard-response","295","381394","0.0-6.0-1.144","SORE","3","f","rechts","24","","","self","f","30","false"
"null","<div style=""font-size:60px;"">+</div>","null","html-keyboard-response","296","381746","0.0-6.0-0.145","SORE","3","f","rechts","24","","fixation","","","",""
"1006","img/0_90.png","74","image-keyboard-response","297","382752","0.0-6.0-1.145","SORE","3","f","rechts","24","","","self","j","0","true"
"null","<div style=""font-size:60px;"">+</div>","null","html-keyboard-response","298","383254","0.0-6.0-0.146","SORE","3","f","rechts","24","","fixation","","","",""
"990","img/150_90.png","70","image-keyboard-response","299","384244","0.0-6.0-1.146","SORE","3","f","rechts","24","","","self","f","150","true"
"null","<div style=""font-size:60px;"">+</div>","null","html-keyboard-response","300","384645","0.0-6.0-0.147","SORE","3","f","rechts","24","","fixation","","","",""
"988","img/L30_180.png","70","image-keyboard-response","301","385634","0.0-6.0-1.147","SORE","3","f","rechts","24","","","self","f","30","true"
"null","<div style=""font-size:60px;"">+</div>","null","html-keyboard-response","302","386035","0.0-6.0-0.148","SORE","3","f","rechts","24","","fixation","","","",""
"1094","img/120_30.png","74","image-keyboard-response","303","387130","0.0-6.0-1.148","SORE","3","f","rechts","24","","","self","j","120","true"
"null","<div style=""font-size:60px;"">+</div>","null","html-keyboard-response","304","387481","0.0-6.0-0.149","SORE","3","f","rechts","24","","fixation","","","",""
"919","img/0_30.png","74","image-keyboard-response","305","388402","0.0-6.0-1.149","SORE","3","f","rechts","24","","","self","j","0","true"
"null","<div style=""font-size:60px;"">+</div>","null","html-keyboard-response","306","388753","0.0-6.0-0.150","SORE","3","f","rechts","24","","fixation","","","",""
"1265","img/60_330.png","70","image-keyboard-response","307","390019","0.0-6.0-1.150","SORE","3","f","rechts","24","","","self","f","60","true"
"null","<div style=""font-size:60px;"">+</div>","null","html-keyboard-response","308","390520","0.0-6.0-0.151","SORE","3","f","rechts","24","","fixation","","","",""
"808","img/0_300.png","70","image-keyboard-response","309","391330","0.0-6.0-1.151","SORE","3","f","rechts","24","","","self","f","0","true"
"null","<div style=""font-size:60px;"">+</div>","null","html-keyboard-response","310","391830","0.0-6.0-0.152","SORE","3","f","rechts","24","","fixation","","","",""
"1319","img/90_150.png","70","image-keyboard-response","311","393151","0.0-6.0-1.152","SORE","3","f","rechts","24","","","self","f","90","true"
"null","<div style=""font-size:60px;"">+</div>","null","html-keyboard-response","312","393552","0.0-6.0-0.153","SORE","3","f","rechts","24","","fixation","","","",""
"1081","img/120_150.png","70","image-keyboard-response","313","394634","0.0-6.0-1.153","SORE","3","f","rechts","24","","","self","f","120","true"
"null","<div style=""font-size:60px;"">+</div>","null","html-keyboard-response","314","394936","0.0-6.0-0.154","SORE","3","f","rechts","24","","fixation","","","",""
"1380","img/90_120.png","70","image-keyboard-response","315","396316","0.0-6.0-1.154","SORE","3","f","rechts","24","","","self","f","90","true"
"null","<div style=""font-size:60px;"">+</div>","null","html-keyboard-response","316","396768","0.0-6.0-0.155","SORE","3","f","rechts","24","","fixation","","","",""
"1428","img/90_60.png","74","image-keyboard-response","317","398196","0.0-6.0-1.155","SORE","3","f","rechts","24","","","self","j","90","true"
"null","<div style=""font-size:60px;"">+</div>","null","html-keyboard-response","318","398597","0.0-6.0-0.156","SORE","3","f","rechts","24","","fixation","","","",""
"1590","img/30_90.png","74","image-keyboard-response","319","400188","0.0-6.0-1.156","SORE","3","f","rechts","24","","","self","j","30","true"
"null","<div style=""font-size:60px;"">+</div>","null","html-keyboard-response","320","400490","0.0-6.0-0.157","SORE","3","f","rechts","24","","fixation","","","",""
"1310","img/90_120.png","70","image-keyboard-response","321","401800","0.0-6.0-1.157","SORE","3","f","rechts","24","","","self","f","90","true"
"null","<div style=""font-size:60px;"">+</div>","null","html-keyboard-response","322","402102","0.0-6.0-0.158","SORE","3","f","rechts","24","","fixation","","","",""
"1127","img/60_270.png","70","image-keyboard-response","323","403230","0.0-6.0-1.158","SORE","3","f","rechts","24","","","self","f","60","true"
"null","<div style=""font-size:60px;"">+</div>","null","html-keyboard-response","324","403732","0.0-6.0-0.159","SORE","3","f","rechts","24","","fixation","","","",""
"1478","img/30_240.png","70","image-keyboard-response","325","405211","0.0-6.0-1.159","SORE","3","f","rechts","24","","","self","f","30","true"
"null","<div style=""font-size:60px;"">+</div>","null","html-keyboard-response","326","405663","0.0-6.0-0.160","SORE","3","f","rechts","24","","fixation","","","",""
"982","img/150_300.png","74","image-keyboard-response","327","406647","0.0-6.0-1.160","SORE","3","f","rechts","24","","","self","j","150","true"
"null","<div style=""font-size:60px;"">+</div>","null","html-keyboard-response","328","407047","0.0-6.0-0.161","SORE","3","f","rechts","24","","fixation","","","",""
"1126","img/120_30.png","74","image-keyboard-response","329","408175","0.0-6.0-1.161","SORE","3","f","rechts","24","","","self","j","120","true"
"null","<div style=""font-size:60px;"">+</div>","null","html-keyboard-response","330","408625","0.0-6.0-0.162","SORE","3","f","rechts","24","","fixation","","","",""
"945","img/120_270.png","74","image-keyboard-response","331","409572","0.0-6.0-1.162","SORE","3","f","rechts","24","","","self","j","120","true"
"null","<div style=""font-size:60px;"">+</div>","null","html-keyboard-response","332","409923","0.0-6.0-0.163","SORE","3","f","rechts","24","","fixation","","","",""
"953","img/150_120.png","70","image-keyboard-response","333","410878","0.0-6.0-1.163","SORE","3","f","rechts","24","","","self","f","150","true"
"null","<div style=""font-size:60px;"">+</div>","null","html-keyboard-response","334","411179","0.0-6.0-0.164","SORE","3","f","rechts","24","","fixation","","","",""
"960","img/90_150.png","70","image-keyboard-response","335","412140","0.0-6.0-1.164","SORE","3","f","rechts","24","","","self","f","90","true"
"null","<div style=""font-size:60px;"">+</div>","null","html-keyboard-response","336","412592","0.0-6.0-0.165","SORE","3","f","rechts","24","","fixation","","","",""
"952","img/30_300.png","70","image-keyboard-response","337","413546","0.0-6.0-1.165","SORE","3","f","rechts","24","","","self","f","30","true"
"null","<div style=""font-size:60px;"">+</div>","null","html-keyboard-response","338","413847","0.0-6.0-0.166","SORE","3","f","rechts","24","","fixation","","","",""
"999","img/90_240.png","74","image-keyboard-response","339","414847","0.0-6.0-1.166","SORE","3","f","rechts","24","","","self","j","90","true"
"null","<div style=""font-size:60px;"">+</div>","null","html-keyboard-response","340","415249","0.0-6.0-0.167","SORE","3","f","rechts","24","","fixation","","","",""
"1286","img/60_150.png","70","image-keyboard-response","341","416536","0.0-6.0-1.167","SORE","3","f","rechts","24","","","self","f","60","true"
"null","<div style=""font-size:60px;"">+</div>","null","html-keyboard-response","342","417037","0.0-6.0-0.168","SORE","3","f","rechts","24","","fixation","","","",""
"850","img/150_240.png","74","image-keyboard-response","343","417888","0.0-6.0-1.168","SORE","3","f","rechts","24","","","self","j","150","true"
"null","<div style=""font-size:60px;"">+</div>","null","html-keyboard-response","344","418340","0.0-6.0-0.169","SORE","3","f","rechts","24","","fixation","","","",""
"932","img/0_330.png","70","image-keyboard-response","345","419272","0.0-6.0-1.169","SORE","3","f","rechts","24","","","self","f","0","true"
"null","<div style=""font-size:60px;"">+</div>","null","html-keyboard-response","346","419724","0.0-6.0-0.170","SORE","3","f","rechts","24","","fixation","","","",""
"1492","img/150_60.png","70","image-keyboard-response","347","421216","0.0-6.0-1.170","SORE","3","f","rechts","24","","","self","f","150","true"
"null","<div style=""font-size:60px;"">+</div>","null","html-keyboard-response","348","421567","0.0-6.0-0.171","SORE","3","f","rechts","24","","fixation","","","",""
"1063","img/0_30.png","74","image-keyboard-response","349","422632","0.0-6.0-1.171","SORE","3","f","rechts","24","","","self","j","0","true"
"null","<div style=""font-size:60px;"">+</div>","null","html-keyboard-response","350","423133","0.0-6.0-0.172","SORE","3","f","rechts","24","","fixation","","","",""
"1087","img/90_330.png","70","image-keyboard-response","351","424221","0.0-6.0-1.172","SORE","3","f","rechts","24","","","self","f","90","true"
"null","<div style=""font-size:60px;"">+</div>","null","html-keyboard-response","352","424623","0.0-6.0-0.173","SORE","3","f","rechts","24","","fixation","","","",""
"947","img/0_270.png","70","image-keyboard-response","353","425571","0.0-6.0-1.173","SORE","3","f","rechts","24","","","self","f","0","true"
"null","<div style=""font-size:60px;"">+</div>","null","html-keyboard-response","354","425922","0.0-6.0-0.174","SORE","3","f","rechts","24","","fixation","","","",""
"868","img/60_180.png","74","image-keyboard-response","355","426791","0.0-6.0-1.174","SORE","3","f","rechts","24","","","self","j","60","true"
"null","<div style=""font-size:60px;"">+</div>","null","html-keyboard-response","356","427193","0.0-6.0-0.175","SORE","3","f","rechts","24","","fixation","","","",""
"864","img/90_180.png","74","image-keyboard-response","357","428057","0.0-6.0-1.175","SORE","3","f","rechts","24","","","self","j","90","true"
"null","<div style=""font-size:60px;"">+</div>","null","html-keyboard-response","358","428359","0.0-6.0-0.176","SORE","3","f","rechts","24","","fixation","","","",""
"837","img/120_210.png","74","image-keyboard-response","359","429198","0.0-6.0-1.176","SORE","3","f","rechts","24","","","self","j","120","true"
"null","<div style=""font-size:60px;"">+</div>","null","html-keyboard-response","360","429699","0.0-6.0-0.177","SORE","3","f","rechts","24","","fixation","","","",""
"827","img/150_180.png","74","image-keyboard-response","361","430528","0.0-6.0-1.177","SORE","3","f","rechts","24","","","self","j","150","true"
"null","<div style=""font-size:60px;"">+</div>","null","html-keyboard-response","362","430980","0.0-6.0-0.178","SORE","3","f","rechts","24","","fixation","","","",""
"778","img/0_120.png","74","image-keyboard-response","363","431758","0.0-6.0-1.178","SORE","3","f","rechts","24","","","self","j","0","true"
"null","<div style=""font-size:60px;"">+</div>","null","html-keyboard-response","364","432259","0.0-6.0-0.179","SORE","3","f","rechts","24","","fixation","","","",""
"1856","img/90_60.png","74","image-keyboard-response","365","434117","0.0-6.0-1.179","SORE","3","f","rechts","24","","","self","j","90","true"
"null","<div style=""font-size:60px;"">+</div>","null","html-keyboard-response","366","434468","0.0-6.0-0.180","SORE","3","f","rechts","24","","fixation","","","",""
"1149","img/30_60.png","74","image-keyboard-response","367","435618","0.0-6.0-1.180","SORE","3","f","rechts","24","","","self","j","30","true"
"null","<div style=""font-size:60px;"">+</div>","null","html-keyboard-response","368","435920","0.0-6.0-0.181","SORE","3","f","rechts","24","","fixation","","","",""
"857","img/0_300.png","70","image-keyboard-response","369","436777","0.0-6.0-1.181","SORE","3","f","rechts","24","","","self","f","0","true"
"null","<div style=""font-size:60px;"">+</div>","null","html-keyboard-response","370","437278","0.0-6.0-0.182","SORE","3","f","rechts","24","","fixation","","","",""
"1070","img/120_180.png","74","image-keyboard-response","371","438349","0.0-6.0-1.182","SORE","3","f","rechts","24","","","self","j","120","true"
"null","<div style=""font-size:60px;"">+</div>","null","html-keyboard-response","372","438851","0.0-6.0-0.183","SORE","3","f","rechts","24","","fixation","","","",""
"1065","img/150_90.png","70","image-keyboard-response","373","439916","0.0-6.0-1.183","SORE","3","f","rechts","24","","","self","f","150","true"
"null","<div style=""font-size:60px;"">+</div>","null","html-keyboard-response","374","440267","0.0-6.0-0.184","SORE","3","f","rechts","24","","fixation","","","",""
"869","img/120_150.png","70","image-keyboard-response","375","441137","0.0-6.0-1.184","SORE","3","f","rechts","24","","","self","f","120","true"
"null","<div style=""font-size:60px;"">+</div>","null","html-keyboard-response","376","441589","0.0-6.0-0.185","SORE","3","f","rechts","24","","fixation","","","",""
"1135","img/30_270.png","70","image-keyboard-response","377","442726","0.0-6.0-1.185","SORE","3","f","rechts","24","","","self","f","30","true"
"null","<div style=""font-size:60px;"">+</div>","null","html-keyboard-response","378","443027","0.0-6.0-0.186","SORE","3","f","rechts","24","","fixation","","","",""
"1077","img/60_330.png","70","image-keyboard-response","379","444105","0.0-6.0-1.186","SORE","3","f","rechts","24","","","self","f","60","true"
"null","<div style=""font-size:60px;"">+</div>","null","html-keyboard-response","380","444557","0.0-6.0-0.187","SORE","3","f","rechts","24","","fixation","","","",""
"1005","img/L30_180.png","70","image-keyboard-response","381","445563","0.0-6.0-1.187","SORE","3","f","rechts","24","","","self","f","30","true"
"null","<div style=""font-size:60px;"">+</div>","null","html-keyboard-response","382","445865","0.0-6.0-0.188","SORE","3","f","rechts","24","","fixation","","","",""
"918","img/0_240.png","70","image-keyboard-response","383","446785","0.0-6.0-1.188","SORE","3","f","rechts","24","","","self","f","0","true"
"null","<div style=""font-size:60px;"">+</div>","null","html-keyboard-response","384","447286","0.0-6.0-0.189","SORE","3","f","rechts","24","","fixation","","","",""
"837","img/0_210.png","70","image-keyboard-response","385","448124","0.0-6.0-1.189","SORE","3","f","rechts","24","","","self","f","0","true"
"null","<div style=""font-size:60px;"">+</div>","null","html-keyboard-response","386","448626","0.0-6.0-0.190","SORE","3","f","rechts","24","","fixation","","","",""
"790","img/0_60.png","74","image-keyboard-response","387","449417","0.0-6.0-1.190","SORE","3","f","rechts","24","","","self","j","0","true"
"null","<div style=""font-size:60px;"">+</div>","null","html-keyboard-response","388","449719","0.0-6.0-0.191","SORE","3","f","rechts","24","","fixation","","","",""
"1010","img/30_120.png","70","image-keyboard-response","389","450730","0.0-6.0-1.191","SORE","3","f","rechts","24","","","self","j","30","false"
"null","<div style=""font-size:60px;"">+</div>","null","html-keyboard-response","390","451232","0.0-6.0-0.192","SORE","3","f","rechts","24","","fixation","","","",""
"846","img/0_90.png","74","image-keyboard-response","391","452079","0.0-6.0-1.192","SORE","3","f","rechts","24","","","self","j","0","true"
"null","<div style=""font-size:60px;"">+</div>","null","html-keyboard-response","392","452531","0.0-6.0-0.193","SORE","3","f","rechts","24","","fixation","","","",""
"1054","img/L90_180.png","70","image-keyboard-response","393","453585","0.0-6.0-1.193","SORE","3","f","rechts","24","","","self","f","90","true"
"null","<div style=""font-size:60px;"">+</div>","null","html-keyboard-response","394","453937","0.0-6.0-0.194","SORE","3","f","rechts","24","","fixation","","","",""
"937","img/L150_180.png","70","image-keyboard-response","395","454874","0.0-6.0-1.194","SORE","3","f","rechts","24","","","self","f","150","true"
"null","<div style=""font-size:60px;"">+</div>","null","html-keyboard-response","396","455175","0.0-6.0-0.195","SORE","3","f","rechts","24","","fixation","","","",""
"1524","img/120_90.png","70","image-keyboard-response","397","456700","0.0-6.0-1.195","SORE","3","f","rechts","24","","","self","f","120","true"
"null","<div style=""font-size:60px;"">+</div>","null","html-keyboard-response","398","457101","0.0-6.0-0.196","SORE","3","f","rechts","24","","fixation","","","",""
"1121","img/60_30.png","74","image-keyboard-response","399","458223","0.0-6.0-1.196","SORE","3","f","rechts","24","","","self","j","60","true"
"null","<div style=""font-size:60px;"">+</div>","null","html-keyboard-response","400","458725","0.0-6.0-0.197","SORE","3","f","rechts","24","","fixation","","","",""
"855","img/60_210.png","74","image-keyboard-response","401","459581","0.0-6.0-1.197","SORE","3","f","rechts","24","","","self","j","60","true"
"null","<div style=""font-size:60px;"">+</div>","null","html-keyboard-response","402","459883","0.0-6.0-0.198","SORE","3","f","rechts","24","","fixation","","","",""
"1635","img/90_300.png","70","image-keyboard-response","403","461519","0.0-6.0-1.198","SORE","3","f","rechts","24","","","self","f","90","true"
"null","<div style=""font-size:60px;"">+</div>","null","html-keyboard-response","404","461821","0.0-6.0-0.199","SORE","3","f","rechts","24","","fixation","","","",""
"861","img/30_180.png","74","image-keyboard-response","405","462683","0.0-6.0-1.199","SORE","3","f","rechts","24","","","self","j","30","true"
"null","<div style=""font-size:60px;"">+</div>","null","html-keyboard-response","406","463135","0.0-6.0-0.200","SORE","3","f","rechts","24","","fixation","","","",""
"1309","img/60_90.png","70","image-keyboard-response","407","464444","0.0-6.0-1.200","SORE","3","f","rechts","24","","","self","j","60","false"
"null","<div style=""font-size:60px;"">+</div>","null","html-keyboard-response","408","464896","0.0-6.0-0.201","SORE","3","f","rechts","24","","fixation","","","",""
"868","img/90_210.png","74","image-keyboard-response","409","465764","0.0-6.0-1.201","SORE","3","f","rechts","24","","","self","j","90","true"
"null","<div style=""font-size:60px;"">+</div>","null","html-keyboard-response","410","466266","0.0-6.0-0.202","SORE","3","f","rechts","24","","fixation","","","",""
"932","img/120_330.png","74","image-keyboard-response","411","467198","0.0-6.0-1.202","SORE","3","f","rechts","24","","","self","f","120","false"
"null","<div style=""font-size:60px;"">+</div>","null","html-keyboard-response","412","467600","0.0-6.0-0.203","SORE","3","f","rechts","24","","fixation","","","",""
"1601","img/L120_180.png","70","image-keyboard-response","413","469202","0.0-6.0-1.203","SORE","3","f","rechts","24","","","self","f","120","true"
"null","<div style=""font-size:60px;"">+</div>","null","html-keyboard-response","414","469504","0.0-6.0-0.204","SORE","3","f","rechts","24","","fixation","","","",""
"1242","img/L60_180.png","70","image-keyboard-response","415","470746","0.0-6.0-1.204","SORE","3","f","rechts","24","","","self","f","60","true"
"null","<div style=""font-size:60px;"">+</div>","null","html-keyboard-response","416","471098","0.0-6.0-0.205","SORE","3","f","rechts","24","","fixation","","","",""
"997","img/90_30.png","74","image-keyboard-response","417","472095","0.0-6.0-1.205","SORE","3","f","rechts","24","","","self","j","90","true"
"null","<div style=""font-size:60px;"">+</div>","null","html-keyboard-response","418","472497","0.0-6.0-0.206","SORE","3","f","rechts","24","","fixation","","","",""
"1072","img/150_270.png","74","image-keyboard-response","419","473569","0.0-6.0-1.206","SORE","3","f","rechts","24","","","self","j","150","true"
"null","<div style=""font-size:60px;"">+</div>","null","html-keyboard-response","420","474021","0.0-6.0-0.207","SORE","3","f","rechts","24","","fixation","","","",""
"955","img/0_150.png","74","image-keyboard-response","421","474977","0.0-6.0-1.207","SORE","3","f","rechts","24","","","self","j","0","true"
"10698","<p>Du hast in 93% der Versuche korrekt entschieden.</p><p>Deine durchschnittliche Reaktionszeit war  1069ms.</p><p>Dr&uuml;cke eine beliebige Taste, um die Session zu beenden. Vielen Dank!</p>","72","html-keyboard-response","422","485676","0.0-7.0","SORE","3","f","rechts","24","","","","","",""
