"rt","stimulus","key_press","trial_type","trial_index","time_elapsed","internal_node_id","subject","session","sex","handedness","age","responses","test_part","condition","correct_response","angle","correct"
"21543","<p>Mental Rotation Experiment.</p> <p>Dr&uuml;cke eine beliebige Taste, um anzufangen.</p>","32","html-keyboard-response","0","21545","0.0-0.0","FRKA","1","m","rechts","22","","","","","",""
"13161","","","survey-text","1","34709","0.0-1.0","FRKA","1","m","rechts","22","{""Q0"":""FRKA""}","","","","",""
"14661","","","survey-text","2","49372","0.0-2.0","FRKA","1","m","rechts","22","{""Q0"":""1""}","","","","",""
"18370","","","survey-multi-choice","3","67744","0.0-3.0","FRKA","1","m","rechts","22","{""Q0"":""m"",""Q1"":""rechts""}","","","","",""
"5263","","","survey-text","4","73008","0.0-4.0","FRKA","1","m","rechts","22","{""Q0"":""22""}","","","","",""
"7144","<p>Stell dir vor, dass du vor einem runden Tisch stehst, auf dem sich ein blauer Ball am Tischrand befindet. Entlang des Tischrands ist jeweils ein verschieden langer Pfeil. Nun bleibst du an deinem Platz vor dem Tisch und rotierst den Tisch entlang des Pfeils (gleiche Richtung und L&auml;nge). </p> <img src='img/30_180.png'></img> <br><p> Nachdem du diese (vorgestellte) Rotation durchgef&uuml;hrt hast, schau in Richtung der Tischmitte, und entscheide dann, ob der Ball links oder rechts von dir liegt.</p> <p>Dr&uuml;cke die <strong>'f'</strong>-Taste f&uuml;r links, die <strong>'j'</strong>-Taste f&uuml;r rechts.</p><br><p> Das Bild wird jeweils 1 Sekunde lang pr&auml;sentiert. Du hast 3 Sekunden Zeit eine Entscheidung zu treffen.</p>","32","html-keyboard-response","5","80153","0.0-5.0","FRKA","1","m","rechts","22","","","","","",""
"null","<div style=""font-size:60px;"">+</div>","null","html-keyboard-response","6","81607","0.0-6.0-0.0","FRKA","1","m","rechts","22","","fixation","","","",""
"1175","img/0_270.png","70","image-keyboard-response","7","82785","0.0-6.0-1.0","FRKA","1","m","rechts","22","","","object","f","0","true"
"null","<div style=""font-size:60px;"">+</div>","null","html-keyboard-response","8","83187","0.0-6.0-0.1","FRKA","1","m","rechts","22","","fixation","","","",""
"1373","img/30_270.png","70","image-keyboard-response","9","84562","0.0-6.0-1.1","FRKA","1","m","rechts","22","","","object","f","30","true"
"null","<div style=""font-size:60px;"">+</div>","null","html-keyboard-response","10","85014","0.0-6.0-0.2","FRKA","1","m","rechts","22","","fixation","","","",""
"1300","img/120_90.png","70","image-keyboard-response","11","86315","0.0-6.0-1.2","FRKA","1","m","rechts","22","","","object","f","120","true"
"null","<div style=""font-size:60px;"">+</div>","null","html-keyboard-response","12","86667","0.0-6.0-0.3","FRKA","1","m","rechts","22","","fixation","","","",""
"1271","img/60_150.png","74","image-keyboard-response","13","87940","0.0-6.0-1.3","FRKA","1","m","rechts","22","","","object","j","60","true"
"null","<div style=""font-size:60px;"">+</div>","null","html-keyboard-response","14","88342","0.0-6.0-0.4","FRKA","1","m","rechts","22","","fixation","","","",""
"912","img/0_300.png","70","image-keyboard-response","15","89255","0.0-6.0-1.4","FRKA","1","m","rechts","22","","","object","f","0","true"
"null","<div style=""font-size:60px;"">+</div>","null","html-keyboard-response","16","89556","0.0-6.0-0.5","FRKA","1","m","rechts","22","","fixation","","","",""
"1195","img/60_330.png","74","image-keyboard-response","17","90752","0.0-6.0-1.5","FRKA","1","m","rechts","22","","","object","j","60","true"
"null","<div style=""font-size:60px;"">+</div>","null","html-keyboard-response","18","91154","0.0-6.0-0.6","FRKA","1","m","rechts","22","","fixation","","","",""
"1329","img/30_60.png","70","image-keyboard-response","19","92484","0.0-6.0-1.6","FRKA","1","m","rechts","22","","","object","j","30","false"
"null","<div style=""font-size:60px;"">+</div>","null","html-keyboard-response","20","92786","0.0-6.0-0.7","FRKA","1","m","rechts","22","","fixation","","","",""
"1075","img/0_120.png","74","image-keyboard-response","21","93862","0.0-6.0-1.7","FRKA","1","m","rechts","22","","","object","j","0","true"
"null","<div style=""font-size:60px;"">+</div>","null","html-keyboard-response","22","94214","0.0-6.0-0.8","FRKA","1","m","rechts","22","","fixation","","","",""
"1784","img/120_150.png","74","image-keyboard-response","23","95999","0.0-6.0-1.8","FRKA","1","m","rechts","22","","","object","j","120","true"
"null","<div style=""font-size:60px;"">+</div>","null","html-keyboard-response","24","96401","0.0-6.0-0.9","FRKA","1","m","rechts","22","","fixation","","","",""
"1734","img/120_180.png","70","image-keyboard-response","25","98136","0.0-6.0-1.9","FRKA","1","m","rechts","22","","","object","f","120","true"
"null","<div style=""font-size:60px;"">+</div>","null","html-keyboard-response","26","98487","0.0-6.0-0.10","FRKA","1","m","rechts","22","","fixation","","","",""
"1216","img/30_240.png","70","image-keyboard-response","27","99704","0.0-6.0-1.10","FRKA","1","m","rechts","22","","","object","f","30","true"
"null","<div style=""font-size:60px;"">+</div>","null","html-keyboard-response","28","100006","0.0-6.0-0.11","FRKA","1","m","rechts","22","","fixation","","","",""
"983","img/30_120.png","74","image-keyboard-response","29","100990","0.0-6.0-1.11","FRKA","1","m","rechts","22","","","object","j","30","true"
"null","<div style=""font-size:60px;"">+</div>","null","html-keyboard-response","30","101292","0.0-6.0-0.12","FRKA","1","m","rechts","22","","fixation","","","",""
"769","img/0_60.png","74","image-keyboard-response","31","102062","0.0-6.0-1.12","FRKA","1","m","rechts","22","","","object","j","0","true"
"null","<div style=""font-size:60px;"">+</div>","null","html-keyboard-response","32","102564","0.0-6.0-0.13","FRKA","1","m","rechts","22","","fixation","","","",""
"1010","img/90_210.png","70","image-keyboard-response","33","103575","0.0-6.0-1.13","FRKA","1","m","rechts","22","","","object","f","90","true"
"null","<div style=""font-size:60px;"">+</div>","null","html-keyboard-response","34","103927","0.0-6.0-0.14","FRKA","1","m","rechts","22","","fixation","","","",""
"1010","img/120_330.png","74","image-keyboard-response","35","104939","0.0-6.0-1.14","FRKA","1","m","rechts","22","","","object","j","120","true"
"null","<div style=""font-size:60px;"">+</div>","null","html-keyboard-response","36","105341","0.0-6.0-0.15","FRKA","1","m","rechts","22","","fixation","","","",""
"1618","img/L60_180.png","70","image-keyboard-response","37","106961","0.0-6.0-1.15","FRKA","1","m","rechts","22","","","object","j","60","false"
"null","<div style=""font-size:60px;"">+</div>","null","html-keyboard-response","38","107262","0.0-6.0-0.16","FRKA","1","m","rechts","22","","fixation","","","",""
"1253","img/L90_180.png","74","image-keyboard-response","39","108517","0.0-6.0-1.16","FRKA","1","m","rechts","22","","","object","j","90","true"
"null","<div style=""font-size:60px;"">+</div>","null","html-keyboard-response","40","108969","0.0-6.0-0.17","FRKA","1","m","rechts","22","","fixation","","","",""
"1562","img/L30_180.png","70","image-keyboard-response","41","110533","0.0-6.0-1.17","FRKA","1","m","rechts","22","","","object","j","30","false"
"null","<div style=""font-size:60px;"">+</div>","null","html-keyboard-response","42","110834","0.0-6.0-0.18","FRKA","1","m","rechts","22","","fixation","","","",""
"1522","img/90_60.png","70","image-keyboard-response","43","112358","0.0-6.0-1.18","FRKA","1","m","rechts","22","","","object","f","90","true"
"null","<div style=""font-size:60px;"">+</div>","null","html-keyboard-response","44","112660","0.0-6.0-0.19","FRKA","1","m","rechts","22","","fixation","","","",""
"1421","img/60_180.png","70","image-keyboard-response","45","114082","0.0-6.0-1.19","FRKA","1","m","rechts","22","","","object","f","60","true"
"null","<div style=""font-size:60px;"">+</div>","null","html-keyboard-response","46","114384","0.0-6.0-0.20","FRKA","1","m","rechts","22","","fixation","","","",""
"1304","img/150_300.png","74","image-keyboard-response","47","115689","0.0-6.0-1.20","FRKA","1","m","rechts","22","","","object","j","150","true"
"null","<div style=""font-size:60px;"">+</div>","null","html-keyboard-response","48","115990","0.0-6.0-0.21","FRKA","1","m","rechts","22","","fixation","","","",""
"892","img/60_210.png","70","image-keyboard-response","49","116883","0.0-6.0-1.21","FRKA","1","m","rechts","22","","","object","f","60","true"
"null","<div style=""font-size:60px;"">+</div>","null","html-keyboard-response","50","117185","0.0-6.0-0.22","FRKA","1","m","rechts","22","","fixation","","","",""
"916","img/0_210.png","70","image-keyboard-response","51","118102","0.0-6.0-1.22","FRKA","1","m","rechts","22","","","object","f","0","true"
"null","<div style=""font-size:60px;"">+</div>","null","html-keyboard-response","52","118554","0.0-6.0-0.23","FRKA","1","m","rechts","22","","fixation","","","",""
"1274","img/150_60.png","70","image-keyboard-response","53","119829","0.0-6.0-1.23","FRKA","1","m","rechts","22","","","object","f","150","true"
"null","<div style=""font-size:60px;"">+</div>","null","html-keyboard-response","54","120281","0.0-6.0-0.24","FRKA","1","m","rechts","22","","fixation","","","",""
"909","img/0_150.png","74","image-keyboard-response","55","121191","0.0-6.0-1.24","FRKA","1","m","rechts","22","","","object","j","0","true"
"null","<div style=""font-size:60px;"">+</div>","null","html-keyboard-response","56","121542","0.0-6.0-0.25","FRKA","1","m","rechts","22","","fixation","","","",""
"1351","img/60_270.png","70","image-keyboard-response","57","122895","0.0-6.0-1.25","FRKA","1","m","rechts","22","","","object","f","60","true"
"null","<div style=""font-size:60px;"">+</div>","null","html-keyboard-response","58","123347","0.0-6.0-0.26","FRKA","1","m","rechts","22","","fixation","","","",""
"1262","img/90_330.png","74","image-keyboard-response","59","124610","0.0-6.0-1.26","FRKA","1","m","rechts","22","","","object","j","90","true"
"null","<div style=""font-size:60px;"">+</div>","null","html-keyboard-response","60","124962","0.0-6.0-0.27","FRKA","1","m","rechts","22","","fixation","","","",""
"1167","img/150_270.png","74","image-keyboard-response","61","126131","0.0-6.0-1.27","FRKA","1","m","rechts","22","","","object","j","150","true"
"null","<div style=""font-size:60px;"">+</div>","null","html-keyboard-response","62","126583","0.0-6.0-0.28","FRKA","1","m","rechts","22","","fixation","","","",""
"1075","img/150_120.png","70","image-keyboard-response","63","127659","0.0-6.0-1.28","FRKA","1","m","rechts","22","","","object","f","150","true"
"null","<div style=""font-size:60px;"">+</div>","null","html-keyboard-response","64","128161","0.0-6.0-0.29","FRKA","1","m","rechts","22","","fixation","","","",""
"1646","img/L120_180.png","74","image-keyboard-response","65","129809","0.0-6.0-1.29","FRKA","1","m","rechts","22","","","object","j","120","true"
"null","<div style=""font-size:60px;"">+</div>","null","html-keyboard-response","66","130211","0.0-6.0-0.30","FRKA","1","m","rechts","22","","fixation","","","",""
"1490","img/60_90.png","74","image-keyboard-response","67","131703","0.0-6.0-1.30","FRKA","1","m","rechts","22","","","object","j","60","true"
"null","<div style=""font-size:60px;"">+</div>","null","html-keyboard-response","68","132204","0.0-6.0-0.31","FRKA","1","m","rechts","22","","fixation","","","",""
"1973","img/90_150.png","74","image-keyboard-response","69","134178","0.0-6.0-1.31","FRKA","1","m","rechts","22","","","object","j","90","true"
"null","<div style=""font-size:60px;"">+</div>","null","html-keyboard-response","70","134530","0.0-6.0-0.32","FRKA","1","m","rechts","22","","fixation","","","",""
"1382","img/30_90.png","74","image-keyboard-response","71","135914","0.0-6.0-1.32","FRKA","1","m","rechts","22","","","object","j","30","true"
"null","<div style=""font-size:60px;"">+</div>","null","html-keyboard-response","72","136217","0.0-6.0-0.33","FRKA","1","m","rechts","22","","fixation","","","",""
"1852","img/90_300.png","70","image-keyboard-response","73","138070","0.0-6.0-1.33","FRKA","1","m","rechts","22","","","object","j","90","false"
"null","<div style=""font-size:60px;"">+</div>","null","html-keyboard-response","74","138422","0.0-6.0-0.34","FRKA","1","m","rechts","22","","fixation","","","",""
"868","img/0_330.png","70","image-keyboard-response","75","139292","0.0-6.0-1.34","FRKA","1","m","rechts","22","","","object","f","0","true"
"null","<div style=""font-size:60px;"">+</div>","null","html-keyboard-response","76","139694","0.0-6.0-0.35","FRKA","1","m","rechts","22","","fixation","","","",""
"1688","img/30_180.png","70","image-keyboard-response","77","141383","0.0-6.0-1.35","FRKA","1","m","rechts","22","","","object","f","30","true"
"null","<div style=""font-size:60px;"">+</div>","null","html-keyboard-response","78","141685","0.0-6.0-0.36","FRKA","1","m","rechts","22","","fixation","","","",""
"2127","img/90_120.png","74","image-keyboard-response","79","143813","0.0-6.0-1.36","FRKA","1","m","rechts","22","","","object","j","90","true"
"null","<div style=""font-size:60px;"">+</div>","null","html-keyboard-response","80","144265","0.0-6.0-0.37","FRKA","1","m","rechts","22","","fixation","","","",""
"1210","img/60_30.png","70","image-keyboard-response","81","145476","0.0-6.0-1.37","FRKA","1","m","rechts","22","","","object","f","60","true"
"null","<div style=""font-size:60px;"">+</div>","null","html-keyboard-response","82","145878","0.0-6.0-0.38","FRKA","1","m","rechts","22","","fixation","","","",""
"1654","img/150_90.png","70","image-keyboard-response","83","147533","0.0-6.0-1.38","FRKA","1","m","rechts","22","","","object","f","150","true"
"null","<div style=""font-size:60px;"">+</div>","null","html-keyboard-response","84","148035","0.0-6.0-0.39","FRKA","1","m","rechts","22","","fixation","","","",""
"1452","img/150_240.png","74","image-keyboard-response","85","149488","0.0-6.0-1.39","FRKA","1","m","rechts","22","","","object","j","150","true"
"null","<div style=""font-size:60px;"">+</div>","null","html-keyboard-response","86","149890","0.0-6.0-0.40","FRKA","1","m","rechts","22","","fixation","","","",""
"1390","img/120_30.png","70","image-keyboard-response","87","151282","0.0-6.0-1.40","FRKA","1","m","rechts","22","","","object","f","120","true"
"null","<div style=""font-size:60px;"">+</div>","null","html-keyboard-response","88","151634","0.0-6.0-0.41","FRKA","1","m","rechts","22","","fixation","","","",""
"1512","img/90_240.png","74","image-keyboard-response","89","153148","0.0-6.0-1.41","FRKA","1","m","rechts","22","","","object","f","90","false"
"null","<div style=""font-size:60px;"">+</div>","null","html-keyboard-response","90","153550","0.0-6.0-0.42","FRKA","1","m","rechts","22","","fixation","","","",""
"2059","img/120_210.png","74","image-keyboard-response","91","155611","0.0-6.0-1.42","FRKA","1","m","rechts","22","","","object","f","120","false"
"null","<div style=""font-size:60px;"">+</div>","null","html-keyboard-response","92","155913","0.0-6.0-0.43","FRKA","1","m","rechts","22","","fixation","","","",""
"1071","img/90_30.png","70","image-keyboard-response","93","156985","0.0-6.0-1.43","FRKA","1","m","rechts","22","","","object","f","90","true"
"null","<div style=""font-size:60px;"">+</div>","null","html-keyboard-response","94","157387","0.0-6.0-0.44","FRKA","1","m","rechts","22","","fixation","","","",""
"1064","img/0_90.png","74","image-keyboard-response","95","158453","0.0-6.0-1.44","FRKA","1","m","rechts","22","","","object","j","0","true"
"null","<div style=""font-size:60px;"">+</div>","null","html-keyboard-response","96","158904","0.0-6.0-0.45","FRKA","1","m","rechts","22","","fixation","","","",""
"2222","img/150_180.png","70","image-keyboard-response","97","161127","0.0-6.0-1.45","FRKA","1","m","rechts","22","","","object","f","150","true"
"null","<div style=""font-size:60px;"">+</div>","null","html-keyboard-response","98","161529","0.0-6.0-0.46","FRKA","1","m","rechts","22","","fixation","","","",""
"1592","img/120_270.png","74","image-keyboard-response","99","163122","0.0-6.0-1.46","FRKA","1","m","rechts","22","","","object","j","120","true"
"null","<div style=""font-size:60px;"">+</div>","null","html-keyboard-response","100","163624","0.0-6.0-0.47","FRKA","1","m","rechts","22","","fixation","","","",""
"957","img/0_240.png","70","image-keyboard-response","101","164582","0.0-6.0-1.47","FRKA","1","m","rechts","22","","","object","f","0","true"
"null","<div style=""font-size:60px;"">+</div>","null","html-keyboard-response","102","164883","0.0-6.0-0.48","FRKA","1","m","rechts","22","","fixation","","","",""
"1755","img/30_300.png","70","image-keyboard-response","103","166639","0.0-6.0-1.48","FRKA","1","m","rechts","22","","","object","f","30","true"
"null","<div style=""font-size:60px;"">+</div>","null","html-keyboard-response","104","167141","0.0-6.0-0.49","FRKA","1","m","rechts","22","","fixation","","","",""
"1548","img/0_30.png","74","image-keyboard-response","105","168690","0.0-6.0-1.49","FRKA","1","m","rechts","22","","","object","j","0","true"
"null","<div style=""font-size:60px;"">+</div>","null","html-keyboard-response","106","169192","0.0-6.0-0.50","FRKA","1","m","rechts","22","","fixation","","","",""
"2449","img/90_180.png","74","image-keyboard-response","107","171642","0.0-6.0-1.50","FRKA","1","m","rechts","22","","","object","f","90","false"
"null","<div style=""font-size:60px;"">+</div>","null","html-keyboard-response","108","172094","0.0-6.0-0.51","FRKA","1","m","rechts","22","","fixation","","","",""
"1544","img/L150_180.png","70","image-keyboard-response","109","173640","0.0-6.0-1.51","FRKA","1","m","rechts","22","","","object","j","150","false"
"null","<div style=""font-size:60px;"">+</div>","null","html-keyboard-response","110","174042","0.0-6.0-0.52","FRKA","1","m","rechts","22","","fixation","","","",""
"1613","img/150_180.png","74","image-keyboard-response","111","175657","0.0-6.0-1.52","FRKA","1","m","rechts","22","","","object","f","150","false"
"null","<div style=""font-size:60px;"">+</div>","null","html-keyboard-response","112","176159","0.0-6.0-0.53","FRKA","1","m","rechts","22","","fixation","","","",""
"1860","img/30_180.png","70","image-keyboard-response","113","178019","0.0-6.0-1.53","FRKA","1","m","rechts","22","","","object","f","30","true"
"null","<div style=""font-size:60px;"">+</div>","null","html-keyboard-response","114","178321","0.0-6.0-0.54","FRKA","1","m","rechts","22","","fixation","","","",""
"1470","img/L120_180.png","70","image-keyboard-response","115","179792","0.0-6.0-1.54","FRKA","1","m","rechts","22","","","object","j","120","false"
"null","<div style=""font-size:60px;"">+</div>","null","html-keyboard-response","116","180094","0.0-6.0-0.55","FRKA","1","m","rechts","22","","fixation","","","",""
"1879","img/60_270.png","70","image-keyboard-response","117","181974","0.0-6.0-1.55","FRKA","1","m","rechts","22","","","object","f","60","true"
"null","<div style=""font-size:60px;"">+</div>","null","html-keyboard-response","118","182326","0.0-6.0-0.56","FRKA","1","m","rechts","22","","fixation","","","",""
"367","img/90_330.png","74","image-keyboard-response","119","182695","0.0-6.0-1.56","FRKA","1","m","rechts","22","","","object","j","90","true"
"null","<div style=""font-size:60px;"">+</div>","null","html-keyboard-response","120","183146","0.0-6.0-0.57","FRKA","1","m","rechts","22","","fixation","","","",""
"1370","img/150_300.png","74","image-keyboard-response","121","184517","0.0-6.0-1.57","FRKA","1","m","rechts","22","","","object","j","150","true"
"null","<div style=""font-size:60px;"">+</div>","null","html-keyboard-response","122","184969","0.0-6.0-0.58","FRKA","1","m","rechts","22","","fixation","","","",""
"1004","img/0_150.png","74","image-keyboard-response","123","185975","0.0-6.0-1.58","FRKA","1","m","rechts","22","","","object","j","0","true"
"null","<div style=""font-size:60px;"">+</div>","null","html-keyboard-response","124","186277","0.0-6.0-0.59","FRKA","1","m","rechts","22","","fixation","","","",""
"977","img/0_330.png","74","image-keyboard-response","125","187255","0.0-6.0-1.59","FRKA","1","m","rechts","22","","","object","f","0","false"
"null","<div style=""font-size:60px;"">+</div>","null","html-keyboard-response","126","187707","0.0-6.0-0.60","FRKA","1","m","rechts","22","","fixation","","","",""
"993","img/0_60.png","74","image-keyboard-response","127","188701","0.0-6.0-1.60","FRKA","1","m","rechts","22","","","object","j","0","true"
"null","<div style=""font-size:60px;"">+</div>","null","html-keyboard-response","128","189203","0.0-6.0-0.61","FRKA","1","m","rechts","22","","fixation","","","",""
"1144","img/120_30.png","70","image-keyboard-response","129","190348","0.0-6.0-1.61","FRKA","1","m","rechts","22","","","object","f","120","true"
"null","<div style=""font-size:60px;"">+</div>","null","html-keyboard-response","130","190700","0.0-6.0-0.62","FRKA","1","m","rechts","22","","fixation","","","",""
"1671","img/30_300.png","70","image-keyboard-response","131","192372","0.0-6.0-1.62","FRKA","1","m","rechts","22","","","object","f","30","true"
"null","<div style=""font-size:60px;"">+</div>","null","html-keyboard-response","132","192774","0.0-6.0-0.63","FRKA","1","m","rechts","22","","fixation","","","",""
"1842","img/60_180.png","70","image-keyboard-response","133","194618","0.0-6.0-1.63","FRKA","1","m","rechts","22","","","object","f","60","true"
"null","<div style=""font-size:60px;"">+</div>","null","html-keyboard-response","134","195070","0.0-6.0-0.64","FRKA","1","m","rechts","22","","fixation","","","",""
"1511","img/150_270.png","74","image-keyboard-response","135","196581","0.0-6.0-1.64","FRKA","1","m","rechts","22","","","object","j","150","true"
"null","<div style=""font-size:60px;"">+</div>","null","html-keyboard-response","136","197033","0.0-6.0-0.65","FRKA","1","m","rechts","22","","fixation","","","",""
"2199","img/30_240.png","70","image-keyboard-response","137","199232","0.0-6.0-1.65","FRKA","1","m","rechts","22","","","object","f","30","true"
"null","<div style=""font-size:60px;"">+</div>","null","html-keyboard-response","138","199634","0.0-6.0-0.66","FRKA","1","m","rechts","22","","fixation","","","",""
"1304","img/120_270.png","74","image-keyboard-response","139","200940","0.0-6.0-1.66","FRKA","1","m","rechts","22","","","object","j","120","true"
"null","<div style=""font-size:60px;"">+</div>","null","html-keyboard-response","140","201292","0.0-6.0-0.67","FRKA","1","m","rechts","22","","fixation","","","",""
"1064","img/90_240.png","74","image-keyboard-response","141","202356","0.0-6.0-1.67","FRKA","1","m","rechts","22","","","object","f","90","false"
"null","<div style=""font-size:60px;"">+</div>","null","html-keyboard-response","142","202858","0.0-6.0-0.68","FRKA","1","m","rechts","22","","fixation","","","",""
"1849","img/120_180.png","70","image-keyboard-response","143","204707","0.0-6.0-1.68","FRKA","1","m","rechts","22","","","object","f","120","true"
"null","<div style=""font-size:60px;"">+</div>","null","html-keyboard-response","144","205209","0.0-6.0-0.69","FRKA","1","m","rechts","22","","fixation","","","",""
"2088","img/L30_180.png","74","image-keyboard-response","145","207298","0.0-6.0-1.69","FRKA","1","m","rechts","22","","","object","j","30","true"
"null","<div style=""font-size:60px;"">+</div>","null","html-keyboard-response","146","207800","0.0-6.0-0.70","FRKA","1","m","rechts","22","","fixation","","","",""
"1092","img/0_240.png","70","image-keyboard-response","147","208893","0.0-6.0-1.70","FRKA","1","m","rechts","22","","","object","f","0","true"
"null","<div style=""font-size:60px;"">+</div>","null","html-keyboard-response","148","209295","0.0-6.0-0.71","FRKA","1","m","rechts","22","","fixation","","","",""
"1562","img/L150_180.png","70","image-keyboard-response","149","210858","0.0-6.0-1.71","FRKA","1","m","rechts","22","","","object","j","150","false"
"null","<div style=""font-size:60px;"">+</div>","null","html-keyboard-response","150","211260","0.0-6.0-0.72","FRKA","1","m","rechts","22","","fixation","","","",""
"1498","img/L60_180.png","70","image-keyboard-response","151","212759","0.0-6.0-1.72","FRKA","1","m","rechts","22","","","object","j","60","false"
"null","<div style=""font-size:60px;"">+</div>","null","html-keyboard-response","152","213111","0.0-6.0-0.73","FRKA","1","m","rechts","22","","fixation","","","",""
"1661","img/90_210.png","74","image-keyboard-response","153","214773","0.0-6.0-1.73","FRKA","1","m","rechts","22","","","object","f","90","false"
"null","<div style=""font-size:60px;"">+</div>","null","html-keyboard-response","154","215225","0.0-6.0-0.74","FRKA","1","m","rechts","22","","fixation","","","",""
"2009","img/120_210.png","74","image-keyboard-response","155","217235","0.0-6.0-1.74","FRKA","1","m","rechts","22","","","object","f","120","false"
"null","<div style=""font-size:60px;"">+</div>","null","html-keyboard-response","156","217637","0.0-6.0-0.75","FRKA","1","m","rechts","22","","fixation","","","",""
"1792","img/150_120.png","70","image-keyboard-response","157","219430","0.0-6.0-1.75","FRKA","1","m","rechts","22","","","object","f","150","true"
"null","<div style=""font-size:60px;"">+</div>","null","html-keyboard-response","158","219882","0.0-6.0-0.76","FRKA","1","m","rechts","22","","fixation","","","",""
"1896","img/60_150.png","70","image-keyboard-response","159","221780","0.0-6.0-1.76","FRKA","1","m","rechts","22","","","object","j","60","false"
"null","<div style=""font-size:60px;"">+</div>","null","html-keyboard-response","160","222282","0.0-6.0-0.77","FRKA","1","m","rechts","22","","fixation","","","",""
"2333","img/30_120.png","74","image-keyboard-response","161","224616","0.0-6.0-1.77","FRKA","1","m","rechts","22","","","object","j","30","true"
"null","<div style=""font-size:60px;"">+</div>","null","html-keyboard-response","162","224967","0.0-6.0-0.78","FRKA","1","m","rechts","22","","fixation","","","",""
"2134","img/150_60.png","70","image-keyboard-response","163","227102","0.0-6.0-1.78","FRKA","1","m","rechts","22","","","object","f","150","true"
"null","<div style=""font-size:60px;"">+</div>","null","html-keyboard-response","164","227504","0.0-6.0-0.79","FRKA","1","m","rechts","22","","fixation","","","",""
"1857","img/L90_180.png","74","image-keyboard-response","165","229362","0.0-6.0-1.79","FRKA","1","m","rechts","22","","","object","j","90","true"
"null","<div style=""font-size:60px;"">+</div>","null","html-keyboard-response","166","229714","0.0-6.0-0.80","FRKA","1","m","rechts","22","","fixation","","","",""
"873","img/0_270.png","70","image-keyboard-response","167","230588","0.0-6.0-1.80","FRKA","1","m","rechts","22","","","object","f","0","true"
"null","<div style=""font-size:60px;"">+</div>","null","html-keyboard-response","168","230990","0.0-6.0-0.81","FRKA","1","m","rechts","22","","fixation","","","",""
"1072","img/0_30.png","74","image-keyboard-response","169","232063","0.0-6.0-1.81","FRKA","1","m","rechts","22","","","object","j","0","true"
"null","<div style=""font-size:60px;"">+</div>","null","html-keyboard-response","170","232415","0.0-6.0-0.82","FRKA","1","m","rechts","22","","fixation","","","",""
"1443","img/90_180.png","70","image-keyboard-response","171","233859","0.0-6.0-1.82","FRKA","1","m","rechts","22","","","object","f","90","true"
"null","<div style=""font-size:60px;"">+</div>","null","html-keyboard-response","172","234361","0.0-6.0-0.83","FRKA","1","m","rechts","22","","fixation","","","",""
"976","img/120_330.png","74","image-keyboard-response","173","235338","0.0-6.0-1.83","FRKA","1","m","rechts","22","","","object","j","120","true"
"null","<div style=""font-size:60px;"">+</div>","null","html-keyboard-response","174","235790","0.0-6.0-0.84","FRKA","1","m","rechts","22","","fixation","","","",""
"863","img/90_30.png","70","image-keyboard-response","175","236654","0.0-6.0-1.84","FRKA","1","m","rechts","22","","","object","f","90","true"
"null","<div style=""font-size:60px;"">+</div>","null","html-keyboard-response","176","236956","0.0-6.0-0.85","FRKA","1","m","rechts","22","","fixation","","","",""
"753","img/120_90.png","70","image-keyboard-response","177","237710","0.0-6.0-1.85","FRKA","1","m","rechts","22","","","object","f","120","true"
"null","<div style=""font-size:60px;"">+</div>","null","html-keyboard-response","178","238062","0.0-6.0-0.86","FRKA","1","m","rechts","22","","fixation","","","",""
"1767","img/30_60.png","70","image-keyboard-response","179","239830","0.0-6.0-1.86","FRKA","1","m","rechts","22","","","object","j","30","false"
"null","<div style=""font-size:60px;"">+</div>","null","html-keyboard-response","180","240132","0.0-6.0-0.87","FRKA","1","m","rechts","22","","fixation","","","",""
"1074","img/60_30.png","70","image-keyboard-response","181","241206","0.0-6.0-1.87","FRKA","1","m","rechts","22","","","object","f","60","true"
"null","<div style=""font-size:60px;"">+</div>","null","html-keyboard-response","182","241657","0.0-6.0-0.88","FRKA","1","m","rechts","22","","fixation","","","",""
"1154","img/90_60.png","70","image-keyboard-response","183","242812","0.0-6.0-1.88","FRKA","1","m","rechts","22","","","object","f","90","true"
"null","<div style=""font-size:60px;"">+</div>","null","html-keyboard-response","184","243214","0.0-6.0-0.89","FRKA","1","m","rechts","22","","fixation","","","",""
"2338","img/60_210.png","70","image-keyboard-response","185","245553","0.0-6.0-1.89","FRKA","1","m","rechts","22","","","object","f","60","true"
"null","<div style=""font-size:60px;"">+</div>","null","html-keyboard-response","186","246054","0.0-6.0-0.90","FRKA","1","m","rechts","22","","fixation","","","",""
"1589","img/60_330.png","74","image-keyboard-response","187","247644","0.0-6.0-1.90","FRKA","1","m","rechts","22","","","object","j","60","true"
"null","<div style=""font-size:60px;"">+</div>","null","html-keyboard-response","188","248096","0.0-6.0-0.91","FRKA","1","m","rechts","22","","fixation","","","",""
"1594","img/120_150.png","70","image-keyboard-response","189","249691","0.0-6.0-1.91","FRKA","1","m","rechts","22","","","object","j","120","false"
"null","<div style=""font-size:60px;"">+</div>","null","html-keyboard-response","190","250093","0.0-6.0-0.92","FRKA","1","m","rechts","22","","fixation","","","",""
"1271","img/150_240.png","74","image-keyboard-response","191","251365","0.0-6.0-1.92","FRKA","1","m","rechts","22","","","object","j","150","true"
"null","<div style=""font-size:60px;"">+</div>","null","html-keyboard-response","192","251667","0.0-6.0-0.93","FRKA","1","m","rechts","22","","fixation","","","",""
"1079","img/30_270.png","70","image-keyboard-response","193","252747","0.0-6.0-1.93","FRKA","1","m","rechts","22","","","object","f","30","true"
"null","<div style=""font-size:60px;"">+</div>","null","html-keyboard-response","194","253248","0.0-6.0-0.94","FRKA","1","m","rechts","22","","fixation","","","",""
"1249","img/60_90.png","70","image-keyboard-response","195","254498","0.0-6.0-1.94","FRKA","1","m","rechts","22","","","object","j","60","false"
"null","<div style=""font-size:60px;"">+</div>","null","html-keyboard-response","196","254900","0.0-6.0-0.95","FRKA","1","m","rechts","22","","fixation","","","",""
"1210","img/0_300.png","70","image-keyboard-response","197","256111","0.0-6.0-1.95","FRKA","1","m","rechts","22","","","object","f","0","true"
"null","<div style=""font-size:60px;"">+</div>","null","html-keyboard-response","198","256513","0.0-6.0-0.96","FRKA","1","m","rechts","22","","fixation","","","",""
"2102","img/90_120.png","70","image-keyboard-response","199","258616","0.0-6.0-1.96","FRKA","1","m","rechts","22","","","object","j","90","false"
"null","<div style=""font-size:60px;"">+</div>","null","html-keyboard-response","200","259068","0.0-6.0-0.97","FRKA","1","m","rechts","22","","fixation","","","",""
"1387","img/30_90.png","74","image-keyboard-response","201","260456","0.0-6.0-1.97","FRKA","1","m","rechts","22","","","object","j","30","true"
"null","<div style=""font-size:60px;"">+</div>","null","html-keyboard-response","202","260808","0.0-6.0-0.98","FRKA","1","m","rechts","22","","fixation","","","",""
"1168","img/0_120.png","74","image-keyboard-response","203","261977","0.0-6.0-1.98","FRKA","1","m","rechts","22","","","object","j","0","true"
"null","<div style=""font-size:60px;"">+</div>","null","html-keyboard-response","204","262329","0.0-6.0-0.99","FRKA","1","m","rechts","22","","fixation","","","",""
"2324","img/90_300.png","74","image-keyboard-response","205","264654","0.0-6.0-1.99","FRKA","1","m","rechts","22","","","object","j","90","true"
"null","<div style=""font-size:60px;"">+</div>","null","html-keyboard-response","206","265155","0.0-6.0-0.100","FRKA","1","m","rechts","22","","fixation","","","",""
"1325","img/150_90.png","70","image-keyboard-response","207","266481","0.0-6.0-1.100","FRKA","1","m","rechts","22","","","object","f","150","true"
"null","<div style=""font-size:60px;"">+</div>","null","html-keyboard-response","208","266833","0.0-6.0-0.101","FRKA","1","m","rechts","22","","fixation","","","",""
"1480","img/0_210.png","70","image-keyboard-response","209","268315","0.0-6.0-1.101","FRKA","1","m","rechts","22","","","object","f","0","true"
"null","<div style=""font-size:60px;"">+</div>","null","html-keyboard-response","210","268767","0.0-6.0-0.102","FRKA","1","m","rechts","22","","fixation","","","",""
"1005","img/0_90.png","74","image-keyboard-response","211","269772","0.0-6.0-1.102","FRKA","1","m","rechts","22","","","object","j","0","true"
"null","<div style=""font-size:60px;"">+</div>","null","html-keyboard-response","212","270125","0.0-6.0-0.103","FRKA","1","m","rechts","22","","fixation","","","",""
"1433","img/90_150.png","74","image-keyboard-response","213","271559","0.0-6.0-1.103","FRKA","1","m","rechts","22","","","object","j","90","true"
"null","<div style=""font-size:60px;"">+</div>","null","html-keyboard-response","214","272061","0.0-6.0-0.104","FRKA","1","m","rechts","22","","fixation","","","",""
"1382","img/90_60.png","70","image-keyboard-response","215","273444","0.0-6.0-1.104","FRKA","1","m","rechts","22","","","object","f","90","true"
"null","<div style=""font-size:60px;"">+</div>","null","html-keyboard-response","216","273796","0.0-6.0-0.105","FRKA","1","m","rechts","22","","fixation","","","",""
"1472","img/30_180.png","70","image-keyboard-response","217","275269","0.0-6.0-1.105","FRKA","1","m","rechts","22","","","object","f","30","true"
"null","<div style=""font-size:60px;"">+</div>","null","html-keyboard-response","218","275721","0.0-6.0-0.106","FRKA","1","m","rechts","22","","fixation","","","",""
"2132","img/90_120.png","74","image-keyboard-response","219","277854","0.0-6.0-1.106","FRKA","1","m","rechts","22","","","object","j","90","true"
"null","<div style=""font-size:60px;"">+</div>","null","html-keyboard-response","220","278256","0.0-6.0-0.107","FRKA","1","m","rechts","22","","fixation","","","",""
"1378","img/30_270.png","74","image-keyboard-response","221","279635","0.0-6.0-1.107","FRKA","1","m","rechts","22","","","object","f","30","false"
"null","<div style=""font-size:60px;"">+</div>","null","html-keyboard-response","222","280087","0.0-6.0-0.108","FRKA","1","m","rechts","22","","fixation","","","",""
"948","img/150_270.png","74","image-keyboard-response","223","281036","0.0-6.0-1.108","FRKA","1","m","rechts","22","","","object","j","150","true"
"null","<div style=""font-size:60px;"">+</div>","null","html-keyboard-response","224","281438","0.0-6.0-0.109","FRKA","1","m","rechts","22","","fixation","","","",""
"1229","img/120_180.png","70","image-keyboard-response","225","282668","0.0-6.0-1.109","FRKA","1","m","rechts","22","","","object","f","120","true"
"null","<div style=""font-size:60px;"">+</div>","null","html-keyboard-response","226","283020","0.0-6.0-0.110","FRKA","1","m","rechts","22","","fixation","","","",""
"1372","img/90_300.png","74","image-keyboard-response","227","284393","0.0-6.0-1.110","FRKA","1","m","rechts","22","","","object","j","90","true"
"null","<div style=""font-size:60px;"">+</div>","null","html-keyboard-response","228","284745","0.0-6.0-0.111","FRKA","1","m","rechts","22","","fixation","","","",""
"1062","img/0_210.png","70","image-keyboard-response","229","285808","0.0-6.0-1.111","FRKA","1","m","rechts","22","","","object","f","0","true"
"null","<div style=""font-size:60px;"">+</div>","null","html-keyboard-response","230","286260","0.0-6.0-0.112","FRKA","1","m","rechts","22","","fixation","","","",""
"1680","img/120_270.png","74","image-keyboard-response","231","287941","0.0-6.0-1.112","FRKA","1","m","rechts","22","","","object","j","120","true"
"null","<div style=""font-size:60px;"">+</div>","null","html-keyboard-response","232","288343","0.0-6.0-0.113","FRKA","1","m","rechts","22","","fixation","","","",""
"1730","img/120_90.png","70","image-keyboard-response","233","290075","0.0-6.0-1.113","FRKA","1","m","rechts","22","","","object","f","120","true"
"null","<div style=""font-size:60px;"">+</div>","null","html-keyboard-response","234","290377","0.0-6.0-0.114","FRKA","1","m","rechts","22","","fixation","","","",""
"1635","img/L120_180.png","74","image-keyboard-response","235","292013","0.0-6.0-1.114","FRKA","1","m","rechts","22","","","object","j","120","true"
"null","<div style=""font-size:60px;"">+</div>","null","html-keyboard-response","236","292415","0.0-6.0-0.115","FRKA","1","m","rechts","22","","fixation","","","",""
"2383","img/150_240.png","70","image-keyboard-response","237","294798","0.0-6.0-1.115","FRKA","1","m","rechts","22","","","object","j","150","false"
"null","<div style=""font-size:60px;"">+</div>","null","html-keyboard-response","238","295150","0.0-6.0-0.116","FRKA","1","m","rechts","22","","fixation","","","",""
"2060","img/L60_180.png","74","image-keyboard-response","239","297211","0.0-6.0-1.116","FRKA","1","m","rechts","22","","","object","j","60","true"
"null","<div style=""font-size:60px;"">+</div>","null","html-keyboard-response","240","297613","0.0-6.0-0.117","FRKA","1","m","rechts","22","","fixation","","","",""
"1139","img/0_60.png","74","image-keyboard-response","241","298753","0.0-6.0-1.117","FRKA","1","m","rechts","22","","","object","j","0","true"
"null","<div style=""font-size:60px;"">+</div>","null","html-keyboard-response","242","299105","0.0-6.0-0.118","FRKA","1","m","rechts","22","","fixation","","","",""
"690","img/0_90.png","74","image-keyboard-response","243","299796","0.0-6.0-1.118","FRKA","1","m","rechts","22","","","object","j","0","true"
"null","<div style=""font-size:60px;"">+</div>","null","html-keyboard-response","244","300148","0.0-6.0-0.119","FRKA","1","m","rechts","22","","fixation","","","",""
"1598","img/60_30.png","70","image-keyboard-response","245","301747","0.0-6.0-1.119","FRKA","1","m","rechts","22","","","object","f","60","true"
"null","<div style=""font-size:60px;"">+</div>","null","html-keyboard-response","246","302099","0.0-6.0-0.120","FRKA","1","m","rechts","22","","fixation","","","",""
"1634","img/150_300.png","74","image-keyboard-response","247","303734","0.0-6.0-1.120","FRKA","1","m","rechts","22","","","object","j","150","true"
"null","<div style=""font-size:60px;"">+</div>","null","html-keyboard-response","248","304036","0.0-6.0-0.121","FRKA","1","m","rechts","22","","fixation","","","",""
"2408","img/60_180.png","70","image-keyboard-response","249","306445","0.0-6.0-1.121","FRKA","1","m","rechts","22","","","object","f","60","true"
"null","<div style=""font-size:60px;"">+</div>","null","html-keyboard-response","250","306947","0.0-6.0-0.122","FRKA","1","m","rechts","22","","fixation","","","",""
"2304","img/L150_180.png","70","image-keyboard-response","251","309252","0.0-6.0-1.122","FRKA","1","m","rechts","22","","","object","j","150","false"
"null","<div style=""font-size:60px;"">+</div>","null","html-keyboard-response","252","309554","0.0-6.0-0.123","FRKA","1","m","rechts","22","","fixation","","","",""
"1645","img/30_60.png","74","image-keyboard-response","253","311200","0.0-6.0-1.123","FRKA","1","m","rechts","22","","","object","j","30","true"
"null","<div style=""font-size:60px;"">+</div>","null","html-keyboard-response","254","311552","0.0-6.0-0.124","FRKA","1","m","rechts","22","","fixation","","","",""
"2326","img/90_180.png","70","image-keyboard-response","255","313879","0.0-6.0-1.124","FRKA","1","m","rechts","22","","","object","f","90","true"
"null","<div style=""font-size:60px;"">+</div>","null","html-keyboard-response","256","314230","0.0-6.0-0.125","FRKA","1","m","rechts","22","","fixation","","","",""
"2401","img/30_90.png","70","image-keyboard-response","257","316632","0.0-6.0-1.125","FRKA","1","m","rechts","22","","","object","j","30","false"
"null","<div style=""font-size:60px;"">+</div>","null","html-keyboard-response","258","316934","0.0-6.0-0.126","FRKA","1","m","rechts","22","","fixation","","","",""
"1983","img/90_210.png","70","image-keyboard-response","259","318918","0.0-6.0-1.126","FRKA","1","m","rechts","22","","","object","f","90","true"
"null","<div style=""font-size:60px;"">+</div>","null","html-keyboard-response","260","319320","0.0-6.0-0.127","FRKA","1","m","rechts","22","","fixation","","","",""
"1938","img/L30_180.png","74","image-keyboard-response","261","321260","0.0-6.0-1.127","FRKA","1","m","rechts","22","","","object","j","30","true"
"null","<div style=""font-size:60px;"">+</div>","null","html-keyboard-response","262","321762","0.0-6.0-0.128","FRKA","1","m","rechts","22","","fixation","","","",""
"2000","img/60_270.png","70","image-keyboard-response","263","323763","0.0-6.0-1.128","FRKA","1","m","rechts","22","","","object","f","60","true"
"null","<div style=""font-size:60px;"">+</div>","null","html-keyboard-response","264","324165","0.0-6.0-0.129","FRKA","1","m","rechts","22","","fixation","","","",""
"1595","img/30_300.png","70","image-keyboard-response","265","325761","0.0-6.0-1.129","FRKA","1","m","rechts","22","","","object","f","30","true"
"null","<div style=""font-size:60px;"">+</div>","null","html-keyboard-response","266","326263","0.0-6.0-0.130","FRKA","1","m","rechts","22","","fixation","","","",""
"1402","img/90_150.png","70","image-keyboard-response","267","327666","0.0-6.0-1.130","FRKA","1","m","rechts","22","","","object","j","90","false"
"null","<div style=""font-size:60px;"">+</div>","null","html-keyboard-response","268","328068","0.0-6.0-0.131","FRKA","1","m","rechts","22","","fixation","","","",""
"1078","img/0_300.png","70","image-keyboard-response","269","329147","0.0-6.0-1.131","FRKA","1","m","rechts","22","","","object","f","0","true"
"null","<div style=""font-size:60px;"">+</div>","null","html-keyboard-response","270","329549","0.0-6.0-0.132","FRKA","1","m","rechts","22","","fixation","","","",""
"1299","img/30_120.png","74","image-keyboard-response","271","330849","0.0-6.0-1.132","FRKA","1","m","rechts","22","","","object","j","30","true"
"null","<div style=""font-size:60px;"">+</div>","null","html-keyboard-response","272","331150","0.0-6.0-0.133","FRKA","1","m","rechts","22","","fixation","","","",""
"1072","img/0_240.png","70","image-keyboard-response","273","332223","0.0-6.0-1.133","FRKA","1","m","rechts","22","","","object","f","0","true"
"null","<div style=""font-size:60px;"">+</div>","null","html-keyboard-response","274","332575","0.0-6.0-0.134","FRKA","1","m","rechts","22","","fixation","","","",""
"2100","img/120_30.png","70","image-keyboard-response","275","334676","0.0-6.0-1.134","FRKA","1","m","rechts","22","","","object","f","120","true"
"null","<div style=""font-size:60px;"">+</div>","null","html-keyboard-response","276","335128","0.0-6.0-0.135","FRKA","1","m","rechts","22","","fixation","","","",""
"1117","img/90_330.png","74","image-keyboard-response","277","336247","0.0-6.0-1.135","FRKA","1","m","rechts","22","","","object","j","90","true"
"null","<div style=""font-size:60px;"">+</div>","null","html-keyboard-response","278","336699","0.0-6.0-0.136","FRKA","1","m","rechts","22","","fixation","","","",""
"926","img/120_330.png","74","image-keyboard-response","279","337626","0.0-6.0-1.136","FRKA","1","m","rechts","22","","","object","j","120","true"
"null","<div style=""font-size:60px;"">+</div>","null","html-keyboard-response","280","338076","0.0-6.0-0.137","FRKA","1","m","rechts","22","","fixation","","","",""
"753","img/90_30.png","70","image-keyboard-response","281","338830","0.0-6.0-1.137","FRKA","1","m","rechts","22","","","object","f","90","true"
"null","<div style=""font-size:60px;"">+</div>","null","html-keyboard-response","282","339282","0.0-6.0-0.138","FRKA","1","m","rechts","22","","fixation","","","",""
"1762","img/L90_180.png","74","image-keyboard-response","283","341045","0.0-6.0-1.138","FRKA","1","m","rechts","22","","","object","j","90","true"
"null","<div style=""font-size:60px;"">+</div>","null","html-keyboard-response","284","341447","0.0-6.0-0.139","FRKA","1","m","rechts","22","","fixation","","","",""
"1359","img/120_150.png","70","image-keyboard-response","285","342807","0.0-6.0-1.139","FRKA","1","m","rechts","22","","","object","j","120","false"
"null","<div style=""font-size:60px;"">+</div>","null","html-keyboard-response","286","343209","0.0-6.0-0.140","FRKA","1","m","rechts","22","","fixation","","","",""
"916","img/0_120.png","74","image-keyboard-response","287","344126","0.0-6.0-1.140","FRKA","1","m","rechts","22","","","object","j","0","true"
"null","<div style=""font-size:60px;"">+</div>","null","html-keyboard-response","288","344628","0.0-6.0-0.141","FRKA","1","m","rechts","22","","fixation","","","",""
"1645","img/150_120.png","70","image-keyboard-response","289","346274","0.0-6.0-1.141","FRKA","1","m","rechts","22","","","object","f","150","true"
"null","<div style=""font-size:60px;"">+</div>","null","html-keyboard-response","290","346576","0.0-6.0-0.142","FRKA","1","m","rechts","22","","fixation","","","",""
"2172","img/0_150.png","74","image-keyboard-response","291","348749","0.0-6.0-1.142","FRKA","1","m","rechts","22","","","object","j","0","true"
"null","<div style=""font-size:60px;"">+</div>","null","html-keyboard-response","292","349201","0.0-6.0-0.143","FRKA","1","m","rechts","22","","fixation","","","",""
"1214","img/60_150.png","74","image-keyboard-response","293","350416","0.0-6.0-1.143","FRKA","1","m","rechts","22","","","object","j","60","true"
"null","<div style=""font-size:60px;"">+</div>","null","html-keyboard-response","294","350718","0.0-6.0-0.144","FRKA","1","m","rechts","22","","fixation","","","",""
"846","img/0_270.png","70","image-keyboard-response","295","351565","0.0-6.0-1.144","FRKA","1","m","rechts","22","","","object","f","0","true"
"null","<div style=""font-size:60px;"">+</div>","null","html-keyboard-response","296","351967","0.0-6.0-0.145","FRKA","1","m","rechts","22","","fixation","","","",""
"2050","img/90_240.png","70","image-keyboard-response","297","354018","0.0-6.0-1.145","FRKA","1","m","rechts","22","","","object","f","90","true"
"null","<div style=""font-size:60px;"">+</div>","null","html-keyboard-response","298","354520","0.0-6.0-0.146","FRKA","1","m","rechts","22","","fixation","","","",""
"1150","img/150_60.png","70","image-keyboard-response","299","355671","0.0-6.0-1.146","FRKA","1","m","rechts","22","","","object","f","150","true"
"null","<div style=""font-size:60px;"">+</div>","null","html-keyboard-response","300","356023","0.0-6.0-0.147","FRKA","1","m","rechts","22","","fixation","","","",""
"2098","img/60_90.png","70","image-keyboard-response","301","358122","0.0-6.0-1.147","FRKA","1","m","rechts","22","","","object","j","60","false"
"null","<div style=""font-size:60px;"">+</div>","null","html-keyboard-response","302","358474","0.0-6.0-0.148","FRKA","1","m","rechts","22","","fixation","","","",""
"1185","img/150_90.png","70","image-keyboard-response","303","359661","0.0-6.0-1.148","FRKA","1","m","rechts","22","","","object","f","150","true"
"null","<div style=""font-size:60px;"">+</div>","null","html-keyboard-response","304","359963","0.0-6.0-0.149","FRKA","1","m","rechts","22","","fixation","","","",""
"2013","img/120_210.png","70","image-keyboard-response","305","361976","0.0-6.0-1.149","FRKA","1","m","rechts","22","","","object","f","120","true"
"null","<div style=""font-size:60px;"">+</div>","null","html-keyboard-response","306","362278","0.0-6.0-0.150","FRKA","1","m","rechts","22","","fixation","","","",""
"1376","img/60_330.png","74","image-keyboard-response","307","363656","0.0-6.0-1.150","FRKA","1","m","rechts","22","","","object","j","60","true"
"null","<div style=""font-size:60px;"">+</div>","null","html-keyboard-response","308","364108","0.0-6.0-0.151","FRKA","1","m","rechts","22","","fixation","","","",""
"1809","img/60_210.png","70","image-keyboard-response","309","365917","0.0-6.0-1.151","FRKA","1","m","rechts","22","","","object","f","60","true"
"null","<div style=""font-size:60px;"">+</div>","null","html-keyboard-response","310","366369","0.0-6.0-0.152","FRKA","1","m","rechts","22","","fixation","","","",""
"921","img/0_30.png","74","image-keyboard-response","311","367291","0.0-6.0-1.152","FRKA","1","m","rechts","22","","","object","j","0","true"
"null","<div style=""font-size:60px;"">+</div>","null","html-keyboard-response","312","367793","0.0-6.0-0.153","FRKA","1","m","rechts","22","","fixation","","","",""
"2112","img/150_180.png","70","image-keyboard-response","313","369906","0.0-6.0-1.153","FRKA","1","m","rechts","22","","","object","f","150","true"
"null","<div style=""font-size:60px;"">+</div>","null","html-keyboard-response","314","370358","0.0-6.0-0.154","FRKA","1","m","rechts","22","","fixation","","","",""
"916","img/0_330.png","70","image-keyboard-response","315","371275","0.0-6.0-1.154","FRKA","1","m","rechts","22","","","object","f","0","true"
"null","<div style=""font-size:60px;"">+</div>","null","html-keyboard-response","316","371777","0.0-6.0-0.155","FRKA","1","m","rechts","22","","fixation","","","",""
"1900","img/30_240.png","70","image-keyboard-response","317","373678","0.0-6.0-1.155","FRKA","1","m","rechts","22","","","object","f","30","true"
"null","<div style=""font-size:60px;"">+</div>","null","html-keyboard-response","318","374080","0.0-6.0-0.156","FRKA","1","m","rechts","22","","fixation","","","",""
"1005","img/L30_180.png","74","image-keyboard-response","319","375086","0.0-6.0-1.156","FRKA","1","m","rechts","22","","","object","j","30","true"
"null","<div style=""font-size:60px;"">+</div>","null","html-keyboard-response","320","375388","0.0-6.0-0.157","FRKA","1","m","rechts","22","","fixation","","","",""
"1099","img/0_60.png","74","image-keyboard-response","321","376488","0.0-6.0-1.157","FRKA","1","m","rechts","22","","","object","j","0","true"
"null","<div style=""font-size:60px;"">+</div>","null","html-keyboard-response","322","376840","0.0-6.0-0.158","FRKA","1","m","rechts","22","","fixation","","","",""
"2157","img/150_180.png","70","image-keyboard-response","323","378998","0.0-6.0-1.158","FRKA","1","m","rechts","22","","","object","f","150","true"
"null","<div style=""font-size:60px;"">+</div>","null","html-keyboard-response","324","379350","0.0-6.0-0.159","FRKA","1","m","rechts","22","","fixation","","","",""
"1931","img/120_210.png","70","image-keyboard-response","325","381282","0.0-6.0-1.159","FRKA","1","m","rechts","22","","","object","f","120","true"
"null","<div style=""font-size:60px;"">+</div>","null","html-keyboard-response","326","381634","0.0-6.0-0.160","FRKA","1","m","rechts","22","","fixation","","","",""
"1464","img/150_60.png","70","image-keyboard-response","327","383100","0.0-6.0-1.160","FRKA","1","m","rechts","22","","","object","f","150","true"
"null","<div style=""font-size:60px;"">+</div>","null","html-keyboard-response","328","383502","0.0-6.0-0.161","FRKA","1","m","rechts","22","","fixation","","","",""
"1646","img/60_150.png","74","image-keyboard-response","329","385149","0.0-6.0-1.161","FRKA","1","m","rechts","22","","","object","j","60","true"
"null","<div style=""font-size:60px;"">+</div>","null","html-keyboard-response","330","385500","0.0-6.0-0.162","FRKA","1","m","rechts","22","","fixation","","","",""
"910","img/0_300.png","70","image-keyboard-response","331","386412","0.0-6.0-1.162","FRKA","1","m","rechts","22","","","object","f","0","true"
"null","<div style=""font-size:60px;"">+</div>","null","html-keyboard-response","332","386763","0.0-6.0-0.163","FRKA","1","m","rechts","22","","fixation","","","",""
"1620","img/60_210.png","70","image-keyboard-response","333","388384","0.0-6.0-1.163","FRKA","1","m","rechts","22","","","object","f","60","true"
"null","<div style=""font-size:60px;"">+</div>","null","html-keyboard-response","334","388686","0.0-6.0-0.164","FRKA","1","m","rechts","22","","fixation","","","",""
"1362","img/30_120.png","74","image-keyboard-response","335","390049","0.0-6.0-1.164","FRKA","1","m","rechts","22","","","object","j","30","true"
"null","<div style=""font-size:60px;"">+</div>","null","html-keyboard-response","336","390551","0.0-6.0-0.165","FRKA","1","m","rechts","22","","fixation","","","",""
"1592","img/150_240.png","70","image-keyboard-response","337","392144","0.0-6.0-1.165","FRKA","1","m","rechts","22","","","object","j","150","false"
"null","<div style=""font-size:60px;"">+</div>","null","html-keyboard-response","338","392646","0.0-6.0-0.166","FRKA","1","m","rechts","22","","fixation","","","",""
"733","img/0_30.png","74","image-keyboard-response","339","393380","0.0-6.0-1.166","FRKA","1","m","rechts","22","","","object","j","0","true"
"null","<div style=""font-size:60px;"">+</div>","null","html-keyboard-response","340","393732","0.0-6.0-0.167","FRKA","1","m","rechts","22","","fixation","","","",""
"828","img/0_90.png","74","image-keyboard-response","341","394561","0.0-6.0-1.167","FRKA","1","m","rechts","22","","","object","j","0","true"
"null","<div style=""font-size:60px;"">+</div>","null","html-keyboard-response","342","394913","0.0-6.0-0.168","FRKA","1","m","rechts","22","","fixation","","","",""
"1823","img/150_120.png","70","image-keyboard-response","343","396737","0.0-6.0-1.168","FRKA","1","m","rechts","22","","","object","f","150","true"
"null","<div style=""font-size:60px;"">+</div>","null","html-keyboard-response","344","397189","0.0-6.0-0.169","FRKA","1","m","rechts","22","","fixation","","","",""
"2315","img/90_30.png","70","image-keyboard-response","345","399505","0.0-6.0-1.169","FRKA","1","m","rechts","22","","","object","f","90","true"
"null","<div style=""font-size:60px;"">+</div>","null","html-keyboard-response","346","399807","0.0-6.0-0.170","FRKA","1","m","rechts","22","","fixation","","","",""
"1871","img/150_270.png","70","image-keyboard-response","347","401679","0.0-6.0-1.170","FRKA","1","m","rechts","22","","","object","j","150","false"
"null","<div style=""font-size:60px;"">+</div>","null","html-keyboard-response","348","402131","0.0-6.0-0.171","FRKA","1","m","rechts","22","","fixation","","","",""
"1548","img/120_330.png","74","image-keyboard-response","349","403680","0.0-6.0-1.171","FRKA","1","m","rechts","22","","","object","j","120","true"
"null","<div style=""font-size:60px;"">+</div>","null","html-keyboard-response","350","404032","0.0-6.0-0.172","FRKA","1","m","rechts","22","","fixation","","","",""
"954","img/30_60.png","74","image-keyboard-response","351","404987","0.0-6.0-1.172","FRKA","1","m","rechts","22","","","object","j","30","true"
"null","<div style=""font-size:60px;"">+</div>","null","html-keyboard-response","352","405439","0.0-6.0-0.173","FRKA","1","m","rechts","22","","fixation","","","",""
"1677","img/120_150.png","74","image-keyboard-response","353","407118","0.0-6.0-1.173","FRKA","1","m","rechts","22","","","object","j","120","true"
"null","<div style=""font-size:60px;"">+</div>","null","html-keyboard-response","354","407470","0.0-6.0-0.174","FRKA","1","m","rechts","22","","fixation","","","",""
"1272","img/L60_180.png","70","image-keyboard-response","355","408742","0.0-6.0-1.174","FRKA","1","m","rechts","22","","","object","j","60","false"
"null","<div style=""font-size:60px;"">+</div>","null","html-keyboard-response","356","409094","0.0-6.0-0.175","FRKA","1","m","rechts","22","","fixation","","","",""
"1108","img/0_330.png","70","image-keyboard-response","357","410203","0.0-6.0-1.175","FRKA","1","m","rechts","22","","","object","f","0","true"
"null","<div style=""font-size:60px;"">+</div>","null","html-keyboard-response","358","410655","0.0-6.0-0.176","FRKA","1","m","rechts","22","","fixation","","","",""
"2490","img/30_180.png","70","image-keyboard-response","359","413146","0.0-6.0-1.176","FRKA","1","m","rechts","22","","","object","f","30","true"
"null","<div style=""font-size:60px;"">+</div>","null","html-keyboard-response","360","413498","0.0-6.0-0.177","FRKA","1","m","rechts","22","","fixation","","","",""
"2179","img/90_150.png","74","image-keyboard-response","361","415678","0.0-6.0-1.177","FRKA","1","m","rechts","22","","","object","j","90","true"
"null","<div style=""font-size:60px;"">+</div>","null","html-keyboard-response","362","415980","0.0-6.0-0.178","FRKA","1","m","rechts","22","","fixation","","","",""
"896","img/60_30.png","70","image-keyboard-response","363","416877","0.0-6.0-1.178","FRKA","1","m","rechts","22","","","object","f","60","true"
"null","<div style=""font-size:60px;"">+</div>","null","html-keyboard-response","364","417229","0.0-6.0-0.179","FRKA","1","m","rechts","22","","fixation","","","",""
"865","img/60_330.png","74","image-keyboard-response","365","418095","0.0-6.0-1.179","FRKA","1","m","rechts","22","","","object","j","60","true"
"null","<div style=""font-size:60px;"">+</div>","null","html-keyboard-response","366","418547","0.0-6.0-0.180","FRKA","1","m","rechts","22","","fixation","","","",""
"2096","img/90_120.png","70","image-keyboard-response","367","420644","0.0-6.0-1.180","FRKA","1","m","rechts","22","","","object","j","90","false"
"null","<div style=""font-size:60px;"">+</div>","null","html-keyboard-response","368","421146","0.0-6.0-0.181","FRKA","1","m","rechts","22","","fixation","","","",""
"1344","img/30_240.png","70","image-keyboard-response","369","422491","0.0-6.0-1.181","FRKA","1","m","rechts","22","","","object","f","30","true"
"null","<div style=""font-size:60px;"">+</div>","null","html-keyboard-response","370","422893","0.0-6.0-0.182","FRKA","1","m","rechts","22","","fixation","","","",""
"2148","img/L150_180.png","74","image-keyboard-response","371","425042","0.0-6.0-1.182","FRKA","1","m","rechts","22","","","object","j","150","true"
"null","<div style=""font-size:60px;"">+</div>","null","html-keyboard-response","372","425544","0.0-6.0-0.183","FRKA","1","m","rechts","22","","fixation","","","",""
"893","img/0_150.png","74","image-keyboard-response","373","426438","0.0-6.0-1.183","FRKA","1","m","rechts","22","","","object","j","0","true"
"null","<div style=""font-size:60px;"">+</div>","null","html-keyboard-response","374","426790","0.0-6.0-0.184","FRKA","1","m","rechts","22","","fixation","","","",""
"2022","img/90_210.png","74","image-keyboard-response","375","428814","0.0-6.0-1.184","FRKA","1","m","rechts","22","","","object","f","90","false"
"null","<div style=""font-size:60px;"">+</div>","null","html-keyboard-response","376","429316","0.0-6.0-0.185","FRKA","1","m","rechts","22","","fixation","","","",""
"1675","img/60_270.png","74","image-keyboard-response","377","430992","0.0-6.0-1.185","FRKA","1","m","rechts","22","","","object","f","60","false"
"null","<div style=""font-size:60px;"">+</div>","null","html-keyboard-response","378","431294","0.0-6.0-0.186","FRKA","1","m","rechts","22","","fixation","","","",""
"1647","img/150_90.png","70","image-keyboard-response","379","432941","0.0-6.0-1.186","FRKA","1","m","rechts","22","","","object","f","150","true"
"null","<div style=""font-size:60px;"">+</div>","null","html-keyboard-response","380","433393","0.0-6.0-0.187","FRKA","1","m","rechts","22","","fixation","","","",""
"852","img/120_30.png","70","image-keyboard-response","381","434246","0.0-6.0-1.187","FRKA","1","m","rechts","22","","","object","f","120","true"
"null","<div style=""font-size:60px;"">+</div>","null","html-keyboard-response","382","434548","0.0-6.0-0.188","FRKA","1","m","rechts","22","","fixation","","","",""
"840","img/90_300.png","74","image-keyboard-response","383","435389","0.0-6.0-1.188","FRKA","1","m","rechts","22","","","object","j","90","true"
"null","<div style=""font-size:60px;"">+</div>","null","html-keyboard-response","384","435691","0.0-6.0-0.189","FRKA","1","m","rechts","22","","fixation","","","",""
"876","img/0_270.png","70","image-keyboard-response","385","436568","0.0-6.0-1.189","FRKA","1","m","rechts","22","","","object","f","0","true"
"null","<div style=""font-size:60px;"">+</div>","null","html-keyboard-response","386","436970","0.0-6.0-0.190","FRKA","1","m","rechts","22","","fixation","","","",""
"1548","img/30_270.png","70","image-keyboard-response","387","438519","0.0-6.0-1.190","FRKA","1","m","rechts","22","","","object","f","30","true"
"null","<div style=""font-size:60px;"">+</div>","null","html-keyboard-response","388","439021","0.0-6.0-0.191","FRKA","1","m","rechts","22","","fixation","","","",""
"1444","img/120_270.png","74","image-keyboard-response","389","440466","0.0-6.0-1.191","FRKA","1","m","rechts","22","","","object","j","120","true"
"null","<div style=""font-size:60px;"">+</div>","null","html-keyboard-response","390","440768","0.0-6.0-0.192","FRKA","1","m","rechts","22","","fixation","","","",""
"1710","img/90_180.png","74","image-keyboard-response","391","442479","0.0-6.0-1.192","FRKA","1","m","rechts","22","","","object","f","90","false"
"null","<div style=""font-size:60px;"">+</div>","null","html-keyboard-response","392","442931","0.0-6.0-0.193","FRKA","1","m","rechts","22","","fixation","","","",""
"1942","img/L120_180.png","70","image-keyboard-response","393","444874","0.0-6.0-1.193","FRKA","1","m","rechts","22","","","object","j","120","false"
"null","<div style=""font-size:60px;"">+</div>","null","html-keyboard-response","394","445276","0.0-6.0-0.194","FRKA","1","m","rechts","22","","fixation","","","",""
"821","img/0_210.png","70","image-keyboard-response","395","446098","0.0-6.0-1.194","FRKA","1","m","rechts","22","","","object","f","0","true"
"null","<div style=""font-size:60px;"">+</div>","null","html-keyboard-response","396","446500","0.0-6.0-0.195","FRKA","1","m","rechts","22","","fixation","","","",""
"807","img/0_120.png","74","image-keyboard-response","397","447307","0.0-6.0-1.195","FRKA","1","m","rechts","22","","","object","j","0","true"
"null","<div style=""font-size:60px;"">+</div>","null","html-keyboard-response","398","447759","0.0-6.0-0.196","FRKA","1","m","rechts","22","","fixation","","","",""
"2132","img/120_90.png","70","image-keyboard-response","399","449892","0.0-6.0-1.196","FRKA","1","m","rechts","22","","","object","f","120","true"
"null","<div style=""font-size:60px;"">+</div>","null","html-keyboard-response","400","450344","0.0-6.0-0.197","FRKA","1","m","rechts","22","","fixation","","","",""
"1598","img/30_300.png","74","image-keyboard-response","401","451944","0.0-6.0-1.197","FRKA","1","m","rechts","22","","","object","f","30","false"
"null","<div style=""font-size:60px;"">+</div>","null","html-keyboard-response","402","452446","0.0-6.0-0.198","FRKA","1","m","rechts","22","","fixation","","","",""
"2257","img/120_180.png","74","image-keyboard-response","403","454705","0.0-6.0-1.198","FRKA","1","m","rechts","22","","","object","f","120","false"
"null","<div style=""font-size:60px;"">+</div>","null","html-keyboard-response","404","455157","0.0-6.0-0.199","FRKA","1","m","rechts","22","","fixation","","","",""
"921","img/0_240.png","70","image-keyboard-response","405","456078","0.0-6.0-1.199","FRKA","1","m","rechts","22","","","object","f","0","true"
"null","<div style=""font-size:60px;"">+</div>","null","html-keyboard-response","406","456430","0.0-6.0-0.200","FRKA","1","m","rechts","22","","fixation","","","",""
"1079","img/90_240.png","70","image-keyboard-response","407","457510","0.0-6.0-1.200","FRKA","1","m","rechts","22","","","object","f","90","true"
"null","<div style=""font-size:60px;"">+</div>","null","html-keyboard-response","408","457862","0.0-6.0-0.201","FRKA","1","m","rechts","22","","fixation","","","",""
"1797","img/60_180.png","70","image-keyboard-response","409","459659","0.0-6.0-1.201","FRKA","1","m","rechts","22","","","object","f","60","true"
"null","<div style=""font-size:60px;"">+</div>","null","html-keyboard-response","410","460011","0.0-6.0-0.202","FRKA","1","m","rechts","22","","fixation","","","",""
"978","img/150_300.png","70","image-keyboard-response","411","460990","0.0-6.0-1.202","FRKA","1","m","rechts","22","","","object","j","150","false"
"null","<div style=""font-size:60px;"">+</div>","null","html-keyboard-response","412","461442","0.0-6.0-0.203","FRKA","1","m","rechts","22","","fixation","","","",""
"1370","img/90_330.png","74","image-keyboard-response","413","462813","0.0-6.0-1.203","FRKA","1","m","rechts","22","","","object","j","90","true"
"null","<div style=""font-size:60px;"">+</div>","null","html-keyboard-response","414","463165","0.0-6.0-0.204","FRKA","1","m","rechts","22","","fixation","","","",""
"2140","img/L90_180.png","74","image-keyboard-response","415","465306","0.0-6.0-1.204","FRKA","1","m","rechts","22","","","object","j","90","true"
"null","<div style=""font-size:60px;"">+</div>","null","html-keyboard-response","416","465758","0.0-6.0-0.205","FRKA","1","m","rechts","22","","fixation","","","",""
"1075","img/30_90.png","74","image-keyboard-response","417","466834","0.0-6.0-1.205","FRKA","1","m","rechts","22","","","object","j","30","true"
"null","<div style=""font-size:60px;"">+</div>","null","html-keyboard-response","418","467335","0.0-6.0-0.206","FRKA","1","m","rechts","22","","fixation","","","",""
"1604","img/90_60.png","70","image-keyboard-response","419","468940","0.0-6.0-1.206","FRKA","1","m","rechts","22","","","object","f","90","true"
"null","<div style=""font-size:60px;"">+</div>","null","html-keyboard-response","420","469242","0.0-6.0-0.207","FRKA","1","m","rechts","22","","fixation","","","",""
"1578","img/60_90.png","70","image-keyboard-response","421","470821","0.0-6.0-1.207","FRKA","1","m","rechts","22","","","object","j","60","false"
"22828","<p>Du hast in 79% der Versuche korrekt entschieden.</p><p>Deine durchschnittliche Reaktionszeit war  1418ms.</p><p>Dr&uuml;cke eine beliebige Taste, um die Session zu beenden. Vielen Dank!</p>","32","html-keyboard-response","422","493651","0.0-7.0","FRKA","1","m","rechts","22","","","","","",""
