"rt","stimulus","key_press","trial_type","trial_index","time_elapsed","internal_node_id","subject","session","sex","handedness","age","responses","test_part","condition","correct_response","angle","correct"
"1478","<p>Mental Rotation Experiment.</p> <p>Dr&uuml;cke eine beliebige Taste, um anzufangen.</p>","32","html-keyboard-response","0","1480","0.0-0.0","FRKA","3","m","rechts","22","","","","","",""
"30220","","","survey-text","1","31702","0.0-1.0","FRKA","3","m","rechts","22","{""Q0"":""FRKA""}","","","","",""
"6228","","","survey-text","2","37931","0.0-2.0","FRKA","3","m","rechts","22","{""Q0"":""3""}","","","","",""
"8881","","","survey-multi-choice","3","46815","0.0-3.0","FRKA","3","m","rechts","22","{""Q0"":""m"",""Q1"":""rechts""}","","","","",""
"2823","","","survey-text","4","49638","0.0-4.0","FRKA","3","m","rechts","22","{""Q0"":""22""}","","","","",""
"5235","<p>Stell dir vor, dass du vor einem runden Tisch stehst, auf dem sich ein blauer Ball am Tischrand befindet. Entlang des Tischrands ist jeweils ein verschieden langer Pfeil. Nun bleibst du an deinem Platz vor dem Tisch und rotierst den Tisch entlang des Pfeils (gleiche Richtung und L&auml;nge). </p> <img src='img/30_180.png'></img> <br><p> Nachdem du diese (vorgestellte) Rotation durchgef&uuml;hrt hast, schau in Richtung der Tischmitte, und entscheide dann, ob der Ball links oder rechts von dir liegt.</p> <p>Dr&uuml;cke die <strong>'f'</strong>-Taste f&uuml;r links, die <strong>'j'</strong>-Taste f&uuml;r rechts.</p><br><p> Das Bild wird jeweils 1 Sekunde lang pr&auml;sentiert. Du hast 3 Sekunden Zeit eine Entscheidung zu treffen.</p>","32","html-keyboard-response","5","54875","0.0-5.0","FRKA","3","m","rechts","22","","","","","",""
"null","<div style=""font-size:60px;"">+</div>","null","html-keyboard-response","6","56178","0.0-6.0-0.0","FRKA","3","m","rechts","22","","fixation","","","",""
"1207","img/90_180.png","70","image-keyboard-response","7","57386","0.0-6.0-1.0","FRKA","3","m","rechts","22","","","object","f","90","true"
"null","<div style=""font-size:60px;"">+</div>","null","html-keyboard-response","8","57888","0.0-6.0-0.1","FRKA","3","m","rechts","22","","fixation","","","",""
"695","img/0_240.png","70","image-keyboard-response","9","58584","0.0-6.0-1.1","FRKA","3","m","rechts","22","","","object","f","0","true"
"null","<div style=""font-size:60px;"">+</div>","null","html-keyboard-response","10","58936","0.0-6.0-0.2","FRKA","3","m","rechts","22","","fixation","","","",""
"1242","img/60_180.png","70","image-keyboard-response","11","60179","0.0-6.0-1.2","FRKA","3","m","rechts","22","","","object","f","60","true"
"null","<div style=""font-size:60px;"">+</div>","null","html-keyboard-response","12","60682","0.0-6.0-0.3","FRKA","3","m","rechts","22","","fixation","","","",""
"908","img/L60_180.png","74","image-keyboard-response","13","61591","0.0-6.0-1.3","FRKA","3","m","rechts","22","","","object","j","60","true"
"null","<div style=""font-size:60px;"">+</div>","null","html-keyboard-response","14","61893","0.0-6.0-0.4","FRKA","3","m","rechts","22","","fixation","","","",""
"1671","img/150_180.png","70","image-keyboard-response","15","63565","0.0-6.0-1.4","FRKA","3","m","rechts","22","","","object","f","150","true"
"null","<div style=""font-size:60px;"">+</div>","null","html-keyboard-response","16","63867","0.0-6.0-0.5","FRKA","3","m","rechts","22","","fixation","","","",""
"733","img/0_150.png","74","image-keyboard-response","17","64601","0.0-6.0-1.5","FRKA","3","m","rechts","22","","","object","j","0","true"
"null","<div style=""font-size:60px;"">+</div>","null","html-keyboard-response","18","64953","0.0-6.0-0.6","FRKA","3","m","rechts","22","","fixation","","","",""
"993","img/90_150.png","74","image-keyboard-response","19","65947","0.0-6.0-1.6","FRKA","3","m","rechts","22","","","object","j","90","true"
"null","<div style=""font-size:60px;"">+</div>","null","html-keyboard-response","20","66449","0.0-6.0-0.7","FRKA","3","m","rechts","22","","fixation","","","",""
"810","img/60_90.png","74","image-keyboard-response","21","67260","0.0-6.0-1.7","FRKA","3","m","rechts","22","","","object","j","60","true"
"null","<div style=""font-size:60px;"">+</div>","null","html-keyboard-response","22","67612","0.0-6.0-0.8","FRKA","3","m","rechts","22","","fixation","","","",""
"948","img/120_330.png","74","image-keyboard-response","23","68561","0.0-6.0-1.8","FRKA","3","m","rechts","22","","","object","j","120","true"
"null","<div style=""font-size:60px;"">+</div>","null","html-keyboard-response","24","69013","0.0-6.0-0.9","FRKA","3","m","rechts","22","","fixation","","","",""
"897","img/150_90.png","70","image-keyboard-response","25","69911","0.0-6.0-1.9","FRKA","3","m","rechts","22","","","object","f","150","true"
"null","<div style=""font-size:60px;"">+</div>","null","html-keyboard-response","26","70263","0.0-6.0-0.10","FRKA","3","m","rechts","22","","fixation","","","",""
"700","img/120_90.png","70","image-keyboard-response","27","70964","0.0-6.0-1.10","FRKA","3","m","rechts","22","","","object","f","120","true"
"null","<div style=""font-size:60px;"">+</div>","null","html-keyboard-response","28","71466","0.0-6.0-0.11","FRKA","3","m","rechts","22","","fixation","","","",""
"658","img/0_300.png","70","image-keyboard-response","29","72125","0.0-6.0-1.11","FRKA","3","m","rechts","22","","","object","f","0","true"
"null","<div style=""font-size:60px;"">+</div>","null","html-keyboard-response","30","72477","0.0-6.0-0.12","FRKA","3","m","rechts","22","","fixation","","","",""
"638","img/90_330.png","74","image-keyboard-response","31","73116","0.0-6.0-1.12","FRKA","3","m","rechts","22","","","object","j","90","true"
"null","<div style=""font-size:60px;"">+</div>","null","html-keyboard-response","32","73468","0.0-6.0-0.13","FRKA","3","m","rechts","22","","fixation","","","",""
"586","img/0_270.png","70","image-keyboard-response","33","74055","0.0-6.0-1.13","FRKA","3","m","rechts","22","","","object","f","0","true"
"null","<div style=""font-size:60px;"">+</div>","null","html-keyboard-response","34","74557","0.0-6.0-0.14","FRKA","3","m","rechts","22","","fixation","","","",""
"932","img/30_60.png","74","image-keyboard-response","35","75490","0.0-6.0-1.14","FRKA","3","m","rechts","22","","","object","j","30","true"
"null","<div style=""font-size:60px;"">+</div>","null","html-keyboard-response","36","75792","0.0-6.0-0.15","FRKA","3","m","rechts","22","","fixation","","","",""
"1070","img/120_150.png","70","image-keyboard-response","37","76864","0.0-6.0-1.15","FRKA","3","m","rechts","22","","","object","j","120","false"
"null","<div style=""font-size:60px;"">+</div>","null","html-keyboard-response","38","77365","0.0-6.0-0.16","FRKA","3","m","rechts","22","","fixation","","","",""
"607","img/60_30.png","70","image-keyboard-response","39","77973","0.0-6.0-1.16","FRKA","3","m","rechts","22","","","object","f","60","true"
"null","<div style=""font-size:60px;"">+</div>","null","html-keyboard-response","40","78275","0.0-6.0-0.17","FRKA","3","m","rechts","22","","fixation","","","",""
"532","img/90_30.png","70","image-keyboard-response","41","78808","0.0-6.0-1.17","FRKA","3","m","rechts","22","","","object","f","90","true"
"null","<div style=""font-size:60px;"">+</div>","null","html-keyboard-response","42","79160","0.0-6.0-0.18","FRKA","3","m","rechts","22","","fixation","","","",""
"618","img/120_30.png","70","image-keyboard-response","43","79779","0.0-6.0-1.18","FRKA","3","m","rechts","22","","","object","f","120","true"
"null","<div style=""font-size:60px;"">+</div>","null","html-keyboard-response","44","80281","0.0-6.0-0.19","FRKA","3","m","rechts","22","","fixation","","","",""
"1215","img/90_240.png","74","image-keyboard-response","45","81497","0.0-6.0-1.19","FRKA","3","m","rechts","22","","","object","f","90","false"
"null","<div style=""font-size:60px;"">+</div>","null","html-keyboard-response","46","81949","0.0-6.0-0.20","FRKA","3","m","rechts","22","","fixation","","","",""
"1231","img/150_120.png","70","image-keyboard-response","47","83181","0.0-6.0-1.20","FRKA","3","m","rechts","22","","","object","f","150","true"
"null","<div style=""font-size:60px;"">+</div>","null","html-keyboard-response","48","83683","0.0-6.0-0.21","FRKA","3","m","rechts","22","","fixation","","","",""
"697","img/150_270.png","74","image-keyboard-response","49","84381","0.0-6.0-1.21","FRKA","3","m","rechts","22","","","object","j","150","true"
"null","<div style=""font-size:60px;"">+</div>","null","html-keyboard-response","50","84683","0.0-6.0-0.22","FRKA","3","m","rechts","22","","fixation","","","",""
"1426","img/90_120.png","74","image-keyboard-response","51","86110","0.0-6.0-1.22","FRKA","3","m","rechts","22","","","object","j","90","true"
"null","<div style=""font-size:60px;"">+</div>","null","html-keyboard-response","52","86612","0.0-6.0-0.23","FRKA","3","m","rechts","22","","fixation","","","",""
"1067","img/L90_180.png","74","image-keyboard-response","53","87680","0.0-6.0-1.23","FRKA","3","m","rechts","22","","","object","j","90","true"
"null","<div style=""font-size:60px;"">+</div>","null","html-keyboard-response","54","88182","0.0-6.0-0.24","FRKA","3","m","rechts","22","","fixation","","","",""
"1489","img/60_270.png","74","image-keyboard-response","55","89672","0.0-6.0-1.24","FRKA","3","m","rechts","22","","","object","f","60","false"
"null","<div style=""font-size:60px;"">+</div>","null","html-keyboard-response","56","90024","0.0-6.0-0.25","FRKA","3","m","rechts","22","","fixation","","","",""
"714","img/150_240.png","74","image-keyboard-response","57","90739","0.0-6.0-1.25","FRKA","3","m","rechts","22","","","object","j","150","true"
"null","<div style=""font-size:60px;"">+</div>","null","html-keyboard-response","58","91191","0.0-6.0-0.26","FRKA","3","m","rechts","22","","fixation","","","",""
"816","img/90_60.png","70","image-keyboard-response","59","92009","0.0-6.0-1.26","FRKA","3","m","rechts","22","","","object","f","90","true"
"null","<div style=""font-size:60px;"">+</div>","null","html-keyboard-response","60","92511","0.0-6.0-0.27","FRKA","3","m","rechts","22","","fixation","","","",""
"1551","img/L120_180.png","74","image-keyboard-response","61","94063","0.0-6.0-1.27","FRKA","3","m","rechts","22","","","object","j","120","true"
"null","<div style=""font-size:60px;"">+</div>","null","html-keyboard-response","62","94365","0.0-6.0-0.28","FRKA","3","m","rechts","22","","fixation","","","",""
"854","img/60_150.png","74","image-keyboard-response","63","95221","0.0-6.0-1.28","FRKA","3","m","rechts","22","","","object","j","60","true"
"null","<div style=""font-size:60px;"">+</div>","null","html-keyboard-response","64","95723","0.0-6.0-0.29","FRKA","3","m","rechts","22","","fixation","","","",""
"743","img/30_300.png","70","image-keyboard-response","65","96468","0.0-6.0-1.29","FRKA","3","m","rechts","22","","","object","f","30","true"
"null","<div style=""font-size:60px;"">+</div>","null","html-keyboard-response","66","96970","0.0-6.0-0.30","FRKA","3","m","rechts","22","","fixation","","","",""
"939","img/150_60.png","70","image-keyboard-response","67","97911","0.0-6.0-1.30","FRKA","3","m","rechts","22","","","object","f","150","true"
"null","<div style=""font-size:60px;"">+</div>","null","html-keyboard-response","68","98362","0.0-6.0-0.31","FRKA","3","m","rechts","22","","fixation","","","",""
"821","img/30_240.png","70","image-keyboard-response","69","99185","0.0-6.0-1.31","FRKA","3","m","rechts","22","","","object","f","30","true"
"null","<div style=""font-size:60px;"">+</div>","null","html-keyboard-response","70","99537","0.0-6.0-0.32","FRKA","3","m","rechts","22","","fixation","","","",""
"891","img/120_270.png","74","image-keyboard-response","71","100429","0.0-6.0-1.32","FRKA","3","m","rechts","22","","","object","j","120","true"
"null","<div style=""font-size:60px;"">+</div>","null","html-keyboard-response","72","100881","0.0-6.0-0.33","FRKA","3","m","rechts","22","","fixation","","","",""
"884","img/120_180.png","70","image-keyboard-response","73","101767","0.0-6.0-1.33","FRKA","3","m","rechts","22","","","object","f","120","true"
"null","<div style=""font-size:60px;"">+</div>","null","html-keyboard-response","74","102169","0.0-6.0-0.34","FRKA","3","m","rechts","22","","fixation","","","",""
"782","img/L30_180.png","74","image-keyboard-response","75","102952","0.0-6.0-1.34","FRKA","3","m","rechts","22","","","object","j","30","true"
"null","<div style=""font-size:60px;"">+</div>","null","html-keyboard-response","76","103454","0.0-6.0-0.35","FRKA","3","m","rechts","22","","fixation","","","",""
"766","img/0_210.png","70","image-keyboard-response","77","104222","0.0-6.0-1.35","FRKA","3","m","rechts","22","","","object","f","0","true"
"null","<div style=""font-size:60px;"">+</div>","null","html-keyboard-response","78","104724","0.0-6.0-0.36","FRKA","3","m","rechts","22","","fixation","","","",""
"1265","img/30_90.png","74","image-keyboard-response","79","105990","0.0-6.0-1.36","FRKA","3","m","rechts","22","","","object","j","30","true"
"null","<div style=""font-size:60px;"">+</div>","null","html-keyboard-response","80","106442","0.0-6.0-0.37","FRKA","3","m","rechts","22","","fixation","","","",""
"659","img/0_330.png","70","image-keyboard-response","81","107103","0.0-6.0-1.37","FRKA","3","m","rechts","22","","","object","f","0","true"
"null","<div style=""font-size:60px;"">+</div>","null","html-keyboard-response","82","107404","0.0-6.0-0.38","FRKA","3","m","rechts","22","","fixation","","","",""
"884","img/60_210.png","70","image-keyboard-response","83","108289","0.0-6.0-1.38","FRKA","3","m","rechts","22","","","object","f","60","true"
"null","<div style=""font-size:60px;"">+</div>","null","html-keyboard-response","84","108691","0.0-6.0-0.39","FRKA","3","m","rechts","22","","fixation","","","",""
"853","img/0_30.png","74","image-keyboard-response","85","109546","0.0-6.0-1.39","FRKA","3","m","rechts","22","","","object","j","0","true"
"null","<div style=""font-size:60px;"">+</div>","null","html-keyboard-response","86","109848","0.0-6.0-0.40","FRKA","3","m","rechts","22","","fixation","","","",""
"889","img/30_270.png","70","image-keyboard-response","87","110738","0.0-6.0-1.40","FRKA","3","m","rechts","22","","","object","f","30","true"
"null","<div style=""font-size:60px;"">+</div>","null","html-keyboard-response","88","111140","0.0-6.0-0.41","FRKA","3","m","rechts","22","","fixation","","","",""
"845","img/150_300.png","74","image-keyboard-response","89","111987","0.0-6.0-1.41","FRKA","3","m","rechts","22","","","object","j","150","true"
"null","<div style=""font-size:60px;"">+</div>","null","html-keyboard-response","90","112388","0.0-6.0-0.42","FRKA","3","m","rechts","22","","fixation","","","",""
"934","img/120_210.png","70","image-keyboard-response","91","113323","0.0-6.0-1.42","FRKA","3","m","rechts","22","","","object","f","120","true"
"null","<div style=""font-size:60px;"">+</div>","null","html-keyboard-response","92","113725","0.0-6.0-0.43","FRKA","3","m","rechts","22","","fixation","","","",""
"1008","img/90_210.png","70","image-keyboard-response","93","114734","0.0-6.0-1.43","FRKA","3","m","rechts","22","","","object","f","90","true"
"null","<div style=""font-size:60px;"">+</div>","null","html-keyboard-response","94","115136","0.0-6.0-0.44","FRKA","3","m","rechts","22","","fixation","","","",""
"1064","img/0_120.png","74","image-keyboard-response","95","116201","0.0-6.0-1.44","FRKA","3","m","rechts","22","","","object","j","0","true"
"null","<div style=""font-size:60px;"">+</div>","null","html-keyboard-response","96","116703","0.0-6.0-0.45","FRKA","3","m","rechts","22","","fixation","","","",""
"876","img/60_330.png","74","image-keyboard-response","97","117580","0.0-6.0-1.45","FRKA","3","m","rechts","22","","","object","j","60","true"
"null","<div style=""font-size:60px;"">+</div>","null","html-keyboard-response","98","117882","0.0-6.0-0.46","FRKA","3","m","rechts","22","","fixation","","","",""
"780","img/30_120.png","74","image-keyboard-response","99","118663","0.0-6.0-1.46","FRKA","3","m","rechts","22","","","object","j","30","true"
"null","<div style=""font-size:60px;"">+</div>","null","html-keyboard-response","100","119165","0.0-6.0-0.47","FRKA","3","m","rechts","22","","fixation","","","",""
"641","img/0_90.png","74","image-keyboard-response","101","119807","0.0-6.0-1.47","FRKA","3","m","rechts","22","","","object","j","0","true"
"null","<div style=""font-size:60px;"">+</div>","null","html-keyboard-response","102","120209","0.0-6.0-0.48","FRKA","3","m","rechts","22","","fixation","","","",""
"1077","img/L150_180.png","74","image-keyboard-response","103","121287","0.0-6.0-1.48","FRKA","3","m","rechts","22","","","object","j","150","true"
"null","<div style=""font-size:60px;"">+</div>","null","html-keyboard-response","104","121589","0.0-6.0-0.49","FRKA","3","m","rechts","22","","fixation","","","",""
"948","img/0_60.png","74","image-keyboard-response","105","122538","0.0-6.0-1.49","FRKA","3","m","rechts","22","","","object","j","0","true"
"null","<div style=""font-size:60px;"">+</div>","null","html-keyboard-response","106","122940","0.0-6.0-0.50","FRKA","3","m","rechts","22","","fixation","","","",""
"850","img/30_180.png","70","image-keyboard-response","107","123791","0.0-6.0-1.50","FRKA","3","m","rechts","22","","","object","f","30","true"
"null","<div style=""font-size:60px;"">+</div>","null","html-keyboard-response","108","124293","0.0-6.0-0.51","FRKA","3","m","rechts","22","","fixation","","","",""
"943","img/90_300.png","74","image-keyboard-response","109","125237","0.0-6.0-1.51","FRKA","3","m","rechts","22","","","object","j","90","true"
"null","<div style=""font-size:60px;"">+</div>","null","html-keyboard-response","110","125639","0.0-6.0-0.52","FRKA","3","m","rechts","22","","fixation","","","",""
"1549","img/90_240.png","70","image-keyboard-response","111","127189","0.0-6.0-1.52","FRKA","3","m","rechts","22","","","object","f","90","true"
"null","<div style=""font-size:60px;"">+</div>","null","html-keyboard-response","112","127641","0.0-6.0-0.53","FRKA","3","m","rechts","22","","fixation","","","",""
"712","img/30_120.png","74","image-keyboard-response","113","128354","0.0-6.0-1.53","FRKA","3","m","rechts","22","","","object","j","30","true"
"null","<div style=""font-size:60px;"">+</div>","null","html-keyboard-response","114","128656","0.0-6.0-0.54","FRKA","3","m","rechts","22","","fixation","","","",""
"582","img/0_120.png","74","image-keyboard-response","115","129239","0.0-6.0-1.54","FRKA","3","m","rechts","22","","","object","j","0","true"
"null","<div style=""font-size:60px;"">+</div>","null","html-keyboard-response","116","129741","0.0-6.0-0.55","FRKA","3","m","rechts","22","","fixation","","","",""
"938","img/150_270.png","70","image-keyboard-response","117","130680","0.0-6.0-1.55","FRKA","3","m","rechts","22","","","object","j","150","false"
"null","<div style=""font-size:60px;"">+</div>","null","html-keyboard-response","118","131082","0.0-6.0-0.56","FRKA","3","m","rechts","22","","fixation","","","",""
"1505","img/30_60.png","74","image-keyboard-response","119","132588","0.0-6.0-1.56","FRKA","3","m","rechts","22","","","object","j","30","true"
"null","<div style=""font-size:60px;"">+</div>","null","html-keyboard-response","120","133039","0.0-6.0-0.57","FRKA","3","m","rechts","22","","fixation","","","",""
"784","img/L60_180.png","74","image-keyboard-response","121","133823","0.0-6.0-1.57","FRKA","3","m","rechts","22","","","object","j","60","true"
"null","<div style=""font-size:60px;"">+</div>","null","html-keyboard-response","122","134125","0.0-6.0-0.58","FRKA","3","m","rechts","22","","fixation","","","",""
"810","img/30_90.png","74","image-keyboard-response","123","134936","0.0-6.0-1.58","FRKA","3","m","rechts","22","","","object","j","30","true"
"null","<div style=""font-size:60px;"">+</div>","null","html-keyboard-response","124","135338","0.0-6.0-0.59","FRKA","3","m","rechts","22","","fixation","","","",""
"631","img/0_210.png","70","image-keyboard-response","125","135970","0.0-6.0-1.59","FRKA","3","m","rechts","22","","","object","f","0","true"
"null","<div style=""font-size:60px;"">+</div>","null","html-keyboard-response","126","136272","0.0-6.0-0.60","FRKA","3","m","rechts","22","","fixation","","","",""
"663","img/L30_180.png","74","image-keyboard-response","127","136936","0.0-6.0-1.60","FRKA","3","m","rechts","22","","","object","j","30","true"
"null","<div style=""font-size:60px;"">+</div>","null","html-keyboard-response","128","137288","0.0-6.0-0.61","FRKA","3","m","rechts","22","","fixation","","","",""
"626","img/90_120.png","74","image-keyboard-response","129","137915","0.0-6.0-1.61","FRKA","3","m","rechts","22","","","object","j","90","true"
"null","<div style=""font-size:60px;"">+</div>","null","html-keyboard-response","130","138317","0.0-6.0-0.62","FRKA","3","m","rechts","22","","fixation","","","",""
"938","img/150_120.png","74","image-keyboard-response","131","139256","0.0-6.0-1.62","FRKA","3","m","rechts","22","","","object","f","150","false"
"null","<div style=""font-size:60px;"">+</div>","null","html-keyboard-response","132","139758","0.0-6.0-0.63","FRKA","3","m","rechts","22","","fixation","","","",""
"793","img/90_330.png","74","image-keyboard-response","133","140553","0.0-6.0-1.63","FRKA","3","m","rechts","22","","","object","j","90","true"
"null","<div style=""font-size:60px;"">+</div>","null","html-keyboard-response","134","140955","0.0-6.0-0.64","FRKA","3","m","rechts","22","","fixation","","","",""
"941","img/150_60.png","70","image-keyboard-response","135","141897","0.0-6.0-1.64","FRKA","3","m","rechts","22","","","object","f","150","true"
"null","<div style=""font-size:60px;"">+</div>","null","html-keyboard-response","136","142399","0.0-6.0-0.65","FRKA","3","m","rechts","22","","fixation","","","",""
"679","img/120_30.png","70","image-keyboard-response","137","143079","0.0-6.0-1.65","FRKA","3","m","rechts","22","","","object","f","120","true"
"null","<div style=""font-size:60px;"">+</div>","null","html-keyboard-response","138","143431","0.0-6.0-0.66","FRKA","3","m","rechts","22","","fixation","","","",""
"1004","img/L150_180.png","74","image-keyboard-response","139","144436","0.0-6.0-1.66","FRKA","3","m","rechts","22","","","object","j","150","true"
"null","<div style=""font-size:60px;"">+</div>","null","html-keyboard-response","140","144789","0.0-6.0-0.67","FRKA","3","m","rechts","22","","fixation","","","",""
"1173","img/L90_180.png","74","image-keyboard-response","141","145963","0.0-6.0-1.67","FRKA","3","m","rechts","22","","","object","j","90","true"
"null","<div style=""font-size:60px;"">+</div>","null","html-keyboard-response","142","146315","0.0-6.0-0.68","FRKA","3","m","rechts","22","","fixation","","","",""
"707","img/30_240.png","70","image-keyboard-response","143","147022","0.0-6.0-1.68","FRKA","3","m","rechts","22","","","object","f","30","true"
"null","<div style=""font-size:60px;"">+</div>","null","html-keyboard-response","144","147324","0.0-6.0-0.69","FRKA","3","m","rechts","22","","fixation","","","",""
"685","img/0_240.png","70","image-keyboard-response","145","148010","0.0-6.0-1.69","FRKA","3","m","rechts","22","","","object","f","0","true"
"null","<div style=""font-size:60px;"">+</div>","null","html-keyboard-response","146","148362","0.0-6.0-0.70","FRKA","3","m","rechts","22","","fixation","","","",""
"595","img/0_150.png","74","image-keyboard-response","147","148957","0.0-6.0-1.70","FRKA","3","m","rechts","22","","","object","j","0","true"
"null","<div style=""font-size:60px;"">+</div>","null","html-keyboard-response","148","149309","0.0-6.0-0.71","FRKA","3","m","rechts","22","","fixation","","","",""
"670","img/90_30.png","70","image-keyboard-response","149","149980","0.0-6.0-1.71","FRKA","3","m","rechts","22","","","object","f","90","true"
"null","<div style=""font-size:60px;"">+</div>","null","html-keyboard-response","150","150282","0.0-6.0-0.72","FRKA","3","m","rechts","22","","fixation","","","",""
"683","img/120_330.png","74","image-keyboard-response","151","150965","0.0-6.0-1.72","FRKA","3","m","rechts","22","","","object","j","120","true"
"null","<div style=""font-size:60px;"">+</div>","null","html-keyboard-response","152","151367","0.0-6.0-0.73","FRKA","3","m","rechts","22","","fixation","","","",""
"723","img/0_30.png","74","image-keyboard-response","153","152092","0.0-6.0-1.73","FRKA","3","m","rechts","22","","","object","j","0","true"
"null","<div style=""font-size:60px;"">+</div>","null","html-keyboard-response","154","152494","0.0-6.0-0.74","FRKA","3","m","rechts","22","","fixation","","","",""
"906","img/150_180.png","70","image-keyboard-response","155","153400","0.0-6.0-1.74","FRKA","3","m","rechts","22","","","object","f","150","true"
"null","<div style=""font-size:60px;"">+</div>","null","html-keyboard-response","156","153751","0.0-6.0-0.75","FRKA","3","m","rechts","22","","fixation","","","",""
"698","img/0_300.png","70","image-keyboard-response","157","154451","0.0-6.0-1.75","FRKA","3","m","rechts","22","","","object","f","0","true"
"null","<div style=""font-size:60px;"">+</div>","null","html-keyboard-response","158","154902","0.0-6.0-0.76","FRKA","3","m","rechts","22","","fixation","","","",""
"1156","img/60_270.png","70","image-keyboard-response","159","156060","0.0-6.0-1.76","FRKA","3","m","rechts","22","","","object","f","60","true"
"null","<div style=""font-size:60px;"">+</div>","null","html-keyboard-response","160","156411","0.0-6.0-0.77","FRKA","3","m","rechts","22","","fixation","","","",""
"871","img/30_180.png","70","image-keyboard-response","161","157283","0.0-6.0-1.77","FRKA","3","m","rechts","22","","","object","f","30","true"
"null","<div style=""font-size:60px;"">+</div>","null","html-keyboard-response","162","157584","0.0-6.0-0.78","FRKA","3","m","rechts","22","","fixation","","","",""
"924","img/60_180.png","70","image-keyboard-response","163","158510","0.0-6.0-1.78","FRKA","3","m","rechts","22","","","object","f","60","true"
"null","<div style=""font-size:60px;"">+</div>","null","html-keyboard-response","164","158861","0.0-6.0-0.79","FRKA","3","m","rechts","22","","fixation","","","",""
"1093","img/60_150.png","74","image-keyboard-response","165","159955","0.0-6.0-1.79","FRKA","3","m","rechts","22","","","object","j","60","true"
"null","<div style=""font-size:60px;"">+</div>","null","html-keyboard-response","166","160307","0.0-6.0-0.80","FRKA","3","m","rechts","22","","fixation","","","",""
"673","img/150_300.png","70","image-keyboard-response","167","160982","0.0-6.0-1.80","FRKA","3","m","rechts","22","","","object","j","150","false"
"null","<div style=""font-size:60px;"">+</div>","null","html-keyboard-response","168","161283","0.0-6.0-0.81","FRKA","3","m","rechts","22","","fixation","","","",""
"1260","img/L120_180.png","70","image-keyboard-response","169","162545","0.0-6.0-1.81","FRKA","3","m","rechts","22","","","object","j","120","false"
"null","<div style=""font-size:60px;"">+</div>","null","html-keyboard-response","170","163047","0.0-6.0-0.82","FRKA","3","m","rechts","22","","fixation","","","",""
"881","img/30_270.png","70","image-keyboard-response","171","163929","0.0-6.0-1.82","FRKA","3","m","rechts","22","","","object","f","30","true"
"null","<div style=""font-size:60px;"">+</div>","null","html-keyboard-response","172","164380","0.0-6.0-0.83","FRKA","3","m","rechts","22","","fixation","","","",""
"638","img/60_90.png","74","image-keyboard-response","173","165019","0.0-6.0-1.83","FRKA","3","m","rechts","22","","","object","j","60","true"
"null","<div style=""font-size:60px;"">+</div>","null","html-keyboard-response","174","165471","0.0-6.0-0.84","FRKA","3","m","rechts","22","","fixation","","","",""
"743","img/60_330.png","74","image-keyboard-response","175","166215","0.0-6.0-1.84","FRKA","3","m","rechts","22","","","object","j","60","true"
"null","<div style=""font-size:60px;"">+</div>","null","html-keyboard-response","176","166617","0.0-6.0-0.85","FRKA","3","m","rechts","22","","fixation","","","",""
"1063","img/150_90.png","74","image-keyboard-response","177","167682","0.0-6.0-1.85","FRKA","3","m","rechts","22","","","object","f","150","false"
"null","<div style=""font-size:60px;"">+</div>","null","html-keyboard-response","178","168133","0.0-6.0-0.86","FRKA","3","m","rechts","22","","fixation","","","",""
"1282","img/60_30.png","70","image-keyboard-response","179","169416","0.0-6.0-1.86","FRKA","3","m","rechts","22","","","object","f","60","true"
"null","<div style=""font-size:60px;"">+</div>","null","html-keyboard-response","180","169768","0.0-6.0-0.87","FRKA","3","m","rechts","22","","fixation","","","",""
"784","img/120_270.png","74","image-keyboard-response","181","170553","0.0-6.0-1.87","FRKA","3","m","rechts","22","","","object","j","120","true"
"null","<div style=""font-size:60px;"">+</div>","null","html-keyboard-response","182","171055","0.0-6.0-0.88","FRKA","3","m","rechts","22","","fixation","","","",""
"665","img/0_90.png","74","image-keyboard-response","183","171721","0.0-6.0-1.88","FRKA","3","m","rechts","22","","","object","j","0","true"
"null","<div style=""font-size:60px;"">+</div>","null","html-keyboard-response","184","172223","0.0-6.0-0.89","FRKA","3","m","rechts","22","","fixation","","","",""
"976","img/120_180.png","70","image-keyboard-response","185","173199","0.0-6.0-1.89","FRKA","3","m","rechts","22","","","object","f","120","true"
"null","<div style=""font-size:60px;"">+</div>","null","html-keyboard-response","186","173551","0.0-6.0-0.90","FRKA","3","m","rechts","22","","fixation","","","",""
"804","img/0_60.png","74","image-keyboard-response","187","174356","0.0-6.0-1.90","FRKA","3","m","rechts","22","","","object","j","0","true"
"null","<div style=""font-size:60px;"">+</div>","null","html-keyboard-response","188","174808","0.0-6.0-0.91","FRKA","3","m","rechts","22","","fixation","","","",""
"1112","img/60_210.png","70","image-keyboard-response","189","175921","0.0-6.0-1.91","FRKA","3","m","rechts","22","","","object","f","60","true"
"null","<div style=""font-size:60px;"">+</div>","null","html-keyboard-response","190","176323","0.0-6.0-0.92","FRKA","3","m","rechts","22","","fixation","","","",""
"1072","img/0_270.png","70","image-keyboard-response","191","177396","0.0-6.0-1.92","FRKA","3","m","rechts","22","","","object","f","0","true"
"null","<div style=""font-size:60px;"">+</div>","null","html-keyboard-response","192","177898","0.0-6.0-0.93","FRKA","3","m","rechts","22","","fixation","","","",""
"772","img/90_180.png","70","image-keyboard-response","193","178670","0.0-6.0-1.93","FRKA","3","m","rechts","22","","","object","f","90","true"
"null","<div style=""font-size:60px;"">+</div>","null","html-keyboard-response","194","179022","0.0-6.0-0.94","FRKA","3","m","rechts","22","","fixation","","","",""
"734","img/120_90.png","74","image-keyboard-response","195","179757","0.0-6.0-1.94","FRKA","3","m","rechts","22","","","object","f","120","false"
"null","<div style=""font-size:60px;"">+</div>","null","html-keyboard-response","196","180259","0.0-6.0-0.95","FRKA","3","m","rechts","22","","fixation","","","",""
"953","img/90_210.png","70","image-keyboard-response","197","181213","0.0-6.0-1.95","FRKA","3","m","rechts","22","","","object","f","90","true"
"null","<div style=""font-size:60px;"">+</div>","null","html-keyboard-response","198","181615","0.0-6.0-0.96","FRKA","3","m","rechts","22","","fixation","","","",""
"687","img/90_60.png","70","image-keyboard-response","199","182303","0.0-6.0-1.96","FRKA","3","m","rechts","22","","","object","f","90","true"
"null","<div style=""font-size:60px;"">+</div>","null","html-keyboard-response","200","182605","0.0-6.0-0.97","FRKA","3","m","rechts","22","","fixation","","","",""
"708","img/0_330.png","70","image-keyboard-response","201","183314","0.0-6.0-1.97","FRKA","3","m","rechts","22","","","object","f","0","true"
"null","<div style=""font-size:60px;"">+</div>","null","html-keyboard-response","202","183716","0.0-6.0-0.98","FRKA","3","m","rechts","22","","fixation","","","",""
"1514","img/120_150.png","74","image-keyboard-response","203","185231","0.0-6.0-1.98","FRKA","3","m","rechts","22","","","object","j","120","true"
"null","<div style=""font-size:60px;"">+</div>","null","html-keyboard-response","204","185533","0.0-6.0-0.99","FRKA","3","m","rechts","22","","fixation","","","",""
"740","img/30_300.png","70","image-keyboard-response","205","186274","0.0-6.0-1.99","FRKA","3","m","rechts","22","","","object","f","30","true"
"null","<div style=""font-size:60px;"">+</div>","null","html-keyboard-response","206","186776","0.0-6.0-0.100","FRKA","3","m","rechts","22","","fixation","","","",""
"780","img/90_300.png","74","image-keyboard-response","207","187557","0.0-6.0-1.100","FRKA","3","m","rechts","22","","","object","j","90","true"
"null","<div style=""font-size:60px;"">+</div>","null","html-keyboard-response","208","187959","0.0-6.0-0.101","FRKA","3","m","rechts","22","","fixation","","","",""
"1559","img/150_240.png","74","image-keyboard-response","209","189519","0.0-6.0-1.101","FRKA","3","m","rechts","22","","","object","j","150","true"
"null","<div style=""font-size:60px;"">+</div>","null","html-keyboard-response","210","189821","0.0-6.0-0.102","FRKA","3","m","rechts","22","","fixation","","","",""
"1071","img/90_150.png","70","image-keyboard-response","211","190893","0.0-6.0-1.102","FRKA","3","m","rechts","22","","","object","j","90","false"
"null","<div style=""font-size:60px;"">+</div>","null","html-keyboard-response","212","191245","0.0-6.0-0.103","FRKA","3","m","rechts","22","","fixation","","","",""
"1284","img/120_210.png","74","image-keyboard-response","213","192530","0.0-6.0-1.103","FRKA","3","m","rechts","22","","","object","f","120","false"
"null","<div style=""font-size:60px;"">+</div>","null","html-keyboard-response","214","192832","0.0-6.0-0.104","FRKA","3","m","rechts","22","","fixation","","","",""
"620","img/60_30.png","70","image-keyboard-response","215","193453","0.0-6.0-1.104","FRKA","3","m","rechts","22","","","object","f","60","true"
"null","<div style=""font-size:60px;"">+</div>","null","html-keyboard-response","216","193955","0.0-6.0-0.105","FRKA","3","m","rechts","22","","fixation","","","",""
"718","img/0_270.png","74","image-keyboard-response","217","194674","0.0-6.0-1.105","FRKA","3","m","rechts","22","","","object","f","0","false"
"null","<div style=""font-size:60px;"">+</div>","null","html-keyboard-response","218","195076","0.0-6.0-0.106","FRKA","3","m","rechts","22","","fixation","","","",""
"1048","img/60_90.png","70","image-keyboard-response","219","196124","0.0-6.0-1.106","FRKA","3","m","rechts","22","","","object","j","60","false"
"null","<div style=""font-size:60px;"">+</div>","null","html-keyboard-response","220","196426","0.0-6.0-0.107","FRKA","3","m","rechts","22","","fixation","","","",""
"716","img/90_300.png","74","image-keyboard-response","221","197142","0.0-6.0-1.107","FRKA","3","m","rechts","22","","","object","j","90","true"
"null","<div style=""font-size:60px;"">+</div>","null","html-keyboard-response","222","197644","0.0-6.0-0.108","FRKA","3","m","rechts","22","","fixation","","","",""
"953","img/120_270.png","74","image-keyboard-response","223","198598","0.0-6.0-1.108","FRKA","3","m","rechts","22","","","object","j","120","true"
"null","<div style=""font-size:60px;"">+</div>","null","html-keyboard-response","224","198900","0.0-6.0-0.109","FRKA","3","m","rechts","22","","fixation","","","",""
"1551","img/60_270.png","70","image-keyboard-response","225","200452","0.0-6.0-1.109","FRKA","3","m","rechts","22","","","object","f","60","true"
"null","<div style=""font-size:60px;"">+</div>","null","html-keyboard-response","226","200904","0.0-6.0-0.110","FRKA","3","m","rechts","22","","fixation","","","",""
"797","img/60_210.png","70","image-keyboard-response","227","201702","0.0-6.0-1.110","FRKA","3","m","rechts","22","","","object","f","60","true"
"null","<div style=""font-size:60px;"">+</div>","null","html-keyboard-response","228","202104","0.0-6.0-0.111","FRKA","3","m","rechts","22","","fixation","","","",""
"647","img/0_240.png","70","image-keyboard-response","229","202751","0.0-6.0-1.111","FRKA","3","m","rechts","22","","","object","f","0","true"
"null","<div style=""font-size:60px;"">+</div>","null","html-keyboard-response","230","203103","0.0-6.0-0.112","FRKA","3","m","rechts","22","","fixation","","","",""
"1071","img/L60_180.png","74","image-keyboard-response","231","204175","0.0-6.0-1.112","FRKA","3","m","rechts","22","","","object","j","60","true"
"null","<div style=""font-size:60px;"">+</div>","null","html-keyboard-response","232","204527","0.0-6.0-0.113","FRKA","3","m","rechts","22","","fixation","","","",""
"1558","img/120_210.png","70","image-keyboard-response","233","206086","0.0-6.0-1.113","FRKA","3","m","rechts","22","","","object","f","120","true"
"null","<div style=""font-size:60px;"">+</div>","null","html-keyboard-response","234","206488","0.0-6.0-0.114","FRKA","3","m","rechts","22","","fixation","","","",""
"710","img/90_60.png","70","image-keyboard-response","235","207200","0.0-6.0-1.114","FRKA","3","m","rechts","22","","","object","f","90","true"
"null","<div style=""font-size:60px;"">+</div>","null","html-keyboard-response","236","207551","0.0-6.0-0.115","FRKA","3","m","rechts","22","","fixation","","","",""
"928","img/150_270.png","74","image-keyboard-response","237","208480","0.0-6.0-1.115","FRKA","3","m","rechts","22","","","object","j","150","true"
"null","<div style=""font-size:60px;"">+</div>","null","html-keyboard-response","238","208782","0.0-6.0-0.116","FRKA","3","m","rechts","22","","fixation","","","",""
"658","img/60_330.png","74","image-keyboard-response","239","209441","0.0-6.0-1.116","FRKA","3","m","rechts","22","","","object","j","60","true"
"null","<div style=""font-size:60px;"">+</div>","null","html-keyboard-response","240","209843","0.0-6.0-0.117","FRKA","3","m","rechts","22","","fixation","","","",""
"1949","img/L120_180.png","74","image-keyboard-response","241","211793","0.0-6.0-1.117","FRKA","3","m","rechts","22","","","object","j","120","true"
"null","<div style=""font-size:60px;"">+</div>","null","html-keyboard-response","242","212295","0.0-6.0-0.118","FRKA","3","m","rechts","22","","fixation","","","",""
"706","img/L90_180.png","74","image-keyboard-response","243","213003","0.0-6.0-1.118","FRKA","3","m","rechts","22","","","object","j","90","true"
"null","<div style=""font-size:60px;"">+</div>","null","html-keyboard-response","244","213305","0.0-6.0-0.119","FRKA","3","m","rechts","22","","fixation","","","",""
"843","img/120_30.png","70","image-keyboard-response","245","214149","0.0-6.0-1.119","FRKA","3","m","rechts","22","","","object","f","120","true"
"null","<div style=""font-size:60px;"">+</div>","null","html-keyboard-response","246","214450","0.0-6.0-0.120","FRKA","3","m","rechts","22","","fixation","","","",""
"914","img/0_90.png","74","image-keyboard-response","247","215366","0.0-6.0-1.120","FRKA","3","m","rechts","22","","","object","j","0","true"
"null","<div style=""font-size:60px;"">+</div>","null","html-keyboard-response","248","215768","0.0-6.0-0.121","FRKA","3","m","rechts","22","","fixation","","","",""
"613","img/0_120.png","74","image-keyboard-response","249","216382","0.0-6.0-1.121","FRKA","3","m","rechts","22","","","object","j","0","true"
"null","<div style=""font-size:60px;"">+</div>","null","html-keyboard-response","250","216683","0.0-6.0-0.122","FRKA","3","m","rechts","22","","fixation","","","",""
"656","img/0_330.png","70","image-keyboard-response","251","217340","0.0-6.0-1.122","FRKA","3","m","rechts","22","","","object","f","0","true"
"null","<div style=""font-size:60px;"">+</div>","null","html-keyboard-response","252","217642","0.0-6.0-0.123","FRKA","3","m","rechts","22","","fixation","","","",""
"1476","img/150_120.png","70","image-keyboard-response","253","219119","0.0-6.0-1.123","FRKA","3","m","rechts","22","","","object","f","150","true"
"null","<div style=""font-size:60px;"">+</div>","null","html-keyboard-response","254","219421","0.0-6.0-0.124","FRKA","3","m","rechts","22","","fixation","","","",""
"1564","img/60_180.png","70","image-keyboard-response","255","220986","0.0-6.0-1.124","FRKA","3","m","rechts","22","","","object","f","60","true"
"null","<div style=""font-size:60px;"">+</div>","null","html-keyboard-response","256","221338","0.0-6.0-0.125","FRKA","3","m","rechts","22","","fixation","","","",""
"898","img/L30_180.png","74","image-keyboard-response","257","222237","0.0-6.0-1.125","FRKA","3","m","rechts","22","","","object","j","30","true"
"null","<div style=""font-size:60px;"">+</div>","null","html-keyboard-response","258","222739","0.0-6.0-0.126","FRKA","3","m","rechts","22","","fixation","","","",""
"1631","img/60_150.png","74","image-keyboard-response","259","224371","0.0-6.0-1.126","FRKA","3","m","rechts","22","","","object","j","60","true"
"null","<div style=""font-size:60px;"">+</div>","null","html-keyboard-response","260","224873","0.0-6.0-0.127","FRKA","3","m","rechts","22","","fixation","","","",""
"802","img/0_60.png","74","image-keyboard-response","261","225676","0.0-6.0-1.127","FRKA","3","m","rechts","22","","","object","j","0","true"
"null","<div style=""font-size:60px;"">+</div>","null","html-keyboard-response","262","226028","0.0-6.0-0.128","FRKA","3","m","rechts","22","","fixation","","","",""
"1696","img/150_90.png","70","image-keyboard-response","263","227725","0.0-6.0-1.128","FRKA","3","m","rechts","22","","","object","f","150","true"
"null","<div style=""font-size:60px;"">+</div>","null","html-keyboard-response","264","228027","0.0-6.0-0.129","FRKA","3","m","rechts","22","","fixation","","","",""
"920","img/120_90.png","70","image-keyboard-response","265","228948","0.0-6.0-1.129","FRKA","3","m","rechts","22","","","object","f","120","true"
"null","<div style=""font-size:60px;"">+</div>","null","html-keyboard-response","266","229350","0.0-6.0-0.130","FRKA","3","m","rechts","22","","fixation","","","",""
"806","img/0_300.png","70","image-keyboard-response","267","230157","0.0-6.0-1.130","FRKA","3","m","rechts","22","","","object","f","0","true"
"null","<div style=""font-size:60px;"">+</div>","null","html-keyboard-response","268","230659","0.0-6.0-0.131","FRKA","3","m","rechts","22","","fixation","","","",""
"789","img/150_60.png","70","image-keyboard-response","269","231449","0.0-6.0-1.131","FRKA","3","m","rechts","22","","","object","f","150","true"
"null","<div style=""font-size:60px;"">+</div>","null","html-keyboard-response","270","231801","0.0-6.0-0.132","FRKA","3","m","rechts","22","","fixation","","","",""
"950","img/30_240.png","70","image-keyboard-response","271","232752","0.0-6.0-1.132","FRKA","3","m","rechts","22","","","object","f","30","true"
"null","<div style=""font-size:60px;"">+</div>","null","html-keyboard-response","272","233254","0.0-6.0-0.133","FRKA","3","m","rechts","22","","fixation","","","",""
"1413","img/30_60.png","74","image-keyboard-response","273","234668","0.0-6.0-1.133","FRKA","3","m","rechts","22","","","object","j","30","true"
"null","<div style=""font-size:60px;"">+</div>","null","html-keyboard-response","274","235119","0.0-6.0-0.134","FRKA","3","m","rechts","22","","fixation","","","",""
"1490","img/150_180.png","70","image-keyboard-response","275","236610","0.0-6.0-1.134","FRKA","3","m","rechts","22","","","object","f","150","true"
"null","<div style=""font-size:60px;"">+</div>","null","html-keyboard-response","276","237012","0.0-6.0-0.135","FRKA","3","m","rechts","22","","fixation","","","",""
"711","img/90_330.png","74","image-keyboard-response","277","237724","0.0-6.0-1.135","FRKA","3","m","rechts","22","","","object","j","90","true"
"null","<div style=""font-size:60px;"">+</div>","null","html-keyboard-response","278","238076","0.0-6.0-0.136","FRKA","3","m","rechts","22","","fixation","","","",""
"2246","img/30_300.png","70","image-keyboard-response","279","240323","0.0-6.0-1.136","FRKA","3","m","rechts","22","","","object","f","30","true"
"null","<div style=""font-size:60px;"">+</div>","null","html-keyboard-response","280","240675","0.0-6.0-0.137","FRKA","3","m","rechts","22","","fixation","","","",""
"953","img/90_210.png","70","image-keyboard-response","281","241629","0.0-6.0-1.137","FRKA","3","m","rechts","22","","","object","f","90","true"
"null","<div style=""font-size:60px;"">+</div>","null","html-keyboard-response","282","242131","0.0-6.0-0.138","FRKA","3","m","rechts","22","","fixation","","","",""
"1383","img/L150_180.png","74","image-keyboard-response","283","243514","0.0-6.0-1.138","FRKA","3","m","rechts","22","","","object","j","150","true"
"null","<div style=""font-size:60px;"">+</div>","null","html-keyboard-response","284","243816","0.0-6.0-0.139","FRKA","3","m","rechts","22","","fixation","","","",""
"700","img/0_210.png","70","image-keyboard-response","285","244517","0.0-6.0-1.139","FRKA","3","m","rechts","22","","","object","f","0","true"
"null","<div style=""font-size:60px;"">+</div>","null","html-keyboard-response","286","244969","0.0-6.0-0.140","FRKA","3","m","rechts","22","","fixation","","","",""
"879","img/30_270.png","70","image-keyboard-response","287","245849","0.0-6.0-1.140","FRKA","3","m","rechts","22","","","object","f","30","true"
"null","<div style=""font-size:60px;"">+</div>","null","html-keyboard-response","288","246151","0.0-6.0-0.141","FRKA","3","m","rechts","22","","fixation","","","",""
"845","img/30_120.png","74","image-keyboard-response","289","246997","0.0-6.0-1.141","FRKA","3","m","rechts","22","","","object","j","30","true"
"null","<div style=""font-size:60px;"">+</div>","null","html-keyboard-response","290","247449","0.0-6.0-0.142","FRKA","3","m","rechts","22","","fixation","","","",""
"980","img/120_180.png","70","image-keyboard-response","291","248430","0.0-6.0-1.142","FRKA","3","m","rechts","22","","","object","f","120","true"
"null","<div style=""font-size:60px;"">+</div>","null","html-keyboard-response","292","248932","0.0-6.0-0.143","FRKA","3","m","rechts","22","","fixation","","","",""
"673","img/150_240.png","70","image-keyboard-response","293","249606","0.0-6.0-1.143","FRKA","3","m","rechts","22","","","object","j","150","false"
"null","<div style=""font-size:60px;"">+</div>","null","html-keyboard-response","294","250008","0.0-6.0-0.144","FRKA","3","m","rechts","22","","fixation","","","",""
"1286","img/120_150.png","74","image-keyboard-response","295","251295","0.0-6.0-1.144","FRKA","3","m","rechts","22","","","object","j","120","true"
"null","<div style=""font-size:60px;"">+</div>","null","html-keyboard-response","296","251747","0.0-6.0-0.145","FRKA","3","m","rechts","22","","fixation","","","",""
"792","img/150_300.png","70","image-keyboard-response","297","252540","0.0-6.0-1.145","FRKA","3","m","rechts","22","","","object","j","150","false"
"null","<div style=""font-size:60px;"">+</div>","null","html-keyboard-response","298","252992","0.0-6.0-0.146","FRKA","3","m","rechts","22","","fixation","","","",""
"935","img/0_150.png","74","image-keyboard-response","299","253928","0.0-6.0-1.146","FRKA","3","m","rechts","22","","","object","j","0","true"
"null","<div style=""font-size:60px;"">+</div>","null","html-keyboard-response","300","254330","0.0-6.0-0.147","FRKA","3","m","rechts","22","","fixation","","","",""
"983","img/90_150.png","74","image-keyboard-response","301","255314","0.0-6.0-1.147","FRKA","3","m","rechts","22","","","object","j","90","true"
"null","<div style=""font-size:60px;"">+</div>","null","html-keyboard-response","302","255766","0.0-6.0-0.148","FRKA","3","m","rechts","22","","fixation","","","",""
"694","img/90_30.png","70","image-keyboard-response","303","256461","0.0-6.0-1.148","FRKA","3","m","rechts","22","","","object","f","90","true"
"null","<div style=""font-size:60px;"">+</div>","null","html-keyboard-response","304","256963","0.0-6.0-0.149","FRKA","3","m","rechts","22","","fixation","","","",""
"589","img/0_30.png","74","image-keyboard-response","305","257554","0.0-6.0-1.149","FRKA","3","m","rechts","22","","","object","j","0","true"
"null","<div style=""font-size:60px;"">+</div>","null","html-keyboard-response","306","258006","0.0-6.0-0.150","FRKA","3","m","rechts","22","","fixation","","","",""
"790","img/30_90.png","74","image-keyboard-response","307","258796","0.0-6.0-1.150","FRKA","3","m","rechts","22","","","object","j","30","true"
"null","<div style=""font-size:60px;"">+</div>","null","html-keyboard-response","308","259098","0.0-6.0-0.151","FRKA","3","m","rechts","22","","fixation","","","",""
"761","img/30_180.png","70","image-keyboard-response","309","259861","0.0-6.0-1.151","FRKA","3","m","rechts","22","","","object","f","30","true"
"null","<div style=""font-size:60px;"">+</div>","null","html-keyboard-response","310","260163","0.0-6.0-0.152","FRKA","3","m","rechts","22","","fixation","","","",""
"983","img/90_240.png","70","image-keyboard-response","311","261147","0.0-6.0-1.152","FRKA","3","m","rechts","22","","","object","f","90","true"
"null","<div style=""font-size:60px;"">+</div>","null","html-keyboard-response","312","261599","0.0-6.0-0.153","FRKA","3","m","rechts","22","","fixation","","","",""
"1452","img/90_120.png","70","image-keyboard-response","313","263053","0.0-6.0-1.153","FRKA","3","m","rechts","22","","","object","j","90","false"
"null","<div style=""font-size:60px;"">+</div>","null","html-keyboard-response","314","263455","0.0-6.0-0.154","FRKA","3","m","rechts","22","","fixation","","","",""
"1515","img/90_180.png","70","image-keyboard-response","315","264971","0.0-6.0-1.154","FRKA","3","m","rechts","22","","","object","f","90","true"
"null","<div style=""font-size:60px;"">+</div>","null","html-keyboard-response","316","265323","0.0-6.0-0.155","FRKA","3","m","rechts","22","","fixation","","","",""
"765","img/120_330.png","74","image-keyboard-response","317","266089","0.0-6.0-1.155","FRKA","3","m","rechts","22","","","object","j","120","true"
"null","<div style=""font-size:60px;"">+</div>","null","html-keyboard-response","318","266590","0.0-6.0-0.156","FRKA","3","m","rechts","22","","fixation","","","",""
"855","img/0_150.png","74","image-keyboard-response","319","267446","0.0-6.0-1.156","FRKA","3","m","rechts","22","","","object","j","0","true"
"null","<div style=""font-size:60px;"">+</div>","null","html-keyboard-response","320","267948","0.0-6.0-0.157","FRKA","3","m","rechts","22","","fixation","","","",""
"757","img/60_330.png","74","image-keyboard-response","321","268705","0.0-6.0-1.157","FRKA","3","m","rechts","22","","","object","j","60","true"
"null","<div style=""font-size:60px;"">+</div>","null","html-keyboard-response","322","269207","0.0-6.0-0.158","FRKA","3","m","rechts","22","","fixation","","","",""
"767","img/0_120.png","74","image-keyboard-response","323","269976","0.0-6.0-1.158","FRKA","3","m","rechts","22","","","object","j","0","true"
"null","<div style=""font-size:60px;"">+</div>","null","html-keyboard-response","324","270377","0.0-6.0-0.159","FRKA","3","m","rechts","22","","fixation","","","",""
"658","img/0_270.png","70","image-keyboard-response","325","271036","0.0-6.0-1.159","FRKA","3","m","rechts","22","","","object","f","0","true"
"null","<div style=""font-size:60px;"">+</div>","null","html-keyboard-response","326","271538","0.0-6.0-0.160","FRKA","3","m","rechts","22","","fixation","","","",""
"530","img/0_30.png","74","image-keyboard-response","327","272070","0.0-6.0-1.160","FRKA","3","m","rechts","22","","","object","j","0","true"
"null","<div style=""font-size:60px;"">+</div>","null","html-keyboard-response","328","272472","0.0-6.0-0.161","FRKA","3","m","rechts","22","","fixation","","","",""
"1590","img/150_180.png","70","image-keyboard-response","329","274063","0.0-6.0-1.161","FRKA","3","m","rechts","22","","","object","f","150","true"
"null","<div style=""font-size:60px;"">+</div>","null","html-keyboard-response","330","274565","0.0-6.0-0.162","FRKA","3","m","rechts","22","","fixation","","","",""
"1061","img/90_30.png","70","image-keyboard-response","331","275627","0.0-6.0-1.162","FRKA","3","m","rechts","22","","","object","f","90","true"
"null","<div style=""font-size:60px;"">+</div>","null","html-keyboard-response","332","276129","0.0-6.0-0.163","FRKA","3","m","rechts","22","","fixation","","","",""
"1587","img/120_180.png","70","image-keyboard-response","333","277717","0.0-6.0-1.163","FRKA","3","m","rechts","22","","","object","f","120","true"
"null","<div style=""font-size:60px;"">+</div>","null","html-keyboard-response","334","278219","0.0-6.0-0.164","FRKA","3","m","rechts","22","","fixation","","","",""
"780","img/0_60.png","74","image-keyboard-response","335","279000","0.0-6.0-1.164","FRKA","3","m","rechts","22","","","object","j","0","true"
"null","<div style=""font-size:60px;"">+</div>","null","html-keyboard-response","336","279352","0.0-6.0-0.165","FRKA","3","m","rechts","22","","fixation","","","",""
"905","img/60_180.png","70","image-keyboard-response","337","280258","0.0-6.0-1.165","FRKA","3","m","rechts","22","","","object","f","60","true"
"null","<div style=""font-size:60px;"">+</div>","null","html-keyboard-response","338","280710","0.0-6.0-0.166","FRKA","3","m","rechts","22","","fixation","","","",""
"1122","img/30_270.png","70","image-keyboard-response","339","281833","0.0-6.0-1.166","FRKA","3","m","rechts","22","","","object","f","30","true"
"null","<div style=""font-size:60px;"">+</div>","null","html-keyboard-response","340","282185","0.0-6.0-0.167","FRKA","3","m","rechts","22","","fixation","","","",""
"865","img/30_60.png","74","image-keyboard-response","341","283051","0.0-6.0-1.167","FRKA","3","m","rechts","22","","","object","j","30","true"
"null","<div style=""font-size:60px;"">+</div>","null","html-keyboard-response","342","283403","0.0-6.0-0.168","FRKA","3","m","rechts","22","","fixation","","","",""
"1068","img/60_90.png","74","image-keyboard-response","343","284473","0.0-6.0-1.168","FRKA","3","m","rechts","22","","","object","j","60","true"
"null","<div style=""font-size:60px;"">+</div>","null","html-keyboard-response","344","284824","0.0-6.0-0.169","FRKA","3","m","rechts","22","","fixation","","","",""
"1224","img/90_150.png","74","image-keyboard-response","345","286049","0.0-6.0-1.169","FRKA","3","m","rechts","22","","","object","j","90","true"
"null","<div style=""font-size:60px;"">+</div>","null","html-keyboard-response","346","286501","0.0-6.0-0.170","FRKA","3","m","rechts","22","","fixation","","","",""
"788","img/0_240.png","70","image-keyboard-response","347","287290","0.0-6.0-1.170","FRKA","3","m","rechts","22","","","object","f","0","true"
"null","<div style=""font-size:60px;"">+</div>","null","html-keyboard-response","348","287692","0.0-6.0-0.171","FRKA","3","m","rechts","22","","fixation","","","",""
"578","img/0_210.png","70","image-keyboard-response","349","288271","0.0-6.0-1.171","FRKA","3","m","rechts","22","","","object","f","0","true"
"null","<div style=""font-size:60px;"">+</div>","null","html-keyboard-response","350","288723","0.0-6.0-0.172","FRKA","3","m","rechts","22","","fixation","","","",""
"932","img/60_270.png","70","image-keyboard-response","351","289656","0.0-6.0-1.172","FRKA","3","m","rechts","22","","","object","f","60","true"
"null","<div style=""font-size:60px;"">+</div>","null","html-keyboard-response","352","290008","0.0-6.0-0.173","FRKA","3","m","rechts","22","","fixation","","","",""
"809","img/30_120.png","74","image-keyboard-response","353","290818","0.0-6.0-1.173","FRKA","3","m","rechts","22","","","object","j","30","true"
"null","<div style=""font-size:60px;"">+</div>","null","html-keyboard-response","354","291120","0.0-6.0-0.174","FRKA","3","m","rechts","22","","fixation","","","",""
"735","img/90_180.png","70","image-keyboard-response","355","291856","0.0-6.0-1.174","FRKA","3","m","rechts","22","","","object","f","90","true"
"null","<div style=""font-size:60px;"">+</div>","null","html-keyboard-response","356","292258","0.0-6.0-0.175","FRKA","3","m","rechts","22","","fixation","","","",""
"809","img/150_300.png","70","image-keyboard-response","357","293068","0.0-6.0-1.175","FRKA","3","m","rechts","22","","","object","j","150","false"
"null","<div style=""font-size:60px;"">+</div>","null","html-keyboard-response","358","293420","0.0-6.0-0.176","FRKA","3","m","rechts","22","","fixation","","","",""
"897","img/120_270.png","74","image-keyboard-response","359","294318","0.0-6.0-1.176","FRKA","3","m","rechts","22","","","object","j","120","true"
"null","<div style=""font-size:60px;"">+</div>","null","html-keyboard-response","360","294770","0.0-6.0-0.177","FRKA","3","m","rechts","22","","fixation","","","",""
"1011","img/L150_180.png","70","image-keyboard-response","361","295782","0.0-6.0-1.177","FRKA","3","m","rechts","22","","","object","j","150","false"
"null","<div style=""font-size:60px;"">+</div>","null","html-keyboard-response","362","296234","0.0-6.0-0.178","FRKA","3","m","rechts","22","","fixation","","","",""
"1097","img/90_330.png","74","image-keyboard-response","363","297332","0.0-6.0-1.178","FRKA","3","m","rechts","22","","","object","j","90","true"
"null","<div style=""font-size:60px;"">+</div>","null","html-keyboard-response","364","297784","0.0-6.0-0.179","FRKA","3","m","rechts","22","","fixation","","","",""
"817","img/90_210.png","70","image-keyboard-response","365","298602","0.0-6.0-1.179","FRKA","3","m","rechts","22","","","object","f","90","true"
"null","<div style=""font-size:60px;"">+</div>","null","html-keyboard-response","366","299104","0.0-6.0-0.180","FRKA","3","m","rechts","22","","fixation","","","",""
"700","img/60_150.png","74","image-keyboard-response","367","299806","0.0-6.0-1.180","FRKA","3","m","rechts","22","","","object","j","60","true"
"null","<div style=""font-size:60px;"">+</div>","null","html-keyboard-response","368","300208","0.0-6.0-0.181","FRKA","3","m","rechts","22","","fixation","","","",""
"658","img/90_120.png","74","image-keyboard-response","369","300866","0.0-6.0-1.181","FRKA","3","m","rechts","22","","","object","j","90","true"
"null","<div style=""font-size:60px;"">+</div>","null","html-keyboard-response","370","301268","0.0-6.0-0.182","FRKA","3","m","rechts","22","","fixation","","","",""
"758","img/120_30.png","70","image-keyboard-response","371","302027","0.0-6.0-1.182","FRKA","3","m","rechts","22","","","object","f","120","true"
"null","<div style=""font-size:60px;"">+</div>","null","html-keyboard-response","372","302529","0.0-6.0-0.183","FRKA","3","m","rechts","22","","fixation","","","",""
"688","img/L60_180.png","74","image-keyboard-response","373","303218","0.0-6.0-1.183","FRKA","3","m","rechts","22","","","object","j","60","true"
"null","<div style=""font-size:60px;"">+</div>","null","html-keyboard-response","374","303670","0.0-6.0-0.184","FRKA","3","m","rechts","22","","fixation","","","",""
"667","img/150_270.png","70","image-keyboard-response","375","304338","0.0-6.0-1.184","FRKA","3","m","rechts","22","","","object","j","150","false"
"null","<div style=""font-size:60px;"">+</div>","null","html-keyboard-response","376","304690","0.0-6.0-0.185","FRKA","3","m","rechts","22","","fixation","","","",""
"1233","img/L30_180.png","74","image-keyboard-response","377","305923","0.0-6.0-1.185","FRKA","3","m","rechts","22","","","object","j","30","true"
"null","<div style=""font-size:60px;"">+</div>","null","html-keyboard-response","378","306225","0.0-6.0-0.186","FRKA","3","m","rechts","22","","fixation","","","",""
"957","img/90_240.png","70","image-keyboard-response","379","307183","0.0-6.0-1.186","FRKA","3","m","rechts","22","","","object","f","90","true"
"null","<div style=""font-size:60px;"">+</div>","null","html-keyboard-response","380","307585","0.0-6.0-0.187","FRKA","3","m","rechts","22","","fixation","","","",""
"684","img/0_300.png","70","image-keyboard-response","381","308270","0.0-6.0-1.187","FRKA","3","m","rechts","22","","","object","f","0","true"
"null","<div style=""font-size:60px;"">+</div>","null","html-keyboard-response","382","308572","0.0-6.0-0.188","FRKA","3","m","rechts","22","","fixation","","","",""
"1133","img/150_90.png","70","image-keyboard-response","383","309706","0.0-6.0-1.188","FRKA","3","m","rechts","22","","","object","f","150","true"
"null","<div style=""font-size:60px;"">+</div>","null","html-keyboard-response","384","310108","0.0-6.0-0.189","FRKA","3","m","rechts","22","","fixation","","","",""
"1333","img/L120_180.png","74","image-keyboard-response","385","311442","0.0-6.0-1.189","FRKA","3","m","rechts","22","","","object","j","120","true"
"null","<div style=""font-size:60px;"">+</div>","null","html-keyboard-response","386","311894","0.0-6.0-0.190","FRKA","3","m","rechts","22","","fixation","","","",""
"675","img/60_30.png","70","image-keyboard-response","387","312570","0.0-6.0-1.190","FRKA","3","m","rechts","22","","","object","f","60","true"
"null","<div style=""font-size:60px;"">+</div>","null","html-keyboard-response","388","312922","0.0-6.0-0.191","FRKA","3","m","rechts","22","","fixation","","","",""
"1408","img/150_120.png","70","image-keyboard-response","389","314331","0.0-6.0-1.191","FRKA","3","m","rechts","22","","","object","f","150","true"
"null","<div style=""font-size:60px;"">+</div>","null","html-keyboard-response","390","314683","0.0-6.0-0.192","FRKA","3","m","rechts","22","","fixation","","","",""
"950","img/150_240.png","74","image-keyboard-response","391","315634","0.0-6.0-1.192","FRKA","3","m","rechts","22","","","object","j","150","true"
"null","<div style=""font-size:60px;"">+</div>","null","html-keyboard-response","392","316086","0.0-6.0-0.193","FRKA","3","m","rechts","22","","fixation","","","",""
"1501","img/L90_180.png","74","image-keyboard-response","393","317589","0.0-6.0-1.193","FRKA","3","m","rechts","22","","","object","j","90","true"
"null","<div style=""font-size:60px;"">+</div>","null","html-keyboard-response","394","317891","0.0-6.0-0.194","FRKA","3","m","rechts","22","","fixation","","","",""
"898","img/60_210.png","70","image-keyboard-response","395","318790","0.0-6.0-1.194","FRKA","3","m","rechts","22","","","object","f","60","true"
"null","<div style=""font-size:60px;"">+</div>","null","html-keyboard-response","396","319292","0.0-6.0-0.195","FRKA","3","m","rechts","22","","fixation","","","",""
"760","img/90_300.png","74","image-keyboard-response","397","320054","0.0-6.0-1.195","FRKA","3","m","rechts","22","","","object","j","90","true"
"null","<div style=""font-size:60px;"">+</div>","null","html-keyboard-response","398","320556","0.0-6.0-0.196","FRKA","3","m","rechts","22","","fixation","","","",""
"802","img/30_240.png","70","image-keyboard-response","399","321359","0.0-6.0-1.196","FRKA","3","m","rechts","22","","","object","f","30","true"
"null","<div style=""font-size:60px;"">+</div>","null","html-keyboard-response","400","321711","0.0-6.0-0.197","FRKA","3","m","rechts","22","","fixation","","","",""
"1331","img/120_90.png","70","image-keyboard-response","401","323044","0.0-6.0-1.197","FRKA","3","m","rechts","22","","","object","f","120","true"
"null","<div style=""font-size:60px;"">+</div>","null","html-keyboard-response","402","323446","0.0-6.0-0.198","FRKA","3","m","rechts","22","","fixation","","","",""
"1219","img/120_330.png","74","image-keyboard-response","403","324665","0.0-6.0-1.198","FRKA","3","m","rechts","22","","","object","j","120","true"
"null","<div style=""font-size:60px;"">+</div>","null","html-keyboard-response","404","325118","0.0-6.0-0.199","FRKA","3","m","rechts","22","","fixation","","","",""
"778","img/30_180.png","70","image-keyboard-response","405","325897","0.0-6.0-1.199","FRKA","3","m","rechts","22","","","object","f","30","true"
"null","<div style=""font-size:60px;"">+</div>","null","html-keyboard-response","406","326198","0.0-6.0-0.200","FRKA","3","m","rechts","22","","fixation","","","",""
"1070","img/30_300.png","70","image-keyboard-response","407","327269","0.0-6.0-1.200","FRKA","3","m","rechts","22","","","object","f","30","true"
"null","<div style=""font-size:60px;"">+</div>","null","html-keyboard-response","408","327571","0.0-6.0-0.201","FRKA","3","m","rechts","22","","fixation","","","",""
"1137","img/120_150.png","74","image-keyboard-response","409","328709","0.0-6.0-1.201","FRKA","3","m","rechts","22","","","object","j","120","true"
"null","<div style=""font-size:60px;"">+</div>","null","html-keyboard-response","410","329161","0.0-6.0-0.202","FRKA","3","m","rechts","22","","fixation","","","",""
"801","img/0_90.png","74","image-keyboard-response","411","329963","0.0-6.0-1.202","FRKA","3","m","rechts","22","","","object","j","0","true"
"null","<div style=""font-size:60px;"">+</div>","null","html-keyboard-response","412","330315","0.0-6.0-0.203","FRKA","3","m","rechts","22","","fixation","","","",""
"873","img/120_210.png","70","image-keyboard-response","413","331189","0.0-6.0-1.203","FRKA","3","m","rechts","22","","","object","f","120","true"
"null","<div style=""font-size:60px;"">+</div>","null","html-keyboard-response","414","331541","0.0-6.0-0.204","FRKA","3","m","rechts","22","","fixation","","","",""
"1316","img/30_90.png","74","image-keyboard-response","415","332858","0.0-6.0-1.204","FRKA","3","m","rechts","22","","","object","j","30","true"
"null","<div style=""font-size:60px;"">+</div>","null","html-keyboard-response","416","333310","0.0-6.0-0.205","FRKA","3","m","rechts","22","","fixation","","","",""
"775","img/90_60.png","70","image-keyboard-response","417","334086","0.0-6.0-1.205","FRKA","3","m","rechts","22","","","object","f","90","true"
"null","<div style=""font-size:60px;"">+</div>","null","html-keyboard-response","418","334438","0.0-6.0-0.206","FRKA","3","m","rechts","22","","fixation","","","",""
"739","img/0_330.png","70","image-keyboard-response","419","335178","0.0-6.0-1.206","FRKA","3","m","rechts","22","","","object","f","0","true"
"null","<div style=""font-size:60px;"">+</div>","null","html-keyboard-response","420","335480","0.0-6.0-0.207","FRKA","3","m","rechts","22","","fixation","","","",""
"823","img/150_60.png","70","image-keyboard-response","421","336304","0.0-6.0-1.207","FRKA","3","m","rechts","22","","","object","f","150","true"
"16504","<p>Du hast in 88% der Versuche korrekt entschieden.</p><p>Deine durchschnittliche Reaktionszeit war  940ms.</p><p>Dr&uuml;cke eine beliebige Taste, um die Session zu beenden. Vielen Dank!</p>","32","html-keyboard-response","422","352810","0.0-7.0","FRKA","3","m","rechts","22","","","","","",""
