"rt","stimulus","key_press","trial_type","trial_index","time_elapsed","internal_node_id","subject","session","sex","handedness","age","responses","test_part","condition","correct_response","angle","correct"
"4003","<p>Mental Rotation Experiment.</p> <p>Dr&uuml;cke eine beliebige Taste, um anzufangen.</p>","32","html-keyboard-response","0","4004","0.0-0.0","FRKA","4","m","rechts","22","","","","","",""
"18936","","","survey-text","1","22944","0.0-1.0","FRKA","4","m","rechts","22","{""Q0"":""FRKA""}","","","","",""
"8049","","","survey-text","2","30994","0.0-2.0","FRKA","4","m","rechts","22","{""Q0"":""4""}","","","","",""
"7579","","","survey-multi-choice","3","38575","0.0-3.0","FRKA","4","m","rechts","22","{""Q0"":""m"",""Q1"":""rechts""}","","","","",""
"2475","","","survey-text","4","41051","0.0-4.0","FRKA","4","m","rechts","22","{""Q0"":""22""}","","","","",""
"4384","<p>Stell dir vor, dass du vor einem runden Tisch stehst, auf dem sich ein blauer Ball am Tischrand befindet. Entlang des Tischrands ist jeweils ein verschieden langer Pfeil. Nun bleibst du an deinem Platz vor dem Tisch und rotierst den Tisch entlang des Pfeils (gleiche Richtung und L&auml;nge). </p> <img src='img/30_180.png'></img> <br><p> Nachdem du diese (vorgestellte) Rotation durchgef&uuml;hrt hast, schau in Richtung der Tischmitte, und entscheide dann, ob der Ball links oder rechts von dir liegt.</p> <p>Dr&uuml;cke die <strong>'f'</strong>-Taste f&uuml;r links, die <strong>'j'</strong>-Taste f&uuml;r rechts.</p><br><p> Das Bild wird jeweils 1 Sekunde lang pr&auml;sentiert. Du hast 3 Sekunden Zeit eine Entscheidung zu treffen.</p>","32","html-keyboard-response","5","45437","0.0-5.0","FRKA","4","m","rechts","22","","","","","",""
"null","<div style=""font-size:60px;"">+</div>","null","html-keyboard-response","6","46890","0.0-6.0-0.0","FRKA","4","m","rechts","22","","fixation","","","",""
"1330","img/90_150.png","74","image-keyboard-response","7","48221","0.0-6.0-1.0","FRKA","4","m","rechts","22","","","object","j","90","true"
"null","<div style=""font-size:60px;"">+</div>","null","html-keyboard-response","8","48573","0.0-6.0-0.1","FRKA","4","m","rechts","22","","fixation","","","",""
"1756","img/L120_180.png","74","image-keyboard-response","9","50330","0.0-6.0-1.1","FRKA","4","m","rechts","22","","","object","j","120","true"
"null","<div style=""font-size:60px;"">+</div>","null","html-keyboard-response","10","50832","0.0-6.0-0.2","FRKA","4","m","rechts","22","","fixation","","","",""
"865","img/0_120.png","74","image-keyboard-response","11","51698","0.0-6.0-1.2","FRKA","4","m","rechts","22","","","object","j","0","true"
"null","<div style=""font-size:60px;"">+</div>","null","html-keyboard-response","12","52101","0.0-6.0-0.3","FRKA","4","m","rechts","22","","fixation","","","",""
"838","img/150_60.png","70","image-keyboard-response","13","52940","0.0-6.0-1.3","FRKA","4","m","rechts","22","","","object","f","150","true"
"null","<div style=""font-size:60px;"">+</div>","null","html-keyboard-response","14","53242","0.0-6.0-0.4","FRKA","4","m","rechts","22","","fixation","","","",""
"733","img/0_60.png","74","image-keyboard-response","15","53976","0.0-6.0-1.4","FRKA","4","m","rechts","22","","","object","j","0","true"
"null","<div style=""font-size:60px;"">+</div>","null","html-keyboard-response","16","54478","0.0-6.0-0.5","FRKA","4","m","rechts","22","","fixation","","","",""
"827","img/60_30.png","70","image-keyboard-response","17","55306","0.0-6.0-1.5","FRKA","4","m","rechts","22","","","object","f","60","true"
"null","<div style=""font-size:60px;"">+</div>","null","html-keyboard-response","18","55708","0.0-6.0-0.6","FRKA","4","m","rechts","22","","fixation","","","",""
"931","img/60_270.png","70","image-keyboard-response","19","56640","0.0-6.0-1.6","FRKA","4","m","rechts","22","","","object","f","60","true"
"null","<div style=""font-size:60px;"">+</div>","null","html-keyboard-response","20","56942","0.0-6.0-0.7","FRKA","4","m","rechts","22","","fixation","","","",""
"1243","img/90_240.png","70","image-keyboard-response","21","58186","0.0-6.0-1.7","FRKA","4","m","rechts","22","","","object","f","90","true"
"null","<div style=""font-size:60px;"">+</div>","null","html-keyboard-response","22","58488","0.0-6.0-0.8","FRKA","4","m","rechts","22","","fixation","","","",""
"757","img/0_90.png","74","image-keyboard-response","23","59246","0.0-6.0-1.8","FRKA","4","m","rechts","22","","","object","j","0","true"
"null","<div style=""font-size:60px;"">+</div>","null","html-keyboard-response","24","59748","0.0-6.0-0.9","FRKA","4","m","rechts","22","","fixation","","","",""
"890","img/90_120.png","74","image-keyboard-response","25","60639","0.0-6.0-1.9","FRKA","4","m","rechts","22","","","object","j","90","true"
"null","<div style=""font-size:60px;"">+</div>","null","html-keyboard-response","26","61141","0.0-6.0-0.10","FRKA","4","m","rechts","22","","fixation","","","",""
"1733","img/L60_180.png","74","image-keyboard-response","27","62875","0.0-6.0-1.10","FRKA","4","m","rechts","22","","","object","j","60","true"
"null","<div style=""font-size:60px;"">+</div>","null","html-keyboard-response","28","63377","0.0-6.0-0.11","FRKA","4","m","rechts","22","","fixation","","","",""
"694","img/0_270.png","70","image-keyboard-response","29","64072","0.0-6.0-1.11","FRKA","4","m","rechts","22","","","object","f","0","true"
"null","<div style=""font-size:60px;"">+</div>","null","html-keyboard-response","30","64374","0.0-6.0-0.12","FRKA","4","m","rechts","22","","fixation","","","",""
"1064","img/90_180.png","70","image-keyboard-response","31","65439","0.0-6.0-1.12","FRKA","4","m","rechts","22","","","object","f","90","true"
"null","<div style=""font-size:60px;"">+</div>","null","html-keyboard-response","32","65941","0.0-6.0-0.13","FRKA","4","m","rechts","22","","fixation","","","",""
"726","img/0_330.png","70","image-keyboard-response","33","66669","0.0-6.0-1.13","FRKA","4","m","rechts","22","","","object","f","0","true"
"null","<div style=""font-size:60px;"">+</div>","null","html-keyboard-response","34","67171","0.0-6.0-0.14","FRKA","4","m","rechts","22","","fixation","","","",""
"604","img/0_300.png","70","image-keyboard-response","35","67776","0.0-6.0-1.14","FRKA","4","m","rechts","22","","","object","f","0","true"
"null","<div style=""font-size:60px;"">+</div>","null","html-keyboard-response","36","68077","0.0-6.0-0.15","FRKA","4","m","rechts","22","","fixation","","","",""
"837","img/30_240.png","70","image-keyboard-response","37","68915","0.0-6.0-1.15","FRKA","4","m","rechts","22","","","object","f","30","true"
"null","<div style=""font-size:60px;"">+</div>","null","html-keyboard-response","38","69367","0.0-6.0-0.16","FRKA","4","m","rechts","22","","fixation","","","",""
"742","img/120_30.png","70","image-keyboard-response","39","70110","0.0-6.0-1.16","FRKA","4","m","rechts","22","","","object","f","120","true"
"null","<div style=""font-size:60px;"">+</div>","null","html-keyboard-response","40","70612","0.0-6.0-0.17","FRKA","4","m","rechts","22","","fixation","","","",""
"860","img/30_180.png","70","image-keyboard-response","41","71472","0.0-6.0-1.17","FRKA","4","m","rechts","22","","","object","f","30","true"
"null","<div style=""font-size:60px;"">+</div>","null","html-keyboard-response","42","71874","0.0-6.0-0.18","FRKA","4","m","rechts","22","","fixation","","","",""
"1179","img/150_240.png","74","image-keyboard-response","43","73055","0.0-6.0-1.18","FRKA","4","m","rechts","22","","","object","j","150","true"
"null","<div style=""font-size:60px;"">+</div>","null","html-keyboard-response","44","73356","0.0-6.0-0.19","FRKA","4","m","rechts","22","","fixation","","","",""
"1230","img/150_180.png","70","image-keyboard-response","45","74587","0.0-6.0-1.19","FRKA","4","m","rechts","22","","","object","f","150","true"
"null","<div style=""font-size:60px;"">+</div>","null","html-keyboard-response","46","74889","0.0-6.0-0.20","FRKA","4","m","rechts","22","","fixation","","","",""
"1006","img/120_180.png","70","image-keyboard-response","47","75896","0.0-6.0-1.20","FRKA","4","m","rechts","22","","","object","f","120","true"
"null","<div style=""font-size:60px;"">+</div>","null","html-keyboard-response","48","76348","0.0-6.0-0.21","FRKA","4","m","rechts","22","","fixation","","","",""
"1069","img/150_120.png","70","image-keyboard-response","49","77419","0.0-6.0-1.21","FRKA","4","m","rechts","22","","","object","f","150","true"
"null","<div style=""font-size:60px;"">+</div>","null","html-keyboard-response","50","77820","0.0-6.0-0.22","FRKA","4","m","rechts","22","","fixation","","","",""
"865","img/150_90.png","70","image-keyboard-response","51","78686","0.0-6.0-1.22","FRKA","4","m","rechts","22","","","object","f","150","true"
"null","<div style=""font-size:60px;"">+</div>","null","html-keyboard-response","52","79038","0.0-6.0-0.23","FRKA","4","m","rechts","22","","fixation","","","",""
"905","img/90_60.png","70","image-keyboard-response","53","79945","0.0-6.0-1.23","FRKA","4","m","rechts","22","","","object","f","90","true"
"null","<div style=""font-size:60px;"">+</div>","null","html-keyboard-response","54","80397","0.0-6.0-0.24","FRKA","4","m","rechts","22","","fixation","","","",""
"1169","img/120_150.png","74","image-keyboard-response","55","81568","0.0-6.0-1.24","FRKA","4","m","rechts","22","","","object","j","120","true"
"null","<div style=""font-size:60px;"">+</div>","null","html-keyboard-response","56","82020","0.0-6.0-0.25","FRKA","4","m","rechts","22","","fixation","","","",""
"817","img/L30_180.png","74","image-keyboard-response","57","82838","0.0-6.0-1.25","FRKA","4","m","rechts","22","","","object","j","30","true"
"null","<div style=""font-size:60px;"">+</div>","null","html-keyboard-response","58","83240","0.0-6.0-0.26","FRKA","4","m","rechts","22","","fixation","","","",""
"690","img/0_240.png","70","image-keyboard-response","59","83932","0.0-6.0-1.26","FRKA","4","m","rechts","22","","","object","f","0","true"
"null","<div style=""font-size:60px;"">+</div>","null","html-keyboard-response","60","84384","0.0-6.0-0.27","FRKA","4","m","rechts","22","","fixation","","","",""
"917","img/120_330.png","74","image-keyboard-response","61","85303","0.0-6.0-1.27","FRKA","4","m","rechts","22","","","object","j","120","true"
"null","<div style=""font-size:60px;"">+</div>","null","html-keyboard-response","62","85604","0.0-6.0-0.28","FRKA","4","m","rechts","22","","fixation","","","",""
"1604","img/60_90.png","74","image-keyboard-response","63","87210","0.0-6.0-1.28","FRKA","4","m","rechts","22","","","object","j","60","true"
"null","<div style=""font-size:60px;"">+</div>","null","html-keyboard-response","64","87561","0.0-6.0-0.29","FRKA","4","m","rechts","22","","fixation","","","",""
"836","img/30_120.png","74","image-keyboard-response","65","88400","0.0-6.0-1.29","FRKA","4","m","rechts","22","","","object","j","30","true"
"null","<div style=""font-size:60px;"">+</div>","null","html-keyboard-response","66","88802","0.0-6.0-0.30","FRKA","4","m","rechts","22","","fixation","","","",""
"838","img/30_270.png","70","image-keyboard-response","67","89642","0.0-6.0-1.30","FRKA","4","m","rechts","22","","","object","f","30","true"
"null","<div style=""font-size:60px;"">+</div>","null","html-keyboard-response","68","90093","0.0-6.0-0.31","FRKA","4","m","rechts","22","","fixation","","","",""
"737","img/0_30.png","74","image-keyboard-response","69","90832","0.0-6.0-1.31","FRKA","4","m","rechts","22","","","object","j","0","true"
"null","<div style=""font-size:60px;"">+</div>","null","html-keyboard-response","70","91233","0.0-6.0-0.32","FRKA","4","m","rechts","22","","fixation","","","",""
"919","img/0_150.png","74","image-keyboard-response","71","92153","0.0-6.0-1.32","FRKA","4","m","rechts","22","","","object","j","0","true"
"null","<div style=""font-size:60px;"">+</div>","null","html-keyboard-response","72","92605","0.0-6.0-0.33","FRKA","4","m","rechts","22","","fixation","","","",""
"1176","img/90_210.png","70","image-keyboard-response","73","93782","0.0-6.0-1.33","FRKA","4","m","rechts","22","","","object","f","90","true"
"null","<div style=""font-size:60px;"">+</div>","null","html-keyboard-response","74","94284","0.0-6.0-0.34","FRKA","4","m","rechts","22","","fixation","","","",""
"988","img/60_210.png","70","image-keyboard-response","75","95273","0.0-6.0-1.34","FRKA","4","m","rechts","22","","","object","f","60","true"
"null","<div style=""font-size:60px;"">+</div>","null","html-keyboard-response","76","95675","0.0-6.0-0.35","FRKA","4","m","rechts","22","","fixation","","","",""
"616","img/0_210.png","70","image-keyboard-response","77","96292","0.0-6.0-1.35","FRKA","4","m","rechts","22","","","object","f","0","true"
"null","<div style=""font-size:60px;"">+</div>","null","html-keyboard-response","78","96644","0.0-6.0-0.36","FRKA","4","m","rechts","22","","fixation","","","",""
"1087","img/150_270.png","74","image-keyboard-response","79","97732","0.0-6.0-1.36","FRKA","4","m","rechts","22","","","object","j","150","true"
"null","<div style=""font-size:60px;"">+</div>","null","html-keyboard-response","80","98184","0.0-6.0-0.37","FRKA","4","m","rechts","22","","fixation","","","",""
"842","img/30_90.png","74","image-keyboard-response","81","99027","0.0-6.0-1.37","FRKA","4","m","rechts","22","","","object","j","30","true"
"null","<div style=""font-size:60px;"">+</div>","null","html-keyboard-response","82","99479","0.0-6.0-0.38","FRKA","4","m","rechts","22","","fixation","","","",""
"1678","img/L150_180.png","74","image-keyboard-response","83","101158","0.0-6.0-1.38","FRKA","4","m","rechts","22","","","object","j","150","true"
"null","<div style=""font-size:60px;"">+</div>","null","html-keyboard-response","84","101460","0.0-6.0-0.39","FRKA","4","m","rechts","22","","fixation","","","",""
"592","img/90_330.png","74","image-keyboard-response","85","102053","0.0-6.0-1.39","FRKA","4","m","rechts","22","","","object","j","90","true"
"null","<div style=""font-size:60px;"">+</div>","null","html-keyboard-response","86","102555","0.0-6.0-0.40","FRKA","4","m","rechts","22","","fixation","","","",""
"695","img/120_90.png","70","image-keyboard-response","87","103251","0.0-6.0-1.40","FRKA","4","m","rechts","22","","","object","f","120","true"
"null","<div style=""font-size:60px;"">+</div>","null","html-keyboard-response","88","103703","0.0-6.0-0.41","FRKA","4","m","rechts","22","","fixation","","","",""
"1122","img/L90_180.png","74","image-keyboard-response","89","104826","0.0-6.0-1.41","FRKA","4","m","rechts","22","","","object","j","90","true"
"null","<div style=""font-size:60px;"">+</div>","null","html-keyboard-response","90","105228","0.0-6.0-0.42","FRKA","4","m","rechts","22","","fixation","","","",""
"1082","img/120_210.png","70","image-keyboard-response","91","106311","0.0-6.0-1.42","FRKA","4","m","rechts","22","","","object","f","120","true"
"null","<div style=""font-size:60px;"">+</div>","null","html-keyboard-response","92","106713","0.0-6.0-0.43","FRKA","4","m","rechts","22","","fixation","","","",""
"875","img/60_150.png","74","image-keyboard-response","93","107589","0.0-6.0-1.43","FRKA","4","m","rechts","22","","","object","j","60","true"
"null","<div style=""font-size:60px;"">+</div>","null","html-keyboard-response","94","107891","0.0-6.0-0.44","FRKA","4","m","rechts","22","","fixation","","","",""
"841","img/60_180.png","70","image-keyboard-response","95","108733","0.0-6.0-1.44","FRKA","4","m","rechts","22","","","object","f","60","true"
"null","<div style=""font-size:60px;"">+</div>","null","html-keyboard-response","96","109235","0.0-6.0-0.45","FRKA","4","m","rechts","22","","fixation","","","",""
"580","img/60_330.png","74","image-keyboard-response","97","109816","0.0-6.0-1.45","FRKA","4","m","rechts","22","","","object","j","60","true"
"null","<div style=""font-size:60px;"">+</div>","null","html-keyboard-response","98","110218","0.0-6.0-0.46","FRKA","4","m","rechts","22","","fixation","","","",""
"555","img/30_300.png","74","image-keyboard-response","99","110774","0.0-6.0-1.46","FRKA","4","m","rechts","22","","","object","f","30","false"
"null","<div style=""font-size:60px;"">+</div>","null","html-keyboard-response","100","111276","0.0-6.0-0.47","FRKA","4","m","rechts","22","","fixation","","","",""
"837","img/30_60.png","74","image-keyboard-response","101","112114","0.0-6.0-1.47","FRKA","4","m","rechts","22","","","object","j","30","true"
"null","<div style=""font-size:60px;"">+</div>","null","html-keyboard-response","102","112566","0.0-6.0-0.48","FRKA","4","m","rechts","22","","fixation","","","",""
"1067","img/120_270.png","74","image-keyboard-response","103","113634","0.0-6.0-1.48","FRKA","4","m","rechts","22","","","object","j","120","true"
"null","<div style=""font-size:60px;"">+</div>","null","html-keyboard-response","104","114036","0.0-6.0-0.49","FRKA","4","m","rechts","22","","fixation","","","",""
"668","img/90_30.png","70","image-keyboard-response","105","114705","0.0-6.0-1.49","FRKA","4","m","rechts","22","","","object","f","90","true"
"null","<div style=""font-size:60px;"">+</div>","null","html-keyboard-response","106","115107","0.0-6.0-0.50","FRKA","4","m","rechts","22","","fixation","","","",""
"627","img/150_300.png","74","image-keyboard-response","107","115735","0.0-6.0-1.50","FRKA","4","m","rechts","22","","","object","j","150","true"
"null","<div style=""font-size:60px;"">+</div>","null","html-keyboard-response","108","116137","0.0-6.0-0.51","FRKA","4","m","rechts","22","","fixation","","","",""
"568","img/90_300.png","74","image-keyboard-response","109","116706","0.0-6.0-1.51","FRKA","4","m","rechts","22","","","object","j","90","true"
"null","<div style=""font-size:60px;"">+</div>","null","html-keyboard-response","110","117108","0.0-6.0-0.52","FRKA","4","m","rechts","22","","fixation","","","",""
"747","img/0_270.png","70","image-keyboard-response","111","117856","0.0-6.0-1.52","FRKA","4","m","rechts","22","","","object","f","0","true"
"null","<div style=""font-size:60px;"">+</div>","null","html-keyboard-response","112","118358","0.0-6.0-0.53","FRKA","4","m","rechts","22","","fixation","","","",""
"639","img/30_270.png","70","image-keyboard-response","113","118998","0.0-6.0-1.53","FRKA","4","m","rechts","22","","","object","f","30","true"
"null","<div style=""font-size:60px;"">+</div>","null","html-keyboard-response","114","119299","0.0-6.0-0.54","FRKA","4","m","rechts","22","","fixation","","","",""
"731","img/30_240.png","70","image-keyboard-response","115","120030","0.0-6.0-1.54","FRKA","4","m","rechts","22","","","object","f","30","true"
"null","<div style=""font-size:60px;"">+</div>","null","html-keyboard-response","116","120382","0.0-6.0-0.55","FRKA","4","m","rechts","22","","fixation","","","",""
"870","img/120_180.png","70","image-keyboard-response","117","121253","0.0-6.0-1.55","FRKA","4","m","rechts","22","","","object","f","120","true"
"null","<div style=""font-size:60px;"">+</div>","null","html-keyboard-response","118","121605","0.0-6.0-0.56","FRKA","4","m","rechts","22","","fixation","","","",""
"601","img/120_210.png","70","image-keyboard-response","119","122207","0.0-6.0-1.56","FRKA","4","m","rechts","22","","","object","f","120","true"
"null","<div style=""font-size:60px;"">+</div>","null","html-keyboard-response","120","122509","0.0-6.0-0.57","FRKA","4","m","rechts","22","","fixation","","","",""
"793","img/150_300.png","74","image-keyboard-response","121","123303","0.0-6.0-1.57","FRKA","4","m","rechts","22","","","object","j","150","true"
"null","<div style=""font-size:60px;"">+</div>","null","html-keyboard-response","122","123604","0.0-6.0-0.58","FRKA","4","m","rechts","22","","fixation","","","",""
"860","img/60_180.png","70","image-keyboard-response","123","124464","0.0-6.0-1.58","FRKA","4","m","rechts","22","","","object","f","60","true"
"null","<div style=""font-size:60px;"">+</div>","null","html-keyboard-response","124","124766","0.0-6.0-0.59","FRKA","4","m","rechts","22","","fixation","","","",""
"694","img/60_150.png","74","image-keyboard-response","125","125460","0.0-6.0-1.59","FRKA","4","m","rechts","22","","","object","j","60","true"
"null","<div style=""font-size:60px;"">+</div>","null","html-keyboard-response","126","125912","0.0-6.0-0.60","FRKA","4","m","rechts","22","","fixation","","","",""
"935","img/120_150.png","74","image-keyboard-response","127","126847","0.0-6.0-1.60","FRKA","4","m","rechts","22","","","object","j","120","true"
"null","<div style=""font-size:60px;"">+</div>","null","html-keyboard-response","128","127199","0.0-6.0-0.61","FRKA","4","m","rechts","22","","fixation","","","",""
"648","img/0_60.png","74","image-keyboard-response","129","127848","0.0-6.0-1.61","FRKA","4","m","rechts","22","","","object","j","0","true"
"null","<div style=""font-size:60px;"">+</div>","null","html-keyboard-response","130","128350","0.0-6.0-0.62","FRKA","4","m","rechts","22","","fixation","","","",""
"600","img/0_120.png","74","image-keyboard-response","131","128951","0.0-6.0-1.62","FRKA","4","m","rechts","22","","","object","j","0","true"
"null","<div style=""font-size:60px;"">+</div>","null","html-keyboard-response","132","129353","0.0-6.0-0.63","FRKA","4","m","rechts","22","","fixation","","","",""
"1482","img/90_120.png","74","image-keyboard-response","133","130835","0.0-6.0-1.63","FRKA","4","m","rechts","22","","","object","j","90","true"
"null","<div style=""font-size:60px;"">+</div>","null","html-keyboard-response","134","131237","0.0-6.0-0.64","FRKA","4","m","rechts","22","","fixation","","","",""
"693","img/60_330.png","74","image-keyboard-response","135","131931","0.0-6.0-1.64","FRKA","4","m","rechts","22","","","object","j","60","true"
"null","<div style=""font-size:60px;"">+</div>","null","html-keyboard-response","136","132383","0.0-6.0-0.65","FRKA","4","m","rechts","22","","fixation","","","",""
"760","img/L60_180.png","74","image-keyboard-response","137","133144","0.0-6.0-1.65","FRKA","4","m","rechts","22","","","object","j","60","true"
"null","<div style=""font-size:60px;"">+</div>","null","html-keyboard-response","138","133546","0.0-6.0-0.66","FRKA","4","m","rechts","22","","fixation","","","",""
"1326","img/30_300.png","70","image-keyboard-response","139","134873","0.0-6.0-1.66","FRKA","4","m","rechts","22","","","object","f","30","true"
"null","<div style=""font-size:60px;"">+</div>","null","html-keyboard-response","140","135275","0.0-6.0-0.67","FRKA","4","m","rechts","22","","fixation","","","",""
"1146","img/150_120.png","70","image-keyboard-response","141","136422","0.0-6.0-1.67","FRKA","4","m","rechts","22","","","object","f","150","true"
"null","<div style=""font-size:60px;"">+</div>","null","html-keyboard-response","142","136873","0.0-6.0-0.68","FRKA","4","m","rechts","22","","fixation","","","",""
"673","img/90_330.png","74","image-keyboard-response","143","137548","0.0-6.0-1.68","FRKA","4","m","rechts","22","","","object","j","90","true"
"null","<div style=""font-size:60px;"">+</div>","null","html-keyboard-response","144","138050","0.0-6.0-0.69","FRKA","4","m","rechts","22","","fixation","","","",""
"556","img/0_300.png","74","image-keyboard-response","145","138606","0.0-6.0-1.69","FRKA","4","m","rechts","22","","","object","f","0","false"
"null","<div style=""font-size:60px;"">+</div>","null","html-keyboard-response","146","139058","0.0-6.0-0.70","FRKA","4","m","rechts","22","","fixation","","","",""
"1119","img/150_240.png","70","image-keyboard-response","147","140179","0.0-6.0-1.70","FRKA","4","m","rechts","22","","","object","j","150","false"
"null","<div style=""font-size:60px;"">+</div>","null","html-keyboard-response","148","140630","0.0-6.0-0.71","FRKA","4","m","rechts","22","","fixation","","","",""
"937","img/60_270.png","70","image-keyboard-response","149","141569","0.0-6.0-1.71","FRKA","4","m","rechts","22","","","object","f","60","true"
"null","<div style=""font-size:60px;"">+</div>","null","html-keyboard-response","150","141921","0.0-6.0-0.72","FRKA","4","m","rechts","22","","fixation","","","",""
"858","img/90_30.png","70","image-keyboard-response","151","142780","0.0-6.0-1.72","FRKA","4","m","rechts","22","","","object","f","90","true"
"null","<div style=""font-size:60px;"">+</div>","null","html-keyboard-response","152","143081","0.0-6.0-0.73","FRKA","4","m","rechts","22","","fixation","","","",""
"691","img/150_60.png","70","image-keyboard-response","153","143774","0.0-6.0-1.73","FRKA","4","m","rechts","22","","","object","f","150","true"
"null","<div style=""font-size:60px;"">+</div>","null","html-keyboard-response","154","144225","0.0-6.0-0.74","FRKA","4","m","rechts","22","","fixation","","","",""
"600","img/120_330.png","74","image-keyboard-response","155","144827","0.0-6.0-1.74","FRKA","4","m","rechts","22","","","object","j","120","true"
"null","<div style=""font-size:60px;"">+</div>","null","html-keyboard-response","156","145178","0.0-6.0-0.75","FRKA","4","m","rechts","22","","fixation","","","",""
"645","img/30_180.png","70","image-keyboard-response","157","145824","0.0-6.0-1.75","FRKA","4","m","rechts","22","","","object","f","30","true"
"null","<div style=""font-size:60px;"">+</div>","null","html-keyboard-response","158","146277","0.0-6.0-0.76","FRKA","4","m","rechts","22","","fixation","","","",""
"847","img/150_180.png","70","image-keyboard-response","159","147124","0.0-6.0-1.76","FRKA","4","m","rechts","22","","","object","f","150","true"
"null","<div style=""font-size:60px;"">+</div>","null","html-keyboard-response","160","147526","0.0-6.0-0.77","FRKA","4","m","rechts","22","","fixation","","","",""
"734","img/0_210.png","70","image-keyboard-response","161","148261","0.0-6.0-1.77","FRKA","4","m","rechts","22","","","object","f","0","true"
"null","<div style=""font-size:60px;"">+</div>","null","html-keyboard-response","162","148563","0.0-6.0-0.78","FRKA","4","m","rechts","22","","fixation","","","",""
"819","img/L120_180.png","74","image-keyboard-response","163","149383","0.0-6.0-1.78","FRKA","4","m","rechts","22","","","object","j","120","true"
"null","<div style=""font-size:60px;"">+</div>","null","html-keyboard-response","164","149735","0.0-6.0-0.79","FRKA","4","m","rechts","22","","fixation","","","",""
"847","img/90_240.png","70","image-keyboard-response","165","150583","0.0-6.0-1.79","FRKA","4","m","rechts","22","","","object","f","90","true"
"null","<div style=""font-size:60px;"">+</div>","null","html-keyboard-response","166","151085","0.0-6.0-0.80","FRKA","4","m","rechts","22","","fixation","","","",""
"1289","img/90_150.png","74","image-keyboard-response","167","152375","0.0-6.0-1.80","FRKA","4","m","rechts","22","","","object","j","90","true"
"null","<div style=""font-size:60px;"">+</div>","null","html-keyboard-response","168","152727","0.0-6.0-0.81","FRKA","4","m","rechts","22","","fixation","","","",""
"792","img/60_90.png","70","image-keyboard-response","169","153520","0.0-6.0-1.81","FRKA","4","m","rechts","22","","","object","j","60","false"
"null","<div style=""font-size:60px;"">+</div>","null","html-keyboard-response","170","153872","0.0-6.0-0.82","FRKA","4","m","rechts","22","","fixation","","","",""
"1072","img/120_90.png","70","image-keyboard-response","171","154945","0.0-6.0-1.82","FRKA","4","m","rechts","22","","","object","f","120","true"
"null","<div style=""font-size:60px;"">+</div>","null","html-keyboard-response","172","155397","0.0-6.0-0.83","FRKA","4","m","rechts","22","","fixation","","","",""
"685","img/0_330.png","70","image-keyboard-response","173","156082","0.0-6.0-1.83","FRKA","4","m","rechts","22","","","object","f","0","true"
"null","<div style=""font-size:60px;"">+</div>","null","html-keyboard-response","174","156534","0.0-6.0-0.84","FRKA","4","m","rechts","22","","fixation","","","",""
"843","img/30_90.png","74","image-keyboard-response","175","157378","0.0-6.0-1.84","FRKA","4","m","rechts","22","","","object","j","30","true"
"null","<div style=""font-size:60px;"">+</div>","null","html-keyboard-response","176","157830","0.0-6.0-0.85","FRKA","4","m","rechts","22","","fixation","","","",""
"612","img/0_240.png","70","image-keyboard-response","177","158443","0.0-6.0-1.85","FRKA","4","m","rechts","22","","","object","f","0","true"
"null","<div style=""font-size:60px;"">+</div>","null","html-keyboard-response","178","158945","0.0-6.0-0.86","FRKA","4","m","rechts","22","","fixation","","","",""
"574","img/0_30.png","74","image-keyboard-response","179","159520","0.0-6.0-1.86","FRKA","4","m","rechts","22","","","object","j","0","true"
"null","<div style=""font-size:60px;"">+</div>","null","html-keyboard-response","180","159872","0.0-6.0-0.87","FRKA","4","m","rechts","22","","fixation","","","",""
"829","img/L30_180.png","74","image-keyboard-response","181","160702","0.0-6.0-1.87","FRKA","4","m","rechts","22","","","object","j","30","true"
"null","<div style=""font-size:60px;"">+</div>","null","html-keyboard-response","182","161204","0.0-6.0-0.88","FRKA","4","m","rechts","22","","fixation","","","",""
"903","img/90_300.png","74","image-keyboard-response","183","162108","0.0-6.0-1.88","FRKA","4","m","rechts","22","","","object","j","90","true"
"null","<div style=""font-size:60px;"">+</div>","null","html-keyboard-response","184","162410","0.0-6.0-0.89","FRKA","4","m","rechts","22","","fixation","","","",""
"857","img/150_270.png","70","image-keyboard-response","185","163268","0.0-6.0-1.89","FRKA","4","m","rechts","22","","","object","j","150","false"
"null","<div style=""font-size:60px;"">+</div>","null","html-keyboard-response","186","163720","0.0-6.0-0.90","FRKA","4","m","rechts","22","","fixation","","","",""
"948","img/L90_180.png","74","image-keyboard-response","187","164669","0.0-6.0-1.90","FRKA","4","m","rechts","22","","","object","j","90","true"
"null","<div style=""font-size:60px;"">+</div>","null","html-keyboard-response","188","164970","0.0-6.0-0.91","FRKA","4","m","rechts","22","","fixation","","","",""
"971","img/90_210.png","70","image-keyboard-response","189","165942","0.0-6.0-1.91","FRKA","4","m","rechts","22","","","object","f","90","true"
"null","<div style=""font-size:60px;"">+</div>","null","html-keyboard-response","190","166244","0.0-6.0-0.92","FRKA","4","m","rechts","22","","fixation","","","",""
"903","img/120_270.png","74","image-keyboard-response","191","167148","0.0-6.0-1.92","FRKA","4","m","rechts","22","","","object","j","120","true"
"null","<div style=""font-size:60px;"">+</div>","null","html-keyboard-response","192","167500","0.0-6.0-0.93","FRKA","4","m","rechts","22","","fixation","","","",""
"893","img/60_210.png","70","image-keyboard-response","193","168394","0.0-6.0-1.93","FRKA","4","m","rechts","22","","","object","f","60","true"
"null","<div style=""font-size:60px;"">+</div>","null","html-keyboard-response","194","168746","0.0-6.0-0.94","FRKA","4","m","rechts","22","","fixation","","","",""
"838","img/30_60.png","70","image-keyboard-response","195","169585","0.0-6.0-1.94","FRKA","4","m","rechts","22","","","object","j","30","false"
"null","<div style=""font-size:60px;"">+</div>","null","html-keyboard-response","196","169987","0.0-6.0-0.95","FRKA","4","m","rechts","22","","fixation","","","",""
"821","img/0_150.png","74","image-keyboard-response","197","170809","0.0-6.0-1.95","FRKA","4","m","rechts","22","","","object","j","0","true"
"null","<div style=""font-size:60px;"">+</div>","null","html-keyboard-response","198","171261","0.0-6.0-0.96","FRKA","4","m","rechts","22","","fixation","","","",""
"730","img/90_60.png","70","image-keyboard-response","199","171992","0.0-6.0-1.96","FRKA","4","m","rechts","22","","","object","f","90","true"
"null","<div style=""font-size:60px;"">+</div>","null","html-keyboard-response","200","172344","0.0-6.0-0.97","FRKA","4","m","rechts","22","","fixation","","","",""
"909","img/90_180.png","70","image-keyboard-response","201","173254","0.0-6.0-1.97","FRKA","4","m","rechts","22","","","object","f","90","true"
"null","<div style=""font-size:60px;"">+</div>","null","html-keyboard-response","202","173756","0.0-6.0-0.98","FRKA","4","m","rechts","22","","fixation","","","",""
"879","img/L150_180.png","74","image-keyboard-response","203","174636","0.0-6.0-1.98","FRKA","4","m","rechts","22","","","object","j","150","true"
"null","<div style=""font-size:60px;"">+</div>","null","html-keyboard-response","204","175038","0.0-6.0-0.99","FRKA","4","m","rechts","22","","fixation","","","",""
"698","img/0_90.png","74","image-keyboard-response","205","175737","0.0-6.0-1.99","FRKA","4","m","rechts","22","","","object","j","0","true"
"null","<div style=""font-size:60px;"">+</div>","null","html-keyboard-response","206","176089","0.0-6.0-0.100","FRKA","4","m","rechts","22","","fixation","","","",""
"833","img/60_30.png","70","image-keyboard-response","207","176923","0.0-6.0-1.100","FRKA","4","m","rechts","22","","","object","f","60","true"
"null","<div style=""font-size:60px;"">+</div>","null","html-keyboard-response","208","177375","0.0-6.0-0.101","FRKA","4","m","rechts","22","","fixation","","","",""
"657","img/30_120.png","74","image-keyboard-response","209","178033","0.0-6.0-1.101","FRKA","4","m","rechts","22","","","object","j","30","true"
"null","<div style=""font-size:60px;"">+</div>","null","html-keyboard-response","210","178335","0.0-6.0-0.102","FRKA","4","m","rechts","22","","fixation","","","",""
"639","img/120_30.png","70","image-keyboard-response","211","178975","0.0-6.0-1.102","FRKA","4","m","rechts","22","","","object","f","120","true"
"null","<div style=""font-size:60px;"">+</div>","null","html-keyboard-response","212","179327","0.0-6.0-0.103","FRKA","4","m","rechts","22","","fixation","","","",""
"884","img/150_90.png","70","image-keyboard-response","213","180212","0.0-6.0-1.103","FRKA","4","m","rechts","22","","","object","f","150","true"
"null","<div style=""font-size:60px;"">+</div>","null","html-keyboard-response","214","180714","0.0-6.0-0.104","FRKA","4","m","rechts","22","","fixation","","","",""
"1064","img/L60_180.png","74","image-keyboard-response","215","181779","0.0-6.0-1.104","FRKA","4","m","rechts","22","","","object","j","60","true"
"null","<div style=""font-size:60px;"">+</div>","null","html-keyboard-response","216","182180","0.0-6.0-0.105","FRKA","4","m","rechts","22","","fixation","","","",""
"845","img/150_180.png","70","image-keyboard-response","217","183026","0.0-6.0-1.105","FRKA","4","m","rechts","22","","","object","f","150","true"
"null","<div style=""font-size:60px;"">+</div>","null","html-keyboard-response","218","183378","0.0-6.0-0.106","FRKA","4","m","rechts","22","","fixation","","","",""
"1772","img/90_120.png","70","image-keyboard-response","219","185151","0.0-6.0-1.106","FRKA","4","m","rechts","22","","","object","j","90","false"
"null","<div style=""font-size:60px;"">+</div>","null","html-keyboard-response","220","185653","0.0-6.0-0.107","FRKA","4","m","rechts","22","","fixation","","","",""
"661","img/90_300.png","74","image-keyboard-response","221","186315","0.0-6.0-1.107","FRKA","4","m","rechts","22","","","object","j","90","true"
"null","<div style=""font-size:60px;"">+</div>","null","html-keyboard-response","222","186617","0.0-6.0-0.108","FRKA","4","m","rechts","22","","fixation","","","",""
"779","img/90_180.png","70","image-keyboard-response","223","187396","0.0-6.0-1.108","FRKA","4","m","rechts","22","","","object","f","90","true"
"null","<div style=""font-size:60px;"">+</div>","null","html-keyboard-response","224","187848","0.0-6.0-0.109","FRKA","4","m","rechts","22","","fixation","","","",""
"540","img/60_330.png","74","image-keyboard-response","225","188389","0.0-6.0-1.109","FRKA","4","m","rechts","22","","","object","j","60","true"
"null","<div style=""font-size:60px;"">+</div>","null","html-keyboard-response","226","188791","0.0-6.0-0.110","FRKA","4","m","rechts","22","","fixation","","","",""
"626","img/0_330.png","70","image-keyboard-response","227","189419","0.0-6.0-1.110","FRKA","4","m","rechts","22","","","object","f","0","true"
"null","<div style=""font-size:60px;"">+</div>","null","html-keyboard-response","228","189871","0.0-6.0-0.111","FRKA","4","m","rechts","22","","fixation","","","",""
"657","img/0_120.png","74","image-keyboard-response","229","190529","0.0-6.0-1.111","FRKA","4","m","rechts","22","","","object","j","0","true"
"null","<div style=""font-size:60px;"">+</div>","null","html-keyboard-response","230","190981","0.0-6.0-0.112","FRKA","4","m","rechts","22","","fixation","","","",""
"742","img/30_270.png","70","image-keyboard-response","231","191724","0.0-6.0-1.112","FRKA","4","m","rechts","22","","","object","f","30","true"
"null","<div style=""font-size:60px;"">+</div>","null","html-keyboard-response","232","192076","0.0-6.0-0.113","FRKA","4","m","rechts","22","","fixation","","","",""
"661","img/90_330.png","74","image-keyboard-response","233","192738","0.0-6.0-1.113","FRKA","4","m","rechts","22","","","object","j","90","true"
"null","<div style=""font-size:60px;"">+</div>","null","html-keyboard-response","234","193090","0.0-6.0-0.114","FRKA","4","m","rechts","22","","fixation","","","",""
"649","img/0_210.png","70","image-keyboard-response","235","193740","0.0-6.0-1.114","FRKA","4","m","rechts","22","","","object","f","0","true"
"null","<div style=""font-size:60px;"">+</div>","null","html-keyboard-response","236","194142","0.0-6.0-0.115","FRKA","4","m","rechts","22","","fixation","","","",""
"681","img/90_150.png","74","image-keyboard-response","237","194824","0.0-6.0-1.115","FRKA","4","m","rechts","22","","","object","j","90","true"
"null","<div style=""font-size:60px;"">+</div>","null","html-keyboard-response","238","195275","0.0-6.0-0.116","FRKA","4","m","rechts","22","","fixation","","","",""
"735","img/150_90.png","70","image-keyboard-response","239","196012","0.0-6.0-1.116","FRKA","4","m","rechts","22","","","object","f","150","true"
"null","<div style=""font-size:60px;"">+</div>","null","html-keyboard-response","240","196364","0.0-6.0-0.117","FRKA","4","m","rechts","22","","fixation","","","",""
"835","img/90_60.png","70","image-keyboard-response","241","197200","0.0-6.0-1.117","FRKA","4","m","rechts","22","","","object","f","90","true"
"null","<div style=""font-size:60px;"">+</div>","null","html-keyboard-response","242","197702","0.0-6.0-0.118","FRKA","4","m","rechts","22","","fixation","","","",""
"611","img/120_30.png","70","image-keyboard-response","243","198314","0.0-6.0-1.118","FRKA","4","m","rechts","22","","","object","f","120","true"
"null","<div style=""font-size:60px;"">+</div>","null","html-keyboard-response","244","198766","0.0-6.0-0.119","FRKA","4","m","rechts","22","","fixation","","","",""
"688","img/0_270.png","70","image-keyboard-response","245","199455","0.0-6.0-1.119","FRKA","4","m","rechts","22","","","object","f","0","true"
"null","<div style=""font-size:60px;"">+</div>","null","html-keyboard-response","246","199907","0.0-6.0-0.120","FRKA","4","m","rechts","22","","fixation","","","",""
"853","img/150_300.png","74","image-keyboard-response","247","200761","0.0-6.0-1.120","FRKA","4","m","rechts","22","","","object","j","150","true"
"null","<div style=""font-size:60px;"">+</div>","null","html-keyboard-response","248","201262","0.0-6.0-0.121","FRKA","4","m","rechts","22","","fixation","","","",""
"822","img/60_150.png","74","image-keyboard-response","249","202085","0.0-6.0-1.121","FRKA","4","m","rechts","22","","","object","j","60","true"
"null","<div style=""font-size:60px;"">+</div>","null","html-keyboard-response","250","202437","0.0-6.0-0.122","FRKA","4","m","rechts","22","","fixation","","","",""
"919","img/60_180.png","70","image-keyboard-response","251","203357","0.0-6.0-1.122","FRKA","4","m","rechts","22","","","object","f","60","true"
"null","<div style=""font-size:60px;"">+</div>","null","html-keyboard-response","252","203809","0.0-6.0-0.123","FRKA","4","m","rechts","22","","fixation","","","",""
"1624","img/90_210.png","74","image-keyboard-response","253","205434","0.0-6.0-1.123","FRKA","4","m","rechts","22","","","object","f","90","false"
"null","<div style=""font-size:60px;"">+</div>","null","html-keyboard-response","254","205736","0.0-6.0-0.124","FRKA","4","m","rechts","22","","fixation","","","",""
"1066","img/30_60.png","74","image-keyboard-response","255","206803","0.0-6.0-1.124","FRKA","4","m","rechts","22","","","object","j","30","true"
"null","<div style=""font-size:60px;"">+</div>","null","html-keyboard-response","256","207155","0.0-6.0-0.125","FRKA","4","m","rechts","22","","fixation","","","",""
"805","img/60_270.png","70","image-keyboard-response","257","207961","0.0-6.0-1.125","FRKA","4","m","rechts","22","","","object","f","60","true"
"null","<div style=""font-size:60px;"">+</div>","null","html-keyboard-response","258","208413","0.0-6.0-0.126","FRKA","4","m","rechts","22","","fixation","","","",""
"810","img/120_270.png","70","image-keyboard-response","259","209224","0.0-6.0-1.126","FRKA","4","m","rechts","22","","","object","j","120","false"
"null","<div style=""font-size:60px;"">+</div>","null","html-keyboard-response","260","209626","0.0-6.0-0.127","FRKA","4","m","rechts","22","","fixation","","","",""
"713","img/120_330.png","74","image-keyboard-response","261","210340","0.0-6.0-1.127","FRKA","4","m","rechts","22","","","object","j","120","true"
"null","<div style=""font-size:60px;"">+</div>","null","html-keyboard-response","262","210692","0.0-6.0-0.128","FRKA","4","m","rechts","22","","fixation","","","",""
"933","img/L120_180.png","74","image-keyboard-response","263","211626","0.0-6.0-1.128","FRKA","4","m","rechts","22","","","object","j","120","true"
"null","<div style=""font-size:60px;"">+</div>","null","html-keyboard-response","264","212028","0.0-6.0-0.129","FRKA","4","m","rechts","22","","fixation","","","",""
"722","img/120_90.png","70","image-keyboard-response","265","212752","0.0-6.0-1.129","FRKA","4","m","rechts","22","","","object","f","120","true"
"null","<div style=""font-size:60px;"">+</div>","null","html-keyboard-response","266","213253","0.0-6.0-0.130","FRKA","4","m","rechts","22","","fixation","","","",""
"886","img/60_210.png","70","image-keyboard-response","267","214140","0.0-6.0-1.130","FRKA","4","m","rechts","22","","","object","f","60","true"
"null","<div style=""font-size:60px;"">+</div>","null","html-keyboard-response","268","214442","0.0-6.0-0.131","FRKA","4","m","rechts","22","","fixation","","","",""
"2332","img/90_240.png","70","image-keyboard-response","269","216775","0.0-6.0-1.131","FRKA","4","m","rechts","22","","","object","f","90","true"
"null","<div style=""font-size:60px;"">+</div>","null","html-keyboard-response","270","217127","0.0-6.0-0.132","FRKA","4","m","rechts","22","","fixation","","","",""
"796","img/0_30.png","74","image-keyboard-response","271","217924","0.0-6.0-1.132","FRKA","4","m","rechts","22","","","object","j","0","true"
"null","<div style=""font-size:60px;"">+</div>","null","html-keyboard-response","272","218226","0.0-6.0-0.133","FRKA","4","m","rechts","22","","fixation","","","",""
"641","img/0_300.png","70","image-keyboard-response","273","218868","0.0-6.0-1.133","FRKA","4","m","rechts","22","","","object","f","0","true"
"null","<div style=""font-size:60px;"">+</div>","null","html-keyboard-response","274","219220","0.0-6.0-0.134","FRKA","4","m","rechts","22","","fixation","","","",""
"1203","img/120_150.png","74","image-keyboard-response","275","220424","0.0-6.0-1.134","FRKA","4","m","rechts","22","","","object","j","120","true"
"null","<div style=""font-size:60px;"">+</div>","null","html-keyboard-response","276","220926","0.0-6.0-0.135","FRKA","4","m","rechts","22","","fixation","","","",""
"721","img/L30_180.png","74","image-keyboard-response","277","221648","0.0-6.0-1.135","FRKA","4","m","rechts","22","","","object","j","30","true"
"null","<div style=""font-size:60px;"">+</div>","null","html-keyboard-response","278","222100","0.0-6.0-0.136","FRKA","4","m","rechts","22","","fixation","","","",""
"668","img/0_150.png","74","image-keyboard-response","279","222769","0.0-6.0-1.136","FRKA","4","m","rechts","22","","","object","j","0","true"
"null","<div style=""font-size:60px;"">+</div>","null","html-keyboard-response","280","223171","0.0-6.0-0.137","FRKA","4","m","rechts","22","","fixation","","","",""
"589","img/0_240.png","70","image-keyboard-response","281","223761","0.0-6.0-1.137","FRKA","4","m","rechts","22","","","object","f","0","true"
"null","<div style=""font-size:60px;"">+</div>","null","html-keyboard-response","282","224163","0.0-6.0-0.138","FRKA","4","m","rechts","22","","fixation","","","",""
"958","img/150_270.png","74","image-keyboard-response","283","225122","0.0-6.0-1.138","FRKA","4","m","rechts","22","","","object","j","150","true"
"null","<div style=""font-size:60px;"">+</div>","null","html-keyboard-response","284","225624","0.0-6.0-0.139","FRKA","4","m","rechts","22","","fixation","","","",""
"784","img/L90_180.png","74","image-keyboard-response","285","226409","0.0-6.0-1.139","FRKA","4","m","rechts","22","","","object","j","90","true"
"null","<div style=""font-size:60px;"">+</div>","null","html-keyboard-response","286","226711","0.0-6.0-0.140","FRKA","4","m","rechts","22","","fixation","","","",""
"1174","img/150_120.png","70","image-keyboard-response","287","227886","0.0-6.0-1.140","FRKA","4","m","rechts","22","","","object","f","150","true"
"null","<div style=""font-size:60px;"">+</div>","null","html-keyboard-response","288","228188","0.0-6.0-0.141","FRKA","4","m","rechts","22","","fixation","","","",""
"659","img/0_60.png","74","image-keyboard-response","289","228848","0.0-6.0-1.141","FRKA","4","m","rechts","22","","","object","j","0","true"
"null","<div style=""font-size:60px;"">+</div>","null","html-keyboard-response","290","229250","0.0-6.0-0.142","FRKA","4","m","rechts","22","","fixation","","","",""
"621","img/150_60.png","70","image-keyboard-response","291","229872","0.0-6.0-1.142","FRKA","4","m","rechts","22","","","object","f","150","true"
"null","<div style=""font-size:60px;"">+</div>","null","html-keyboard-response","292","230174","0.0-6.0-0.143","FRKA","4","m","rechts","22","","fixation","","","",""
"775","img/30_300.png","70","image-keyboard-response","293","230950","0.0-6.0-1.143","FRKA","4","m","rechts","22","","","object","f","30","true"
"null","<div style=""font-size:60px;"">+</div>","null","html-keyboard-response","294","231452","0.0-6.0-0.144","FRKA","4","m","rechts","22","","fixation","","","",""
"558","img/60_90.png","74","image-keyboard-response","295","232011","0.0-6.0-1.144","FRKA","4","m","rechts","22","","","object","j","60","true"
"null","<div style=""font-size:60px;"">+</div>","null","html-keyboard-response","296","232313","0.0-6.0-0.145","FRKA","4","m","rechts","22","","fixation","","","",""
"1279","img/L150_180.png","74","image-keyboard-response","297","233593","0.0-6.0-1.145","FRKA","4","m","rechts","22","","","object","j","150","true"
"null","<div style=""font-size:60px;"">+</div>","null","html-keyboard-response","298","233995","0.0-6.0-0.146","FRKA","4","m","rechts","22","","fixation","","","",""
"655","img/30_180.png","70","image-keyboard-response","299","234651","0.0-6.0-1.146","FRKA","4","m","rechts","22","","","object","f","30","true"
"null","<div style=""font-size:60px;"">+</div>","null","html-keyboard-response","300","235003","0.0-6.0-0.147","FRKA","4","m","rechts","22","","fixation","","","",""
"1131","img/120_210.png","70","image-keyboard-response","301","236135","0.0-6.0-1.147","FRKA","4","m","rechts","22","","","object","f","120","true"
"null","<div style=""font-size:60px;"">+</div>","null","html-keyboard-response","302","236537","0.0-6.0-0.148","FRKA","4","m","rechts","22","","fixation","","","",""
"659","img/30_240.png","70","image-keyboard-response","303","237197","0.0-6.0-1.148","FRKA","4","m","rechts","22","","","object","f","30","true"
"null","<div style=""font-size:60px;"">+</div>","null","html-keyboard-response","304","237699","0.0-6.0-0.149","FRKA","4","m","rechts","22","","fixation","","","",""
"637","img/150_240.png","70","image-keyboard-response","305","238337","0.0-6.0-1.149","FRKA","4","m","rechts","22","","","object","j","150","false"
"null","<div style=""font-size:60px;"">+</div>","null","html-keyboard-response","306","238839","0.0-6.0-0.150","FRKA","4","m","rechts","22","","fixation","","","",""
"1182","img/30_120.png","74","image-keyboard-response","307","240022","0.0-6.0-1.150","FRKA","4","m","rechts","22","","","object","j","30","true"
"null","<div style=""font-size:60px;"">+</div>","null","html-keyboard-response","308","240474","0.0-6.0-0.151","FRKA","4","m","rechts","22","","fixation","","","",""
"691","img/0_90.png","74","image-keyboard-response","309","241165","0.0-6.0-1.151","FRKA","4","m","rechts","22","","","object","j","0","true"
"null","<div style=""font-size:60px;"">+</div>","null","html-keyboard-response","310","241617","0.0-6.0-0.152","FRKA","4","m","rechts","22","","fixation","","","",""
"670","img/90_30.png","70","image-keyboard-response","311","242288","0.0-6.0-1.152","FRKA","4","m","rechts","22","","","object","f","90","true"
"null","<div style=""font-size:60px;"">+</div>","null","html-keyboard-response","312","242640","0.0-6.0-0.153","FRKA","4","m","rechts","22","","fixation","","","",""
"843","img/120_180.png","70","image-keyboard-response","313","243485","0.0-6.0-1.153","FRKA","4","m","rechts","22","","","object","f","120","true"
"null","<div style=""font-size:60px;"">+</div>","null","html-keyboard-response","314","243937","0.0-6.0-0.154","FRKA","4","m","rechts","22","","fixation","","","",""
"589","img/60_30.png","70","image-keyboard-response","315","244527","0.0-6.0-1.154","FRKA","4","m","rechts","22","","","object","f","60","true"
"null","<div style=""font-size:60px;"">+</div>","null","html-keyboard-response","316","244979","0.0-6.0-0.155","FRKA","4","m","rechts","22","","fixation","","","",""
"846","img/30_90.png","74","image-keyboard-response","317","245826","0.0-6.0-1.155","FRKA","4","m","rechts","22","","","object","j","30","true"
"null","<div style=""font-size:60px;"">+</div>","null","html-keyboard-response","318","246178","0.0-6.0-0.156","FRKA","4","m","rechts","22","","fixation","","","",""
"665","img/0_60.png","74","image-keyboard-response","319","246845","0.0-6.0-1.156","FRKA","4","m","rechts","22","","","object","j","0","true"
"null","<div style=""font-size:60px;"">+</div>","null","html-keyboard-response","320","247147","0.0-6.0-0.157","FRKA","4","m","rechts","22","","fixation","","","",""
"696","img/150_90.png","70","image-keyboard-response","321","247844","0.0-6.0-1.157","FRKA","4","m","rechts","22","","","object","f","150","true"
"null","<div style=""font-size:60px;"">+</div>","null","html-keyboard-response","322","248146","0.0-6.0-0.158","FRKA","4","m","rechts","22","","fixation","","","",""
"686","img/30_120.png","74","image-keyboard-response","323","248833","0.0-6.0-1.158","FRKA","4","m","rechts","22","","","object","j","30","true"
"null","<div style=""font-size:60px;"">+</div>","null","html-keyboard-response","324","249285","0.0-6.0-0.159","FRKA","4","m","rechts","22","","fixation","","","",""
"1119","img/90_240.png","74","image-keyboard-response","325","250405","0.0-6.0-1.159","FRKA","4","m","rechts","22","","","object","f","90","false"
"null","<div style=""font-size:60px;"">+</div>","null","html-keyboard-response","326","250806","0.0-6.0-0.160","FRKA","4","m","rechts","22","","fixation","","","",""
"1482","img/120_210.png","70","image-keyboard-response","327","252290","0.0-6.0-1.160","FRKA","4","m","rechts","22","","","object","f","120","true"
"null","<div style=""font-size:60px;"">+</div>","null","html-keyboard-response","328","252641","0.0-6.0-0.161","FRKA","4","m","rechts","22","","fixation","","","",""
"899","img/120_270.png","74","image-keyboard-response","329","253542","0.0-6.0-1.161","FRKA","4","m","rechts","22","","","object","j","120","true"
"null","<div style=""font-size:60px;"">+</div>","null","html-keyboard-response","330","254044","0.0-6.0-0.162","FRKA","4","m","rechts","22","","fixation","","","",""
"632","img/90_330.png","74","image-keyboard-response","331","254677","0.0-6.0-1.162","FRKA","4","m","rechts","22","","","object","j","90","true"
"null","<div style=""font-size:60px;"">+</div>","null","html-keyboard-response","332","255129","0.0-6.0-0.163","FRKA","4","m","rechts","22","","fixation","","","",""
"690","img/30_300.png","70","image-keyboard-response","333","255820","0.0-6.0-1.163","FRKA","4","m","rechts","22","","","object","f","30","true"
"null","<div style=""font-size:60px;"">+</div>","null","html-keyboard-response","334","256121","0.0-6.0-0.164","FRKA","4","m","rechts","22","","fixation","","","",""
"1552","img/90_210.png","70","image-keyboard-response","335","257674","0.0-6.0-1.164","FRKA","4","m","rechts","22","","","object","f","90","true"
"null","<div style=""font-size:60px;"">+</div>","null","html-keyboard-response","336","258025","0.0-6.0-0.165","FRKA","4","m","rechts","22","","fixation","","","",""
"878","img/90_300.png","74","image-keyboard-response","337","258904","0.0-6.0-1.165","FRKA","4","m","rechts","22","","","object","j","90","true"
"null","<div style=""font-size:60px;"">+</div>","null","html-keyboard-response","338","259306","0.0-6.0-0.166","FRKA","4","m","rechts","22","","fixation","","","",""
"680","img/150_60.png","70","image-keyboard-response","339","259987","0.0-6.0-1.166","FRKA","4","m","rechts","22","","","object","f","150","true"
"null","<div style=""font-size:60px;"">+</div>","null","html-keyboard-response","340","260439","0.0-6.0-0.167","FRKA","4","m","rechts","22","","fixation","","","",""
"698","img/30_240.png","70","image-keyboard-response","341","261138","0.0-6.0-1.167","FRKA","4","m","rechts","22","","","object","f","30","true"
"null","<div style=""font-size:60px;"">+</div>","null","html-keyboard-response","342","261490","0.0-6.0-0.168","FRKA","4","m","rechts","22","","fixation","","","",""
"696","img/0_30.png","74","image-keyboard-response","343","262187","0.0-6.0-1.168","FRKA","4","m","rechts","22","","","object","j","0","true"
"null","<div style=""font-size:60px;"">+</div>","null","html-keyboard-response","344","262539","0.0-6.0-0.169","FRKA","4","m","rechts","22","","fixation","","","",""
"719","img/150_300.png","74","image-keyboard-response","345","263259","0.0-6.0-1.169","FRKA","4","m","rechts","22","","","object","j","150","true"
"null","<div style=""font-size:60px;"">+</div>","null","html-keyboard-response","346","263761","0.0-6.0-0.170","FRKA","4","m","rechts","22","","fixation","","","",""
"666","img/120_90.png","70","image-keyboard-response","347","264428","0.0-6.0-1.170","FRKA","4","m","rechts","22","","","object","f","120","true"
"null","<div style=""font-size:60px;"">+</div>","null","html-keyboard-response","348","264880","0.0-6.0-0.171","FRKA","4","m","rechts","22","","fixation","","","",""
"686","img/0_90.png","74","image-keyboard-response","349","265567","0.0-6.0-1.171","FRKA","4","m","rechts","22","","","object","j","0","true"
"null","<div style=""font-size:60px;"">+</div>","null","html-keyboard-response","350","265919","0.0-6.0-0.172","FRKA","4","m","rechts","22","","fixation","","","",""
"897","img/60_210.png","70","image-keyboard-response","351","266817","0.0-6.0-1.172","FRKA","4","m","rechts","22","","","object","f","60","true"
"null","<div style=""font-size:60px;"">+</div>","null","html-keyboard-response","352","267319","0.0-6.0-0.173","FRKA","4","m","rechts","22","","fixation","","","",""
"997","img/60_90.png","70","image-keyboard-response","353","268317","0.0-6.0-1.173","FRKA","4","m","rechts","22","","","object","j","60","false"
"null","<div style=""font-size:60px;"">+</div>","null","html-keyboard-response","354","268819","0.0-6.0-0.174","FRKA","4","m","rechts","22","","fixation","","","",""
"620","img/60_30.png","70","image-keyboard-response","355","269440","0.0-6.0-1.174","FRKA","4","m","rechts","22","","","object","f","60","true"
"null","<div style=""font-size:60px;"">+</div>","null","html-keyboard-response","356","269792","0.0-6.0-0.175","FRKA","4","m","rechts","22","","fixation","","","",""
"999","img/90_150.png","74","image-keyboard-response","357","270792","0.0-6.0-1.175","FRKA","4","m","rechts","22","","","object","j","90","true"
"null","<div style=""font-size:60px;"">+</div>","null","html-keyboard-response","358","271194","0.0-6.0-0.176","FRKA","4","m","rechts","22","","fixation","","","",""
"720","img/30_180.png","70","image-keyboard-response","359","271915","0.0-6.0-1.176","FRKA","4","m","rechts","22","","","object","f","30","true"
"null","<div style=""font-size:60px;"">+</div>","null","html-keyboard-response","360","272417","0.0-6.0-0.177","FRKA","4","m","rechts","22","","fixation","","","",""
"762","img/90_60.png","70","image-keyboard-response","361","273180","0.0-6.0-1.177","FRKA","4","m","rechts","22","","","object","f","90","true"
"null","<div style=""font-size:60px;"">+</div>","null","html-keyboard-response","362","273681","0.0-6.0-0.178","FRKA","4","m","rechts","22","","fixation","","","",""
"604","img/60_270.png","74","image-keyboard-response","363","274286","0.0-6.0-1.178","FRKA","4","m","rechts","22","","","object","f","60","false"
"null","<div style=""font-size:60px;"">+</div>","null","html-keyboard-response","364","274687","0.0-6.0-0.179","FRKA","4","m","rechts","22","","fixation","","","",""
"587","img/120_150.png","70","image-keyboard-response","365","275275","0.0-6.0-1.179","FRKA","4","m","rechts","22","","","object","j","120","false"
"null","<div style=""font-size:60px;"">+</div>","null","html-keyboard-response","366","275627","0.0-6.0-0.180","FRKA","4","m","rechts","22","","fixation","","","",""
"1296","img/60_180.png","70","image-keyboard-response","367","276925","0.0-6.0-1.180","FRKA","4","m","rechts","22","","","object","f","60","true"
"null","<div style=""font-size:60px;"">+</div>","null","html-keyboard-response","368","277428","0.0-6.0-0.181","FRKA","4","m","rechts","22","","fixation","","","",""
"799","img/30_270.png","70","image-keyboard-response","369","278228","0.0-6.0-1.181","FRKA","4","m","rechts","22","","","object","f","30","true"
"null","<div style=""font-size:60px;"">+</div>","null","html-keyboard-response","370","278730","0.0-6.0-0.182","FRKA","4","m","rechts","22","","fixation","","","",""
"1091","img/150_270.png","74","image-keyboard-response","371","279822","0.0-6.0-1.182","FRKA","4","m","rechts","22","","","object","j","150","true"
"null","<div style=""font-size:60px;"">+</div>","null","html-keyboard-response","372","280174","0.0-6.0-0.183","FRKA","4","m","rechts","22","","fixation","","","",""
"1243","img/150_240.png","70","image-keyboard-response","373","281418","0.0-6.0-1.183","FRKA","4","m","rechts","22","","","object","j","150","false"
"null","<div style=""font-size:60px;"">+</div>","null","html-keyboard-response","374","281720","0.0-6.0-0.184","FRKA","4","m","rechts","22","","fixation","","","",""
"639","img/90_30.png","70","image-keyboard-response","375","282360","0.0-6.0-1.184","FRKA","4","m","rechts","22","","","object","f","90","true"
"null","<div style=""font-size:60px;"">+</div>","null","html-keyboard-response","376","282662","0.0-6.0-0.185","FRKA","4","m","rechts","22","","fixation","","","",""
"577","img/120_30.png","70","image-keyboard-response","377","283240","0.0-6.0-1.185","FRKA","4","m","rechts","22","","","object","f","120","true"
"null","<div style=""font-size:60px;"">+</div>","null","html-keyboard-response","378","283642","0.0-6.0-0.186","FRKA","4","m","rechts","22","","fixation","","","",""
"976","img/120_180.png","70","image-keyboard-response","379","284619","0.0-6.0-1.186","FRKA","4","m","rechts","22","","","object","f","120","true"
"null","<div style=""font-size:60px;"">+</div>","null","html-keyboard-response","380","285021","0.0-6.0-0.187","FRKA","4","m","rechts","22","","fixation","","","",""
"714","img/0_240.png","70","image-keyboard-response","381","285736","0.0-6.0-1.187","FRKA","4","m","rechts","22","","","object","f","0","true"
"null","<div style=""font-size:60px;"">+</div>","null","html-keyboard-response","382","286138","0.0-6.0-0.188","FRKA","4","m","rechts","22","","fixation","","","",""
"713","img/L120_180.png","74","image-keyboard-response","383","286852","0.0-6.0-1.188","FRKA","4","m","rechts","22","","","object","j","120","true"
"null","<div style=""font-size:60px;"">+</div>","null","html-keyboard-response","384","287304","0.0-6.0-0.189","FRKA","4","m","rechts","22","","fixation","","","",""
"583","img/0_300.png","70","image-keyboard-response","385","287888","0.0-6.0-1.189","FRKA","4","m","rechts","22","","","object","f","0","true"
"null","<div style=""font-size:60px;"">+</div>","null","html-keyboard-response","386","288190","0.0-6.0-0.190","FRKA","4","m","rechts","22","","fixation","","","",""
"746","img/150_180.png","70","image-keyboard-response","387","288937","0.0-6.0-1.190","FRKA","4","m","rechts","22","","","object","f","150","true"
"null","<div style=""font-size:60px;"">+</div>","null","html-keyboard-response","388","289339","0.0-6.0-0.191","FRKA","4","m","rechts","22","","fixation","","","",""
"958","img/90_180.png","70","image-keyboard-response","389","290298","0.0-6.0-1.191","FRKA","4","m","rechts","22","","","object","f","90","true"
"null","<div style=""font-size:60px;"">+</div>","null","html-keyboard-response","390","290700","0.0-6.0-0.192","FRKA","4","m","rechts","22","","fixation","","","",""
"672","img/0_270.png","70","image-keyboard-response","391","291373","0.0-6.0-1.192","FRKA","4","m","rechts","22","","","object","f","0","true"
"null","<div style=""font-size:60px;"">+</div>","null","html-keyboard-response","392","291675","0.0-6.0-0.193","FRKA","4","m","rechts","22","","fixation","","","",""
"798","img/0_150.png","74","image-keyboard-response","393","292474","0.0-6.0-1.193","FRKA","4","m","rechts","22","","","object","j","0","true"
"null","<div style=""font-size:60px;"">+</div>","null","html-keyboard-response","394","292976","0.0-6.0-0.194","FRKA","4","m","rechts","22","","fixation","","","",""
"585","img/0_330.png","70","image-keyboard-response","395","293562","0.0-6.0-1.194","FRKA","4","m","rechts","22","","","object","f","0","true"
"null","<div style=""font-size:60px;"">+</div>","null","html-keyboard-response","396","293914","0.0-6.0-0.195","FRKA","4","m","rechts","22","","fixation","","","",""
"523","img/60_330.png","70","image-keyboard-response","397","294438","0.0-6.0-1.195","FRKA","4","m","rechts","22","","","object","j","60","false"
"null","<div style=""font-size:60px;"">+</div>","null","html-keyboard-response","398","294790","0.0-6.0-0.196","FRKA","4","m","rechts","22","","fixation","","","",""
"1907","img/30_60.png","70","image-keyboard-response","399","296698","0.0-6.0-1.196","FRKA","4","m","rechts","22","","","object","j","30","false"
"null","<div style=""font-size:60px;"">+</div>","null","html-keyboard-response","400","297050","0.0-6.0-0.197","FRKA","4","m","rechts","22","","fixation","","","",""
"1077","img/150_120.png","74","image-keyboard-response","401","298128","0.0-6.0-1.197","FRKA","4","m","rechts","22","","","object","f","150","false"
"null","<div style=""font-size:60px;"">+</div>","null","html-keyboard-response","402","298580","0.0-6.0-0.198","FRKA","4","m","rechts","22","","fixation","","","",""
"930","img/0_120.png","74","image-keyboard-response","403","299511","0.0-6.0-1.198","FRKA","4","m","rechts","22","","","object","j","0","true"
"null","<div style=""font-size:60px;"">+</div>","null","html-keyboard-response","404","299813","0.0-6.0-0.199","FRKA","4","m","rechts","22","","fixation","","","",""
"875","img/60_150.png","74","image-keyboard-response","405","300689","0.0-6.0-1.199","FRKA","4","m","rechts","22","","","object","j","60","true"
"null","<div style=""font-size:60px;"">+</div>","null","html-keyboard-response","406","301041","0.0-6.0-0.200","FRKA","4","m","rechts","22","","fixation","","","",""
"709","img/L150_180.png","74","image-keyboard-response","407","301751","0.0-6.0-1.200","FRKA","4","m","rechts","22","","","object","j","150","true"
"null","<div style=""font-size:60px;"">+</div>","null","html-keyboard-response","408","302153","0.0-6.0-0.201","FRKA","4","m","rechts","22","","fixation","","","",""
"713","img/30_90.png","74","image-keyboard-response","409","302867","0.0-6.0-1.201","FRKA","4","m","rechts","22","","","object","j","30","true"
"null","<div style=""font-size:60px;"">+</div>","null","html-keyboard-response","410","303219","0.0-6.0-0.202","FRKA","4","m","rechts","22","","fixation","","","",""
"671","img/0_210.png","70","image-keyboard-response","411","303892","0.0-6.0-1.202","FRKA","4","m","rechts","22","","","object","f","0","true"
"null","<div style=""font-size:60px;"">+</div>","null","html-keyboard-response","412","304394","0.0-6.0-0.203","FRKA","4","m","rechts","22","","fixation","","","",""
"671","img/L90_180.png","74","image-keyboard-response","413","305067","0.0-6.0-1.203","FRKA","4","m","rechts","22","","","object","j","90","true"
"null","<div style=""font-size:60px;"">+</div>","null","html-keyboard-response","414","305369","0.0-6.0-0.204","FRKA","4","m","rechts","22","","fixation","","","",""
"637","img/L60_180.png","74","image-keyboard-response","415","306008","0.0-6.0-1.204","FRKA","4","m","rechts","22","","","object","j","60","true"
"null","<div style=""font-size:60px;"">+</div>","null","html-keyboard-response","416","306410","0.0-6.0-0.205","FRKA","4","m","rechts","22","","fixation","","","",""
"549","img/90_120.png","74","image-keyboard-response","417","306961","0.0-6.0-1.205","FRKA","4","m","rechts","22","","","object","j","90","true"
"null","<div style=""font-size:60px;"">+</div>","null","html-keyboard-response","418","307463","0.0-6.0-0.206","FRKA","4","m","rechts","22","","fixation","","","",""
"700","img/120_330.png","70","image-keyboard-response","419","308165","0.0-6.0-1.206","FRKA","4","m","rechts","22","","","object","j","120","false"
"null","<div style=""font-size:60px;"">+</div>","null","html-keyboard-response","420","308466","0.0-6.0-0.207","FRKA","4","m","rechts","22","","fixation","","","",""
"894","img/L30_180.png","74","image-keyboard-response","421","309362","0.0-6.0-1.207","FRKA","4","m","rechts","22","","","object","j","30","true"
"8412","<p>Du hast in 88% der Versuche korrekt entschieden.</p><p>Deine durchschnittliche Reaktionszeit war  849ms.</p><p>Dr&uuml;cke eine beliebige Taste, um die Session zu beenden. Vielen Dank!</p>","32","html-keyboard-response","422","317775","0.0-7.0","FRKA","4","m","rechts","22","","","","","",""
