"rt","stimulus","key_press","trial_type","trial_index","time_elapsed","internal_node_id","subject","session","sex","handedness","age","responses","test_part","condition","correct_response","angle","correct"
"7845","<p>Mental Rotation Experiment.</p> <p>Dr&uuml;cke eine beliebige Taste, um anzufangen.</p>","32","html-keyboard-response","0","7846","0.0-0.0","FRKA","2","m","rechts","22","","","","","",""
"8778","","","survey-text","1","16625","0.0-1.0","FRKA","2","m","rechts","22","{""Q0"":""FRKA""}","","","","",""
"21481","","","survey-text","2","38107","0.0-2.0","FRKA","2","m","rechts","22","{""Q0"":""2""}","","","","",""
"4133","","","survey-multi-choice","3","42242","0.0-3.0","FRKA","2","m","rechts","22","{""Q0"":""m"",""Q1"":""rechts""}","","","","",""
"3776","","","survey-text","4","46019","0.0-4.0","FRKA","2","m","rechts","22","{""Q0"":""22""}","","","","",""
"12775","<p>Stell dir vor, dass du vor einem runden Tisch stehst, auf dem sich ein blauer Ball am Tischrand befindet. Entlang des Tischrands ist jeweils ein verschieden langer Pfeil. Nun bleibst du an deinem Platz vor dem Tisch und rotierst den Tisch entlang des Pfeils (gleiche Richtung und L&auml;nge). </p> <img src='img/30_180.png'></img> <br><p> Nachdem du diese (vorgestellte) Rotation durchgef&uuml;hrt hast, schau in Richtung der Tischmitte, und entscheide dann, ob der Ball links oder rechts von dir liegt.</p> <p>Dr&uuml;cke die <strong>'f'</strong>-Taste f&uuml;r links, die <strong>'j'</strong>-Taste f&uuml;r rechts.</p><br><p> Das Bild wird jeweils 1 Sekunde lang pr&auml;sentiert. Du hast 3 Sekunden Zeit eine Entscheidung zu treffen.</p>","32","html-keyboard-response","5","58795","0.0-5.0","FRKA","2","m","rechts","22","","","","","",""
"null","<div style=""font-size:60px;"">+</div>","null","html-keyboard-response","6","60298","0.0-6.0-0.0","FRKA","2","m","rechts","22","","fixation","","","",""
"1385","img/120_270.png","74","image-keyboard-response","7","61686","0.0-6.0-1.0","FRKA","2","m","rechts","22","","","object","j","120","true"
"null","<div style=""font-size:60px;"">+</div>","null","html-keyboard-response","8","62138","0.0-6.0-0.1","FRKA","2","m","rechts","22","","fixation","","","",""
"1894","img/90_180.png","70","image-keyboard-response","9","64033","0.0-6.0-1.1","FRKA","2","m","rechts","22","","","object","f","90","true"
"null","<div style=""font-size:60px;"">+</div>","null","html-keyboard-response","10","64385","0.0-6.0-0.2","FRKA","2","m","rechts","22","","fixation","","","",""
"1123","img/120_90.png","70","image-keyboard-response","11","65509","0.0-6.0-1.2","FRKA","2","m","rechts","22","","","object","f","120","true"
"null","<div style=""font-size:60px;"">+</div>","null","html-keyboard-response","12","65961","0.0-6.0-0.3","FRKA","2","m","rechts","22","","fixation","","","",""
"1165","img/90_330.png","74","image-keyboard-response","13","67127","0.0-6.0-1.3","FRKA","2","m","rechts","22","","","object","j","90","true"
"null","<div style=""font-size:60px;"">+</div>","null","html-keyboard-response","14","67429","0.0-6.0-0.4","FRKA","2","m","rechts","22","","fixation","","","",""
"1732","img/90_210.png","74","image-keyboard-response","15","69162","0.0-6.0-1.4","FRKA","2","m","rechts","22","","","object","f","90","false"
"null","<div style=""font-size:60px;"">+</div>","null","html-keyboard-response","16","69614","0.0-6.0-0.5","FRKA","2","m","rechts","22","","fixation","","","",""
"1174","img/150_90.png","70","image-keyboard-response","17","70789","0.0-6.0-1.5","FRKA","2","m","rechts","22","","","object","f","150","true"
"null","<div style=""font-size:60px;"">+</div>","null","html-keyboard-response","18","71141","0.0-6.0-0.6","FRKA","2","m","rechts","22","","fixation","","","",""
"892","img/150_300.png","74","image-keyboard-response","19","72035","0.0-6.0-1.6","FRKA","2","m","rechts","22","","","object","j","150","true"
"null","<div style=""font-size:60px;"">+</div>","null","html-keyboard-response","20","72338","0.0-6.0-0.7","FRKA","2","m","rechts","22","","fixation","","","",""
"1981","img/120_150.png","70","image-keyboard-response","21","74320","0.0-6.0-1.7","FRKA","2","m","rechts","22","","","object","j","120","false"
"null","<div style=""font-size:60px;"">+</div>","null","html-keyboard-response","22","74672","0.0-6.0-0.8","FRKA","2","m","rechts","22","","fixation","","","",""
"818","img/120_330.png","74","image-keyboard-response","23","75491","0.0-6.0-1.8","FRKA","2","m","rechts","22","","","object","j","120","true"
"null","<div style=""font-size:60px;"">+</div>","null","html-keyboard-response","24","75793","0.0-6.0-0.9","FRKA","2","m","rechts","22","","fixation","","","",""
"1075","img/0_60.png","74","image-keyboard-response","25","76870","0.0-6.0-1.9","FRKA","2","m","rechts","22","","","object","j","0","true"
"null","<div style=""font-size:60px;"">+</div>","null","html-keyboard-response","26","77321","0.0-6.0-0.10","FRKA","2","m","rechts","22","","fixation","","","",""
"1661","img/30_270.png","70","image-keyboard-response","27","78984","0.0-6.0-1.10","FRKA","2","m","rechts","22","","","object","f","30","true"
"null","<div style=""font-size:60px;"">+</div>","null","html-keyboard-response","28","79486","0.0-6.0-0.11","FRKA","2","m","rechts","22","","fixation","","","",""
"1141","img/60_210.png","70","image-keyboard-response","29","80629","0.0-6.0-1.11","FRKA","2","m","rechts","22","","","object","f","60","true"
"null","<div style=""font-size:60px;"">+</div>","null","html-keyboard-response","30","81030","0.0-6.0-0.12","FRKA","2","m","rechts","22","","fixation","","","",""
"1876","img/L150_180.png","74","image-keyboard-response","31","82908","0.0-6.0-1.12","FRKA","2","m","rechts","22","","","object","j","150","true"
"null","<div style=""font-size:60px;"">+</div>","null","html-keyboard-response","32","83260","0.0-6.0-0.13","FRKA","2","m","rechts","22","","fixation","","","",""
"891","img/0_300.png","70","image-keyboard-response","33","84152","0.0-6.0-1.13","FRKA","2","m","rechts","22","","","object","f","0","true"
"null","<div style=""font-size:60px;"">+</div>","null","html-keyboard-response","34","84605","0.0-6.0-0.14","FRKA","2","m","rechts","22","","fixation","","","",""
"1932","img/150_180.png","70","image-keyboard-response","35","86538","0.0-6.0-1.14","FRKA","2","m","rechts","22","","","object","f","150","true"
"null","<div style=""font-size:60px;"">+</div>","null","html-keyboard-response","36","87041","0.0-6.0-0.15","FRKA","2","m","rechts","22","","fixation","","","",""
"813","img/120_30.png","70","image-keyboard-response","37","87854","0.0-6.0-1.15","FRKA","2","m","rechts","22","","","object","f","120","true"
"null","<div style=""font-size:60px;"">+</div>","null","html-keyboard-response","38","88256","0.0-6.0-0.16","FRKA","2","m","rechts","22","","fixation","","","",""
"1751","img/150_120.png","70","image-keyboard-response","39","90008","0.0-6.0-1.16","FRKA","2","m","rechts","22","","","object","f","150","true"
"null","<div style=""font-size:60px;"">+</div>","null","html-keyboard-response","40","90360","0.0-6.0-0.17","FRKA","2","m","rechts","22","","fixation","","","",""
"1574","img/150_270.png","74","image-keyboard-response","41","91935","0.0-6.0-1.17","FRKA","2","m","rechts","22","","","object","j","150","true"
"null","<div style=""font-size:60px;"">+</div>","null","html-keyboard-response","42","92437","0.0-6.0-0.18","FRKA","2","m","rechts","22","","fixation","","","",""
"842","img/L60_180.png","74","image-keyboard-response","43","93280","0.0-6.0-1.18","FRKA","2","m","rechts","22","","","object","j","60","true"
"null","<div style=""font-size:60px;"">+</div>","null","html-keyboard-response","44","93582","0.0-6.0-0.19","FRKA","2","m","rechts","22","","fixation","","","",""
"1073","img/0_90.png","74","image-keyboard-response","45","94656","0.0-6.0-1.19","FRKA","2","m","rechts","22","","","object","j","0","true"
"null","<div style=""font-size:60px;"">+</div>","null","html-keyboard-response","46","94957","0.0-6.0-0.20","FRKA","2","m","rechts","22","","fixation","","","",""
"677","img/0_210.png","70","image-keyboard-response","47","95635","0.0-6.0-1.20","FRKA","2","m","rechts","22","","","object","f","0","true"
"null","<div style=""font-size:60px;"">+</div>","null","html-keyboard-response","48","96087","0.0-6.0-0.21","FRKA","2","m","rechts","22","","fixation","","","",""
"620","img/0_120.png","74","image-keyboard-response","49","96708","0.0-6.0-1.21","FRKA","2","m","rechts","22","","","object","j","0","true"
"null","<div style=""font-size:60px;"">+</div>","null","html-keyboard-response","50","97160","0.0-6.0-0.22","FRKA","2","m","rechts","22","","fixation","","","",""
"1747","img/120_180.png","70","image-keyboard-response","51","98908","0.0-6.0-1.22","FRKA","2","m","rechts","22","","","object","f","120","true"
"null","<div style=""font-size:60px;"">+</div>","null","html-keyboard-response","52","99410","0.0-6.0-0.23","FRKA","2","m","rechts","22","","fixation","","","",""
"1001","img/30_90.png","74","image-keyboard-response","53","100412","0.0-6.0-1.23","FRKA","2","m","rechts","22","","","object","j","30","true"
"null","<div style=""font-size:60px;"">+</div>","null","html-keyboard-response","54","100864","0.0-6.0-0.24","FRKA","2","m","rechts","22","","fixation","","","",""
"840","img/0_150.png","74","image-keyboard-response","55","101705","0.0-6.0-1.24","FRKA","2","m","rechts","22","","","object","j","0","true"
"null","<div style=""font-size:60px;"">+</div>","null","html-keyboard-response","56","102057","0.0-6.0-0.25","FRKA","2","m","rechts","22","","fixation","","","",""
"792","img/90_30.png","70","image-keyboard-response","57","102851","0.0-6.0-1.25","FRKA","2","m","rechts","22","","","object","f","90","true"
"null","<div style=""font-size:60px;"">+</div>","null","html-keyboard-response","58","103302","0.0-6.0-0.26","FRKA","2","m","rechts","22","","fixation","","","",""
"1997","img/60_150.png","74","image-keyboard-response","59","105301","0.0-6.0-1.26","FRKA","2","m","rechts","22","","","object","j","60","true"
"null","<div style=""font-size:60px;"">+</div>","null","html-keyboard-response","60","105601","0.0-6.0-0.27","FRKA","2","m","rechts","22","","fixation","","","",""
"897","img/150_60.png","70","image-keyboard-response","61","106500","0.0-6.0-1.27","FRKA","2","m","rechts","22","","","object","f","150","true"
"null","<div style=""font-size:60px;"">+</div>","null","html-keyboard-response","62","106802","0.0-6.0-0.28","FRKA","2","m","rechts","22","","fixation","","","",""
"714","img/0_240.png","70","image-keyboard-response","63","107517","0.0-6.0-1.28","FRKA","2","m","rechts","22","","","object","f","0","true"
"null","<div style=""font-size:60px;"">+</div>","null","html-keyboard-response","64","107870","0.0-6.0-0.29","FRKA","2","m","rechts","22","","fixation","","","",""
"641","img/60_30.png","70","image-keyboard-response","65","108512","0.0-6.0-1.29","FRKA","2","m","rechts","22","","","object","f","60","true"
"null","<div style=""font-size:60px;"">+</div>","null","html-keyboard-response","66","108814","0.0-6.0-0.30","FRKA","2","m","rechts","22","","fixation","","","",""
"2075","img/L90_180.png","74","image-keyboard-response","67","110890","0.0-6.0-1.30","FRKA","2","m","rechts","22","","","object","j","90","true"
"null","<div style=""font-size:60px;"">+</div>","null","html-keyboard-response","68","111392","0.0-6.0-0.31","FRKA","2","m","rechts","22","","fixation","","","",""
"698","img/0_270.png","70","image-keyboard-response","69","112091","0.0-6.0-1.31","FRKA","2","m","rechts","22","","","object","f","0","true"
"null","<div style=""font-size:60px;"">+</div>","null","html-keyboard-response","70","112493","0.0-6.0-0.32","FRKA","2","m","rechts","22","","fixation","","","",""
"694","img/90_60.png","70","image-keyboard-response","71","113188","0.0-6.0-1.32","FRKA","2","m","rechts","22","","","object","f","90","true"
"null","<div style=""font-size:60px;"">+</div>","null","html-keyboard-response","72","113640","0.0-6.0-0.33","FRKA","2","m","rechts","22","","fixation","","","",""
"1110","img/90_240.png","74","image-keyboard-response","73","114751","0.0-6.0-1.33","FRKA","2","m","rechts","22","","","object","f","90","false"
"null","<div style=""font-size:60px;"">+</div>","null","html-keyboard-response","74","115053","0.0-6.0-0.34","FRKA","2","m","rechts","22","","fixation","","","",""
"736","img/150_240.png","74","image-keyboard-response","75","115790","0.0-6.0-1.34","FRKA","2","m","rechts","22","","","object","j","150","true"
"null","<div style=""font-size:60px;"">+</div>","null","html-keyboard-response","76","116292","0.0-6.0-0.35","FRKA","2","m","rechts","22","","fixation","","","",""
"669","img/0_330.png","70","image-keyboard-response","77","116962","0.0-6.0-1.35","FRKA","2","m","rechts","22","","","object","f","0","true"
"null","<div style=""font-size:60px;"">+</div>","null","html-keyboard-response","78","117414","0.0-6.0-0.36","FRKA","2","m","rechts","22","","fixation","","","",""
"581","img/60_330.png","74","image-keyboard-response","79","117996","0.0-6.0-1.36","FRKA","2","m","rechts","22","","","object","j","60","true"
"null","<div style=""font-size:60px;"">+</div>","null","html-keyboard-response","80","118298","0.0-6.0-0.37","FRKA","2","m","rechts","22","","fixation","","","",""
"2239","img/90_150.png","74","image-keyboard-response","81","120538","0.0-6.0-1.37","FRKA","2","m","rechts","22","","","object","j","90","true"
"null","<div style=""font-size:60px;"">+</div>","null","html-keyboard-response","82","121040","0.0-6.0-0.38","FRKA","2","m","rechts","22","","fixation","","","",""
"1374","img/60_180.png","70","image-keyboard-response","83","122416","0.0-6.0-1.38","FRKA","2","m","rechts","22","","","object","f","60","true"
"null","<div style=""font-size:60px;"">+</div>","null","html-keyboard-response","84","122868","0.0-6.0-0.39","FRKA","2","m","rechts","22","","fixation","","","",""
"1514","img/30_300.png","70","image-keyboard-response","85","124384","0.0-6.0-1.39","FRKA","2","m","rechts","22","","","object","f","30","true"
"null","<div style=""font-size:60px;"">+</div>","null","html-keyboard-response","86","124886","0.0-6.0-0.40","FRKA","2","m","rechts","22","","fixation","","","",""
"746","img/0_30.png","74","image-keyboard-response","87","125634","0.0-6.0-1.40","FRKA","2","m","rechts","22","","","object","j","0","true"
"null","<div style=""font-size:60px;"">+</div>","null","html-keyboard-response","88","125986","0.0-6.0-0.41","FRKA","2","m","rechts","22","","fixation","","","",""
"1595","img/L30_180.png","74","image-keyboard-response","89","127583","0.0-6.0-1.41","FRKA","2","m","rechts","22","","","object","j","30","true"
"null","<div style=""font-size:60px;"">+</div>","null","html-keyboard-response","90","128035","0.0-6.0-0.42","FRKA","2","m","rechts","22","","fixation","","","",""
"1967","img/L120_180.png","70","image-keyboard-response","91","130002","0.0-6.0-1.42","FRKA","2","m","rechts","22","","","object","j","120","false"
"null","<div style=""font-size:60px;"">+</div>","null","html-keyboard-response","92","130354","0.0-6.0-0.43","FRKA","2","m","rechts","22","","fixation","","","",""
"790","img/30_60.png","70","image-keyboard-response","93","131145","0.0-6.0-1.43","FRKA","2","m","rechts","22","","","object","j","30","false"
"null","<div style=""font-size:60px;"">+</div>","null","html-keyboard-response","94","131597","0.0-6.0-0.44","FRKA","2","m","rechts","22","","fixation","","","",""
"930","img/30_180.png","70","image-keyboard-response","95","132528","0.0-6.0-1.44","FRKA","2","m","rechts","22","","","object","f","30","true"
"null","<div style=""font-size:60px;"">+</div>","null","html-keyboard-response","96","133030","0.0-6.0-0.45","FRKA","2","m","rechts","22","","fixation","","","",""
"1607","img/60_270.png","74","image-keyboard-response","97","134638","0.0-6.0-1.45","FRKA","2","m","rechts","22","","","object","f","60","false"
"null","<div style=""font-size:60px;"">+</div>","null","html-keyboard-response","98","134940","0.0-6.0-0.46","FRKA","2","m","rechts","22","","fixation","","","",""
"1440","img/30_120.png","74","image-keyboard-response","99","136381","0.0-6.0-1.46","FRKA","2","m","rechts","22","","","object","j","30","true"
"null","<div style=""font-size:60px;"">+</div>","null","html-keyboard-response","100","136683","0.0-6.0-0.47","FRKA","2","m","rechts","22","","fixation","","","",""
"994","img/90_120.png","74","image-keyboard-response","101","137678","0.0-6.0-1.47","FRKA","2","m","rechts","22","","","object","j","90","true"
"null","<div style=""font-size:60px;"">+</div>","null","html-keyboard-response","102","138030","0.0-6.0-0.48","FRKA","2","m","rechts","22","","fixation","","","",""
"1428","img/90_300.png","74","image-keyboard-response","103","139459","0.0-6.0-1.48","FRKA","2","m","rechts","22","","","object","j","90","true"
"null","<div style=""font-size:60px;"">+</div>","null","html-keyboard-response","104","139861","0.0-6.0-0.49","FRKA","2","m","rechts","22","","fixation","","","",""
"1557","img/60_90.png","70","image-keyboard-response","105","141419","0.0-6.0-1.49","FRKA","2","m","rechts","22","","","object","j","60","false"
"null","<div style=""font-size:60px;"">+</div>","null","html-keyboard-response","106","141721","0.0-6.0-0.50","FRKA","2","m","rechts","22","","fixation","","","",""
"1923","img/120_210.png","74","image-keyboard-response","107","143645","0.0-6.0-1.50","FRKA","2","m","rechts","22","","","object","f","120","false"
"null","<div style=""font-size:60px;"">+</div>","null","html-keyboard-response","108","143997","0.0-6.0-0.51","FRKA","2","m","rechts","22","","fixation","","","",""
"840","img/30_240.png","70","image-keyboard-response","109","144838","0.0-6.0-1.51","FRKA","2","m","rechts","22","","","object","f","30","true"
"null","<div style=""font-size:60px;"">+</div>","null","html-keyboard-response","110","145190","0.0-6.0-0.52","FRKA","2","m","rechts","22","","fixation","","","",""
"734","img/120_30.png","70","image-keyboard-response","111","145924","0.0-6.0-1.52","FRKA","2","m","rechts","22","","","object","f","120","true"
"null","<div style=""font-size:60px;"">+</div>","null","html-keyboard-response","112","146276","0.0-6.0-0.53","FRKA","2","m","rechts","22","","fixation","","","",""
"1321","img/150_90.png","70","image-keyboard-response","113","147598","0.0-6.0-1.53","FRKA","2","m","rechts","22","","","object","f","150","true"
"null","<div style=""font-size:60px;"">+</div>","null","html-keyboard-response","114","147900","0.0-6.0-0.54","FRKA","2","m","rechts","22","","fixation","","","",""
"751","img/60_330.png","74","image-keyboard-response","115","148652","0.0-6.0-1.54","FRKA","2","m","rechts","22","","","object","j","60","true"
"null","<div style=""font-size:60px;"">+</div>","null","html-keyboard-response","116","149004","0.0-6.0-0.55","FRKA","2","m","rechts","22","","fixation","","","",""
"775","img/0_90.png","74","image-keyboard-response","117","149779","0.0-6.0-1.55","FRKA","2","m","rechts","22","","","object","j","0","true"
"null","<div style=""font-size:60px;"">+</div>","null","html-keyboard-response","118","150231","0.0-6.0-0.56","FRKA","2","m","rechts","22","","fixation","","","",""
"624","img/30_90.png","74","image-keyboard-response","119","150856","0.0-6.0-1.56","FRKA","2","m","rechts","22","","","object","j","30","true"
"null","<div style=""font-size:60px;"">+</div>","null","html-keyboard-response","120","151208","0.0-6.0-0.57","FRKA","2","m","rechts","22","","fixation","","","",""
"2118","img/90_330.png","74","image-keyboard-response","121","153327","0.0-6.0-1.57","FRKA","2","m","rechts","22","","","object","j","90","true"
"null","<div style=""font-size:60px;"">+</div>","null","html-keyboard-response","122","153779","0.0-6.0-0.58","FRKA","2","m","rechts","22","","fixation","","","",""
"1086","img/120_270.png","74","image-keyboard-response","123","154867","0.0-6.0-1.58","FRKA","2","m","rechts","22","","","object","j","120","true"
"null","<div style=""font-size:60px;"">+</div>","null","html-keyboard-response","124","155168","0.0-6.0-0.59","FRKA","2","m","rechts","22","","fixation","","","",""
"651","img/0_60.png","74","image-keyboard-response","125","155820","0.0-6.0-1.59","FRKA","2","m","rechts","22","","","object","j","0","true"
"null","<div style=""font-size:60px;"">+</div>","null","html-keyboard-response","126","156122","0.0-6.0-0.60","FRKA","2","m","rechts","22","","fixation","","","",""
"772","img/0_210.png","70","image-keyboard-response","127","156895","0.0-6.0-1.60","FRKA","2","m","rechts","22","","","object","f","0","true"
"null","<div style=""font-size:60px;"">+</div>","null","html-keyboard-response","128","157297","0.0-6.0-0.61","FRKA","2","m","rechts","22","","fixation","","","",""
"882","img/30_300.png","70","image-keyboard-response","129","158180","0.0-6.0-1.61","FRKA","2","m","rechts","22","","","object","f","30","true"
"null","<div style=""font-size:60px;"">+</div>","null","html-keyboard-response","130","158632","0.0-6.0-0.62","FRKA","2","m","rechts","22","","fixation","","","",""
"1658","img/90_210.png","70","image-keyboard-response","131","160291","0.0-6.0-1.62","FRKA","2","m","rechts","22","","","object","f","90","true"
"null","<div style=""font-size:60px;"">+</div>","null","html-keyboard-response","132","160793","0.0-6.0-0.63","FRKA","2","m","rechts","22","","fixation","","","",""
"1489","img/L120_180.png","74","image-keyboard-response","133","162283","0.0-6.0-1.63","FRKA","2","m","rechts","22","","","object","j","120","true"
"null","<div style=""font-size:60px;"">+</div>","null","html-keyboard-response","134","162685","0.0-6.0-0.64","FRKA","2","m","rechts","22","","fixation","","","",""
"1644","img/60_210.png","70","image-keyboard-response","135","164330","0.0-6.0-1.64","FRKA","2","m","rechts","22","","","object","f","60","true"
"null","<div style=""font-size:60px;"">+</div>","null","html-keyboard-response","136","164832","0.0-6.0-0.65","FRKA","2","m","rechts","22","","fixation","","","",""
"1626","img/90_150.png","70","image-keyboard-response","137","166459","0.0-6.0-1.65","FRKA","2","m","rechts","22","","","object","j","90","false"
"null","<div style=""font-size:60px;"">+</div>","null","html-keyboard-response","138","166811","0.0-6.0-0.66","FRKA","2","m","rechts","22","","fixation","","","",""
"819","img/120_90.png","70","image-keyboard-response","139","167631","0.0-6.0-1.66","FRKA","2","m","rechts","22","","","object","f","120","true"
"null","<div style=""font-size:60px;"">+</div>","null","html-keyboard-response","140","168083","0.0-6.0-0.67","FRKA","2","m","rechts","22","","fixation","","","",""
"750","img/30_240.png","70","image-keyboard-response","141","168833","0.0-6.0-1.67","FRKA","2","m","rechts","22","","","object","f","30","true"
"null","<div style=""font-size:60px;"">+</div>","null","html-keyboard-response","142","169235","0.0-6.0-0.68","FRKA","2","m","rechts","22","","fixation","","","",""
"900","img/150_60.png","70","image-keyboard-response","143","170135","0.0-6.0-1.68","FRKA","2","m","rechts","22","","","object","f","150","true"
"null","<div style=""font-size:60px;"">+</div>","null","html-keyboard-response","144","170537","0.0-6.0-0.69","FRKA","2","m","rechts","22","","fixation","","","",""
"1502","img/120_330.png","70","image-keyboard-response","145","172039","0.0-6.0-1.69","FRKA","2","m","rechts","22","","","object","j","120","false"
"null","<div style=""font-size:60px;"">+</div>","null","html-keyboard-response","146","172491","0.0-6.0-0.70","FRKA","2","m","rechts","22","","fixation","","","",""
"1072","img/60_30.png","70","image-keyboard-response","147","173565","0.0-6.0-1.70","FRKA","2","m","rechts","22","","","object","f","60","true"
"null","<div style=""font-size:60px;"">+</div>","null","html-keyboard-response","148","174016","0.0-6.0-0.71","FRKA","2","m","rechts","22","","fixation","","","",""
"1380","img/30_120.png","74","image-keyboard-response","149","175397","0.0-6.0-1.71","FRKA","2","m","rechts","22","","","object","j","30","true"
"null","<div style=""font-size:60px;"">+</div>","null","html-keyboard-response","150","175699","0.0-6.0-0.72","FRKA","2","m","rechts","22","","fixation","","","",""
"871","img/0_30.png","74","image-keyboard-response","151","176572","0.0-6.0-1.72","FRKA","2","m","rechts","22","","","object","j","0","true"
"null","<div style=""font-size:60px;"">+</div>","null","html-keyboard-response","152","176974","0.0-6.0-0.73","FRKA","2","m","rechts","22","","fixation","","","",""
"1509","img/90_180.png","70","image-keyboard-response","153","178485","0.0-6.0-1.73","FRKA","2","m","rechts","22","","","object","f","90","true"
"null","<div style=""font-size:60px;"">+</div>","null","html-keyboard-response","154","178837","0.0-6.0-0.74","FRKA","2","m","rechts","22","","fixation","","","",""
"1406","img/150_180.png","70","image-keyboard-response","155","180244","0.0-6.0-1.74","FRKA","2","m","rechts","22","","","object","f","150","true"
"null","<div style=""font-size:60px;"">+</div>","null","html-keyboard-response","156","180545","0.0-6.0-0.75","FRKA","2","m","rechts","22","","fixation","","","",""
"1540","img/150_120.png","74","image-keyboard-response","157","182087","0.0-6.0-1.75","FRKA","2","m","rechts","22","","","object","f","150","false"
"null","<div style=""font-size:60px;"">+</div>","null","html-keyboard-response","158","182388","0.0-6.0-0.76","FRKA","2","m","rechts","22","","fixation","","","",""
"1075","img/90_60.png","70","image-keyboard-response","159","183464","0.0-6.0-1.76","FRKA","2","m","rechts","22","","","object","f","90","true"
"null","<div style=""font-size:60px;"">+</div>","null","html-keyboard-response","160","183766","0.0-6.0-0.77","FRKA","2","m","rechts","22","","fixation","","","",""
"1712","img/L60_180.png","70","image-keyboard-response","161","185479","0.0-6.0-1.77","FRKA","2","m","rechts","22","","","object","j","60","false"
"null","<div style=""font-size:60px;"">+</div>","null","html-keyboard-response","162","185980","0.0-6.0-0.78","FRKA","2","m","rechts","22","","fixation","","","",""
"886","img/0_240.png","70","image-keyboard-response","163","186867","0.0-6.0-1.78","FRKA","2","m","rechts","22","","","object","f","0","true"
"null","<div style=""font-size:60px;"">+</div>","null","html-keyboard-response","164","187319","0.0-6.0-0.79","FRKA","2","m","rechts","22","","fixation","","","",""
"2180","img/120_210.png","70","image-keyboard-response","165","189500","0.0-6.0-1.79","FRKA","2","m","rechts","22","","","object","f","120","true"
"null","<div style=""font-size:60px;"">+</div>","null","html-keyboard-response","166","189952","0.0-6.0-0.80","FRKA","2","m","rechts","22","","fixation","","","",""
"1382","img/120_150.png","70","image-keyboard-response","167","191335","0.0-6.0-1.80","FRKA","2","m","rechts","22","","","object","j","120","false"
"null","<div style=""font-size:60px;"">+</div>","null","html-keyboard-response","168","191837","0.0-6.0-0.81","FRKA","2","m","rechts","22","","fixation","","","",""
"876","img/0_120.png","74","image-keyboard-response","169","192714","0.0-6.0-1.81","FRKA","2","m","rechts","22","","","object","j","0","true"
"null","<div style=""font-size:60px;"">+</div>","null","html-keyboard-response","170","193166","0.0-6.0-0.82","FRKA","2","m","rechts","22","","fixation","","","",""
"903","img/30_180.png","70","image-keyboard-response","171","194070","0.0-6.0-1.82","FRKA","2","m","rechts","22","","","object","f","30","true"
"null","<div style=""font-size:60px;"">+</div>","null","html-keyboard-response","172","194572","0.0-6.0-0.83","FRKA","2","m","rechts","22","","fixation","","","",""
"1640","img/150_300.png","74","image-keyboard-response","173","196213","0.0-6.0-1.83","FRKA","2","m","rechts","22","","","object","j","150","true"
"null","<div style=""font-size:60px;"">+</div>","null","html-keyboard-response","174","196715","0.0-6.0-0.84","FRKA","2","m","rechts","22","","fixation","","","",""
"1876","img/30_60.png","74","image-keyboard-response","175","198592","0.0-6.0-1.84","FRKA","2","m","rechts","22","","","object","j","30","true"
"null","<div style=""font-size:60px;"">+</div>","null","html-keyboard-response","176","199094","0.0-6.0-0.85","FRKA","2","m","rechts","22","","fixation","","","",""
"1973","img/60_90.png","70","image-keyboard-response","177","201068","0.0-6.0-1.85","FRKA","2","m","rechts","22","","","object","j","60","false"
"null","<div style=""font-size:60px;"">+</div>","null","html-keyboard-response","178","201570","0.0-6.0-0.86","FRKA","2","m","rechts","22","","fixation","","","",""
"954","img/150_240.png","70","image-keyboard-response","179","202525","0.0-6.0-1.86","FRKA","2","m","rechts","22","","","object","j","150","false"
"null","<div style=""font-size:60px;"">+</div>","null","html-keyboard-response","180","202877","0.0-6.0-0.87","FRKA","2","m","rechts","22","","fixation","","","",""
"1832","img/90_300.png","74","image-keyboard-response","181","204710","0.0-6.0-1.87","FRKA","2","m","rechts","22","","","object","j","90","true"
"null","<div style=""font-size:60px;"">+</div>","null","html-keyboard-response","182","205212","0.0-6.0-0.88","FRKA","2","m","rechts","22","","fixation","","","",""
"1576","img/90_120.png","70","image-keyboard-response","183","206789","0.0-6.0-1.88","FRKA","2","m","rechts","22","","","object","j","90","false"
"null","<div style=""font-size:60px;"">+</div>","null","html-keyboard-response","184","207141","0.0-6.0-0.89","FRKA","2","m","rechts","22","","fixation","","","",""
"2153","img/60_150.png","74","image-keyboard-response","185","209295","0.0-6.0-1.89","FRKA","2","m","rechts","22","","","object","j","60","true"
"null","<div style=""font-size:60px;"">+</div>","null","html-keyboard-response","186","209597","0.0-6.0-0.90","FRKA","2","m","rechts","22","","fixation","","","",""
"921","img/0_330.png","70","image-keyboard-response","187","210519","0.0-6.0-1.90","FRKA","2","m","rechts","22","","","object","f","0","true"
"null","<div style=""font-size:60px;"">+</div>","null","html-keyboard-response","188","210871","0.0-6.0-0.91","FRKA","2","m","rechts","22","","fixation","","","",""
"897","img/0_300.png","70","image-keyboard-response","189","211769","0.0-6.0-1.91","FRKA","2","m","rechts","22","","","object","f","0","true"
"null","<div style=""font-size:60px;"">+</div>","null","html-keyboard-response","190","212171","0.0-6.0-0.92","FRKA","2","m","rechts","22","","fixation","","","",""
"1177","img/150_270.png","74","image-keyboard-response","191","213349","0.0-6.0-1.92","FRKA","2","m","rechts","22","","","object","j","150","true"
"null","<div style=""font-size:60px;"">+</div>","null","html-keyboard-response","192","213751","0.0-6.0-0.93","FRKA","2","m","rechts","22","","fixation","","","",""
"2094","img/120_180.png","70","image-keyboard-response","193","215846","0.0-6.0-1.93","FRKA","2","m","rechts","22","","","object","f","120","true"
"null","<div style=""font-size:60px;"">+</div>","null","html-keyboard-response","194","216248","0.0-6.0-0.94","FRKA","2","m","rechts","22","","fixation","","","",""
"1793","img/60_180.png","70","image-keyboard-response","195","218042","0.0-6.0-1.94","FRKA","2","m","rechts","22","","","object","f","60","true"
"null","<div style=""font-size:60px;"">+</div>","null","html-keyboard-response","196","218544","0.0-6.0-0.95","FRKA","2","m","rechts","22","","fixation","","","",""
"833","img/90_30.png","70","image-keyboard-response","197","219378","0.0-6.0-1.95","FRKA","2","m","rechts","22","","","object","f","90","true"
"null","<div style=""font-size:60px;"">+</div>","null","html-keyboard-response","198","219730","0.0-6.0-0.96","FRKA","2","m","rechts","22","","fixation","","","",""
"1186","img/30_270.png","70","image-keyboard-response","199","220917","0.0-6.0-1.96","FRKA","2","m","rechts","22","","","object","f","30","true"
"null","<div style=""font-size:60px;"">+</div>","null","html-keyboard-response","200","221319","0.0-6.0-0.97","FRKA","2","m","rechts","22","","fixation","","","",""
"1928","img/L90_180.png","74","image-keyboard-response","201","223247","0.0-6.0-1.97","FRKA","2","m","rechts","22","","","object","j","90","true"
"null","<div style=""font-size:60px;"">+</div>","null","html-keyboard-response","202","223599","0.0-6.0-0.98","FRKA","2","m","rechts","22","","fixation","","","",""
"1519","img/90_240.png","74","image-keyboard-response","203","225119","0.0-6.0-1.98","FRKA","2","m","rechts","22","","","object","f","90","false"
"null","<div style=""font-size:60px;"">+</div>","null","html-keyboard-response","204","225521","0.0-6.0-0.99","FRKA","2","m","rechts","22","","fixation","","","",""
"1743","img/0_150.png","74","image-keyboard-response","205","227264","0.0-6.0-1.99","FRKA","2","m","rechts","22","","","object","j","0","true"
"null","<div style=""font-size:60px;"">+</div>","null","html-keyboard-response","206","227716","0.0-6.0-0.100","FRKA","2","m","rechts","22","","fixation","","","",""
"1550","img/L150_180.png","70","image-keyboard-response","207","229267","0.0-6.0-1.100","FRKA","2","m","rechts","22","","","object","j","150","false"
"null","<div style=""font-size:60px;"">+</div>","null","html-keyboard-response","208","229719","0.0-6.0-0.101","FRKA","2","m","rechts","22","","fixation","","","",""
"1754","img/60_270.png","70","image-keyboard-response","209","231474","0.0-6.0-1.101","FRKA","2","m","rechts","22","","","object","f","60","true"
"null","<div style=""font-size:60px;"">+</div>","null","html-keyboard-response","210","231776","0.0-6.0-0.102","FRKA","2","m","rechts","22","","fixation","","","",""
"1654","img/L30_180.png","74","image-keyboard-response","211","233431","0.0-6.0-1.102","FRKA","2","m","rechts","22","","","object","j","30","true"
"null","<div style=""font-size:60px;"">+</div>","null","html-keyboard-response","212","233782","0.0-6.0-0.103","FRKA","2","m","rechts","22","","fixation","","","",""
"633","img/0_270.png","70","image-keyboard-response","213","234417","0.0-6.0-1.103","FRKA","2","m","rechts","22","","","object","f","0","true"
"null","<div style=""font-size:60px;"">+</div>","null","html-keyboard-response","214","234869","0.0-6.0-0.104","FRKA","2","m","rechts","22","","fixation","","","",""
"781","img/120_330.png","74","image-keyboard-response","215","235650","0.0-6.0-1.104","FRKA","2","m","rechts","22","","","object","j","120","true"
"null","<div style=""font-size:60px;"">+</div>","null","html-keyboard-response","216","236001","0.0-6.0-0.105","FRKA","2","m","rechts","22","","fixation","","","",""
"1873","img/L90_180.png","70","image-keyboard-response","217","237875","0.0-6.0-1.105","FRKA","2","m","rechts","22","","","object","j","90","false"
"null","<div style=""font-size:60px;"">+</div>","null","html-keyboard-response","218","238277","0.0-6.0-0.106","FRKA","2","m","rechts","22","","fixation","","","",""
"836","img/0_210.png","70","image-keyboard-response","219","239115","0.0-6.0-1.106","FRKA","2","m","rechts","22","","","object","f","0","true"
"null","<div style=""font-size:60px;"">+</div>","null","html-keyboard-response","220","239516","0.0-6.0-0.107","FRKA","2","m","rechts","22","","fixation","","","",""
"687","img/90_330.png","74","image-keyboard-response","221","240204","0.0-6.0-1.107","FRKA","2","m","rechts","22","","","object","j","90","true"
"null","<div style=""font-size:60px;"">+</div>","null","html-keyboard-response","222","240706","0.0-6.0-0.108","FRKA","2","m","rechts","22","","fixation","","","",""
"931","img/0_270.png","70","image-keyboard-response","223","241638","0.0-6.0-1.108","FRKA","2","m","rechts","22","","","object","f","0","true"
"null","<div style=""font-size:60px;"">+</div>","null","html-keyboard-response","224","242090","0.0-6.0-0.109","FRKA","2","m","rechts","22","","fixation","","","",""
"559","img/0_240.png","70","image-keyboard-response","225","242650","0.0-6.0-1.109","FRKA","2","m","rechts","22","","","object","f","0","true"
"null","<div style=""font-size:60px;"">+</div>","null","html-keyboard-response","226","243002","0.0-6.0-0.110","FRKA","2","m","rechts","22","","fixation","","","",""
"1064","img/60_210.png","70","image-keyboard-response","227","244068","0.0-6.0-1.110","FRKA","2","m","rechts","22","","","object","f","60","true"
"null","<div style=""font-size:60px;"">+</div>","null","html-keyboard-response","228","244469","0.0-6.0-0.111","FRKA","2","m","rechts","22","","fixation","","","",""
"1511","img/L30_180.png","74","image-keyboard-response","229","245981","0.0-6.0-1.111","FRKA","2","m","rechts","22","","","object","j","30","true"
"null","<div style=""font-size:60px;"">+</div>","null","html-keyboard-response","230","246283","0.0-6.0-0.112","FRKA","2","m","rechts","22","","fixation","","","",""
"922","img/90_210.png","70","image-keyboard-response","231","247206","0.0-6.0-1.112","FRKA","2","m","rechts","22","","","object","f","90","true"
"null","<div style=""font-size:60px;"">+</div>","null","html-keyboard-response","232","247608","0.0-6.0-0.113","FRKA","2","m","rechts","22","","fixation","","","",""
"1733","img/120_90.png","70","image-keyboard-response","233","249342","0.0-6.0-1.113","FRKA","2","m","rechts","22","","","object","f","120","true"
"null","<div style=""font-size:60px;"">+</div>","null","html-keyboard-response","234","249844","0.0-6.0-0.114","FRKA","2","m","rechts","22","","fixation","","","",""
"934","img/90_300.png","74","image-keyboard-response","235","250779","0.0-6.0-1.114","FRKA","2","m","rechts","22","","","object","j","90","true"
"null","<div style=""font-size:60px;"">+</div>","null","html-keyboard-response","236","251281","0.0-6.0-0.115","FRKA","2","m","rechts","22","","fixation","","","",""
"790","img/0_90.png","74","image-keyboard-response","237","252072","0.0-6.0-1.115","FRKA","2","m","rechts","22","","","object","j","0","true"
"null","<div style=""font-size:60px;"">+</div>","null","html-keyboard-response","238","252524","0.0-6.0-0.116","FRKA","2","m","rechts","22","","fixation","","","",""
"2434","img/150_120.png","74","image-keyboard-response","239","254959","0.0-6.0-1.116","FRKA","2","m","rechts","22","","","object","f","150","false"
"null","<div style=""font-size:60px;"">+</div>","null","html-keyboard-response","240","255361","0.0-6.0-0.117","FRKA","2","m","rechts","22","","fixation","","","",""
"909","img/0_30.png","74","image-keyboard-response","241","256271","0.0-6.0-1.117","FRKA","2","m","rechts","22","","","object","j","0","true"
"null","<div style=""font-size:60px;"">+</div>","null","html-keyboard-response","242","256773","0.0-6.0-0.118","FRKA","2","m","rechts","22","","fixation","","","",""
"1153","img/150_60.png","70","image-keyboard-response","243","257927","0.0-6.0-1.118","FRKA","2","m","rechts","22","","","object","f","150","true"
"null","<div style=""font-size:60px;"">+</div>","null","html-keyboard-response","244","258429","0.0-6.0-0.119","FRKA","2","m","rechts","22","","fixation","","","",""
"945","img/0_300.png","70","image-keyboard-response","245","259375","0.0-6.0-1.119","FRKA","2","m","rechts","22","","","object","f","0","true"
"null","<div style=""font-size:60px;"">+</div>","null","html-keyboard-response","246","259877","0.0-6.0-0.120","FRKA","2","m","rechts","22","","fixation","","","",""
"910","img/150_300.png","74","image-keyboard-response","247","260788","0.0-6.0-1.120","FRKA","2","m","rechts","22","","","object","j","150","true"
"null","<div style=""font-size:60px;"">+</div>","null","html-keyboard-response","248","261190","0.0-6.0-0.121","FRKA","2","m","rechts","22","","fixation","","","",""
"1879","img/120_210.png","74","image-keyboard-response","249","263070","0.0-6.0-1.121","FRKA","2","m","rechts","22","","","object","f","120","false"
"null","<div style=""font-size:60px;"">+</div>","null","html-keyboard-response","250","263422","0.0-6.0-0.122","FRKA","2","m","rechts","22","","fixation","","","",""
"1071","img/30_180.png","70","image-keyboard-response","251","264494","0.0-6.0-1.122","FRKA","2","m","rechts","22","","","object","f","30","true"
"null","<div style=""font-size:60px;"">+</div>","null","html-keyboard-response","252","264845","0.0-6.0-0.123","FRKA","2","m","rechts","22","","fixation","","","",""
"1273","img/60_330.png","74","image-keyboard-response","253","266119","0.0-6.0-1.123","FRKA","2","m","rechts","22","","","object","j","60","true"
"null","<div style=""font-size:60px;"">+</div>","null","html-keyboard-response","254","266571","0.0-6.0-0.124","FRKA","2","m","rechts","22","","fixation","","","",""
"917","img/90_60.png","70","image-keyboard-response","255","267489","0.0-6.0-1.124","FRKA","2","m","rechts","22","","","object","f","90","true"
"null","<div style=""font-size:60px;"">+</div>","null","html-keyboard-response","256","267841","0.0-6.0-0.125","FRKA","2","m","rechts","22","","fixation","","","",""
"646","img/0_330.png","70","image-keyboard-response","257","268488","0.0-6.0-1.125","FRKA","2","m","rechts","22","","","object","f","0","true"
"null","<div style=""font-size:60px;"">+</div>","null","html-keyboard-response","258","268840","0.0-6.0-0.126","FRKA","2","m","rechts","22","","fixation","","","",""
"902","img/30_90.png","74","image-keyboard-response","259","269743","0.0-6.0-1.126","FRKA","2","m","rechts","22","","","object","j","30","true"
"null","<div style=""font-size:60px;"">+</div>","null","html-keyboard-response","260","270095","0.0-6.0-0.127","FRKA","2","m","rechts","22","","fixation","","","",""
"2128","img/L150_180.png","74","image-keyboard-response","261","272224","0.0-6.0-1.127","FRKA","2","m","rechts","22","","","object","j","150","true"
"null","<div style=""font-size:60px;"">+</div>","null","html-keyboard-response","262","272676","0.0-6.0-0.128","FRKA","2","m","rechts","22","","fixation","","","",""
"1897","img/60_270.png","70","image-keyboard-response","263","274574","0.0-6.0-1.128","FRKA","2","m","rechts","22","","","object","f","60","true"
"null","<div style=""font-size:60px;"">+</div>","null","html-keyboard-response","264","274976","0.0-6.0-0.129","FRKA","2","m","rechts","22","","fixation","","","",""
"1646","img/150_240.png","74","image-keyboard-response","265","276623","0.0-6.0-1.129","FRKA","2","m","rechts","22","","","object","j","150","true"
"null","<div style=""font-size:60px;"">+</div>","null","html-keyboard-response","266","276975","0.0-6.0-0.130","FRKA","2","m","rechts","22","","fixation","","","",""
"1092","img/150_270.png","74","image-keyboard-response","267","278068","0.0-6.0-1.130","FRKA","2","m","rechts","22","","","object","j","150","true"
"null","<div style=""font-size:60px;"">+</div>","null","html-keyboard-response","268","278370","0.0-6.0-0.131","FRKA","2","m","rechts","22","","fixation","","","",""
"911","img/30_240.png","70","image-keyboard-response","269","279282","0.0-6.0-1.131","FRKA","2","m","rechts","22","","","object","f","30","true"
"null","<div style=""font-size:60px;"">+</div>","null","html-keyboard-response","270","279784","0.0-6.0-0.132","FRKA","2","m","rechts","22","","fixation","","","",""
"1907","img/120_150.png","74","image-keyboard-response","271","281692","0.0-6.0-1.132","FRKA","2","m","rechts","22","","","object","j","120","true"
"null","<div style=""font-size:60px;"">+</div>","null","html-keyboard-response","272","282044","0.0-6.0-0.133","FRKA","2","m","rechts","22","","fixation","","","",""
"1384","img/150_180.png","70","image-keyboard-response","273","283428","0.0-6.0-1.133","FRKA","2","m","rechts","22","","","object","f","150","true"
"null","<div style=""font-size:60px;"">+</div>","null","html-keyboard-response","274","283930","0.0-6.0-0.134","FRKA","2","m","rechts","22","","fixation","","","",""
"1094","img/120_270.png","74","image-keyboard-response","275","285025","0.0-6.0-1.134","FRKA","2","m","rechts","22","","","object","j","120","true"
"null","<div style=""font-size:60px;"">+</div>","null","html-keyboard-response","276","285427","0.0-6.0-0.135","FRKA","2","m","rechts","22","","fixation","","","",""
"1703","img/0_120.png","74","image-keyboard-response","277","287131","0.0-6.0-1.135","FRKA","2","m","rechts","22","","","object","j","0","true"
"null","<div style=""font-size:60px;"">+</div>","null","html-keyboard-response","278","287633","0.0-6.0-0.136","FRKA","2","m","rechts","22","","fixation","","","",""
"1678","img/60_150.png","74","image-keyboard-response","279","289313","0.0-6.0-1.136","FRKA","2","m","rechts","22","","","object","j","60","true"
"null","<div style=""font-size:60px;"">+</div>","null","html-keyboard-response","280","289764","0.0-6.0-0.137","FRKA","2","m","rechts","22","","fixation","","","",""
"806","img/0_60.png","74","image-keyboard-response","281","290572","0.0-6.0-1.137","FRKA","2","m","rechts","22","","","object","j","0","true"
"null","<div style=""font-size:60px;"">+</div>","null","html-keyboard-response","282","291074","0.0-6.0-0.138","FRKA","2","m","rechts","22","","fixation","","","",""
"2297","img/120_180.png","70","image-keyboard-response","283","293372","0.0-6.0-1.138","FRKA","2","m","rechts","22","","","object","f","120","true"
"null","<div style=""font-size:60px;"">+</div>","null","html-keyboard-response","284","293873","0.0-6.0-0.139","FRKA","2","m","rechts","22","","fixation","","","",""
"1905","img/90_120.png","74","image-keyboard-response","285","295779","0.0-6.0-1.139","FRKA","2","m","rechts","22","","","object","j","90","true"
"null","<div style=""font-size:60px;"">+</div>","null","html-keyboard-response","286","296131","0.0-6.0-0.140","FRKA","2","m","rechts","22","","fixation","","","",""
"896","img/30_120.png","74","image-keyboard-response","287","297029","0.0-6.0-1.140","FRKA","2","m","rechts","22","","","object","j","30","true"
"null","<div style=""font-size:60px;"">+</div>","null","html-keyboard-response","288","297480","0.0-6.0-0.141","FRKA","2","m","rechts","22","","fixation","","","",""
"891","img/30_60.png","74","image-keyboard-response","289","298373","0.0-6.0-1.141","FRKA","2","m","rechts","22","","","object","j","30","true"
"null","<div style=""font-size:60px;"">+</div>","null","html-keyboard-response","290","298725","0.0-6.0-0.142","FRKA","2","m","rechts","22","","fixation","","","",""
"1676","img/90_180.png","70","image-keyboard-response","291","300401","0.0-6.0-1.142","FRKA","2","m","rechts","22","","","object","f","90","true"
"null","<div style=""font-size:60px;"">+</div>","null","html-keyboard-response","292","300803","0.0-6.0-0.143","FRKA","2","m","rechts","22","","fixation","","","",""
"1730","img/L60_180.png","74","image-keyboard-response","293","302534","0.0-6.0-1.143","FRKA","2","m","rechts","22","","","object","j","60","true"
"null","<div style=""font-size:60px;"">+</div>","null","html-keyboard-response","294","302985","0.0-6.0-0.144","FRKA","2","m","rechts","22","","fixation","","","",""
"1789","img/90_240.png","70","image-keyboard-response","295","304775","0.0-6.0-1.144","FRKA","2","m","rechts","22","","","object","f","90","true"
"null","<div style=""font-size:60px;"">+</div>","null","html-keyboard-response","296","305127","0.0-6.0-0.145","FRKA","2","m","rechts","22","","fixation","","","",""
"1670","img/60_90.png","74","image-keyboard-response","297","306798","0.0-6.0-1.145","FRKA","2","m","rechts","22","","","object","j","60","true"
"null","<div style=""font-size:60px;"">+</div>","null","html-keyboard-response","298","307250","0.0-6.0-0.146","FRKA","2","m","rechts","22","","fixation","","","",""
"1531","img/30_270.png","70","image-keyboard-response","299","308782","0.0-6.0-1.146","FRKA","2","m","rechts","22","","","object","f","30","true"
"null","<div style=""font-size:60px;"">+</div>","null","html-keyboard-response","300","309233","0.0-6.0-0.147","FRKA","2","m","rechts","22","","fixation","","","",""
"1509","img/60_180.png","70","image-keyboard-response","301","310743","0.0-6.0-1.147","FRKA","2","m","rechts","22","","","object","f","60","true"
"null","<div style=""font-size:60px;"">+</div>","null","html-keyboard-response","302","311045","0.0-6.0-0.148","FRKA","2","m","rechts","22","","fixation","","","",""
"1499","img/90_150.png","74","image-keyboard-response","303","312545","0.0-6.0-1.148","FRKA","2","m","rechts","22","","","object","j","90","true"
"null","<div style=""font-size:60px;"">+</div>","null","html-keyboard-response","304","313047","0.0-6.0-0.149","FRKA","2","m","rechts","22","","fixation","","","",""
"1006","img/120_30.png","70","image-keyboard-response","305","314054","0.0-6.0-1.149","FRKA","2","m","rechts","22","","","object","f","120","true"
"null","<div style=""font-size:60px;"">+</div>","null","html-keyboard-response","306","314456","0.0-6.0-0.150","FRKA","2","m","rechts","22","","fixation","","","",""
"1552","img/150_90.png","70","image-keyboard-response","307","316009","0.0-6.0-1.150","FRKA","2","m","rechts","22","","","object","f","150","true"
"null","<div style=""font-size:60px;"">+</div>","null","html-keyboard-response","308","316311","0.0-6.0-0.151","FRKA","2","m","rechts","22","","fixation","","","",""
"702","img/0_150.png","74","image-keyboard-response","309","317014","0.0-6.0-1.151","FRKA","2","m","rechts","22","","","object","j","0","true"
"null","<div style=""font-size:60px;"">+</div>","null","html-keyboard-response","310","317366","0.0-6.0-0.152","FRKA","2","m","rechts","22","","fixation","","","",""
"1735","img/60_30.png","70","image-keyboard-response","311","319102","0.0-6.0-1.152","FRKA","2","m","rechts","22","","","object","f","60","true"
"null","<div style=""font-size:60px;"">+</div>","null","html-keyboard-response","312","319404","0.0-6.0-0.153","FRKA","2","m","rechts","22","","fixation","","","",""
"958","img/30_300.png","70","image-keyboard-response","313","320363","0.0-6.0-1.153","FRKA","2","m","rechts","22","","","object","f","30","true"
"null","<div style=""font-size:60px;"">+</div>","null","html-keyboard-response","314","320815","0.0-6.0-0.154","FRKA","2","m","rechts","22","","fixation","","","",""
"959","img/90_30.png","70","image-keyboard-response","315","321775","0.0-6.0-1.154","FRKA","2","m","rechts","22","","","object","f","90","true"
"null","<div style=""font-size:60px;"">+</div>","null","html-keyboard-response","316","322277","0.0-6.0-0.155","FRKA","2","m","rechts","22","","fixation","","","",""
"1888","img/L120_180.png","70","image-keyboard-response","317","324166","0.0-6.0-1.155","FRKA","2","m","rechts","22","","","object","j","120","false"
"null","<div style=""font-size:60px;"">+</div>","null","html-keyboard-response","318","324668","0.0-6.0-0.156","FRKA","2","m","rechts","22","","fixation","","","",""
"1955","img/150_180.png","70","image-keyboard-response","319","326624","0.0-6.0-1.156","FRKA","2","m","rechts","22","","","object","f","150","true"
"null","<div style=""font-size:60px;"">+</div>","null","html-keyboard-response","320","326976","0.0-6.0-0.157","FRKA","2","m","rechts","22","","fixation","","","",""
"803","img/90_300.png","74","image-keyboard-response","321","327780","0.0-6.0-1.157","FRKA","2","m","rechts","22","","","object","j","90","true"
"null","<div style=""font-size:60px;"">+</div>","null","html-keyboard-response","322","328082","0.0-6.0-0.158","FRKA","2","m","rechts","22","","fixation","","","",""
"1528","img/120_90.png","70","image-keyboard-response","323","329611","0.0-6.0-1.158","FRKA","2","m","rechts","22","","","object","f","120","true"
"null","<div style=""font-size:60px;"">+</div>","null","html-keyboard-response","324","329913","0.0-6.0-0.159","FRKA","2","m","rechts","22","","fixation","","","",""
"2031","img/120_180.png","70","image-keyboard-response","325","331945","0.0-6.0-1.159","FRKA","2","m","rechts","22","","","object","f","120","true"
"null","<div style=""font-size:60px;"">+</div>","null","html-keyboard-response","326","332447","0.0-6.0-0.160","FRKA","2","m","rechts","22","","fixation","","","",""
"1902","img/L150_180.png","74","image-keyboard-response","327","334350","0.0-6.0-1.160","FRKA","2","m","rechts","22","","","object","j","150","true"
"null","<div style=""font-size:60px;"">+</div>","null","html-keyboard-response","328","334752","0.0-6.0-0.161","FRKA","2","m","rechts","22","","fixation","","","",""
"1745","img/90_120.png","74","image-keyboard-response","329","336498","0.0-6.0-1.161","FRKA","2","m","rechts","22","","","object","j","90","true"
"null","<div style=""font-size:60px;"">+</div>","null","html-keyboard-response","330","336850","0.0-6.0-0.162","FRKA","2","m","rechts","22","","fixation","","","",""
"961","img/90_30.png","70","image-keyboard-response","331","337813","0.0-6.0-1.162","FRKA","2","m","rechts","22","","","object","f","90","true"
"null","<div style=""font-size:60px;"">+</div>","null","html-keyboard-response","332","338315","0.0-6.0-0.163","FRKA","2","m","rechts","22","","fixation","","","",""
"1067","img/L90_180.png","74","image-keyboard-response","333","339383","0.0-6.0-1.163","FRKA","2","m","rechts","22","","","object","j","90","true"
"null","<div style=""font-size:60px;"">+</div>","null","html-keyboard-response","334","339685","0.0-6.0-0.164","FRKA","2","m","rechts","22","","fixation","","","",""
"1455","img/30_60.png","74","image-keyboard-response","335","341142","0.0-6.0-1.164","FRKA","2","m","rechts","22","","","object","j","30","true"
"null","<div style=""font-size:60px;"">+</div>","null","html-keyboard-response","336","341594","0.0-6.0-0.165","FRKA","2","m","rechts","22","","fixation","","","",""
"839","img/0_150.png","74","image-keyboard-response","337","342434","0.0-6.0-1.165","FRKA","2","m","rechts","22","","","object","j","0","true"
"null","<div style=""font-size:60px;"">+</div>","null","html-keyboard-response","338","342935","0.0-6.0-0.166","FRKA","2","m","rechts","22","","fixation","","","",""
"1860","img/30_240.png","70","image-keyboard-response","339","344797","0.0-6.0-1.166","FRKA","2","m","rechts","22","","","object","f","30","true"
"null","<div style=""font-size:60px;"">+</div>","null","html-keyboard-response","340","345149","0.0-6.0-0.167","FRKA","2","m","rechts","22","","fixation","","","",""
"982","img/150_300.png","74","image-keyboard-response","341","346132","0.0-6.0-1.167","FRKA","2","m","rechts","22","","","object","j","150","true"
"null","<div style=""font-size:60px;"">+</div>","null","html-keyboard-response","342","346534","0.0-6.0-0.168","FRKA","2","m","rechts","22","","fixation","","","",""
"983","img/L60_180.png","74","image-keyboard-response","343","347518","0.0-6.0-1.168","FRKA","2","m","rechts","22","","","object","j","60","true"
"null","<div style=""font-size:60px;"">+</div>","null","html-keyboard-response","344","347869","0.0-6.0-0.169","FRKA","2","m","rechts","22","","fixation","","","",""
"801","img/120_270.png","70","image-keyboard-response","345","348672","0.0-6.0-1.169","FRKA","2","m","rechts","22","","","object","j","120","false"
"null","<div style=""font-size:60px;"">+</div>","null","html-keyboard-response","346","349174","0.0-6.0-0.170","FRKA","2","m","rechts","22","","fixation","","","",""
"829","img/60_330.png","74","image-keyboard-response","347","350004","0.0-6.0-1.170","FRKA","2","m","rechts","22","","","object","j","60","true"
"null","<div style=""font-size:60px;"">+</div>","null","html-keyboard-response","348","350506","0.0-6.0-0.171","FRKA","2","m","rechts","22","","fixation","","","",""
"1100","img/150_120.png","70","image-keyboard-response","349","351607","0.0-6.0-1.171","FRKA","2","m","rechts","22","","","object","f","150","true"
"null","<div style=""font-size:60px;"">+</div>","null","html-keyboard-response","350","352009","0.0-6.0-0.172","FRKA","2","m","rechts","22","","fixation","","","",""
"711","img/120_30.png","70","image-keyboard-response","351","352721","0.0-6.0-1.172","FRKA","2","m","rechts","22","","","object","f","120","true"
"null","<div style=""font-size:60px;"">+</div>","null","html-keyboard-response","352","353023","0.0-6.0-0.173","FRKA","2","m","rechts","22","","fixation","","","",""
"1363","img/30_300.png","70","image-keyboard-response","353","354387","0.0-6.0-1.173","FRKA","2","m","rechts","22","","","object","f","30","true"
"null","<div style=""font-size:60px;"">+</div>","null","html-keyboard-response","354","354789","0.0-6.0-0.174","FRKA","2","m","rechts","22","","fixation","","","",""
"837","img/60_150.png","74","image-keyboard-response","355","355628","0.0-6.0-1.174","FRKA","2","m","rechts","22","","","object","j","60","true"
"null","<div style=""font-size:60px;"">+</div>","null","html-keyboard-response","356","356030","0.0-6.0-0.175","FRKA","2","m","rechts","22","","fixation","","","",""
"1539","img/90_240.png","74","image-keyboard-response","357","357570","0.0-6.0-1.175","FRKA","2","m","rechts","22","","","object","f","90","false"
"null","<div style=""font-size:60px;"">+</div>","null","html-keyboard-response","358","358022","0.0-6.0-0.176","FRKA","2","m","rechts","22","","fixation","","","",""
"1320","img/L120_180.png","74","image-keyboard-response","359","359343","0.0-6.0-1.176","FRKA","2","m","rechts","22","","","object","j","120","true"
"null","<div style=""font-size:60px;"">+</div>","null","html-keyboard-response","360","359845","0.0-6.0-0.177","FRKA","2","m","rechts","22","","fixation","","","",""
"779","img/0_270.png","70","image-keyboard-response","361","360625","0.0-6.0-1.177","FRKA","2","m","rechts","22","","","object","f","0","true"
"null","<div style=""font-size:60px;"">+</div>","null","html-keyboard-response","362","360977","0.0-6.0-0.178","FRKA","2","m","rechts","22","","fixation","","","",""
"958","img/30_90.png","74","image-keyboard-response","363","361936","0.0-6.0-1.178","FRKA","2","m","rechts","22","","","object","j","30","true"
"null","<div style=""font-size:60px;"">+</div>","null","html-keyboard-response","364","362288","0.0-6.0-0.179","FRKA","2","m","rechts","22","","fixation","","","",""
"1075","img/60_90.png","74","image-keyboard-response","365","363364","0.0-6.0-1.179","FRKA","2","m","rechts","22","","","object","j","60","true"
"null","<div style=""font-size:60px;"">+</div>","null","html-keyboard-response","366","363666","0.0-6.0-0.180","FRKA","2","m","rechts","22","","fixation","","","",""
"670","img/0_210.png","70","image-keyboard-response","367","364337","0.0-6.0-1.180","FRKA","2","m","rechts","22","","","object","f","0","true"
"null","<div style=""font-size:60px;"">+</div>","null","html-keyboard-response","368","364839","0.0-6.0-0.181","FRKA","2","m","rechts","22","","fixation","","","",""
"536","img/0_240.png","70","image-keyboard-response","369","365376","0.0-6.0-1.181","FRKA","2","m","rechts","22","","","object","f","0","true"
"null","<div style=""font-size:60px;"">+</div>","null","html-keyboard-response","370","365728","0.0-6.0-0.182","FRKA","2","m","rechts","22","","fixation","","","",""
"1620","img/60_180.png","70","image-keyboard-response","371","367349","0.0-6.0-1.182","FRKA","2","m","rechts","22","","","object","f","60","true"
"null","<div style=""font-size:60px;"">+</div>","null","html-keyboard-response","372","367851","0.0-6.0-0.183","FRKA","2","m","rechts","22","","fixation","","","",""
"1292","img/120_150.png","74","image-keyboard-response","373","369144","0.0-6.0-1.183","FRKA","2","m","rechts","22","","","object","j","120","true"
"null","<div style=""font-size:60px;"">+</div>","null","html-keyboard-response","374","369596","0.0-6.0-0.184","FRKA","2","m","rechts","22","","fixation","","","",""
"878","img/90_60.png","70","image-keyboard-response","375","370475","0.0-6.0-1.184","FRKA","2","m","rechts","22","","","object","f","90","true"
"null","<div style=""font-size:60px;"">+</div>","null","html-keyboard-response","376","370827","0.0-6.0-0.185","FRKA","2","m","rechts","22","","fixation","","","",""
"786","img/90_330.png","74","image-keyboard-response","377","371614","0.0-6.0-1.185","FRKA","2","m","rechts","22","","","object","j","90","true"
"null","<div style=""font-size:60px;"">+</div>","null","html-keyboard-response","378","371916","0.0-6.0-0.186","FRKA","2","m","rechts","22","","fixation","","","",""
"742","img/150_90.png","70","image-keyboard-response","379","372659","0.0-6.0-1.186","FRKA","2","m","rechts","22","","","object","f","150","true"
"null","<div style=""font-size:60px;"">+</div>","null","html-keyboard-response","380","372961","0.0-6.0-0.187","FRKA","2","m","rechts","22","","fixation","","","",""
"994","img/90_210.png","70","image-keyboard-response","381","373956","0.0-6.0-1.187","FRKA","2","m","rechts","22","","","object","f","90","true"
"null","<div style=""font-size:60px;"">+</div>","null","html-keyboard-response","382","374358","0.0-6.0-0.188","FRKA","2","m","rechts","22","","fixation","","","",""
"690","img/0_330.png","70","image-keyboard-response","383","375049","0.0-6.0-1.188","FRKA","2","m","rechts","22","","","object","f","0","true"
"null","<div style=""font-size:60px;"">+</div>","null","html-keyboard-response","384","375501","0.0-6.0-0.189","FRKA","2","m","rechts","22","","fixation","","","",""
"986","img/90_180.png","70","image-keyboard-response","385","376488","0.0-6.0-1.189","FRKA","2","m","rechts","22","","","object","f","90","true"
"null","<div style=""font-size:60px;"">+</div>","null","html-keyboard-response","386","376840","0.0-6.0-0.190","FRKA","2","m","rechts","22","","fixation","","","",""
"732","img/30_270.png","70","image-keyboard-response","387","377573","0.0-6.0-1.190","FRKA","2","m","rechts","22","","","object","f","30","true"
"null","<div style=""font-size:60px;"">+</div>","null","html-keyboard-response","388","377975","0.0-6.0-0.191","FRKA","2","m","rechts","22","","fixation","","","",""
"662","img/0_120.png","74","image-keyboard-response","389","378638","0.0-6.0-1.191","FRKA","2","m","rechts","22","","","object","j","0","true"
"null","<div style=""font-size:60px;"">+</div>","null","html-keyboard-response","390","379040","0.0-6.0-0.192","FRKA","2","m","rechts","22","","fixation","","","",""
"762","img/120_330.png","74","image-keyboard-response","391","379803","0.0-6.0-1.192","FRKA","2","m","rechts","22","","","object","j","120","true"
"null","<div style=""font-size:60px;"">+</div>","null","html-keyboard-response","392","380305","0.0-6.0-0.193","FRKA","2","m","rechts","22","","fixation","","","",""
"1398","img/120_210.png","70","image-keyboard-response","393","381704","0.0-6.0-1.193","FRKA","2","m","rechts","22","","","object","f","120","true"
"null","<div style=""font-size:60px;"">+</div>","null","html-keyboard-response","394","382206","0.0-6.0-0.194","FRKA","2","m","rechts","22","","fixation","","","",""
"1274","img/90_150.png","70","image-keyboard-response","395","383481","0.0-6.0-1.194","FRKA","2","m","rechts","22","","","object","j","90","false"
"null","<div style=""font-size:60px;"">+</div>","null","html-keyboard-response","396","383883","0.0-6.0-0.195","FRKA","2","m","rechts","22","","fixation","","","",""
"842","img/60_210.png","70","image-keyboard-response","397","384726","0.0-6.0-1.195","FRKA","2","m","rechts","22","","","object","f","60","true"
"null","<div style=""font-size:60px;"">+</div>","null","html-keyboard-response","398","385128","0.0-6.0-0.196","FRKA","2","m","rechts","22","","fixation","","","",""
"681","img/0_90.png","74","image-keyboard-response","399","385810","0.0-6.0-1.196","FRKA","2","m","rechts","22","","","object","j","0","true"
"null","<div style=""font-size:60px;"">+</div>","null","html-keyboard-response","400","386162","0.0-6.0-0.197","FRKA","2","m","rechts","22","","fixation","","","",""
"700","img/60_270.png","70","image-keyboard-response","401","386863","0.0-6.0-1.197","FRKA","2","m","rechts","22","","","object","f","60","true"
"null","<div style=""font-size:60px;"">+</div>","null","html-keyboard-response","402","387265","0.0-6.0-0.198","FRKA","2","m","rechts","22","","fixation","","","",""
"660","img/0_60.png","74","image-keyboard-response","403","387926","0.0-6.0-1.198","FRKA","2","m","rechts","22","","","object","j","0","true"
"null","<div style=""font-size:60px;"">+</div>","null","html-keyboard-response","404","388328","0.0-6.0-0.199","FRKA","2","m","rechts","22","","fixation","","","",""
"790","img/30_180.png","70","image-keyboard-response","405","389119","0.0-6.0-1.199","FRKA","2","m","rechts","22","","","object","f","30","true"
"null","<div style=""font-size:60px;"">+</div>","null","html-keyboard-response","406","389621","0.0-6.0-0.200","FRKA","2","m","rechts","22","","fixation","","","",""
"1562","img/150_240.png","74","image-keyboard-response","407","391184","0.0-6.0-1.200","FRKA","2","m","rechts","22","","","object","j","150","true"
"null","<div style=""font-size:60px;"">+</div>","null","html-keyboard-response","408","391586","0.0-6.0-0.201","FRKA","2","m","rechts","22","","fixation","","","",""
"1142","img/150_270.png","74","image-keyboard-response","409","392730","0.0-6.0-1.201","FRKA","2","m","rechts","22","","","object","j","150","true"
"null","<div style=""font-size:60px;"">+</div>","null","html-keyboard-response","410","393132","0.0-6.0-0.202","FRKA","2","m","rechts","22","","fixation","","","",""
"705","img/60_30.png","70","image-keyboard-response","411","393838","0.0-6.0-1.202","FRKA","2","m","rechts","22","","","object","f","60","true"
"null","<div style=""font-size:60px;"">+</div>","null","html-keyboard-response","412","394190","0.0-6.0-0.203","FRKA","2","m","rechts","22","","fixation","","","",""
"907","img/30_120.png","74","image-keyboard-response","413","395099","0.0-6.0-1.203","FRKA","2","m","rechts","22","","","object","j","30","true"
"null","<div style=""font-size:60px;"">+</div>","null","html-keyboard-response","414","395401","0.0-6.0-0.204","FRKA","2","m","rechts","22","","fixation","","","",""
"783","img/150_60.png","70","image-keyboard-response","415","396185","0.0-6.0-1.204","FRKA","2","m","rechts","22","","","object","f","150","true"
"null","<div style=""font-size:60px;"">+</div>","null","html-keyboard-response","416","396637","0.0-6.0-0.205","FRKA","2","m","rechts","22","","fixation","","","",""
"694","img/0_300.png","70","image-keyboard-response","417","397332","0.0-6.0-1.205","FRKA","2","m","rechts","22","","","object","f","0","true"
"null","<div style=""font-size:60px;"">+</div>","null","html-keyboard-response","418","397684","0.0-6.0-0.206","FRKA","2","m","rechts","22","","fixation","","","",""
"752","img/L30_180.png","74","image-keyboard-response","419","398437","0.0-6.0-1.206","FRKA","2","m","rechts","22","","","object","j","30","true"
"null","<div style=""font-size:60px;"">+</div>","null","html-keyboard-response","420","398838","0.0-6.0-0.207","FRKA","2","m","rechts","22","","fixation","","","",""
"675","img/0_30.png","74","image-keyboard-response","421","399515","0.0-6.0-1.207","FRKA","2","m","rechts","22","","","object","j","0","true"
"7900","<p>Du hast in 86% der Versuche korrekt entschieden.</p><p>Deine durchschnittliche Reaktionszeit war  1178ms.</p><p>Dr&uuml;cke eine beliebige Taste, um die Session zu beenden. Vielen Dank!</p>","32","html-keyboard-response","422","407416","0.0-7.0","FRKA","2","m","rechts","22","","","","","",""
