"rt","stimulus","key_press","trial_type","trial_index","time_elapsed","internal_node_id","subject","session","sex","handedness","age","responses","test_part","condition","correct_response","angle","correct"
"2862","<p>Mental Rotation Experiment.</p> <p>Dr&uuml;cke eine beliebige Taste, um anzufangen.</p>","32","html-keyboard-response","0","2866","0.0-0.0","FRKA","1","m","rechts","22","","","","","",""
"21738","","","survey-text","1","24606","0.0-1.0","FRKA","1","m","rechts","22","{""Q0"":""FRKA""}","","","","",""
"4226","","","survey-text","2","28835","0.0-2.0","FRKA","1","m","rechts","22","{""Q0"":""1""}","","","","",""
"8814","","","survey-multi-choice","3","37651","0.0-3.0","FRKA","1","m","rechts","22","{""Q0"":""m"",""Q1"":""rechts""}","","","","",""
"2443","","","survey-text","4","40095","0.0-4.0","FRKA","1","m","rechts","22","{""Q0"":""22""}","","","","",""
"1479","<p> Stell dir vor, dass du vor einem runden Tisch stehst, auf dem sich ein blauer Ball am Tischrand befindet. Entlang des Tischrands ist jeweils ein verschieden langer Pfeil. Nun bewegst du dich entlang dieses Pfeils bis an seine Spitze. Wenn du am Ende des Pfeils angekommen bist, schau zur Tischmitte. </p> <img src='img/90_180.png'></img> <br> <p>Entscheide dann, ob der Ball von deiner neuen (vorgestellten) Position links oder rechts von dir liegt.</p> <p>Dr&uuml;cke die <strong>'f'</strong>-Taste f&uuml;r links, die <strong>'j'</strong>-Taste f&uuml;r rechts.</p> <br><p> Das Bild wird jeweils 1 Sekunde lang pr&auml;sentiert. Du hast 3 Sekunden Zeit eine Entscheidung zu treffen.</p>","32","html-keyboard-response","5","41576","0.0-5.0","FRKA","1","m","rechts","22","","","","","",""
"null","<div style=""font-size:60px;"">+</div>","null","html-keyboard-response","6","43080","0.0-6.0-0.0","FRKA","1","m","rechts","22","","fixation","","","",""
"1703","img/120_90.png","70","image-keyboard-response","7","44785","0.0-6.0-1.0","FRKA","1","m","rechts","22","","","self","f","120","true"
"null","<div style=""font-size:60px;"">+</div>","null","html-keyboard-response","8","45237","0.0-6.0-0.1","FRKA","1","m","rechts","22","","fixation","","","",""
"735","img/0_240.png","70","image-keyboard-response","9","45974","0.0-6.0-1.1","FRKA","1","m","rechts","22","","","self","f","0","true"
"null","<div style=""font-size:60px;"">+</div>","null","html-keyboard-response","10","46276","0.0-6.0-0.2","FRKA","1","m","rechts","22","","fixation","","","",""
"992","img/150_240.png","74","image-keyboard-response","11","47269","0.0-6.0-1.2","FRKA","1","m","rechts","22","","","self","j","150","true"
"null","<div style=""font-size:60px;"">+</div>","null","html-keyboard-response","12","47771","0.0-6.0-0.3","FRKA","1","m","rechts","22","","fixation","","","",""
"967","img/L120_180.png","70","image-keyboard-response","13","48739","0.0-6.0-1.3","FRKA","1","m","rechts","22","","","self","f","120","true"
"null","<div style=""font-size:60px;"">+</div>","null","html-keyboard-response","14","49091","0.0-6.0-0.4","FRKA","1","m","rechts","22","","fixation","","","",""
"1003","img/L150_180.png","74","image-keyboard-response","15","50095","0.0-6.0-1.4","FRKA","1","m","rechts","22","","","self","f","150","false"
"null","<div style=""font-size:60px;"">+</div>","null","html-keyboard-response","16","50548","0.0-6.0-0.5","FRKA","1","m","rechts","22","","fixation","","","",""
"1779","img/60_150.png","70","image-keyboard-response","17","52329","0.0-6.0-1.5","FRKA","1","m","rechts","22","","","self","f","60","true"
"null","<div style=""font-size:60px;"">+</div>","null","html-keyboard-response","18","52631","0.0-6.0-0.6","FRKA","1","m","rechts","22","","fixation","","","",""
"1804","img/90_60.png","74","image-keyboard-response","19","54436","0.0-6.0-1.6","FRKA","1","m","rechts","22","","","self","j","90","true"
"null","<div style=""font-size:60px;"">+</div>","null","html-keyboard-response","20","54938","0.0-6.0-0.7","FRKA","1","m","rechts","22","","fixation","","","",""
"717","img/0_270.png","70","image-keyboard-response","21","55658","0.0-6.0-1.7","FRKA","1","m","rechts","22","","","self","f","0","true"
"null","<div style=""font-size:60px;"">+</div>","null","html-keyboard-response","22","56160","0.0-6.0-0.8","FRKA","1","m","rechts","22","","fixation","","","",""
"1262","img/60_210.png","74","image-keyboard-response","23","57423","0.0-6.0-1.8","FRKA","1","m","rechts","22","","","self","j","60","true"
"null","<div style=""font-size:60px;"">+</div>","null","html-keyboard-response","24","57725","0.0-6.0-0.9","FRKA","1","m","rechts","22","","fixation","","","",""
"771","img/0_120.png","74","image-keyboard-response","25","58498","0.0-6.0-1.9","FRKA","1","m","rechts","22","","","self","j","0","true"
"null","<div style=""font-size:60px;"">+</div>","null","html-keyboard-response","26","59000","0.0-6.0-0.10","FRKA","1","m","rechts","22","","fixation","","","",""
"1512","img/150_60.png","70","image-keyboard-response","27","60514","0.0-6.0-1.10","FRKA","1","m","rechts","22","","","self","f","150","true"
"null","<div style=""font-size:60px;"">+</div>","null","html-keyboard-response","28","61015","0.0-6.0-0.11","FRKA","1","m","rechts","22","","fixation","","","",""
"1522","img/90_240.png","74","image-keyboard-response","29","62541","0.0-6.0-1.11","FRKA","1","m","rechts","22","","","self","j","90","true"
"null","<div style=""font-size:60px;"">+</div>","null","html-keyboard-response","30","62993","0.0-6.0-0.12","FRKA","1","m","rechts","22","","fixation","","","",""
"1342","img/L60_180.png","70","image-keyboard-response","31","64337","0.0-6.0-1.12","FRKA","1","m","rechts","22","","","self","f","60","true"
"null","<div style=""font-size:60px;"">+</div>","null","html-keyboard-response","32","64638","0.0-6.0-0.13","FRKA","1","m","rechts","22","","fixation","","","",""
"1581","img/90_210.png","74","image-keyboard-response","33","66222","0.0-6.0-1.13","FRKA","1","m","rechts","22","","","self","j","90","true"
"null","<div style=""font-size:60px;"">+</div>","null","html-keyboard-response","34","66723","0.0-6.0-0.14","FRKA","1","m","rechts","22","","fixation","","","",""
"944","img/30_300.png","70","image-keyboard-response","35","67670","0.0-6.0-1.14","FRKA","1","m","rechts","22","","","self","f","30","true"
"null","<div style=""font-size:60px;"">+</div>","null","html-keyboard-response","36","67971","0.0-6.0-0.15","FRKA","1","m","rechts","22","","fixation","","","",""
"1647","img/150_300.png","74","image-keyboard-response","37","69619","0.0-6.0-1.15","FRKA","1","m","rechts","22","","","self","j","150","true"
"null","<div style=""font-size:60px;"">+</div>","null","html-keyboard-response","38","69971","0.0-6.0-0.16","FRKA","1","m","rechts","22","","fixation","","","",""
"1256","img/90_180.png","74","image-keyboard-response","39","71228","0.0-6.0-1.16","FRKA","1","m","rechts","22","","","self","j","90","true"
"null","<div style=""font-size:60px;"">+</div>","null","html-keyboard-response","40","71630","0.0-6.0-0.17","FRKA","1","m","rechts","22","","fixation","","","",""
"1669","img/120_330.png","70","image-keyboard-response","41","73300","0.0-6.0-1.17","FRKA","1","m","rechts","22","","","self","f","120","true"
"null","<div style=""font-size:60px;"">+</div>","null","html-keyboard-response","42","73602","0.0-6.0-0.18","FRKA","1","m","rechts","22","","fixation","","","",""
"1371","img/120_150.png","70","image-keyboard-response","43","74975","0.0-6.0-1.18","FRKA","1","m","rechts","22","","","self","f","120","true"
"null","<div style=""font-size:60px;"">+</div>","null","html-keyboard-response","44","75327","0.0-6.0-0.19","FRKA","1","m","rechts","22","","fixation","","","",""
"1143","img/90_120.png","70","image-keyboard-response","45","76471","0.0-6.0-1.19","FRKA","1","m","rechts","22","","","self","f","90","true"
"null","<div style=""font-size:60px;"">+</div>","null","html-keyboard-response","46","76873","0.0-6.0-0.20","FRKA","1","m","rechts","22","","fixation","","","",""
"1374","img/30_120.png","74","image-keyboard-response","47","78248","0.0-6.0-1.20","FRKA","1","m","rechts","22","","","self","j","30","true"
"null","<div style=""font-size:60px;"">+</div>","null","html-keyboard-response","48","78750","0.0-6.0-0.21","FRKA","1","m","rechts","22","","fixation","","","",""
"1190","img/150_120.png","70","image-keyboard-response","49","79941","0.0-6.0-1.21","FRKA","1","m","rechts","22","","","self","f","150","true"
"null","<div style=""font-size:60px;"">+</div>","null","html-keyboard-response","50","80393","0.0-6.0-0.22","FRKA","1","m","rechts","22","","fixation","","","",""
"1308","img/90_330.png","70","image-keyboard-response","51","81702","0.0-6.0-1.22","FRKA","1","m","rechts","22","","","self","f","90","true"
"null","<div style=""font-size:60px;"">+</div>","null","html-keyboard-response","52","82154","0.0-6.0-0.23","FRKA","1","m","rechts","22","","fixation","","","",""
"1623","img/30_180.png","74","image-keyboard-response","53","83779","0.0-6.0-1.23","FRKA","1","m","rechts","22","","","self","j","30","true"
"null","<div style=""font-size:60px;"">+</div>","null","html-keyboard-response","54","84082","0.0-6.0-0.24","FRKA","1","m","rechts","22","","fixation","","","",""
"1498","img/60_330.png","70","image-keyboard-response","55","85581","0.0-6.0-1.24","FRKA","1","m","rechts","22","","","self","f","60","true"
"null","<div style=""font-size:60px;"">+</div>","null","html-keyboard-response","56","86083","0.0-6.0-0.25","FRKA","1","m","rechts","22","","fixation","","","",""
"765","img/0_330.png","70","image-keyboard-response","57","86849","0.0-6.0-1.25","FRKA","1","m","rechts","22","","","self","f","0","true"
"null","<div style=""font-size:60px;"">+</div>","null","html-keyboard-response","58","87201","0.0-6.0-0.26","FRKA","1","m","rechts","22","","fixation","","","",""
"1790","img/30_270.png","70","image-keyboard-response","59","88992","0.0-6.0-1.26","FRKA","1","m","rechts","22","","","self","f","30","true"
"null","<div style=""font-size:60px;"">+</div>","null","html-keyboard-response","60","89494","0.0-6.0-0.27","FRKA","1","m","rechts","22","","fixation","","","",""
"764","img/0_300.png","70","image-keyboard-response","61","90259","0.0-6.0-1.27","FRKA","1","m","rechts","22","","","self","f","0","true"
"null","<div style=""font-size:60px;"">+</div>","null","html-keyboard-response","62","90711","0.0-6.0-0.28","FRKA","1","m","rechts","22","","fixation","","","",""
"1383","img/0_150.png","74","image-keyboard-response","63","92095","0.0-6.0-1.28","FRKA","1","m","rechts","22","","","self","j","0","true"
"null","<div style=""font-size:60px;"">+</div>","null","html-keyboard-response","64","92547","0.0-6.0-0.29","FRKA","1","m","rechts","22","","fixation","","","",""
"1374","img/30_90.png","70","image-keyboard-response","65","93922","0.0-6.0-1.29","FRKA","1","m","rechts","22","","","self","j","30","false"
"null","<div style=""font-size:60px;"">+</div>","null","html-keyboard-response","66","94374","0.0-6.0-0.30","FRKA","1","m","rechts","22","","fixation","","","",""
"1288","img/60_180.png","74","image-keyboard-response","67","95663","0.0-6.0-1.30","FRKA","1","m","rechts","22","","","self","j","60","true"
"null","<div style=""font-size:60px;"">+</div>","null","html-keyboard-response","68","95965","0.0-6.0-0.31","FRKA","1","m","rechts","22","","fixation","","","",""
"745","img/0_210.png","70","image-keyboard-response","69","96711","0.0-6.0-1.31","FRKA","1","m","rechts","22","","","self","f","0","true"
"null","<div style=""font-size:60px;"">+</div>","null","html-keyboard-response","70","97113","0.0-6.0-0.32","FRKA","1","m","rechts","22","","fixation","","","",""
"1448","img/60_30.png","74","image-keyboard-response","71","98562","0.0-6.0-1.32","FRKA","1","m","rechts","22","","","self","j","60","true"
"null","<div style=""font-size:60px;"">+</div>","null","html-keyboard-response","72","98914","0.0-6.0-0.33","FRKA","1","m","rechts","22","","fixation","","","",""
"1540","img/L30_180.png","70","image-keyboard-response","73","100455","0.0-6.0-1.33","FRKA","1","m","rechts","22","","","self","f","30","true"
"null","<div style=""font-size:60px;"">+</div>","null","html-keyboard-response","74","100909","0.0-6.0-0.34","FRKA","1","m","rechts","22","","fixation","","","",""
"709","img/0_60.png","74","image-keyboard-response","75","101619","0.0-6.0-1.34","FRKA","1","m","rechts","22","","","self","j","0","true"
"null","<div style=""font-size:60px;"">+</div>","null","html-keyboard-response","76","102021","0.0-6.0-0.35","FRKA","1","m","rechts","22","","fixation","","","",""
"1375","img/60_270.png","70","image-keyboard-response","77","103397","0.0-6.0-1.35","FRKA","1","m","rechts","22","","","self","f","60","true"
"null","<div style=""font-size:60px;"">+</div>","null","html-keyboard-response","78","103699","0.0-6.0-0.36","FRKA","1","m","rechts","22","","fixation","","","",""
"1438","img/120_270.png","74","image-keyboard-response","79","105138","0.0-6.0-1.36","FRKA","1","m","rechts","22","","","self","j","120","true"
"null","<div style=""font-size:60px;"">+</div>","null","html-keyboard-response","80","105640","0.0-6.0-0.37","FRKA","1","m","rechts","22","","fixation","","","",""
"814","img/120_210.png","74","image-keyboard-response","81","106455","0.0-6.0-1.37","FRKA","1","m","rechts","22","","","self","j","120","true"
"null","<div style=""font-size:60px;"">+</div>","null","html-keyboard-response","82","106907","0.0-6.0-0.38","FRKA","1","m","rechts","22","","fixation","","","",""
"858","img/L90_180.png","70","image-keyboard-response","83","107766","0.0-6.0-1.38","FRKA","1","m","rechts","22","","","self","f","90","true"
"null","<div style=""font-size:60px;"">+</div>","null","html-keyboard-response","84","108268","0.0-6.0-0.39","FRKA","1","m","rechts","22","","fixation","","","",""
"674","img/0_90.png","74","image-keyboard-response","85","108943","0.0-6.0-1.39","FRKA","1","m","rechts","22","","","self","j","0","true"
"null","<div style=""font-size:60px;"">+</div>","null","html-keyboard-response","86","109445","0.0-6.0-0.40","FRKA","1","m","rechts","22","","fixation","","","",""
"635","img/0_30.png","74","image-keyboard-response","87","110081","0.0-6.0-1.40","FRKA","1","m","rechts","22","","","self","j","0","true"
"null","<div style=""font-size:60px;"">+</div>","null","html-keyboard-response","88","110533","0.0-6.0-0.41","FRKA","1","m","rechts","22","","fixation","","","",""
"1189","img/90_300.png","70","image-keyboard-response","89","111724","0.0-6.0-1.41","FRKA","1","m","rechts","22","","","self","f","90","true"
"null","<div style=""font-size:60px;"">+</div>","null","html-keyboard-response","90","112225","0.0-6.0-0.42","FRKA","1","m","rechts","22","","fixation","","","",""
"1456","img/30_240.png","70","image-keyboard-response","91","113683","0.0-6.0-1.42","FRKA","1","m","rechts","22","","","self","f","30","true"
"null","<div style=""font-size:60px;"">+</div>","null","html-keyboard-response","92","114035","0.0-6.0-0.43","FRKA","1","m","rechts","22","","fixation","","","",""
"1248","img/90_150.png","70","image-keyboard-response","93","115285","0.0-6.0-1.43","FRKA","1","m","rechts","22","","","self","f","90","true"
"null","<div style=""font-size:60px;"">+</div>","null","html-keyboard-response","94","115786","0.0-6.0-0.44","FRKA","1","m","rechts","22","","fixation","","","",""
"1107","img/90_30.png","74","image-keyboard-response","95","116895","0.0-6.0-1.44","FRKA","1","m","rechts","22","","","self","j","90","true"
"null","<div style=""font-size:60px;"">+</div>","null","html-keyboard-response","96","117397","0.0-6.0-0.45","FRKA","1","m","rechts","22","","fixation","","","",""
"996","img/30_60.png","74","image-keyboard-response","97","118397","0.0-6.0-1.45","FRKA","1","m","rechts","22","","","self","j","30","true"
"null","<div style=""font-size:60px;"">+</div>","null","html-keyboard-response","98","118899","0.0-6.0-0.46","FRKA","1","m","rechts","22","","fixation","","","",""
"1474","img/60_90.png","74","image-keyboard-response","99","120375","0.0-6.0-1.46","FRKA","1","m","rechts","22","","","self","j","60","true"
"null","<div style=""font-size:60px;"">+</div>","null","html-keyboard-response","100","120877","0.0-6.0-0.47","FRKA","1","m","rechts","22","","fixation","","","",""
"1161","img/150_180.png","74","image-keyboard-response","101","122039","0.0-6.0-1.47","FRKA","1","m","rechts","22","","","self","j","150","true"
"null","<div style=""font-size:60px;"">+</div>","null","html-keyboard-response","102","122441","0.0-6.0-0.48","FRKA","1","m","rechts","22","","fixation","","","",""
"1807","img/120_30.png","74","image-keyboard-response","103","124249","0.0-6.0-1.48","FRKA","1","m","rechts","22","","","self","j","120","true"
"null","<div style=""font-size:60px;"">+</div>","null","html-keyboard-response","104","124601","0.0-6.0-0.49","FRKA","1","m","rechts","22","","fixation","","","",""
"2204","img/150_270.png","74","image-keyboard-response","105","126807","0.0-6.0-1.49","FRKA","1","m","rechts","22","","","self","j","150","true"
"null","<div style=""font-size:60px;"">+</div>","null","html-keyboard-response","106","127259","0.0-6.0-0.50","FRKA","1","m","rechts","22","","fixation","","","",""
"1931","img/150_90.png","70","image-keyboard-response","107","129192","0.0-6.0-1.50","FRKA","1","m","rechts","22","","","self","f","150","true"
"null","<div style=""font-size:60px;"">+</div>","null","html-keyboard-response","108","129594","0.0-6.0-0.51","FRKA","1","m","rechts","22","","fixation","","","",""
"789","img/120_180.png","74","image-keyboard-response","109","130385","0.0-6.0-1.51","FRKA","1","m","rechts","22","","","self","j","120","true"
"null","<div style=""font-size:60px;"">+</div>","null","html-keyboard-response","110","130688","0.0-6.0-0.52","FRKA","1","m","rechts","22","","fixation","","","",""
"875","img/0_330.png","70","image-keyboard-response","111","131563","0.0-6.0-1.52","FRKA","1","m","rechts","22","","","self","f","0","true"
"null","<div style=""font-size:60px;"">+</div>","null","html-keyboard-response","112","132015","0.0-6.0-0.53","FRKA","1","m","rechts","22","","fixation","","","",""
"2519","img/120_30.png","70","image-keyboard-response","113","134536","0.0-6.0-1.53","FRKA","1","m","rechts","22","","","self","j","120","false"
"null","<div style=""font-size:60px;"">+</div>","null","html-keyboard-response","114","134839","0.0-6.0-0.54","FRKA","1","m","rechts","22","","fixation","","","",""
"1373","img/150_180.png","74","image-keyboard-response","115","136213","0.0-6.0-1.54","FRKA","1","m","rechts","22","","","self","j","150","true"
"null","<div style=""font-size:60px;"">+</div>","null","html-keyboard-response","116","136665","0.0-6.0-0.55","FRKA","1","m","rechts","22","","fixation","","","",""
"1902","img/30_240.png","70","image-keyboard-response","117","138568","0.0-6.0-1.55","FRKA","1","m","rechts","22","","","self","f","30","true"
"null","<div style=""font-size:60px;"">+</div>","null","html-keyboard-response","118","138920","0.0-6.0-0.56","FRKA","1","m","rechts","22","","fixation","","","",""
"677","img/0_90.png","74","image-keyboard-response","119","139598","0.0-6.0-1.56","FRKA","1","m","rechts","22","","","self","j","0","true"
"null","<div style=""font-size:60px;"">+</div>","null","html-keyboard-response","120","140050","0.0-6.0-0.57","FRKA","1","m","rechts","22","","fixation","","","",""
"1403","img/150_300.png","74","image-keyboard-response","121","141454","0.0-6.0-1.57","FRKA","1","m","rechts","22","","","self","j","150","true"
"null","<div style=""font-size:60px;"">+</div>","null","html-keyboard-response","122","141906","0.0-6.0-0.58","FRKA","1","m","rechts","22","","fixation","","","",""
"1342","img/60_210.png","74","image-keyboard-response","123","143250","0.0-6.0-1.58","FRKA","1","m","rechts","22","","","self","j","60","true"
"null","<div style=""font-size:60px;"">+</div>","null","html-keyboard-response","124","143552","0.0-6.0-0.59","FRKA","1","m","rechts","22","","fixation","","","",""
"794","img/150_240.png","74","image-keyboard-response","125","144348","0.0-6.0-1.59","FRKA","1","m","rechts","22","","","self","j","150","true"
"null","<div style=""font-size:60px;"">+</div>","null","html-keyboard-response","126","144850","0.0-6.0-0.60","FRKA","1","m","rechts","22","","fixation","","","",""
"851","img/90_330.png","70","image-keyboard-response","127","145702","0.0-6.0-1.60","FRKA","1","m","rechts","22","","","self","f","90","true"
"null","<div style=""font-size:60px;"">+</div>","null","html-keyboard-response","128","146204","0.0-6.0-0.61","FRKA","1","m","rechts","22","","fixation","","","",""
"722","img/120_210.png","74","image-keyboard-response","129","146927","0.0-6.0-1.61","FRKA","1","m","rechts","22","","","self","j","120","true"
"null","<div style=""font-size:60px;"">+</div>","null","html-keyboard-response","130","147229","0.0-6.0-0.62","FRKA","1","m","rechts","22","","fixation","","","",""
"869","img/60_180.png","74","image-keyboard-response","131","148099","0.0-6.0-1.62","FRKA","1","m","rechts","22","","","self","j","60","true"
"null","<div style=""font-size:60px;"">+</div>","null","html-keyboard-response","132","148451","0.0-6.0-0.63","FRKA","1","m","rechts","22","","fixation","","","",""
"887","img/0_210.png","70","image-keyboard-response","133","149339","0.0-6.0-1.63","FRKA","1","m","rechts","22","","","self","f","0","true"
"null","<div style=""font-size:60px;"">+</div>","null","html-keyboard-response","134","149742","0.0-6.0-0.64","FRKA","1","m","rechts","22","","fixation","","","",""
"1142","img/30_90.png","74","image-keyboard-response","135","150886","0.0-6.0-1.64","FRKA","1","m","rechts","22","","","self","j","30","true"
"null","<div style=""font-size:60px;"">+</div>","null","html-keyboard-response","136","151238","0.0-6.0-0.65","FRKA","1","m","rechts","22","","fixation","","","",""
"1168","img/90_30.png","74","image-keyboard-response","137","152407","0.0-6.0-1.65","FRKA","1","m","rechts","22","","","self","j","90","true"
"null","<div style=""font-size:60px;"">+</div>","null","html-keyboard-response","138","152759","0.0-6.0-0.66","FRKA","1","m","rechts","22","","fixation","","","",""
"823","img/120_180.png","74","image-keyboard-response","139","153583","0.0-6.0-1.66","FRKA","1","m","rechts","22","","","self","j","120","true"
"null","<div style=""font-size:60px;"">+</div>","null","html-keyboard-response","140","154085","0.0-6.0-0.67","FRKA","1","m","rechts","22","","fixation","","","",""
"863","img/30_60.png","74","image-keyboard-response","141","154949","0.0-6.0-1.67","FRKA","1","m","rechts","22","","","self","j","30","true"
"null","<div style=""font-size:60px;"">+</div>","null","html-keyboard-response","142","155351","0.0-6.0-0.68","FRKA","1","m","rechts","22","","fixation","","","",""
"839","img/60_270.png","70","image-keyboard-response","143","156191","0.0-6.0-1.68","FRKA","1","m","rechts","22","","","self","f","60","true"
"null","<div style=""font-size:60px;"">+</div>","null","html-keyboard-response","144","156693","0.0-6.0-0.69","FRKA","1","m","rechts","22","","fixation","","","",""
"1073","img/L150_180.png","70","image-keyboard-response","145","157767","0.0-6.0-1.69","FRKA","1","m","rechts","22","","","self","f","150","true"
"null","<div style=""font-size:60px;"">+</div>","null","html-keyboard-response","146","158070","0.0-6.0-0.70","FRKA","1","m","rechts","22","","fixation","","","",""
"802","img/0_30.png","74","image-keyboard-response","147","158873","0.0-6.0-1.70","FRKA","1","m","rechts","22","","","self","j","0","true"
"null","<div style=""font-size:60px;"">+</div>","null","html-keyboard-response","148","159375","0.0-6.0-0.71","FRKA","1","m","rechts","22","","fixation","","","",""
"1140","img/L60_180.png","70","image-keyboard-response","149","160516","0.0-6.0-1.71","FRKA","1","m","rechts","22","","","self","f","60","true"
"null","<div style=""font-size:60px;"">+</div>","null","html-keyboard-response","150","160818","0.0-6.0-0.72","FRKA","1","m","rechts","22","","fixation","","","",""
"1120","img/150_120.png","70","image-keyboard-response","151","161940","0.0-6.0-1.72","FRKA","1","m","rechts","22","","","self","f","150","true"
"null","<div style=""font-size:60px;"">+</div>","null","html-keyboard-response","152","162342","0.0-6.0-0.73","FRKA","1","m","rechts","22","","fixation","","","",""
"898","img/0_150.png","74","image-keyboard-response","153","163242","0.0-6.0-1.73","FRKA","1","m","rechts","22","","","self","j","0","true"
"null","<div style=""font-size:60px;"">+</div>","null","html-keyboard-response","154","163744","0.0-6.0-0.74","FRKA","1","m","rechts","22","","fixation","","","",""
"664","img/0_60.png","74","image-keyboard-response","155","164410","0.0-6.0-1.74","FRKA","1","m","rechts","22","","","self","j","0","true"
"null","<div style=""font-size:60px;"">+</div>","null","html-keyboard-response","156","164762","0.0-6.0-0.75","FRKA","1","m","rechts","22","","fixation","","","",""
"1363","img/90_240.png","74","image-keyboard-response","157","166126","0.0-6.0-1.75","FRKA","1","m","rechts","22","","","self","j","90","true"
"null","<div style=""font-size:60px;"">+</div>","null","html-keyboard-response","158","166478","0.0-6.0-0.76","FRKA","1","m","rechts","22","","fixation","","","",""
"1812","img/30_120.png","74","image-keyboard-response","159","168292","0.0-6.0-1.76","FRKA","1","m","rechts","22","","","self","j","30","true"
"null","<div style=""font-size:60px;"">+</div>","null","html-keyboard-response","160","168694","0.0-6.0-0.77","FRKA","1","m","rechts","22","","fixation","","","",""
"1371","img/150_270.png","74","image-keyboard-response","161","170066","0.0-6.0-1.77","FRKA","1","m","rechts","22","","","self","j","150","true"
"null","<div style=""font-size:60px;"">+</div>","null","html-keyboard-response","162","170468","0.0-6.0-0.78","FRKA","1","m","rechts","22","","fixation","","","",""
"749","img/0_240.png","70","image-keyboard-response","163","171219","0.0-6.0-1.78","FRKA","1","m","rechts","22","","","self","f","0","true"
"null","<div style=""font-size:60px;"">+</div>","null","html-keyboard-response","164","171571","0.0-6.0-0.79","FRKA","1","m","rechts","22","","fixation","","","",""
"1671","img/150_60.png","70","image-keyboard-response","165","173244","0.0-6.0-1.79","FRKA","1","m","rechts","22","","","self","f","150","true"
"null","<div style=""font-size:60px;"">+</div>","null","html-keyboard-response","166","173697","0.0-6.0-0.80","FRKA","1","m","rechts","22","","fixation","","","",""
"893","img/90_150.png","70","image-keyboard-response","167","174592","0.0-6.0-1.80","FRKA","1","m","rechts","22","","","self","f","90","true"
"null","<div style=""font-size:60px;"">+</div>","null","html-keyboard-response","168","175094","0.0-6.0-0.81","FRKA","1","m","rechts","22","","fixation","","","",""
"869","img/150_90.png","70","image-keyboard-response","169","175965","0.0-6.0-1.81","FRKA","1","m","rechts","22","","","self","f","150","true"
"null","<div style=""font-size:60px;"">+</div>","null","html-keyboard-response","170","176266","0.0-6.0-0.82","FRKA","1","m","rechts","22","","fixation","","","",""
"920","img/60_330.png","70","image-keyboard-response","171","177188","0.0-6.0-1.82","FRKA","1","m","rechts","22","","","self","f","60","true"
"null","<div style=""font-size:60px;"">+</div>","null","html-keyboard-response","172","177589","0.0-6.0-0.83","FRKA","1","m","rechts","22","","fixation","","","",""
"1625","img/120_270.png","74","image-keyboard-response","173","179215","0.0-6.0-1.83","FRKA","1","m","rechts","22","","","self","j","120","true"
"null","<div style=""font-size:60px;"">+</div>","null","html-keyboard-response","174","179667","0.0-6.0-0.84","FRKA","1","m","rechts","22","","fixation","","","",""
"1675","img/90_60.png","74","image-keyboard-response","175","181343","0.0-6.0-1.84","FRKA","1","m","rechts","22","","","self","j","90","true"
"null","<div style=""font-size:60px;"">+</div>","null","html-keyboard-response","176","181797","0.0-6.0-0.85","FRKA","1","m","rechts","22","","fixation","","","",""
"1727","img/90_120.png","70","image-keyboard-response","177","183526","0.0-6.0-1.85","FRKA","1","m","rechts","22","","","self","f","90","true"
"null","<div style=""font-size:60px;"">+</div>","null","html-keyboard-response","178","183928","0.0-6.0-0.86","FRKA","1","m","rechts","22","","fixation","","","",""
"1146","img/30_180.png","74","image-keyboard-response","179","185075","0.0-6.0-1.86","FRKA","1","m","rechts","22","","","self","j","30","true"
"null","<div style=""font-size:60px;"">+</div>","null","html-keyboard-response","180","185477","0.0-6.0-0.87","FRKA","1","m","rechts","22","","fixation","","","",""
"1908","img/90_300.png","74","image-keyboard-response","181","187386","0.0-6.0-1.87","FRKA","1","m","rechts","22","","","self","f","90","false"
"null","<div style=""font-size:60px;"">+</div>","null","html-keyboard-response","182","187790","0.0-6.0-0.88","FRKA","1","m","rechts","22","","fixation","","","",""
"1728","img/30_300.png","70","image-keyboard-response","183","189519","0.0-6.0-1.88","FRKA","1","m","rechts","22","","","self","f","30","true"
"null","<div style=""font-size:60px;"">+</div>","null","html-keyboard-response","184","189971","0.0-6.0-0.89","FRKA","1","m","rechts","22","","fixation","","","",""
"1360","img/60_150.png","70","image-keyboard-response","185","191332","0.0-6.0-1.89","FRKA","1","m","rechts","22","","","self","f","60","true"
"null","<div style=""font-size:60px;"">+</div>","null","html-keyboard-response","186","191784","0.0-6.0-0.90","FRKA","1","m","rechts","22","","fixation","","","",""
"771","img/90_210.png","74","image-keyboard-response","187","192556","0.0-6.0-1.90","FRKA","1","m","rechts","22","","","self","j","90","true"
"null","<div style=""font-size:60px;"">+</div>","null","html-keyboard-response","188","193008","0.0-6.0-0.91","FRKA","1","m","rechts","22","","fixation","","","",""
"819","img/90_180.png","74","image-keyboard-response","189","193828","0.0-6.0-1.91","FRKA","1","m","rechts","22","","","self","j","90","true"
"null","<div style=""font-size:60px;"">+</div>","null","html-keyboard-response","190","194330","0.0-6.0-0.92","FRKA","1","m","rechts","22","","fixation","","","",""
"1949","img/60_90.png","70","image-keyboard-response","191","196280","0.0-6.0-1.92","FRKA","1","m","rechts","22","","","self","j","60","false"
"null","<div style=""font-size:60px;"">+</div>","null","html-keyboard-response","192","196682","0.0-6.0-0.93","FRKA","1","m","rechts","22","","fixation","","","",""
"1581","img/120_330.png","70","image-keyboard-response","193","198264","0.0-6.0-1.93","FRKA","1","m","rechts","22","","","self","f","120","true"
"null","<div style=""font-size:60px;"">+</div>","null","html-keyboard-response","194","198716","0.0-6.0-0.94","FRKA","1","m","rechts","22","","fixation","","","",""
"676","img/0_300.png","70","image-keyboard-response","195","199395","0.0-6.0-1.94","FRKA","1","m","rechts","22","","","self","f","0","true"
"null","<div style=""font-size:60px;"">+</div>","null","html-keyboard-response","196","199797","0.0-6.0-0.95","FRKA","1","m","rechts","22","","fixation","","","",""
"1167","img/L30_180.png","70","image-keyboard-response","197","200965","0.0-6.0-1.95","FRKA","1","m","rechts","22","","","self","f","30","true"
"null","<div style=""font-size:60px;"">+</div>","null","html-keyboard-response","198","201267","0.0-6.0-0.96","FRKA","1","m","rechts","22","","fixation","","","",""
"1268","img/30_270.png","70","image-keyboard-response","199","202536","0.0-6.0-1.96","FRKA","1","m","rechts","22","","","self","f","30","true"
"null","<div style=""font-size:60px;"">+</div>","null","html-keyboard-response","200","202838","0.0-6.0-0.97","FRKA","1","m","rechts","22","","fixation","","","",""
"1633","img/120_90.png","70","image-keyboard-response","201","204472","0.0-6.0-1.97","FRKA","1","m","rechts","22","","","self","f","120","true"
"null","<div style=""font-size:60px;"">+</div>","null","html-keyboard-response","202","204924","0.0-6.0-0.98","FRKA","1","m","rechts","22","","fixation","","","",""
"777","img/L120_180.png","70","image-keyboard-response","203","205705","0.0-6.0-1.98","FRKA","1","m","rechts","22","","","self","f","120","true"
"null","<div style=""font-size:60px;"">+</div>","null","html-keyboard-response","204","206208","0.0-6.0-0.99","FRKA","1","m","rechts","22","","fixation","","","",""
"683","img/120_150.png","70","image-keyboard-response","205","206892","0.0-6.0-1.99","FRKA","1","m","rechts","22","","","self","f","120","true"
"null","<div style=""font-size:60px;"">+</div>","null","html-keyboard-response","206","207294","0.0-6.0-0.100","FRKA","1","m","rechts","22","","fixation","","","",""
"826","img/0_120.png","74","image-keyboard-response","207","208121","0.0-6.0-1.100","FRKA","1","m","rechts","22","","","self","j","0","true"
"null","<div style=""font-size:60px;"">+</div>","null","html-keyboard-response","208","208423","0.0-6.0-0.101","FRKA","1","m","rechts","22","","fixation","","","",""
"943","img/60_30.png","70","image-keyboard-response","209","209367","0.0-6.0-1.101","FRKA","1","m","rechts","22","","","self","j","60","false"
"null","<div style=""font-size:60px;"">+</div>","null","html-keyboard-response","210","209869","0.0-6.0-0.102","FRKA","1","m","rechts","22","","fixation","","","",""
"1397","img/0_270.png","70","image-keyboard-response","211","211267","0.0-6.0-1.102","FRKA","1","m","rechts","22","","","self","f","0","true"
"null","<div style=""font-size:60px;"">+</div>","null","html-keyboard-response","212","211568","0.0-6.0-0.103","FRKA","1","m","rechts","22","","fixation","","","",""
"1064","img/L90_180.png","70","image-keyboard-response","213","212634","0.0-6.0-1.103","FRKA","1","m","rechts","22","","","self","f","90","true"
"null","<div style=""font-size:60px;"">+</div>","null","html-keyboard-response","214","212986","0.0-6.0-0.104","FRKA","1","m","rechts","22","","fixation","","","",""
"665","img/90_180.png","74","image-keyboard-response","215","213652","0.0-6.0-1.104","FRKA","1","m","rechts","22","","","self","j","90","true"
"null","<div style=""font-size:60px;"">+</div>","null","html-keyboard-response","216","213954","0.0-6.0-0.105","FRKA","1","m","rechts","22","","fixation","","","",""
"814","img/L150_180.png","70","image-keyboard-response","217","214769","0.0-6.0-1.105","FRKA","1","m","rechts","22","","","self","f","150","true"
"null","<div style=""font-size:60px;"">+</div>","null","html-keyboard-response","218","215071","0.0-6.0-0.106","FRKA","1","m","rechts","22","","fixation","","","",""
"1487","img/90_120.png","70","image-keyboard-response","219","216559","0.0-6.0-1.106","FRKA","1","m","rechts","22","","","self","f","90","true"
"null","<div style=""font-size:60px;"">+</div>","null","html-keyboard-response","220","217011","0.0-6.0-0.107","FRKA","1","m","rechts","22","","fixation","","","",""
"1378","img/30_60.png","74","image-keyboard-response","221","218391","0.0-6.0-1.107","FRKA","1","m","rechts","22","","","self","j","30","true"
"null","<div style=""font-size:60px;"">+</div>","null","html-keyboard-response","222","218843","0.0-6.0-0.108","FRKA","1","m","rechts","22","","fixation","","","",""
"879","img/150_120.png","70","image-keyboard-response","223","219723","0.0-6.0-1.108","FRKA","1","m","rechts","22","","","self","f","150","true"
"null","<div style=""font-size:60px;"">+</div>","null","html-keyboard-response","224","220075","0.0-6.0-0.109","FRKA","1","m","rechts","22","","fixation","","","",""
"616","img/0_120.png","74","image-keyboard-response","225","220692","0.0-6.0-1.109","FRKA","1","m","rechts","22","","","self","j","0","true"
"null","<div style=""font-size:60px;"">+</div>","null","html-keyboard-response","226","221194","0.0-6.0-0.110","FRKA","1","m","rechts","22","","fixation","","","",""
"864","img/90_210.png","74","image-keyboard-response","227","222058","0.0-6.0-1.110","FRKA","1","m","rechts","22","","","self","j","90","true"
"null","<div style=""font-size:60px;"">+</div>","null","html-keyboard-response","228","222410","0.0-6.0-0.111","FRKA","1","m","rechts","22","","fixation","","","",""
"963","img/120_270.png","74","image-keyboard-response","229","223375","0.0-6.0-1.111","FRKA","1","m","rechts","22","","","self","j","120","true"
"null","<div style=""font-size:60px;"">+</div>","null","html-keyboard-response","230","223877","0.0-6.0-0.112","FRKA","1","m","rechts","22","","fixation","","","",""
"647","img/0_270.png","70","image-keyboard-response","231","224526","0.0-6.0-1.112","FRKA","1","m","rechts","22","","","self","f","0","true"
"null","<div style=""font-size:60px;"">+</div>","null","html-keyboard-response","232","224978","0.0-6.0-0.113","FRKA","1","m","rechts","22","","fixation","","","",""
"781","img/60_210.png","74","image-keyboard-response","233","225761","0.0-6.0-1.113","FRKA","1","m","rechts","22","","","self","j","60","true"
"null","<div style=""font-size:60px;"">+</div>","null","html-keyboard-response","234","226163","0.0-6.0-0.114","FRKA","1","m","rechts","22","","fixation","","","",""
"932","img/150_270.png","74","image-keyboard-response","235","227097","0.0-6.0-1.114","FRKA","1","m","rechts","22","","","self","j","150","true"
"null","<div style=""font-size:60px;"">+</div>","null","html-keyboard-response","236","227499","0.0-6.0-0.115","FRKA","1","m","rechts","22","","fixation","","","",""
"1413","img/90_300.png","70","image-keyboard-response","237","228914","0.0-6.0-1.115","FRKA","1","m","rechts","22","","","self","f","90","true"
"null","<div style=""font-size:60px;"">+</div>","null","html-keyboard-response","238","229267","0.0-6.0-0.116","FRKA","1","m","rechts","22","","fixation","","","",""
"782","img/0_240.png","70","image-keyboard-response","239","230051","0.0-6.0-1.116","FRKA","1","m","rechts","22","","","self","f","0","true"
"null","<div style=""font-size:60px;"">+</div>","null","html-keyboard-response","240","230503","0.0-6.0-0.117","FRKA","1","m","rechts","22","","fixation","","","",""
"1913","img/90_60.png","74","image-keyboard-response","241","232418","0.0-6.0-1.117","FRKA","1","m","rechts","22","","","self","j","90","true"
"null","<div style=""font-size:60px;"">+</div>","null","html-keyboard-response","242","232720","0.0-6.0-0.118","FRKA","1","m","rechts","22","","fixation","","","",""
"1472","img/30_300.png","70","image-keyboard-response","243","234192","0.0-6.0-1.118","FRKA","1","m","rechts","22","","","self","f","30","true"
"null","<div style=""font-size:60px;"">+</div>","null","html-keyboard-response","244","234694","0.0-6.0-0.119","FRKA","1","m","rechts","22","","fixation","","","",""
"1448","img/60_30.png","74","image-keyboard-response","245","236143","0.0-6.0-1.119","FRKA","1","m","rechts","22","","","self","j","60","true"
"null","<div style=""font-size:60px;"">+</div>","null","html-keyboard-response","246","236545","0.0-6.0-0.120","FRKA","1","m","rechts","22","","fixation","","","",""
"1916","img/120_330.png","70","image-keyboard-response","247","238462","0.0-6.0-1.120","FRKA","1","m","rechts","22","","","self","f","120","true"
"null","<div style=""font-size:60px;"">+</div>","null","html-keyboard-response","248","238916","0.0-6.0-0.121","FRKA","1","m","rechts","22","","fixation","","","",""
"1667","img/150_300.png","74","image-keyboard-response","249","240584","0.0-6.0-1.121","FRKA","1","m","rechts","22","","","self","j","150","true"
"null","<div style=""font-size:60px;"">+</div>","null","html-keyboard-response","250","241036","0.0-6.0-0.122","FRKA","1","m","rechts","22","","fixation","","","",""
"1271","img/L120_180.png","70","image-keyboard-response","251","242308","0.0-6.0-1.122","FRKA","1","m","rechts","22","","","self","f","120","true"
"null","<div style=""font-size:60px;"">+</div>","null","html-keyboard-response","252","242710","0.0-6.0-0.123","FRKA","1","m","rechts","22","","fixation","","","",""
"1609","img/60_90.png","70","image-keyboard-response","253","244320","0.0-6.0-1.123","FRKA","1","m","rechts","22","","","self","j","60","false"
"null","<div style=""font-size:60px;"">+</div>","null","html-keyboard-response","254","244672","0.0-6.0-0.124","FRKA","1","m","rechts","22","","fixation","","","",""
"1624","img/0_90.png","74","image-keyboard-response","255","246298","0.0-6.0-1.124","FRKA","1","m","rechts","22","","","self","j","0","true"
"null","<div style=""font-size:60px;"">+</div>","null","html-keyboard-response","256","246701","0.0-6.0-0.125","FRKA","1","m","rechts","22","","fixation","","","",""
"1869","img/150_90.png","70","image-keyboard-response","257","248571","0.0-6.0-1.125","FRKA","1","m","rechts","22","","","self","f","150","true"
"null","<div style=""font-size:60px;"">+</div>","null","html-keyboard-response","258","248873","0.0-6.0-0.126","FRKA","1","m","rechts","22","","fixation","","","",""
"741","img/0_150.png","74","image-keyboard-response","259","249615","0.0-6.0-1.126","FRKA","1","m","rechts","22","","","self","j","0","true"
"null","<div style=""font-size:60px;"">+</div>","null","html-keyboard-response","260","249917","0.0-6.0-0.127","FRKA","1","m","rechts","22","","fixation","","","",""
"1809","img/150_240.png","74","image-keyboard-response","261","251727","0.0-6.0-1.127","FRKA","1","m","rechts","22","","","self","j","150","true"
"null","<div style=""font-size:60px;"">+</div>","null","html-keyboard-response","262","252229","0.0-6.0-0.128","FRKA","1","m","rechts","22","","fixation","","","",""
"946","img/150_180.png","74","image-keyboard-response","263","253176","0.0-6.0-1.128","FRKA","1","m","rechts","22","","","self","j","150","true"
"null","<div style=""font-size:60px;"">+</div>","null","html-keyboard-response","264","253630","0.0-6.0-0.129","FRKA","1","m","rechts","22","","fixation","","","",""
"704","img/0_30.png","74","image-keyboard-response","265","254335","0.0-6.0-1.129","FRKA","1","m","rechts","22","","","self","j","0","true"
"null","<div style=""font-size:60px;"">+</div>","null","html-keyboard-response","266","254637","0.0-6.0-0.130","FRKA","1","m","rechts","22","","fixation","","","",""
"1013","img/60_330.png","70","image-keyboard-response","267","255651","0.0-6.0-1.130","FRKA","1","m","rechts","22","","","self","f","60","true"
"null","<div style=""font-size:60px;"">+</div>","null","html-keyboard-response","268","256153","0.0-6.0-0.131","FRKA","1","m","rechts","22","","fixation","","","",""
"956","img/90_330.png","70","image-keyboard-response","269","257110","0.0-6.0-1.131","FRKA","1","m","rechts","22","","","self","f","90","true"
"null","<div style=""font-size:60px;"">+</div>","null","html-keyboard-response","270","257412","0.0-6.0-0.132","FRKA","1","m","rechts","22","","fixation","","","",""
"900","img/0_210.png","70","image-keyboard-response","271","258313","0.0-6.0-1.132","FRKA","1","m","rechts","22","","","self","f","0","true"
"null","<div style=""font-size:60px;"">+</div>","null","html-keyboard-response","272","258715","0.0-6.0-0.133","FRKA","1","m","rechts","22","","fixation","","","",""
"2140","img/L30_180.png","70","image-keyboard-response","273","260856","0.0-6.0-1.133","FRKA","1","m","rechts","22","","","self","f","30","true"
"null","<div style=""font-size:60px;"">+</div>","null","html-keyboard-response","274","261159","0.0-6.0-0.134","FRKA","1","m","rechts","22","","fixation","","","",""
"1326","img/60_150.png","70","image-keyboard-response","275","262486","0.0-6.0-1.134","FRKA","1","m","rechts","22","","","self","f","60","true"
"null","<div style=""font-size:60px;"">+</div>","null","html-keyboard-response","276","262888","0.0-6.0-0.135","FRKA","1","m","rechts","22","","fixation","","","",""
"1605","img/30_120.png","70","image-keyboard-response","277","264494","0.0-6.0-1.135","FRKA","1","m","rechts","22","","","self","j","30","false"
"null","<div style=""font-size:60px;"">+</div>","null","html-keyboard-response","278","264846","0.0-6.0-0.136","FRKA","1","m","rechts","22","","fixation","","","",""
"1584","img/150_60.png","70","image-keyboard-response","279","266431","0.0-6.0-1.136","FRKA","1","m","rechts","22","","","self","f","150","true"
"null","<div style=""font-size:60px;"">+</div>","null","html-keyboard-response","280","266883","0.0-6.0-0.137","FRKA","1","m","rechts","22","","fixation","","","",""
"1071","img/30_270.png","70","image-keyboard-response","281","267956","0.0-6.0-1.137","FRKA","1","m","rechts","22","","","self","f","30","true"
"null","<div style=""font-size:60px;"">+</div>","null","html-keyboard-response","282","268457","0.0-6.0-0.138","FRKA","1","m","rechts","22","","fixation","","","",""
"821","img/120_210.png","74","image-keyboard-response","283","269279","0.0-6.0-1.138","FRKA","1","m","rechts","22","","","self","j","120","true"
"null","<div style=""font-size:60px;"">+</div>","null","html-keyboard-response","284","269631","0.0-6.0-0.139","FRKA","1","m","rechts","22","","fixation","","","",""
"907","img/30_240.png","70","image-keyboard-response","285","270540","0.0-6.0-1.139","FRKA","1","m","rechts","22","","","self","f","30","true"
"null","<div style=""font-size:60px;"">+</div>","null","html-keyboard-response","286","270942","0.0-6.0-0.140","FRKA","1","m","rechts","22","","fixation","","","",""
"888","img/L60_180.png","70","image-keyboard-response","287","271831","0.0-6.0-1.140","FRKA","1","m","rechts","22","","","self","f","60","true"
"null","<div style=""font-size:60px;"">+</div>","null","html-keyboard-response","288","272333","0.0-6.0-0.141","FRKA","1","m","rechts","22","","fixation","","","",""
"773","img/60_180.png","74","image-keyboard-response","289","273107","0.0-6.0-1.141","FRKA","1","m","rechts","22","","","self","j","60","true"
"null","<div style=""font-size:60px;"">+</div>","null","html-keyboard-response","290","273509","0.0-6.0-0.142","FRKA","1","m","rechts","22","","fixation","","","",""
"904","img/60_270.png","70","image-keyboard-response","291","274414","0.0-6.0-1.142","FRKA","1","m","rechts","22","","","self","f","60","true"
"null","<div style=""font-size:60px;"">+</div>","null","html-keyboard-response","292","274716","0.0-6.0-0.143","FRKA","1","m","rechts","22","","fixation","","","",""
"751","img/120_180.png","74","image-keyboard-response","293","275469","0.0-6.0-1.143","FRKA","1","m","rechts","22","","","self","j","120","true"
"null","<div style=""font-size:60px;"">+</div>","null","html-keyboard-response","294","275921","0.0-6.0-0.144","FRKA","1","m","rechts","22","","fixation","","","",""
"675","img/0_330.png","70","image-keyboard-response","295","276597","0.0-6.0-1.144","FRKA","1","m","rechts","22","","","self","f","0","true"
"null","<div style=""font-size:60px;"">+</div>","null","html-keyboard-response","296","277049","0.0-6.0-0.145","FRKA","1","m","rechts","22","","fixation","","","",""
"1155","img/90_240.png","74","image-keyboard-response","297","278206","0.0-6.0-1.145","FRKA","1","m","rechts","22","","","self","j","90","true"
"null","<div style=""font-size:60px;"">+</div>","null","html-keyboard-response","298","278658","0.0-6.0-0.146","FRKA","1","m","rechts","22","","fixation","","","",""
"899","img/90_150.png","70","image-keyboard-response","299","279558","0.0-6.0-1.146","FRKA","1","m","rechts","22","","","self","f","90","true"
"null","<div style=""font-size:60px;"">+</div>","null","html-keyboard-response","300","279910","0.0-6.0-0.147","FRKA","1","m","rechts","22","","fixation","","","",""
"1077","img/0_60.png","74","image-keyboard-response","301","280988","0.0-6.0-1.147","FRKA","1","m","rechts","22","","","self","j","0","true"
"null","<div style=""font-size:60px;"">+</div>","null","html-keyboard-response","302","281490","0.0-6.0-0.148","FRKA","1","m","rechts","22","","fixation","","","",""
"1497","img/120_150.png","70","image-keyboard-response","303","282989","0.0-6.0-1.148","FRKA","1","m","rechts","22","","","self","f","120","true"
"null","<div style=""font-size:60px;"">+</div>","null","html-keyboard-response","304","283491","0.0-6.0-0.149","FRKA","1","m","rechts","22","","fixation","","","",""
"777","img/120_90.png","70","image-keyboard-response","305","284270","0.0-6.0-1.149","FRKA","1","m","rechts","22","","","self","f","120","true"
"null","<div style=""font-size:60px;"">+</div>","null","html-keyboard-response","306","284672","0.0-6.0-0.150","FRKA","1","m","rechts","22","","fixation","","","",""
"2008","img/90_30.png","74","image-keyboard-response","307","286682","0.0-6.0-1.150","FRKA","1","m","rechts","22","","","self","j","90","true"
"null","<div style=""font-size:60px;"">+</div>","null","html-keyboard-response","308","287035","0.0-6.0-0.151","FRKA","1","m","rechts","22","","fixation","","","",""
"1000","img/L90_180.png","70","image-keyboard-response","309","288037","0.0-6.0-1.151","FRKA","1","m","rechts","22","","","self","f","90","true"
"null","<div style=""font-size:60px;"">+</div>","null","html-keyboard-response","310","288539","0.0-6.0-0.152","FRKA","1","m","rechts","22","","fixation","","","",""
"1706","img/120_30.png","74","image-keyboard-response","311","290247","0.0-6.0-1.152","FRKA","1","m","rechts","22","","","self","j","120","true"
"null","<div style=""font-size:60px;"">+</div>","null","html-keyboard-response","312","290748","0.0-6.0-0.153","FRKA","1","m","rechts","22","","fixation","","","",""
"849","img/30_90.png","74","image-keyboard-response","313","291599","0.0-6.0-1.153","FRKA","1","m","rechts","22","","","self","j","30","true"
"null","<div style=""font-size:60px;"">+</div>","null","html-keyboard-response","314","291900","0.0-6.0-0.154","FRKA","1","m","rechts","22","","fixation","","","",""
"1886","img/30_180.png","74","image-keyboard-response","315","293787","0.0-6.0-1.154","FRKA","1","m","rechts","22","","","self","j","30","true"
"null","<div style=""font-size:60px;"">+</div>","null","html-keyboard-response","316","294189","0.0-6.0-0.155","FRKA","1","m","rechts","22","","fixation","","","",""
"643","img/0_300.png","70","image-keyboard-response","317","294835","0.0-6.0-1.155","FRKA","1","m","rechts","22","","","self","f","0","true"
"null","<div style=""font-size:60px;"">+</div>","null","html-keyboard-response","318","295338","0.0-6.0-0.156","FRKA","1","m","rechts","22","","fixation","","","",""
"595","img/0_210.png","70","image-keyboard-response","319","295933","0.0-6.0-1.156","FRKA","1","m","rechts","22","","","self","f","0","true"
"null","<div style=""font-size:60px;"">+</div>","null","html-keyboard-response","320","296384","0.0-6.0-0.157","FRKA","1","m","rechts","22","","fixation","","","",""
"534","img/0_300.png","70","image-keyboard-response","321","296920","0.0-6.0-1.157","FRKA","1","m","rechts","22","","","self","f","0","true"
"null","<div style=""font-size:60px;"">+</div>","null","html-keyboard-response","322","297372","0.0-6.0-0.158","FRKA","1","m","rechts","22","","fixation","","","",""
"2278","img/150_300.png","74","image-keyboard-response","323","299651","0.0-6.0-1.158","FRKA","1","m","rechts","22","","","self","j","150","true"
"null","<div style=""font-size:60px;"">+</div>","null","html-keyboard-response","324","300053","0.0-6.0-0.159","FRKA","1","m","rechts","22","","fixation","","","",""
"1462","img/60_210.png","70","image-keyboard-response","325","301518","0.0-6.0-1.159","FRKA","1","m","rechts","22","","","self","j","60","false"
"null","<div style=""font-size:60px;"">+</div>","null","html-keyboard-response","326","301970","0.0-6.0-0.160","FRKA","1","m","rechts","22","","fixation","","","",""
"1764","img/120_150.png","70","image-keyboard-response","327","303735","0.0-6.0-1.160","FRKA","1","m","rechts","22","","","self","f","120","true"
"null","<div style=""font-size:60px;"">+</div>","null","html-keyboard-response","328","304087","0.0-6.0-0.161","FRKA","1","m","rechts","22","","fixation","","","",""
"2282","img/60_90.png","74","image-keyboard-response","329","306370","0.0-6.0-1.161","FRKA","1","m","rechts","22","","","self","j","60","true"
"null","<div style=""font-size:60px;"">+</div>","null","html-keyboard-response","330","306822","0.0-6.0-0.162","FRKA","1","m","rechts","22","","fixation","","","",""
"1673","img/90_300.png","74","image-keyboard-response","331","308496","0.0-6.0-1.162","FRKA","1","m","rechts","22","","","self","f","90","false"
"null","<div style=""font-size:60px;"">+</div>","null","html-keyboard-response","332","308948","0.0-6.0-0.163","FRKA","1","m","rechts","22","","fixation","","","",""
"1627","img/90_240.png","70","image-keyboard-response","333","310576","0.0-6.0-1.163","FRKA","1","m","rechts","22","","","self","j","90","false"
"null","<div style=""font-size:60px;"">+</div>","null","html-keyboard-response","334","310880","0.0-6.0-0.164","FRKA","1","m","rechts","22","","fixation","","","",""
"757","img/0_270.png","70","image-keyboard-response","335","311638","0.0-6.0-1.164","FRKA","1","m","rechts","22","","","self","f","0","true"
"null","<div style=""font-size:60px;"">+</div>","null","html-keyboard-response","336","311940","0.0-6.0-0.165","FRKA","1","m","rechts","22","","fixation","","","",""
"691","img/0_30.png","74","image-keyboard-response","337","312632","0.0-6.0-1.165","FRKA","1","m","rechts","22","","","self","j","0","true"
"null","<div style=""font-size:60px;"">+</div>","null","html-keyboard-response","338","312934","0.0-6.0-0.166","FRKA","1","m","rechts","22","","fixation","","","",""
"1544","img/90_330.png","70","image-keyboard-response","339","314479","0.0-6.0-1.166","FRKA","1","m","rechts","22","","","self","f","90","true"
"null","<div style=""font-size:60px;"">+</div>","null","html-keyboard-response","340","314781","0.0-6.0-0.167","FRKA","1","m","rechts","22","","fixation","","","",""
"1452","img/60_270.png","70","image-keyboard-response","341","316234","0.0-6.0-1.167","FRKA","1","m","rechts","22","","","self","f","60","true"
"null","<div style=""font-size:60px;"">+</div>","null","html-keyboard-response","342","316636","0.0-6.0-0.168","FRKA","1","m","rechts","22","","fixation","","","",""
"1794","img/150_60.png","70","image-keyboard-response","343","318431","0.0-6.0-1.168","FRKA","1","m","rechts","22","","","self","f","150","true"
"null","<div style=""font-size:60px;"">+</div>","null","html-keyboard-response","344","318884","0.0-6.0-0.169","FRKA","1","m","rechts","22","","fixation","","","",""
"1669","img/30_180.png","74","image-keyboard-response","345","320554","0.0-6.0-1.169","FRKA","1","m","rechts","22","","","self","j","30","true"
"null","<div style=""font-size:60px;"">+</div>","null","html-keyboard-response","346","321056","0.0-6.0-0.170","FRKA","1","m","rechts","22","","fixation","","","",""
"1438","img/30_90.png","74","image-keyboard-response","347","322495","0.0-6.0-1.170","FRKA","1","m","rechts","22","","","self","j","30","true"
"null","<div style=""font-size:60px;"">+</div>","null","html-keyboard-response","348","322847","0.0-6.0-0.171","FRKA","1","m","rechts","22","","fixation","","","",""
"1695","img/150_120.png","70","image-keyboard-response","349","324543","0.0-6.0-1.171","FRKA","1","m","rechts","22","","","self","f","150","true"
"null","<div style=""font-size:60px;"">+</div>","null","html-keyboard-response","350","324896","0.0-6.0-0.172","FRKA","1","m","rechts","22","","fixation","","","",""
"1295","img/L30_180.png","70","image-keyboard-response","351","326193","0.0-6.0-1.172","FRKA","1","m","rechts","22","","","self","f","30","true"
"null","<div style=""font-size:60px;"">+</div>","null","html-keyboard-response","352","326495","0.0-6.0-0.173","FRKA","1","m","rechts","22","","fixation","","","",""
"1004","img/120_210.png","74","image-keyboard-response","353","327500","0.0-6.0-1.173","FRKA","1","m","rechts","22","","","self","j","120","true"
"null","<div style=""font-size:60px;"">+</div>","null","html-keyboard-response","354","327902","0.0-6.0-0.174","FRKA","1","m","rechts","22","","fixation","","","",""
"1136","img/30_270.png","70","image-keyboard-response","355","329040","0.0-6.0-1.174","FRKA","1","m","rechts","22","","","self","f","30","true"
"null","<div style=""font-size:60px;"">+</div>","null","html-keyboard-response","356","329393","0.0-6.0-0.175","FRKA","1","m","rechts","22","","fixation","","","",""
"1898","img/120_330.png","70","image-keyboard-response","357","331293","0.0-6.0-1.175","FRKA","1","m","rechts","22","","","self","f","120","true"
"null","<div style=""font-size:60px;"">+</div>","null","html-keyboard-response","358","331745","0.0-6.0-0.176","FRKA","1","m","rechts","22","","fixation","","","",""
"926","img/60_330.png","70","image-keyboard-response","359","332672","0.0-6.0-1.176","FRKA","1","m","rechts","22","","","self","f","60","true"
"null","<div style=""font-size:60px;"">+</div>","null","html-keyboard-response","360","333074","0.0-6.0-0.177","FRKA","1","m","rechts","22","","fixation","","","",""
"1345","img/150_270.png","74","image-keyboard-response","361","334420","0.0-6.0-1.177","FRKA","1","m","rechts","22","","","self","j","150","true"
"null","<div style=""font-size:60px;"">+</div>","null","html-keyboard-response","362","334872","0.0-6.0-0.178","FRKA","1","m","rechts","22","","fixation","","","",""
"1510","img/90_150.png","70","image-keyboard-response","363","336384","0.0-6.0-1.178","FRKA","1","m","rechts","22","","","self","f","90","true"
"null","<div style=""font-size:60px;"">+</div>","null","html-keyboard-response","364","336786","0.0-6.0-0.179","FRKA","1","m","rechts","22","","fixation","","","",""
"875","img/30_60.png","70","image-keyboard-response","365","337664","0.0-6.0-1.179","FRKA","1","m","rechts","22","","","self","j","30","false"
"null","<div style=""font-size:60px;"">+</div>","null","html-keyboard-response","366","337966","0.0-6.0-0.180","FRKA","1","m","rechts","22","","fixation","","","",""
"1783","img/150_90.png","70","image-keyboard-response","367","339750","0.0-6.0-1.180","FRKA","1","m","rechts","22","","","self","f","150","true"
"null","<div style=""font-size:60px;"">+</div>","null","html-keyboard-response","368","340052","0.0-6.0-0.181","FRKA","1","m","rechts","22","","fixation","","","",""
"1583","img/90_30.png","74","image-keyboard-response","369","341637","0.0-6.0-1.181","FRKA","1","m","rechts","22","","","self","j","90","true"
"null","<div style=""font-size:60px;"">+</div>","null","html-keyboard-response","370","342039","0.0-6.0-0.182","FRKA","1","m","rechts","22","","fixation","","","",""
"1174","img/L90_180.png","70","image-keyboard-response","371","343215","0.0-6.0-1.182","FRKA","1","m","rechts","22","","","self","f","90","true"
"null","<div style=""font-size:60px;"">+</div>","null","html-keyboard-response","372","343667","0.0-6.0-0.183","FRKA","1","m","rechts","22","","fixation","","","",""
"751","img/0_150.png","74","image-keyboard-response","373","344420","0.0-6.0-1.183","FRKA","1","m","rechts","22","","","self","j","0","true"
"null","<div style=""font-size:60px;"">+</div>","null","html-keyboard-response","374","344773","0.0-6.0-0.184","FRKA","1","m","rechts","22","","fixation","","","",""
"1117","img/L120_180.png","70","image-keyboard-response","375","345891","0.0-6.0-1.184","FRKA","1","m","rechts","22","","","self","f","120","true"
"null","<div style=""font-size:60px;"">+</div>","null","html-keyboard-response","376","346193","0.0-6.0-0.185","FRKA","1","m","rechts","22","","fixation","","","",""
"1472","img/90_180.png","74","image-keyboard-response","377","347666","0.0-6.0-1.185","FRKA","1","m","rechts","22","","","self","j","90","true"
"null","<div style=""font-size:60px;"">+</div>","null","html-keyboard-response","378","348069","0.0-6.0-0.186","FRKA","1","m","rechts","22","","fixation","","","",""
"1300","img/120_90.png","70","image-keyboard-response","379","349371","0.0-6.0-1.186","FRKA","1","m","rechts","22","","","self","f","120","true"
"null","<div style=""font-size:60px;"">+</div>","null","html-keyboard-response","380","349773","0.0-6.0-0.187","FRKA","1","m","rechts","22","","fixation","","","",""
"1291","img/90_210.png","74","image-keyboard-response","381","351065","0.0-6.0-1.187","FRKA","1","m","rechts","22","","","self","j","90","true"
"null","<div style=""font-size:60px;"">+</div>","null","html-keyboard-response","382","351567","0.0-6.0-0.188","FRKA","1","m","rechts","22","","fixation","","","",""
"1164","img/150_180.png","74","image-keyboard-response","383","352733","0.0-6.0-1.188","FRKA","1","m","rechts","22","","","self","j","150","true"
"null","<div style=""font-size:60px;"">+</div>","null","html-keyboard-response","384","353187","0.0-6.0-0.189","FRKA","1","m","rechts","22","","fixation","","","",""
"906","img/L150_180.png","70","image-keyboard-response","385","354094","0.0-6.0-1.189","FRKA","1","m","rechts","22","","","self","f","150","true"
"null","<div style=""font-size:60px;"">+</div>","null","html-keyboard-response","386","354546","0.0-6.0-0.190","FRKA","1","m","rechts","22","","fixation","","","",""
"635","img/120_180.png","74","image-keyboard-response","387","355183","0.0-6.0-1.190","FRKA","1","m","rechts","22","","","self","j","120","true"
"null","<div style=""font-size:60px;"">+</div>","null","html-keyboard-response","388","355536","0.0-6.0-0.191","FRKA","1","m","rechts","22","","fixation","","","",""
"1046","img/90_120.png","70","image-keyboard-response","389","356583","0.0-6.0-1.191","FRKA","1","m","rechts","22","","","self","f","90","true"
"null","<div style=""font-size:60px;"">+</div>","null","html-keyboard-response","390","356935","0.0-6.0-0.192","FRKA","1","m","rechts","22","","fixation","","","",""
"749","img/0_330.png","70","image-keyboard-response","391","357685","0.0-6.0-1.192","FRKA","1","m","rechts","22","","","self","f","0","true"
"null","<div style=""font-size:60px;"">+</div>","null","html-keyboard-response","392","357987","0.0-6.0-0.193","FRKA","1","m","rechts","22","","fixation","","","",""
"816","img/120_270.png","74","image-keyboard-response","393","358804","0.0-6.0-1.193","FRKA","1","m","rechts","22","","","self","j","120","true"
"null","<div style=""font-size:60px;"">+</div>","null","html-keyboard-response","394","359105","0.0-6.0-0.194","FRKA","1","m","rechts","22","","fixation","","","",""
"744","img/0_240.png","70","image-keyboard-response","395","359852","0.0-6.0-1.194","FRKA","1","m","rechts","22","","","self","f","0","true"
"null","<div style=""font-size:60px;"">+</div>","null","html-keyboard-response","396","360154","0.0-6.0-0.195","FRKA","1","m","rechts","22","","fixation","","","",""
"1501","img/30_120.png","74","image-keyboard-response","397","361657","0.0-6.0-1.195","FRKA","1","m","rechts","22","","","self","j","30","true"
"null","<div style=""font-size:60px;"">+</div>","null","html-keyboard-response","398","362159","0.0-6.0-0.196","FRKA","1","m","rechts","22","","fixation","","","",""
"1254","img/90_60.png","74","image-keyboard-response","399","363414","0.0-6.0-1.196","FRKA","1","m","rechts","22","","","self","j","90","true"
"null","<div style=""font-size:60px;"">+</div>","null","html-keyboard-response","400","363916","0.0-6.0-0.197","FRKA","1","m","rechts","22","","fixation","","","",""
"1902","img/30_240.png","70","image-keyboard-response","401","365819","0.0-6.0-1.197","FRKA","1","m","rechts","22","","","self","f","30","true"
"null","<div style=""font-size:60px;"">+</div>","null","html-keyboard-response","402","366321","0.0-6.0-0.198","FRKA","1","m","rechts","22","","fixation","","","",""
"1439","img/60_150.png","70","image-keyboard-response","403","367763","0.0-6.0-1.198","FRKA","1","m","rechts","22","","","self","f","60","true"
"null","<div style=""font-size:60px;"">+</div>","null","html-keyboard-response","404","368216","0.0-6.0-0.199","FRKA","1","m","rechts","22","","fixation","","","",""
"1068","img/L60_180.png","70","image-keyboard-response","405","369285","0.0-6.0-1.199","FRKA","1","m","rechts","22","","","self","f","60","true"
"null","<div style=""font-size:60px;"">+</div>","null","html-keyboard-response","406","369787","0.0-6.0-0.200","FRKA","1","m","rechts","22","","fixation","","","",""
"755","img/0_60.png","74","image-keyboard-response","407","370543","0.0-6.0-1.200","FRKA","1","m","rechts","22","","","self","j","0","true"
"null","<div style=""font-size:60px;"">+</div>","null","html-keyboard-response","408","370945","0.0-6.0-0.201","FRKA","1","m","rechts","22","","fixation","","","",""
"1986","img/120_30.png","70","image-keyboard-response","409","372932","0.0-6.0-1.201","FRKA","1","m","rechts","22","","","self","j","120","false"
"null","<div style=""font-size:60px;"">+</div>","null","html-keyboard-response","410","373284","0.0-6.0-0.202","FRKA","1","m","rechts","22","","fixation","","","",""
"989","img/0_90.png","74","image-keyboard-response","411","374274","0.0-6.0-1.202","FRKA","1","m","rechts","22","","","self","j","0","true"
"null","<div style=""font-size:60px;"">+</div>","null","html-keyboard-response","412","374677","0.0-6.0-0.203","FRKA","1","m","rechts","22","","fixation","","","",""
"904","img/30_300.png","70","image-keyboard-response","413","375582","0.0-6.0-1.203","FRKA","1","m","rechts","22","","","self","f","30","true"
"null","<div style=""font-size:60px;"">+</div>","null","html-keyboard-response","414","375934","0.0-6.0-0.204","FRKA","1","m","rechts","22","","fixation","","","",""
"755","img/0_120.png","74","image-keyboard-response","415","376690","0.0-6.0-1.204","FRKA","1","m","rechts","22","","","self","j","0","true"
"null","<div style=""font-size:60px;"">+</div>","null","html-keyboard-response","416","377142","0.0-6.0-0.205","FRKA","1","m","rechts","22","","fixation","","","",""
"1290","img/60_180.png","74","image-keyboard-response","417","378433","0.0-6.0-1.205","FRKA","1","m","rechts","22","","","self","j","60","true"
"null","<div style=""font-size:60px;"">+</div>","null","html-keyboard-response","418","378935","0.0-6.0-0.206","FRKA","1","m","rechts","22","","fixation","","","",""
"1642","img/150_240.png","74","image-keyboard-response","419","380579","0.0-6.0-1.206","FRKA","1","m","rechts","22","","","self","j","150","true"
"null","<div style=""font-size:60px;"">+</div>","null","html-keyboard-response","420","380881","0.0-6.0-0.207","FRKA","1","m","rechts","22","","fixation","","","",""
"1307","img/60_30.png","74","image-keyboard-response","421","382189","0.0-6.0-1.207","FRKA","1","m","rechts","22","","","self","j","60","true"
"35490","<p>Du hast in 91% der Versuche korrekt entschieden.</p><p>Deine durchschnittliche Reaktionszeit war  1199ms.</p><p>Dr&uuml;cke eine beliebige Taste, um die Session zu beenden. Vielen Dank!</p>","32","html-keyboard-response","422","417681","0.0-7.0","FRKA","1","m","rechts","22","","","","","",""
