"rt","stimulus","key_press","trial_type","trial_index","time_elapsed","internal_node_id","subject","session","sex","handedness","age","responses","test_part","condition","correct_response","angle","correct"
"1586","<p>Mental Rotation Experiment.</p> <p>Dr&uuml;cke eine beliebige Taste, um anzufangen.</p>","32","html-keyboard-response","0","1588","0.0-0.0","FRKA","2","m","rechts","22","","","","","",""
"8143","","","survey-text","1","9732","0.0-1.0","FRKA","2","m","rechts","22","{""Q0"":""FRKA""}","","","","",""
"1644","","","survey-text","2","11377","0.0-2.0","FRKA","2","m","rechts","22","{""Q0"":""2""}","","","","",""
"4057","","","survey-multi-choice","3","15437","0.0-3.0","FRKA","2","m","rechts","22","{""Q0"":""m"",""Q1"":""rechts""}","","","","",""
"1642","","","survey-text","4","17080","0.0-4.0","FRKA","2","m","rechts","22","{""Q0"":""22""}","","","","",""
"16327","<p> Stell dir vor, dass du vor einem runden Tisch stehst, auf dem sich ein blauer Ball am Tischrand befindet. Entlang des Tischrands ist jeweils ein verschieden langer Pfeil. Nun bewegst du dich entlang dieses Pfeils bis an seine Spitze. Wenn du am Ende des Pfeils angekommen bist, schau zur Tischmitte. </p> <img src='img/90_180.png'></img> <br> <p>Entscheide dann, ob der Ball von deiner neuen (vorgestellten) Position links oder rechts von dir liegt.</p> <p>Dr&uuml;cke die <strong>'f'</strong>-Taste f&uuml;r links, die <strong>'j'</strong>-Taste f&uuml;r rechts.</p> <br><p> Das Bild wird jeweils 1 Sekunde lang pr&auml;sentiert. Du hast 3 Sekunden Zeit eine Entscheidung zu treffen.</p>","32","html-keyboard-response","5","33408","0.0-5.0","FRKA","2","m","rechts","22","","","","","",""
"null","<div style=""font-size:60px;"">+</div>","null","html-keyboard-response","6","34912","0.0-6.0-0.0","FRKA","2","m","rechts","22","","fixation","","","",""
"1793","img/90_60.png","74","image-keyboard-response","7","36706","0.0-6.0-1.0","FRKA","2","m","rechts","22","","","self","j","90","true"
"null","<div style=""font-size:60px;"">+</div>","null","html-keyboard-response","8","37008","0.0-6.0-0.1","FRKA","2","m","rechts","22","","fixation","","","",""
"1248","img/120_330.png","70","image-keyboard-response","9","38258","0.0-6.0-1.1","FRKA","2","m","rechts","22","","","self","f","120","true"
"null","<div style=""font-size:60px;"">+</div>","null","html-keyboard-response","10","38660","0.0-6.0-0.2","FRKA","2","m","rechts","22","","fixation","","","",""
"856","img/0_120.png","74","image-keyboard-response","11","39517","0.0-6.0-1.2","FRKA","2","m","rechts","22","","","self","j","0","true"
"null","<div style=""font-size:60px;"">+</div>","null","html-keyboard-response","12","39819","0.0-6.0-0.3","FRKA","2","m","rechts","22","","fixation","","","",""
"2408","img/90_180.png","74","image-keyboard-response","13","42228","0.0-6.0-1.3","FRKA","2","m","rechts","22","","","self","j","90","true"
"null","<div style=""font-size:60px;"">+</div>","null","html-keyboard-response","14","42630","0.0-6.0-0.4","FRKA","2","m","rechts","22","","fixation","","","",""
"843","img/0_210.png","70","image-keyboard-response","15","43475","0.0-6.0-1.4","FRKA","2","m","rechts","22","","","self","f","0","true"
"null","<div style=""font-size:60px;"">+</div>","null","html-keyboard-response","16","43927","0.0-6.0-0.5","FRKA","2","m","rechts","22","","fixation","","","",""
"634","img/0_30.png","74","image-keyboard-response","17","44562","0.0-6.0-1.5","FRKA","2","m","rechts","22","","","self","j","0","true"
"null","<div style=""font-size:60px;"">+</div>","null","html-keyboard-response","18","45014","0.0-6.0-0.6","FRKA","2","m","rechts","22","","fixation","","","",""
"1569","img/120_270.png","74","image-keyboard-response","19","46584","0.0-6.0-1.6","FRKA","2","m","rechts","22","","","self","j","120","true"
"null","<div style=""font-size:60px;"">+</div>","null","html-keyboard-response","20","46986","0.0-6.0-0.7","FRKA","2","m","rechts","22","","fixation","","","",""
"1412","img/L90_180.png","70","image-keyboard-response","21","48399","0.0-6.0-1.7","FRKA","2","m","rechts","22","","","self","f","90","true"
"null","<div style=""font-size:60px;"">+</div>","null","html-keyboard-response","22","48851","0.0-6.0-0.8","FRKA","2","m","rechts","22","","fixation","","","",""
"1824","img/60_210.png","74","image-keyboard-response","23","50676","0.0-6.0-1.8","FRKA","2","m","rechts","22","","","self","j","60","true"
"null","<div style=""font-size:60px;"">+</div>","null","html-keyboard-response","24","50978","0.0-6.0-0.9","FRKA","2","m","rechts","22","","fixation","","","",""
"1367","img/30_60.png","74","image-keyboard-response","25","52346","0.0-6.0-1.9","FRKA","2","m","rechts","22","","","self","j","30","true"
"null","<div style=""font-size:60px;"">+</div>","null","html-keyboard-response","26","52798","0.0-6.0-0.10","FRKA","2","m","rechts","22","","fixation","","","",""
"1146","img/90_120.png","70","image-keyboard-response","27","53945","0.0-6.0-1.10","FRKA","2","m","rechts","22","","","self","f","90","true"
"null","<div style=""font-size:60px;"">+</div>","null","html-keyboard-response","28","54447","0.0-6.0-0.11","FRKA","2","m","rechts","22","","fixation","","","",""
"963","img/L150_180.png","70","image-keyboard-response","29","55411","0.0-6.0-1.11","FRKA","2","m","rechts","22","","","self","f","150","true"
"null","<div style=""font-size:60px;"">+</div>","null","html-keyboard-response","30","55813","0.0-6.0-0.12","FRKA","2","m","rechts","22","","fixation","","","",""
"781","img/120_150.png","70","image-keyboard-response","31","56595","0.0-6.0-1.12","FRKA","2","m","rechts","22","","","self","f","120","true"
"null","<div style=""font-size:60px;"">+</div>","null","html-keyboard-response","32","56997","0.0-6.0-0.13","FRKA","2","m","rechts","22","","fixation","","","",""
"1844","img/120_30.png","74","image-keyboard-response","33","58842","0.0-6.0-1.13","FRKA","2","m","rechts","22","","","self","j","120","true"
"null","<div style=""font-size:60px;"">+</div>","null","html-keyboard-response","34","59344","0.0-6.0-0.14","FRKA","2","m","rechts","22","","fixation","","","",""
"830","img/150_120.png","70","image-keyboard-response","35","60175","0.0-6.0-1.14","FRKA","2","m","rechts","22","","","self","f","150","true"
"null","<div style=""font-size:60px;"">+</div>","null","html-keyboard-response","36","60477","0.0-6.0-0.15","FRKA","2","m","rechts","22","","fixation","","","",""
"1183","img/90_210.png","74","image-keyboard-response","37","61661","0.0-6.0-1.15","FRKA","2","m","rechts","22","","","self","j","90","true"
"null","<div style=""font-size:60px;"">+</div>","null","html-keyboard-response","38","62163","0.0-6.0-0.16","FRKA","2","m","rechts","22","","fixation","","","",""
"992","img/30_90.png","70","image-keyboard-response","39","63156","0.0-6.0-1.16","FRKA","2","m","rechts","22","","","self","j","30","false"
"null","<div style=""font-size:60px;"">+</div>","null","html-keyboard-response","40","63508","0.0-6.0-0.17","FRKA","2","m","rechts","22","","fixation","","","",""
"808","img/0_240.png","70","image-keyboard-response","41","64317","0.0-6.0-1.17","FRKA","2","m","rechts","22","","","self","f","0","true"
"null","<div style=""font-size:60px;"">+</div>","null","html-keyboard-response","42","64769","0.0-6.0-0.18","FRKA","2","m","rechts","22","","fixation","","","",""
"null","img/0_270.png","null","image-keyboard-response","43","67772","0.0-6.0-1.18","FRKA","2","m","rechts","22","","","self","f","0","false"
"null","<div style=""font-size:60px;"">+</div>","null","html-keyboard-response","44","68074","0.0-6.0-0.19","FRKA","2","m","rechts","22","","fixation","","","",""
"914","img/0_150.png","74","image-keyboard-response","45","68989","0.0-6.0-1.19","FRKA","2","m","rechts","22","","","self","j","0","true"
"null","<div style=""font-size:60px;"">+</div>","null","html-keyboard-response","46","69491","0.0-6.0-0.20","FRKA","2","m","rechts","22","","fixation","","","",""
"1405","img/60_150.png","70","image-keyboard-response","47","70897","0.0-6.0-1.20","FRKA","2","m","rechts","22","","","self","f","60","true"
"null","<div style=""font-size:60px;"">+</div>","null","html-keyboard-response","48","71349","0.0-6.0-0.21","FRKA","2","m","rechts","22","","fixation","","","",""
"899","img/L30_180.png","70","image-keyboard-response","49","72250","0.0-6.0-1.21","FRKA","2","m","rechts","22","","","self","f","30","true"
"null","<div style=""font-size:60px;"">+</div>","null","html-keyboard-response","50","72601","0.0-6.0-0.22","FRKA","2","m","rechts","22","","fixation","","","",""
"893","img/150_180.png","74","image-keyboard-response","51","73496","0.0-6.0-1.22","FRKA","2","m","rechts","22","","","self","j","150","true"
"null","<div style=""font-size:60px;"">+</div>","null","html-keyboard-response","52","73997","0.0-6.0-0.23","FRKA","2","m","rechts","22","","fixation","","","",""
"1152","img/150_270.png","74","image-keyboard-response","53","75151","0.0-6.0-1.23","FRKA","2","m","rechts","22","","","self","j","150","true"
"null","<div style=""font-size:60px;"">+</div>","null","html-keyboard-response","54","75653","0.0-6.0-0.24","FRKA","2","m","rechts","22","","fixation","","","",""
"749","img/150_240.png","74","image-keyboard-response","55","76404","0.0-6.0-1.24","FRKA","2","m","rechts","22","","","self","j","150","true"
"null","<div style=""font-size:60px;"">+</div>","null","html-keyboard-response","56","76756","0.0-6.0-0.25","FRKA","2","m","rechts","22","","fixation","","","",""
"988","img/30_180.png","74","image-keyboard-response","57","77746","0.0-6.0-1.25","FRKA","2","m","rechts","22","","","self","j","30","true"
"null","<div style=""font-size:60px;"">+</div>","null","html-keyboard-response","58","78198","0.0-6.0-0.26","FRKA","2","m","rechts","22","","fixation","","","",""
"1541","img/60_90.png","74","image-keyboard-response","59","79741","0.0-6.0-1.26","FRKA","2","m","rechts","22","","","self","j","60","true"
"null","<div style=""font-size:60px;"">+</div>","null","html-keyboard-response","60","80092","0.0-6.0-0.27","FRKA","2","m","rechts","22","","fixation","","","",""
"964","img/0_60.png","74","image-keyboard-response","61","81059","0.0-6.0-1.27","FRKA","2","m","rechts","22","","","self","j","0","true"
"null","<div style=""font-size:60px;"">+</div>","null","html-keyboard-response","62","81361","0.0-6.0-0.28","FRKA","2","m","rechts","22","","fixation","","","",""
"1325","img/30_300.png","70","image-keyboard-response","63","82686","0.0-6.0-1.28","FRKA","2","m","rechts","22","","","self","f","30","true"
"null","<div style=""font-size:60px;"">+</div>","null","html-keyboard-response","64","83038","0.0-6.0-0.29","FRKA","2","m","rechts","22","","fixation","","","",""
"914","img/60_180.png","74","image-keyboard-response","65","83953","0.0-6.0-1.29","FRKA","2","m","rechts","22","","","self","j","60","true"
"null","<div style=""font-size:60px;"">+</div>","null","html-keyboard-response","66","84405","0.0-6.0-0.30","FRKA","2","m","rechts","22","","fixation","","","",""
"1321","img/60_270.png","70","image-keyboard-response","67","85727","0.0-6.0-1.30","FRKA","2","m","rechts","22","","","self","f","60","true"
"null","<div style=""font-size:60px;"">+</div>","null","html-keyboard-response","68","86179","0.0-6.0-0.31","FRKA","2","m","rechts","22","","fixation","","","",""
"1258","img/30_120.png","74","image-keyboard-response","69","87439","0.0-6.0-1.31","FRKA","2","m","rechts","22","","","self","j","30","true"
"null","<div style=""font-size:60px;"">+</div>","null","html-keyboard-response","70","87891","0.0-6.0-0.32","FRKA","2","m","rechts","22","","fixation","","","",""
"808","img/150_90.png","74","image-keyboard-response","71","88700","0.0-6.0-1.32","FRKA","2","m","rechts","22","","","self","f","150","false"
"null","<div style=""font-size:60px;"">+</div>","null","html-keyboard-response","72","89153","0.0-6.0-0.33","FRKA","2","m","rechts","22","","fixation","","","",""
"955","img/120_180.png","74","image-keyboard-response","73","90109","0.0-6.0-1.33","FRKA","2","m","rechts","22","","","self","j","120","true"
"null","<div style=""font-size:60px;"">+</div>","null","html-keyboard-response","74","90411","0.0-6.0-0.34","FRKA","2","m","rechts","22","","fixation","","","",""
"1393","img/150_60.png","70","image-keyboard-response","75","91805","0.0-6.0-1.34","FRKA","2","m","rechts","22","","","self","f","150","true"
"null","<div style=""font-size:60px;"">+</div>","null","html-keyboard-response","76","92307","0.0-6.0-0.35","FRKA","2","m","rechts","22","","fixation","","","",""
"907","img/60_30.png","74","image-keyboard-response","77","93215","0.0-6.0-1.35","FRKA","2","m","rechts","22","","","self","j","60","true"
"null","<div style=""font-size:60px;"">+</div>","null","html-keyboard-response","78","93567","0.0-6.0-0.36","FRKA","2","m","rechts","22","","fixation","","","",""
"1593","img/90_240.png","74","image-keyboard-response","79","95161","0.0-6.0-1.36","FRKA","2","m","rechts","22","","","self","j","90","true"
"null","<div style=""font-size:60px;"">+</div>","null","html-keyboard-response","80","95663","0.0-6.0-0.37","FRKA","2","m","rechts","22","","fixation","","","",""
"1849","img/150_300.png","74","image-keyboard-response","81","97513","0.0-6.0-1.37","FRKA","2","m","rechts","22","","","self","j","150","true"
"null","<div style=""font-size:60px;"">+</div>","null","html-keyboard-response","82","97865","0.0-6.0-0.38","FRKA","2","m","rechts","22","","fixation","","","",""
"759","img/60_330.png","70","image-keyboard-response","83","98625","0.0-6.0-1.38","FRKA","2","m","rechts","22","","","self","f","60","true"
"null","<div style=""font-size:60px;"">+</div>","null","html-keyboard-response","84","99127","0.0-6.0-0.39","FRKA","2","m","rechts","22","","fixation","","","",""
"684","img/0_90.png","74","image-keyboard-response","85","99812","0.0-6.0-1.39","FRKA","2","m","rechts","22","","","self","j","0","true"
"null","<div style=""font-size:60px;"">+</div>","null","html-keyboard-response","86","100214","0.0-6.0-0.40","FRKA","2","m","rechts","22","","fixation","","","",""
"904","img/120_90.png","70","image-keyboard-response","87","101119","0.0-6.0-1.40","FRKA","2","m","rechts","22","","","self","f","120","true"
"null","<div style=""font-size:60px;"">+</div>","null","html-keyboard-response","88","101571","0.0-6.0-0.41","FRKA","2","m","rechts","22","","fixation","","","",""
"1071","img/30_270.png","70","image-keyboard-response","89","102643","0.0-6.0-1.41","FRKA","2","m","rechts","22","","","self","f","30","true"
"null","<div style=""font-size:60px;"">+</div>","null","html-keyboard-response","90","103095","0.0-6.0-0.42","FRKA","2","m","rechts","22","","fixation","","","",""
"816","img/L60_180.png","70","image-keyboard-response","91","103912","0.0-6.0-1.42","FRKA","2","m","rechts","22","","","self","f","60","true"
"null","<div style=""font-size:60px;"">+</div>","null","html-keyboard-response","92","104214","0.0-6.0-0.43","FRKA","2","m","rechts","22","","fixation","","","",""
"1168","img/90_330.png","70","image-keyboard-response","93","105383","0.0-6.0-1.43","FRKA","2","m","rechts","22","","","self","f","90","true"
"null","<div style=""font-size:60px;"">+</div>","null","html-keyboard-response","94","105735","0.0-6.0-0.44","FRKA","2","m","rechts","22","","fixation","","","",""
"834","img/90_30.png","74","image-keyboard-response","95","106570","0.0-6.0-1.44","FRKA","2","m","rechts","22","","","self","j","90","true"
"null","<div style=""font-size:60px;"">+</div>","null","html-keyboard-response","96","107072","0.0-6.0-0.45","FRKA","2","m","rechts","22","","fixation","","","",""
"591","img/0_330.png","70","image-keyboard-response","97","107664","0.0-6.0-1.45","FRKA","2","m","rechts","22","","","self","f","0","true"
"null","<div style=""font-size:60px;"">+</div>","null","html-keyboard-response","98","108116","0.0-6.0-0.46","FRKA","2","m","rechts","22","","fixation","","","",""
"793","img/120_210.png","74","image-keyboard-response","99","108910","0.0-6.0-1.46","FRKA","2","m","rechts","22","","","self","j","120","true"
"null","<div style=""font-size:60px;"">+</div>","null","html-keyboard-response","100","109312","0.0-6.0-0.47","FRKA","2","m","rechts","22","","fixation","","","",""
"658","img/L120_180.png","70","image-keyboard-response","101","109971","0.0-6.0-1.47","FRKA","2","m","rechts","22","","","self","f","120","true"
"null","<div style=""font-size:60px;"">+</div>","null","html-keyboard-response","102","110373","0.0-6.0-0.48","FRKA","2","m","rechts","22","","fixation","","","",""
"564","img/0_300.png","70","image-keyboard-response","103","110938","0.0-6.0-1.48","FRKA","2","m","rechts","22","","","self","f","0","true"
"null","<div style=""font-size:60px;"">+</div>","null","html-keyboard-response","104","111340","0.0-6.0-0.49","FRKA","2","m","rechts","22","","fixation","","","",""
"1187","img/30_240.png","70","image-keyboard-response","105","112529","0.0-6.0-1.49","FRKA","2","m","rechts","22","","","self","f","30","true"
"null","<div style=""font-size:60px;"">+</div>","null","html-keyboard-response","106","113031","0.0-6.0-0.50","FRKA","2","m","rechts","22","","fixation","","","",""
"811","img/90_150.png","70","image-keyboard-response","107","113844","0.0-6.0-1.50","FRKA","2","m","rechts","22","","","self","f","90","true"
"null","<div style=""font-size:60px;"">+</div>","null","html-keyboard-response","108","114146","0.0-6.0-0.51","FRKA","2","m","rechts","22","","fixation","","","",""
"1080","img/90_300.png","70","image-keyboard-response","109","115227","0.0-6.0-1.51","FRKA","2","m","rechts","22","","","self","f","90","true"
"null","<div style=""font-size:60px;"">+</div>","null","html-keyboard-response","110","115679","0.0-6.0-0.52","FRKA","2","m","rechts","22","","fixation","","","",""
"957","img/30_120.png","74","image-keyboard-response","111","116637","0.0-6.0-1.52","FRKA","2","m","rechts","22","","","self","j","30","true"
"null","<div style=""font-size:60px;"">+</div>","null","html-keyboard-response","112","117039","0.0-6.0-0.53","FRKA","2","m","rechts","22","","fixation","","","",""
"1303","img/150_60.png","70","image-keyboard-response","113","118342","0.0-6.0-1.53","FRKA","2","m","rechts","22","","","self","f","150","true"
"null","<div style=""font-size:60px;"">+</div>","null","html-keyboard-response","114","118844","0.0-6.0-0.54","FRKA","2","m","rechts","22","","fixation","","","",""
"569","img/0_330.png","70","image-keyboard-response","115","119415","0.0-6.0-1.54","FRKA","2","m","rechts","22","","","self","f","0","true"
"null","<div style=""font-size:60px;"">+</div>","null","html-keyboard-response","116","119916","0.0-6.0-0.55","FRKA","2","m","rechts","22","","fixation","","","",""
"1588","img/150_270.png","74","image-keyboard-response","117","121506","0.0-6.0-1.55","FRKA","2","m","rechts","22","","","self","j","150","true"
"null","<div style=""font-size:60px;"">+</div>","null","html-keyboard-response","118","122008","0.0-6.0-0.56","FRKA","2","m","rechts","22","","fixation","","","",""
"787","img/150_240.png","74","image-keyboard-response","119","122795","0.0-6.0-1.56","FRKA","2","m","rechts","22","","","self","j","150","true"
"null","<div style=""font-size:60px;"">+</div>","null","html-keyboard-response","120","123247","0.0-6.0-0.57","FRKA","2","m","rechts","22","","fixation","","","",""
"1080","img/L90_180.png","70","image-keyboard-response","121","124328","0.0-6.0-1.57","FRKA","2","m","rechts","22","","","self","f","90","true"
"null","<div style=""font-size:60px;"">+</div>","null","html-keyboard-response","122","124730","0.0-6.0-0.58","FRKA","2","m","rechts","22","","fixation","","","",""
"663","img/0_150.png","74","image-keyboard-response","123","125394","0.0-6.0-1.58","FRKA","2","m","rechts","22","","","self","j","0","true"
"null","<div style=""font-size:60px;"">+</div>","null","html-keyboard-response","124","125746","0.0-6.0-0.59","FRKA","2","m","rechts","22","","fixation","","","",""
"1432","img/60_270.png","70","image-keyboard-response","125","127179","0.0-6.0-1.59","FRKA","2","m","rechts","22","","","self","f","60","true"
"null","<div style=""font-size:60px;"">+</div>","null","html-keyboard-response","126","127681","0.0-6.0-0.60","FRKA","2","m","rechts","22","","fixation","","","",""
"951","img/L30_180.png","70","image-keyboard-response","127","128633","0.0-6.0-1.60","FRKA","2","m","rechts","22","","","self","f","30","true"
"null","<div style=""font-size:60px;"">+</div>","null","html-keyboard-response","128","129035","0.0-6.0-0.61","FRKA","2","m","rechts","22","","fixation","","","",""
"922","img/60_180.png","74","image-keyboard-response","129","129958","0.0-6.0-1.61","FRKA","2","m","rechts","22","","","self","j","60","true"
"null","<div style=""font-size:60px;"">+</div>","null","html-keyboard-response","130","130360","0.0-6.0-0.62","FRKA","2","m","rechts","22","","fixation","","","",""
"548","img/L120_180.png","70","image-keyboard-response","131","130909","0.0-6.0-1.62","FRKA","2","m","rechts","22","","","self","f","120","true"
"null","<div style=""font-size:60px;"">+</div>","null","html-keyboard-response","132","131361","0.0-6.0-0.63","FRKA","2","m","rechts","22","","fixation","","","",""
"641","img/0_120.png","74","image-keyboard-response","133","132003","0.0-6.0-1.63","FRKA","2","m","rechts","22","","","self","j","0","true"
"null","<div style=""font-size:60px;"">+</div>","null","html-keyboard-response","134","132505","0.0-6.0-0.64","FRKA","2","m","rechts","22","","fixation","","","",""
"561","img/0_60.png","74","image-keyboard-response","135","133067","0.0-6.0-1.64","FRKA","2","m","rechts","22","","","self","j","0","true"
"null","<div style=""font-size:60px;"">+</div>","null","html-keyboard-response","136","133469","0.0-6.0-0.65","FRKA","2","m","rechts","22","","fixation","","","",""
"644","img/120_150.png","70","image-keyboard-response","137","134114","0.0-6.0-1.65","FRKA","2","m","rechts","22","","","self","f","120","true"
"null","<div style=""font-size:60px;"">+</div>","null","html-keyboard-response","138","134516","0.0-6.0-0.66","FRKA","2","m","rechts","22","","fixation","","","",""
"572","img/0_240.png","70","image-keyboard-response","139","135089","0.0-6.0-1.66","FRKA","2","m","rechts","22","","","self","f","0","true"
"null","<div style=""font-size:60px;"">+</div>","null","html-keyboard-response","140","135541","0.0-6.0-0.67","FRKA","2","m","rechts","22","","fixation","","","",""
"1279","img/120_270.png","74","image-keyboard-response","141","136821","0.0-6.0-1.67","FRKA","2","m","rechts","22","","","self","j","120","true"
"null","<div style=""font-size:60px;"">+</div>","null","html-keyboard-response","142","137173","0.0-6.0-0.68","FRKA","2","m","rechts","22","","fixation","","","",""
"726","img/90_330.png","70","image-keyboard-response","143","137900","0.0-6.0-1.68","FRKA","2","m","rechts","22","","","self","f","90","true"
"null","<div style=""font-size:60px;"">+</div>","null","html-keyboard-response","144","138302","0.0-6.0-0.69","FRKA","2","m","rechts","22","","fixation","","","",""
"1459","img/90_60.png","74","image-keyboard-response","145","139762","0.0-6.0-1.69","FRKA","2","m","rechts","22","","","self","j","90","true"
"null","<div style=""font-size:60px;"">+</div>","null","html-keyboard-response","146","140114","0.0-6.0-0.70","FRKA","2","m","rechts","22","","fixation","","","",""
"1320","img/150_120.png","70","image-keyboard-response","147","141435","0.0-6.0-1.70","FRKA","2","m","rechts","22","","","self","f","150","true"
"null","<div style=""font-size:60px;"">+</div>","null","html-keyboard-response","148","141737","0.0-6.0-0.71","FRKA","2","m","rechts","22","","fixation","","","",""
"897","img/30_90.png","74","image-keyboard-response","149","142635","0.0-6.0-1.71","FRKA","2","m","rechts","22","","","self","j","30","true"
"null","<div style=""font-size:60px;"">+</div>","null","html-keyboard-response","150","143137","0.0-6.0-0.72","FRKA","2","m","rechts","22","","fixation","","","",""
"1162","img/60_150.png","70","image-keyboard-response","151","144300","0.0-6.0-1.72","FRKA","2","m","rechts","22","","","self","f","60","true"
"null","<div style=""font-size:60px;"">+</div>","null","html-keyboard-response","152","144802","0.0-6.0-0.73","FRKA","2","m","rechts","22","","fixation","","","",""
"897","img/30_180.png","74","image-keyboard-response","153","145700","0.0-6.0-1.73","FRKA","2","m","rechts","22","","","self","j","30","true"
"null","<div style=""font-size:60px;"">+</div>","null","html-keyboard-response","154","146202","0.0-6.0-0.74","FRKA","2","m","rechts","22","","fixation","","","",""
"717","img/L60_180.png","70","image-keyboard-response","155","146920","0.0-6.0-1.74","FRKA","2","m","rechts","22","","","self","f","60","true"
"null","<div style=""font-size:60px;"">+</div>","null","html-keyboard-response","156","147222","0.0-6.0-0.75","FRKA","2","m","rechts","22","","fixation","","","",""
"1134","img/60_30.png","74","image-keyboard-response","157","148356","0.0-6.0-1.75","FRKA","2","m","rechts","22","","","self","j","60","true"
"null","<div style=""font-size:60px;"">+</div>","null","html-keyboard-response","158","148808","0.0-6.0-0.76","FRKA","2","m","rechts","22","","fixation","","","",""
"605","img/0_210.png","70","image-keyboard-response","159","149413","0.0-6.0-1.76","FRKA","2","m","rechts","22","","","self","f","0","true"
"null","<div style=""font-size:60px;"">+</div>","null","html-keyboard-response","160","149765","0.0-6.0-0.77","FRKA","2","m","rechts","22","","fixation","","","",""
"673","img/30_270.png","70","image-keyboard-response","161","150438","0.0-6.0-1.77","FRKA","2","m","rechts","22","","","self","f","30","true"
"null","<div style=""font-size:60px;"">+</div>","null","html-keyboard-response","162","150940","0.0-6.0-0.78","FRKA","2","m","rechts","22","","fixation","","","",""
"528","img/0_300.png","70","image-keyboard-response","163","151468","0.0-6.0-1.78","FRKA","2","m","rechts","22","","","self","f","0","true"
"null","<div style=""font-size:60px;"">+</div>","null","html-keyboard-response","164","151770","0.0-6.0-0.79","FRKA","2","m","rechts","22","","fixation","","","",""
"610","img/0_30.png","74","image-keyboard-response","165","152381","0.0-6.0-1.79","FRKA","2","m","rechts","22","","","self","j","0","true"
"null","<div style=""font-size:60px;"">+</div>","null","html-keyboard-response","166","152683","0.0-6.0-0.80","FRKA","2","m","rechts","22","","fixation","","","",""
"792","img/90_300.png","70","image-keyboard-response","167","153477","0.0-6.0-1.80","FRKA","2","m","rechts","22","","","self","f","90","true"
"null","<div style=""font-size:60px;"">+</div>","null","html-keyboard-response","168","153779","0.0-6.0-0.81","FRKA","2","m","rechts","22","","fixation","","","",""
"806","img/30_300.png","70","image-keyboard-response","169","154586","0.0-6.0-1.81","FRKA","2","m","rechts","22","","","self","f","30","true"
"null","<div style=""font-size:60px;"">+</div>","null","html-keyboard-response","170","155038","0.0-6.0-0.82","FRKA","2","m","rechts","22","","fixation","","","",""
"1360","img/120_330.png","70","image-keyboard-response","171","156399","0.0-6.0-1.82","FRKA","2","m","rechts","22","","","self","f","120","true"
"null","<div style=""font-size:60px;"">+</div>","null","html-keyboard-response","172","156801","0.0-6.0-0.83","FRKA","2","m","rechts","22","","fixation","","","",""
"1138","img/120_90.png","70","image-keyboard-response","173","157940","0.0-6.0-1.83","FRKA","2","m","rechts","22","","","self","f","120","true"
"null","<div style=""font-size:60px;"">+</div>","null","html-keyboard-response","174","158291","0.0-6.0-0.84","FRKA","2","m","rechts","22","","fixation","","","",""
"1696","img/120_30.png","74","image-keyboard-response","175","159989","0.0-6.0-1.84","FRKA","2","m","rechts","22","","","self","j","120","true"
"null","<div style=""font-size:60px;"">+</div>","null","html-keyboard-response","176","160391","0.0-6.0-0.85","FRKA","2","m","rechts","22","","fixation","","","",""
"838","img/90_240.png","74","image-keyboard-response","177","161229","0.0-6.0-1.85","FRKA","2","m","rechts","22","","","self","j","90","true"
"null","<div style=""font-size:60px;"">+</div>","null","html-keyboard-response","178","161531","0.0-6.0-0.86","FRKA","2","m","rechts","22","","fixation","","","",""
"600","img/120_210.png","74","image-keyboard-response","179","162132","0.0-6.0-1.86","FRKA","2","m","rechts","22","","","self","j","120","true"
"null","<div style=""font-size:60px;"">+</div>","null","html-keyboard-response","180","162534","0.0-6.0-0.87","FRKA","2","m","rechts","22","","fixation","","","",""
"1102","img/30_60.png","74","image-keyboard-response","181","163637","0.0-6.0-1.87","FRKA","2","m","rechts","22","","","self","j","30","true"
"null","<div style=""font-size:60px;"">+</div>","null","html-keyboard-response","182","164039","0.0-6.0-0.88","FRKA","2","m","rechts","22","","fixation","","","",""
"888","img/90_210.png","74","image-keyboard-response","183","164928","0.0-6.0-1.88","FRKA","2","m","rechts","22","","","self","j","90","true"
"null","<div style=""font-size:60px;"">+</div>","null","html-keyboard-response","184","165330","0.0-6.0-0.89","FRKA","2","m","rechts","22","","fixation","","","",""
"802","img/60_90.png","74","image-keyboard-response","185","166133","0.0-6.0-1.89","FRKA","2","m","rechts","22","","","self","j","60","true"
"null","<div style=""font-size:60px;"">+</div>","null","html-keyboard-response","186","166436","0.0-6.0-0.90","FRKA","2","m","rechts","22","","fixation","","","",""
"895","img/150_300.png","74","image-keyboard-response","187","167331","0.0-6.0-1.90","FRKA","2","m","rechts","22","","","self","j","150","true"
"null","<div style=""font-size:60px;"">+</div>","null","html-keyboard-response","188","167833","0.0-6.0-0.91","FRKA","2","m","rechts","22","","fixation","","","",""
"895","img/60_330.png","70","image-keyboard-response","189","168729","0.0-6.0-1.91","FRKA","2","m","rechts","22","","","self","f","60","true"
"null","<div style=""font-size:60px;"">+</div>","null","html-keyboard-response","190","169231","0.0-6.0-0.92","FRKA","2","m","rechts","22","","fixation","","","",""
"668","img/150_180.png","74","image-keyboard-response","191","169900","0.0-6.0-1.92","FRKA","2","m","rechts","22","","","self","j","150","true"
"null","<div style=""font-size:60px;"">+</div>","null","html-keyboard-response","192","170302","0.0-6.0-0.93","FRKA","2","m","rechts","22","","fixation","","","",""
"660","img/90_180.png","74","image-keyboard-response","193","170963","0.0-6.0-1.93","FRKA","2","m","rechts","22","","","self","j","90","true"
"null","<div style=""font-size:60px;"">+</div>","null","html-keyboard-response","194","171465","0.0-6.0-0.94","FRKA","2","m","rechts","22","","fixation","","","",""
"708","img/90_150.png","70","image-keyboard-response","195","172174","0.0-6.0-1.94","FRKA","2","m","rechts","22","","","self","f","90","true"
"null","<div style=""font-size:60px;"">+</div>","null","html-keyboard-response","196","172626","0.0-6.0-0.95","FRKA","2","m","rechts","22","","fixation","","","",""
"913","img/150_90.png","70","image-keyboard-response","197","173540","0.0-6.0-1.95","FRKA","2","m","rechts","22","","","self","f","150","true"
"null","<div style=""font-size:60px;"">+</div>","null","html-keyboard-response","198","173992","0.0-6.0-0.96","FRKA","2","m","rechts","22","","fixation","","","",""
"596","img/L150_180.png","70","image-keyboard-response","199","174589","0.0-6.0-1.96","FRKA","2","m","rechts","22","","","self","f","150","true"
"null","<div style=""font-size:60px;"">+</div>","null","html-keyboard-response","200","175041","0.0-6.0-0.97","FRKA","2","m","rechts","22","","fixation","","","",""
"626","img/0_270.png","70","image-keyboard-response","201","175668","0.0-6.0-1.97","FRKA","2","m","rechts","22","","","self","f","0","true"
"null","<div style=""font-size:60px;"">+</div>","null","html-keyboard-response","202","176170","0.0-6.0-0.98","FRKA","2","m","rechts","22","","fixation","","","",""
"880","img/90_120.png","70","image-keyboard-response","203","177051","0.0-6.0-1.98","FRKA","2","m","rechts","22","","","self","f","90","true"
"null","<div style=""font-size:60px;"">+</div>","null","html-keyboard-response","204","177553","0.0-6.0-0.99","FRKA","2","m","rechts","22","","fixation","","","",""
"643","img/60_210.png","74","image-keyboard-response","205","178197","0.0-6.0-1.99","FRKA","2","m","rechts","22","","","self","j","60","true"
"null","<div style=""font-size:60px;"">+</div>","null","html-keyboard-response","206","178499","0.0-6.0-0.100","FRKA","2","m","rechts","22","","fixation","","","",""
"1203","img/30_240.png","74","image-keyboard-response","207","179703","0.0-6.0-1.100","FRKA","2","m","rechts","22","","","self","f","30","false"
"null","<div style=""font-size:60px;"">+</div>","null","html-keyboard-response","208","180105","0.0-6.0-0.101","FRKA","2","m","rechts","22","","fixation","","","",""
"703","img/120_180.png","74","image-keyboard-response","209","180809","0.0-6.0-1.101","FRKA","2","m","rechts","22","","","self","j","120","true"
"null","<div style=""font-size:60px;"">+</div>","null","html-keyboard-response","210","181311","0.0-6.0-0.102","FRKA","2","m","rechts","22","","fixation","","","",""
"554","img/0_90.png","74","image-keyboard-response","211","181866","0.0-6.0-1.102","FRKA","2","m","rechts","22","","","self","j","0","true"
"null","<div style=""font-size:60px;"">+</div>","null","html-keyboard-response","212","182168","0.0-6.0-0.103","FRKA","2","m","rechts","22","","fixation","","","",""
"1413","img/90_30.png","74","image-keyboard-response","213","183582","0.0-6.0-1.103","FRKA","2","m","rechts","22","","","self","j","90","true"
"null","<div style=""font-size:60px;"">+</div>","null","html-keyboard-response","214","184084","0.0-6.0-0.104","FRKA","2","m","rechts","22","","fixation","","","",""
"642","img/0_300.png","70","image-keyboard-response","215","184727","0.0-6.0-1.104","FRKA","2","m","rechts","22","","","self","f","0","true"
"null","<div style=""font-size:60px;"">+</div>","null","html-keyboard-response","216","185029","0.0-6.0-0.105","FRKA","2","m","rechts","22","","fixation","","","",""
"631","img/120_150.png","70","image-keyboard-response","217","185661","0.0-6.0-1.105","FRKA","2","m","rechts","22","","","self","f","120","true"
"null","<div style=""font-size:60px;"">+</div>","null","html-keyboard-response","218","186013","0.0-6.0-0.106","FRKA","2","m","rechts","22","","fixation","","","",""
"661","img/150_60.png","70","image-keyboard-response","219","186675","0.0-6.0-1.106","FRKA","2","m","rechts","22","","","self","f","150","true"
"null","<div style=""font-size:60px;"">+</div>","null","html-keyboard-response","220","187176","0.0-6.0-0.107","FRKA","2","m","rechts","22","","fixation","","","",""
"573","img/150_120.png","70","image-keyboard-response","221","187750","0.0-6.0-1.107","FRKA","2","m","rechts","22","","","self","f","150","true"
"null","<div style=""font-size:60px;"">+</div>","null","html-keyboard-response","222","188251","0.0-6.0-0.108","FRKA","2","m","rechts","22","","fixation","","","",""
"547","img/90_120.png","70","image-keyboard-response","223","188799","0.0-6.0-1.108","FRKA","2","m","rechts","22","","","self","f","90","true"
"null","<div style=""font-size:60px;"">+</div>","null","html-keyboard-response","224","189101","0.0-6.0-0.109","FRKA","2","m","rechts","22","","fixation","","","",""
"936","img/90_30.png","74","image-keyboard-response","225","190038","0.0-6.0-1.109","FRKA","2","m","rechts","22","","","self","j","90","true"
"null","<div style=""font-size:60px;"">+</div>","null","html-keyboard-response","226","190340","0.0-6.0-0.110","FRKA","2","m","rechts","22","","fixation","","","",""
"1190","img/0_270.png","70","image-keyboard-response","227","191531","0.0-6.0-1.110","FRKA","2","m","rechts","22","","","self","f","0","true"
"null","<div style=""font-size:60px;"">+</div>","null","html-keyboard-response","228","191833","0.0-6.0-0.111","FRKA","2","m","rechts","22","","fixation","","","",""
"712","img/60_180.png","74","image-keyboard-response","229","192546","0.0-6.0-1.111","FRKA","2","m","rechts","22","","","self","j","60","true"
"null","<div style=""font-size:60px;"">+</div>","null","html-keyboard-response","230","192998","0.0-6.0-0.112","FRKA","2","m","rechts","22","","fixation","","","",""
"617","img/L90_180.png","70","image-keyboard-response","231","193616","0.0-6.0-1.112","FRKA","2","m","rechts","22","","","self","f","90","true"
"null","<div style=""font-size:60px;"">+</div>","null","html-keyboard-response","232","194018","0.0-6.0-0.113","FRKA","2","m","rechts","22","","fixation","","","",""
"566","img/0_240.png","70","image-keyboard-response","233","194584","0.0-6.0-1.113","FRKA","2","m","rechts","22","","","self","f","0","true"
"null","<div style=""font-size:60px;"">+</div>","null","html-keyboard-response","234","195086","0.0-6.0-0.114","FRKA","2","m","rechts","22","","fixation","","","",""
"1113","img/120_270.png","74","image-keyboard-response","235","196200","0.0-6.0-1.114","FRKA","2","m","rechts","22","","","self","j","120","true"
"null","<div style=""font-size:60px;"">+</div>","null","html-keyboard-response","236","196702","0.0-6.0-0.115","FRKA","2","m","rechts","22","","fixation","","","",""
"680","img/150_90.png","70","image-keyboard-response","237","197384","0.0-6.0-1.115","FRKA","2","m","rechts","22","","","self","f","150","true"
"null","<div style=""font-size:60px;"">+</div>","null","html-keyboard-response","238","197885","0.0-6.0-0.116","FRKA","2","m","rechts","22","","fixation","","","",""
"603","img/120_210.png","74","image-keyboard-response","239","198490","0.0-6.0-1.116","FRKA","2","m","rechts","22","","","self","j","120","true"
"null","<div style=""font-size:60px;"">+</div>","null","html-keyboard-response","240","198791","0.0-6.0-0.117","FRKA","2","m","rechts","22","","fixation","","","",""
"554","img/90_210.png","74","image-keyboard-response","241","199346","0.0-6.0-1.117","FRKA","2","m","rechts","22","","","self","j","90","true"
"null","<div style=""font-size:60px;"">+</div>","null","html-keyboard-response","242","199797","0.0-6.0-0.118","FRKA","2","m","rechts","22","","fixation","","","",""
"683","img/60_30.png","70","image-keyboard-response","243","200481","0.0-6.0-1.118","FRKA","2","m","rechts","22","","","self","j","60","false"
"null","<div style=""font-size:60px;"">+</div>","null","html-keyboard-response","244","200833","0.0-6.0-0.119","FRKA","2","m","rechts","22","","fixation","","","",""
"1119","img/150_240.png","74","image-keyboard-response","245","201953","0.0-6.0-1.119","FRKA","2","m","rechts","22","","","self","j","150","true"
"null","<div style=""font-size:60px;"">+</div>","null","html-keyboard-response","246","202405","0.0-6.0-0.120","FRKA","2","m","rechts","22","","fixation","","","",""
"876","img/60_150.png","70","image-keyboard-response","247","203282","0.0-6.0-1.120","FRKA","2","m","rechts","22","","","self","f","60","true"
"null","<div style=""font-size:60px;"">+</div>","null","html-keyboard-response","248","203734","0.0-6.0-0.121","FRKA","2","m","rechts","22","","fixation","","","",""
"695","img/30_90.png","74","image-keyboard-response","249","204431","0.0-6.0-1.121","FRKA","2","m","rechts","22","","","self","j","30","true"
"null","<div style=""font-size:60px;"">+</div>","null","html-keyboard-response","250","204732","0.0-6.0-0.122","FRKA","2","m","rechts","22","","fixation","","","",""
"1066","img/120_90.png","70","image-keyboard-response","251","205799","0.0-6.0-1.122","FRKA","2","m","rechts","22","","","self","f","120","true"
"null","<div style=""font-size:60px;"">+</div>","null","html-keyboard-response","252","206300","0.0-6.0-0.123","FRKA","2","m","rechts","22","","fixation","","","",""
"543","img/L120_180.png","70","image-keyboard-response","253","206844","0.0-6.0-1.123","FRKA","2","m","rechts","22","","","self","f","120","true"
"null","<div style=""font-size:60px;"">+</div>","null","html-keyboard-response","254","207296","0.0-6.0-0.124","FRKA","2","m","rechts","22","","fixation","","","",""
"609","img/0_120.png","74","image-keyboard-response","255","207906","0.0-6.0-1.124","FRKA","2","m","rechts","22","","","self","j","0","true"
"null","<div style=""font-size:60px;"">+</div>","null","html-keyboard-response","256","208408","0.0-6.0-0.125","FRKA","2","m","rechts","22","","fixation","","","",""
"823","img/30_240.png","70","image-keyboard-response","257","209232","0.0-6.0-1.125","FRKA","2","m","rechts","22","","","self","f","30","true"
"null","<div style=""font-size:60px;"">+</div>","null","html-keyboard-response","258","209734","0.0-6.0-0.126","FRKA","2","m","rechts","22","","fixation","","","",""
"678","img/90_150.png","70","image-keyboard-response","259","210413","0.0-6.0-1.126","FRKA","2","m","rechts","22","","","self","f","90","true"
"null","<div style=""font-size:60px;"">+</div>","null","html-keyboard-response","260","210915","0.0-6.0-0.127","FRKA","2","m","rechts","22","","fixation","","","",""
"654","img/0_150.png","74","image-keyboard-response","261","211570","0.0-6.0-1.127","FRKA","2","m","rechts","22","","","self","j","0","true"
"null","<div style=""font-size:60px;"">+</div>","null","html-keyboard-response","262","212071","0.0-6.0-0.128","FRKA","2","m","rechts","22","","fixation","","","",""
"929","img/150_300.png","74","image-keyboard-response","263","213001","0.0-6.0-1.128","FRKA","2","m","rechts","22","","","self","j","150","true"
"null","<div style=""font-size:60px;"">+</div>","null","html-keyboard-response","264","213303","0.0-6.0-0.129","FRKA","2","m","rechts","22","","fixation","","","",""
"654","img/90_180.png","74","image-keyboard-response","265","213958","0.0-6.0-1.129","FRKA","2","m","rechts","22","","","self","j","90","true"
"null","<div style=""font-size:60px;"">+</div>","null","html-keyboard-response","266","214260","0.0-6.0-0.130","FRKA","2","m","rechts","22","","fixation","","","",""
"857","img/0_30.png","74","image-keyboard-response","267","215118","0.0-6.0-1.130","FRKA","2","m","rechts","22","","","self","j","0","true"
"null","<div style=""font-size:60px;"">+</div>","null","html-keyboard-response","268","215570","0.0-6.0-0.131","FRKA","2","m","rechts","22","","fixation","","","",""
"815","img/90_330.png","70","image-keyboard-response","269","216386","0.0-6.0-1.131","FRKA","2","m","rechts","22","","","self","f","90","true"
"null","<div style=""font-size:60px;"">+</div>","null","html-keyboard-response","270","216788","0.0-6.0-0.132","FRKA","2","m","rechts","22","","fixation","","","",""
"1587","img/120_30.png","74","image-keyboard-response","271","218376","0.0-6.0-1.132","FRKA","2","m","rechts","22","","","self","j","120","true"
"null","<div style=""font-size:60px;"">+</div>","null","html-keyboard-response","272","218828","0.0-6.0-0.133","FRKA","2","m","rechts","22","","fixation","","","",""
"701","img/0_90.png","74","image-keyboard-response","273","219530","0.0-6.0-1.133","FRKA","2","m","rechts","22","","","self","j","0","true"
"null","<div style=""font-size:60px;"">+</div>","null","html-keyboard-response","274","220032","0.0-6.0-0.134","FRKA","2","m","rechts","22","","fixation","","","",""
"516","img/0_330.png","70","image-keyboard-response","275","220549","0.0-6.0-1.134","FRKA","2","m","rechts","22","","","self","f","0","true"
"null","<div style=""font-size:60px;"">+</div>","null","html-keyboard-response","276","220951","0.0-6.0-0.135","FRKA","2","m","rechts","22","","fixation","","","",""
"846","img/L60_180.png","70","image-keyboard-response","277","221798","0.0-6.0-1.135","FRKA","2","m","rechts","22","","","self","f","60","true"
"null","<div style=""font-size:60px;"">+</div>","null","html-keyboard-response","278","222150","0.0-6.0-0.136","FRKA","2","m","rechts","22","","fixation","","","",""
"768","img/90_300.png","70","image-keyboard-response","279","222919","0.0-6.0-1.136","FRKA","2","m","rechts","22","","","self","f","90","true"
"null","<div style=""font-size:60px;"">+</div>","null","html-keyboard-response","280","223221","0.0-6.0-0.137","FRKA","2","m","rechts","22","","fixation","","","",""
"749","img/120_180.png","74","image-keyboard-response","281","223971","0.0-6.0-1.137","FRKA","2","m","rechts","22","","","self","j","120","true"
"null","<div style=""font-size:60px;"">+</div>","null","html-keyboard-response","282","224273","0.0-6.0-0.138","FRKA","2","m","rechts","22","","fixation","","","",""
"875","img/150_270.png","74","image-keyboard-response","283","225149","0.0-6.0-1.138","FRKA","2","m","rechts","22","","","self","j","150","true"
"null","<div style=""font-size:60px;"">+</div>","null","html-keyboard-response","284","225451","0.0-6.0-0.139","FRKA","2","m","rechts","22","","fixation","","","",""
"578","img/30_300.png","70","image-keyboard-response","285","226030","0.0-6.0-1.139","FRKA","2","m","rechts","22","","","self","f","30","true"
"null","<div style=""font-size:60px;"">+</div>","null","html-keyboard-response","286","226532","0.0-6.0-0.140","FRKA","2","m","rechts","22","","fixation","","","",""
"1337","img/60_90.png","74","image-keyboard-response","287","227870","0.0-6.0-1.140","FRKA","2","m","rechts","22","","","self","j","60","true"
"null","<div style=""font-size:60px;"">+</div>","null","html-keyboard-response","288","228322","0.0-6.0-0.141","FRKA","2","m","rechts","22","","fixation","","","",""
"623","img/L150_180.png","70","image-keyboard-response","289","228946","0.0-6.0-1.141","FRKA","2","m","rechts","22","","","self","f","150","true"
"null","<div style=""font-size:60px;"">+</div>","null","html-keyboard-response","290","229248","0.0-6.0-0.142","FRKA","2","m","rechts","22","","fixation","","","",""
"1211","img/30_180.png","74","image-keyboard-response","291","230461","0.0-6.0-1.142","FRKA","2","m","rechts","22","","","self","j","30","true"
"null","<div style=""font-size:60px;"">+</div>","null","html-keyboard-response","292","230763","0.0-6.0-0.143","FRKA","2","m","rechts","22","","fixation","","","",""
"1163","img/90_240.png","74","image-keyboard-response","293","231927","0.0-6.0-1.143","FRKA","2","m","rechts","22","","","self","j","90","true"
"null","<div style=""font-size:60px;"">+</div>","null","html-keyboard-response","294","232429","0.0-6.0-0.144","FRKA","2","m","rechts","22","","fixation","","","",""
"582","img/0_210.png","70","image-keyboard-response","295","233012","0.0-6.0-1.144","FRKA","2","m","rechts","22","","","self","f","0","true"
"null","<div style=""font-size:60px;"">+</div>","null","html-keyboard-response","296","233314","0.0-6.0-0.145","FRKA","2","m","rechts","22","","fixation","","","",""
"909","img/60_210.png","74","image-keyboard-response","297","234224","0.0-6.0-1.145","FRKA","2","m","rechts","22","","","self","j","60","true"
"null","<div style=""font-size:60px;"">+</div>","null","html-keyboard-response","298","234676","0.0-6.0-0.146","FRKA","2","m","rechts","22","","fixation","","","",""
"847","img/30_120.png","74","image-keyboard-response","299","235524","0.0-6.0-1.146","FRKA","2","m","rechts","22","","","self","j","30","true"
"null","<div style=""font-size:60px;"">+</div>","null","html-keyboard-response","300","235876","0.0-6.0-0.147","FRKA","2","m","rechts","22","","fixation","","","",""
"660","img/0_60.png","74","image-keyboard-response","301","236537","0.0-6.0-1.147","FRKA","2","m","rechts","22","","","self","j","0","true"
"null","<div style=""font-size:60px;"">+</div>","null","html-keyboard-response","302","236838","0.0-6.0-0.148","FRKA","2","m","rechts","22","","fixation","","","",""
"660","img/30_270.png","70","image-keyboard-response","303","237499","0.0-6.0-1.148","FRKA","2","m","rechts","22","","","self","f","30","true"
"null","<div style=""font-size:60px;"">+</div>","null","html-keyboard-response","304","237951","0.0-6.0-0.149","FRKA","2","m","rechts","22","","fixation","","","",""
"886","img/90_60.png","74","image-keyboard-response","305","238839","0.0-6.0-1.149","FRKA","2","m","rechts","22","","","self","j","90","true"
"null","<div style=""font-size:60px;"">+</div>","null","html-keyboard-response","306","239190","0.0-6.0-0.150","FRKA","2","m","rechts","22","","fixation","","","",""
"1544","img/120_330.png","70","image-keyboard-response","307","240735","0.0-6.0-1.150","FRKA","2","m","rechts","22","","","self","f","120","true"
"null","<div style=""font-size:60px;"">+</div>","null","html-keyboard-response","308","241137","0.0-6.0-0.151","FRKA","2","m","rechts","22","","fixation","","","",""
"832","img/150_180.png","74","image-keyboard-response","309","241970","0.0-6.0-1.151","FRKA","2","m","rechts","22","","","self","j","150","true"
"null","<div style=""font-size:60px;"">+</div>","null","html-keyboard-response","310","242472","0.0-6.0-0.152","FRKA","2","m","rechts","22","","fixation","","","",""
"1163","img/30_60.png","74","image-keyboard-response","311","243636","0.0-6.0-1.152","FRKA","2","m","rechts","22","","","self","j","30","true"
"null","<div style=""font-size:60px;"">+</div>","null","html-keyboard-response","312","244088","0.0-6.0-0.153","FRKA","2","m","rechts","22","","fixation","","","",""
"631","img/60_330.png","70","image-keyboard-response","313","244720","0.0-6.0-1.153","FRKA","2","m","rechts","22","","","self","f","60","true"
"null","<div style=""font-size:60px;"">+</div>","null","html-keyboard-response","314","245122","0.0-6.0-0.154","FRKA","2","m","rechts","22","","fixation","","","",""
"1159","img/L30_180.png","70","image-keyboard-response","315","246282","0.0-6.0-1.154","FRKA","2","m","rechts","22","","","self","f","30","true"
"null","<div style=""font-size:60px;"">+</div>","null","html-keyboard-response","316","246684","0.0-6.0-0.155","FRKA","2","m","rechts","22","","fixation","","","",""
"835","img/60_270.png","70","image-keyboard-response","317","247520","0.0-6.0-1.155","FRKA","2","m","rechts","22","","","self","f","60","true"
"null","<div style=""font-size:60px;"">+</div>","null","html-keyboard-response","318","247972","0.0-6.0-0.156","FRKA","2","m","rechts","22","","fixation","","","",""
"635","img/120_180.png","74","image-keyboard-response","319","248608","0.0-6.0-1.156","FRKA","2","m","rechts","22","","","self","j","120","true"
"null","<div style=""font-size:60px;"">+</div>","null","html-keyboard-response","320","248960","0.0-6.0-0.157","FRKA","2","m","rechts","22","","fixation","","","",""
"1449","img/150_300.png","74","image-keyboard-response","321","250410","0.0-6.0-1.157","FRKA","2","m","rechts","22","","","self","j","150","true"
"null","<div style=""font-size:60px;"">+</div>","null","html-keyboard-response","322","250862","0.0-6.0-0.158","FRKA","2","m","rechts","22","","fixation","","","",""
"1260","img/60_90.png","74","image-keyboard-response","323","252123","0.0-6.0-1.158","FRKA","2","m","rechts","22","","","self","j","60","true"
"null","<div style=""font-size:60px;"">+</div>","null","html-keyboard-response","324","252575","0.0-6.0-0.159","FRKA","2","m","rechts","22","","fixation","","","",""
"816","img/120_270.png","74","image-keyboard-response","325","253392","0.0-6.0-1.159","FRKA","2","m","rechts","22","","","self","j","120","true"
"null","<div style=""font-size:60px;"">+</div>","null","html-keyboard-response","326","253894","0.0-6.0-0.160","FRKA","2","m","rechts","22","","fixation","","","",""
"896","img/90_60.png","74","image-keyboard-response","327","254791","0.0-6.0-1.160","FRKA","2","m","rechts","22","","","self","j","90","true"
"null","<div style=""font-size:60px;"">+</div>","null","html-keyboard-response","328","255093","0.0-6.0-0.161","FRKA","2","m","rechts","22","","fixation","","","",""
"832","img/L30_180.png","70","image-keyboard-response","329","255926","0.0-6.0-1.161","FRKA","2","m","rechts","22","","","self","f","30","true"
"null","<div style=""font-size:60px;"">+</div>","null","html-keyboard-response","330","256328","0.0-6.0-0.162","FRKA","2","m","rechts","22","","fixation","","","",""
"594","img/L150_180.png","70","image-keyboard-response","331","256923","0.0-6.0-1.162","FRKA","2","m","rechts","22","","","self","f","150","true"
"null","<div style=""font-size:60px;"">+</div>","null","html-keyboard-response","332","257225","0.0-6.0-0.163","FRKA","2","m","rechts","22","","fixation","","","",""
"1857","img/120_330.png","70","image-keyboard-response","333","259083","0.0-6.0-1.163","FRKA","2","m","rechts","22","","","self","f","120","true"
"null","<div style=""font-size:60px;"">+</div>","null","html-keyboard-response","334","259485","0.0-6.0-0.164","FRKA","2","m","rechts","22","","fixation","","","",""
"1483","img/150_180.png","74","image-keyboard-response","335","260969","0.0-6.0-1.164","FRKA","2","m","rechts","22","","","self","j","150","true"
"null","<div style=""font-size:60px;"">+</div>","null","html-keyboard-response","336","261370","0.0-6.0-0.165","FRKA","2","m","rechts","22","","fixation","","","",""
"850","img/30_90.png","74","image-keyboard-response","337","262221","0.0-6.0-1.165","FRKA","2","m","rechts","22","","","self","j","30","true"
"null","<div style=""font-size:60px;"">+</div>","null","html-keyboard-response","338","262723","0.0-6.0-0.166","FRKA","2","m","rechts","22","","fixation","","","",""
"1434","img/60_30.png","74","image-keyboard-response","339","264158","0.0-6.0-1.166","FRKA","2","m","rechts","22","","","self","j","60","true"
"null","<div style=""font-size:60px;"">+</div>","null","html-keyboard-response","340","264660","0.0-6.0-0.167","FRKA","2","m","rechts","22","","fixation","","","",""
"1416","img/120_30.png","74","image-keyboard-response","341","266077","0.0-6.0-1.167","FRKA","2","m","rechts","22","","","self","j","120","true"
"null","<div style=""font-size:60px;"">+</div>","null","html-keyboard-response","342","266529","0.0-6.0-0.168","FRKA","2","m","rechts","22","","fixation","","","",""
"1455","img/150_270.png","74","image-keyboard-response","343","267985","0.0-6.0-1.168","FRKA","2","m","rechts","22","","","self","j","150","true"
"null","<div style=""font-size:60px;"">+</div>","null","html-keyboard-response","344","268487","0.0-6.0-0.169","FRKA","2","m","rechts","22","","fixation","","","",""
"659","img/60_330.png","70","image-keyboard-response","345","269148","0.0-6.0-1.169","FRKA","2","m","rechts","22","","","self","f","60","true"
"null","<div style=""font-size:60px;"">+</div>","null","html-keyboard-response","346","269599","0.0-6.0-0.170","FRKA","2","m","rechts","22","","fixation","","","",""
"711","img/L120_180.png","70","image-keyboard-response","347","270312","0.0-6.0-1.170","FRKA","2","m","rechts","22","","","self","f","120","true"
"null","<div style=""font-size:60px;"">+</div>","null","html-keyboard-response","348","270614","0.0-6.0-0.171","FRKA","2","m","rechts","22","","fixation","","","",""
"1213","img/30_120.png","74","image-keyboard-response","349","271829","0.0-6.0-1.171","FRKA","2","m","rechts","22","","","self","j","30","true"
"null","<div style=""font-size:60px;"">+</div>","null","html-keyboard-response","350","272281","0.0-6.0-0.172","FRKA","2","m","rechts","22","","fixation","","","",""
"739","img/L60_180.png","70","image-keyboard-response","351","273022","0.0-6.0-1.172","FRKA","2","m","rechts","22","","","self","f","60","true"
"null","<div style=""font-size:60px;"">+</div>","null","html-keyboard-response","352","273374","0.0-6.0-0.173","FRKA","2","m","rechts","22","","fixation","","","",""
"595","img/120_150.png","70","image-keyboard-response","353","273970","0.0-6.0-1.173","FRKA","2","m","rechts","22","","","self","f","120","true"
"null","<div style=""font-size:60px;"">+</div>","null","html-keyboard-response","354","274322","0.0-6.0-0.174","FRKA","2","m","rechts","22","","fixation","","","",""
"631","img/0_240.png","70","image-keyboard-response","355","274953","0.0-6.0-1.174","FRKA","2","m","rechts","22","","","self","f","0","true"
"null","<div style=""font-size:60px;"">+</div>","null","html-keyboard-response","356","275406","0.0-6.0-0.175","FRKA","2","m","rechts","22","","fixation","","","",""
"807","img/0_30.png","74","image-keyboard-response","357","276214","0.0-6.0-1.175","FRKA","2","m","rechts","22","","","self","j","0","true"
"null","<div style=""font-size:60px;"">+</div>","null","html-keyboard-response","358","276665","0.0-6.0-0.176","FRKA","2","m","rechts","22","","fixation","","","",""
"1108","img/150_240.png","74","image-keyboard-response","359","277774","0.0-6.0-1.176","FRKA","2","m","rechts","22","","","self","j","150","true"
"null","<div style=""font-size:60px;"">+</div>","null","html-keyboard-response","360","278227","0.0-6.0-0.177","FRKA","2","m","rechts","22","","fixation","","","",""
"839","img/60_210.png","74","image-keyboard-response","361","279066","0.0-6.0-1.177","FRKA","2","m","rechts","22","","","self","j","60","true"
"null","<div style=""font-size:60px;"">+</div>","null","html-keyboard-response","362","279519","0.0-6.0-0.178","FRKA","2","m","rechts","22","","fixation","","","",""
"749","img/0_60.png","74","image-keyboard-response","363","280269","0.0-6.0-1.178","FRKA","2","m","rechts","22","","","self","j","0","true"
"null","<div style=""font-size:60px;"">+</div>","null","html-keyboard-response","364","280572","0.0-6.0-0.179","FRKA","2","m","rechts","22","","fixation","","","",""
"838","img/60_150.png","70","image-keyboard-response","365","281410","0.0-6.0-1.179","FRKA","2","m","rechts","22","","","self","f","60","true"
"null","<div style=""font-size:60px;"">+</div>","null","html-keyboard-response","366","281762","0.0-6.0-0.180","FRKA","2","m","rechts","22","","fixation","","","",""
"763","img/30_180.png","74","image-keyboard-response","367","282526","0.0-6.0-1.180","FRKA","2","m","rechts","22","","","self","j","30","true"
"null","<div style=""font-size:60px;"">+</div>","null","html-keyboard-response","368","282928","0.0-6.0-0.181","FRKA","2","m","rechts","22","","fixation","","","",""
"757","img/60_180.png","74","image-keyboard-response","369","283686","0.0-6.0-1.181","FRKA","2","m","rechts","22","","","self","j","60","true"
"null","<div style=""font-size:60px;"">+</div>","null","html-keyboard-response","370","283988","0.0-6.0-0.182","FRKA","2","m","rechts","22","","fixation","","","",""
"688","img/120_90.png","70","image-keyboard-response","371","284677","0.0-6.0-1.182","FRKA","2","m","rechts","22","","","self","f","120","true"
"null","<div style=""font-size:60px;"">+</div>","null","html-keyboard-response","372","285179","0.0-6.0-0.183","FRKA","2","m","rechts","22","","fixation","","","",""
"684","img/120_210.png","74","image-keyboard-response","373","285864","0.0-6.0-1.183","FRKA","2","m","rechts","22","","","self","j","120","true"
"null","<div style=""font-size:60px;"">+</div>","null","html-keyboard-response","374","286366","0.0-6.0-0.184","FRKA","2","m","rechts","22","","fixation","","","",""
"796","img/0_120.png","74","image-keyboard-response","375","287163","0.0-6.0-1.184","FRKA","2","m","rechts","22","","","self","j","0","true"
"null","<div style=""font-size:60px;"">+</div>","null","html-keyboard-response","376","287465","0.0-6.0-0.185","FRKA","2","m","rechts","22","","fixation","","","",""
"950","img/30_300.png","70","image-keyboard-response","377","288416","0.0-6.0-1.185","FRKA","2","m","rechts","22","","","self","f","30","true"
"null","<div style=""font-size:60px;"">+</div>","null","html-keyboard-response","378","288818","0.0-6.0-0.186","FRKA","2","m","rechts","22","","fixation","","","",""
"1066","img/90_30.png","74","image-keyboard-response","379","289885","0.0-6.0-1.186","FRKA","2","m","rechts","22","","","self","j","90","true"
"null","<div style=""font-size:60px;"">+</div>","null","html-keyboard-response","380","290187","0.0-6.0-0.187","FRKA","2","m","rechts","22","","fixation","","","",""
"760","img/90_180.png","74","image-keyboard-response","381","290948","0.0-6.0-1.187","FRKA","2","m","rechts","22","","","self","j","90","true"
"null","<div style=""font-size:60px;"">+</div>","null","html-keyboard-response","382","291300","0.0-6.0-0.188","FRKA","2","m","rechts","22","","fixation","","","",""
"710","img/150_90.png","70","image-keyboard-response","383","292011","0.0-6.0-1.188","FRKA","2","m","rechts","22","","","self","f","150","true"
"null","<div style=""font-size:60px;"">+</div>","null","html-keyboard-response","384","292413","0.0-6.0-0.189","FRKA","2","m","rechts","22","","fixation","","","",""
"999","img/150_120.png","74","image-keyboard-response","385","293413","0.0-6.0-1.189","FRKA","2","m","rechts","22","","","self","f","150","false"
"null","<div style=""font-size:60px;"">+</div>","null","html-keyboard-response","386","293915","0.0-6.0-0.190","FRKA","2","m","rechts","22","","fixation","","","",""
"648","img/0_300.png","70","image-keyboard-response","387","294564","0.0-6.0-1.190","FRKA","2","m","rechts","22","","","self","f","0","true"
"null","<div style=""font-size:60px;"">+</div>","null","html-keyboard-response","388","294866","0.0-6.0-0.191","FRKA","2","m","rechts","22","","fixation","","","",""
"1049","img/90_120.png","70","image-keyboard-response","389","295916","0.0-6.0-1.191","FRKA","2","m","rechts","22","","","self","f","90","true"
"null","<div style=""font-size:60px;"">+</div>","null","html-keyboard-response","390","296268","0.0-6.0-0.192","FRKA","2","m","rechts","22","","fixation","","","",""
"633","img/0_270.png","70","image-keyboard-response","391","296902","0.0-6.0-1.192","FRKA","2","m","rechts","22","","","self","f","0","true"
"null","<div style=""font-size:60px;"">+</div>","null","html-keyboard-response","392","297204","0.0-6.0-0.193","FRKA","2","m","rechts","22","","fixation","","","",""
"634","img/90_150.png","70","image-keyboard-response","393","297839","0.0-6.0-1.193","FRKA","2","m","rechts","22","","","self","f","90","true"
"null","<div style=""font-size:60px;"">+</div>","null","html-keyboard-response","394","298291","0.0-6.0-0.194","FRKA","2","m","rechts","22","","fixation","","","",""
"697","img/90_240.png","74","image-keyboard-response","395","298989","0.0-6.0-1.194","FRKA","2","m","rechts","22","","","self","j","90","true"
"null","<div style=""font-size:60px;"">+</div>","null","html-keyboard-response","396","299391","0.0-6.0-0.195","FRKA","2","m","rechts","22","","fixation","","","",""
"763","img/30_60.png","74","image-keyboard-response","397","300155","0.0-6.0-1.195","FRKA","2","m","rechts","22","","","self","j","30","true"
"null","<div style=""font-size:60px;"">+</div>","null","html-keyboard-response","398","300457","0.0-6.0-0.196","FRKA","2","m","rechts","22","","fixation","","","",""
"1698","img/150_60.png","70","image-keyboard-response","399","302156","0.0-6.0-1.196","FRKA","2","m","rechts","22","","","self","f","150","true"
"null","<div style=""font-size:60px;"">+</div>","null","html-keyboard-response","400","302457","0.0-6.0-0.197","FRKA","2","m","rechts","22","","fixation","","","",""
"686","img/90_210.png","74","image-keyboard-response","401","303144","0.0-6.0-1.197","FRKA","2","m","rechts","22","","","self","j","90","true"
"null","<div style=""font-size:60px;"">+</div>","null","html-keyboard-response","402","303596","0.0-6.0-0.198","FRKA","2","m","rechts","22","","fixation","","","",""
"708","img/0_330.png","70","image-keyboard-response","403","304305","0.0-6.0-1.198","FRKA","2","m","rechts","22","","","self","f","0","true"
"null","<div style=""font-size:60px;"">+</div>","null","html-keyboard-response","404","304607","0.0-6.0-0.199","FRKA","2","m","rechts","22","","fixation","","","",""
"674","img/0_150.png","74","image-keyboard-response","405","305282","0.0-6.0-1.199","FRKA","2","m","rechts","22","","","self","j","0","true"
"null","<div style=""font-size:60px;"">+</div>","null","html-keyboard-response","406","305784","0.0-6.0-0.200","FRKA","2","m","rechts","22","","fixation","","","",""
"663","img/0_210.png","70","image-keyboard-response","407","306448","0.0-6.0-1.200","FRKA","2","m","rechts","22","","","self","f","0","true"
"null","<div style=""font-size:60px;"">+</div>","null","html-keyboard-response","408","306950","0.0-6.0-0.201","FRKA","2","m","rechts","22","","fixation","","","",""
"545","img/90_300.png","74","image-keyboard-response","409","307496","0.0-6.0-1.201","FRKA","2","m","rechts","22","","","self","f","90","false"
"null","<div style=""font-size:60px;"">+</div>","null","html-keyboard-response","410","307948","0.0-6.0-0.202","FRKA","2","m","rechts","22","","fixation","","","",""
"855","img/30_270.png","70","image-keyboard-response","411","308805","0.0-6.0-1.202","FRKA","2","m","rechts","22","","","self","f","30","true"
"null","<div style=""font-size:60px;"">+</div>","null","html-keyboard-response","412","309157","0.0-6.0-0.203","FRKA","2","m","rechts","22","","fixation","","","",""
"1459","img/90_330.png","70","image-keyboard-response","413","310618","0.0-6.0-1.203","FRKA","2","m","rechts","22","","","self","f","90","true"
"null","<div style=""font-size:60px;"">+</div>","null","html-keyboard-response","414","311018","0.0-6.0-0.204","FRKA","2","m","rechts","22","","fixation","","","",""
"550","img/30_240.png","70","image-keyboard-response","415","311570","0.0-6.0-1.204","FRKA","2","m","rechts","22","","","self","f","30","true"
"null","<div style=""font-size:60px;"">+</div>","null","html-keyboard-response","416","311972","0.0-6.0-0.205","FRKA","2","m","rechts","22","","fixation","","","",""
"2033","img/L90_180.png","70","image-keyboard-response","417","314006","0.0-6.0-1.205","FRKA","2","m","rechts","22","","","self","f","90","true"
"null","<div style=""font-size:60px;"">+</div>","null","html-keyboard-response","418","314458","0.0-6.0-0.206","FRKA","2","m","rechts","22","","fixation","","","",""
"634","img/0_90.png","74","image-keyboard-response","419","315094","0.0-6.0-1.206","FRKA","2","m","rechts","22","","","self","j","0","true"
"null","<div style=""font-size:60px;"">+</div>","null","html-keyboard-response","420","315495","0.0-6.0-0.207","FRKA","2","m","rechts","22","","fixation","","","",""
"842","img/60_270.png","70","image-keyboard-response","421","316339","0.0-6.0-1.207","FRKA","2","m","rechts","22","","","self","f","60","true"
"9301","<p>Du hast in 94% der Versuche korrekt entschieden.</p><p>Deine durchschnittliche Reaktionszeit war  936ms.</p><p>Dr&uuml;cke eine beliebige Taste, um die Session zu beenden. Vielen Dank!</p>","32","html-keyboard-response","422","325642","0.0-7.0","FRKA","2","m","rechts","22","","","","","",""
