"rt","stimulus","key_press","trial_type","trial_index","time_elapsed","internal_node_id","subject","session","sex","handedness","age","responses","test_part","condition","correct_response","angle","correct"
"21312","<p>Mental Rotation Experiment.</p> <p>Dr&uuml;cke eine beliebige Taste, um anzufangen.</p>","32","html-keyboard-response","0","21313","0.0-0.0","FRKA","4","m","rechts","22","","","","","",""
"11745","","","survey-text","1","33060","0.0-1.0","FRKA","4","m","rechts","22","{""Q0"":""FRKA""}","","","","",""
"2480","","","survey-text","2","35541","0.0-2.0","FRKA","4","m","rechts","22","{""Q0"":""4""}","","","","",""
"5620","","","survey-multi-choice","3","41163","0.0-3.0","FRKA","4","m","rechts","22","{""Q0"":""m"",""Q1"":""rechts""}","","","","",""
"2548","","","survey-text","4","43712","0.0-4.0","FRKA","4","m","rechts","22","{""Q0"":""22""}","","","","",""
"3178","<p> Stell dir vor, dass du vor einem runden Tisch stehst, auf dem sich ein blauer Ball am Tischrand befindet. Entlang des Tischrands ist jeweils ein verschieden langer Pfeil. Nun bewegst du dich entlang dieses Pfeils bis an seine Spitze. Wenn du am Ende des Pfeils angekommen bist, schau zur Tischmitte. </p> <img src='img/90_180.png'></img> <br> <p>Entscheide dann, ob der Ball von deiner neuen (vorgestellten) Position links oder rechts von dir liegt.</p> <p>Dr&uuml;cke die <strong>'f'</strong>-Taste f&uuml;r links, die <strong>'j'</strong>-Taste f&uuml;r rechts.</p> <br><p> Das Bild wird jeweils 1 Sekunde lang pr&auml;sentiert. Du hast 3 Sekunden Zeit eine Entscheidung zu treffen.</p>","32","html-keyboard-response","5","46891","0.0-5.0","FRKA","4","m","rechts","22","","","","","",""
"null","<div style=""font-size:60px;"">+</div>","null","html-keyboard-response","6","48245","0.0-6.0-0.0","FRKA","4","m","rechts","22","","fixation","","","",""
"1312","img/30_270.png","70","image-keyboard-response","7","49560","0.0-6.0-1.0","FRKA","4","m","rechts","22","","","self","f","30","true"
"null","<div style=""font-size:60px;"">+</div>","null","html-keyboard-response","8","49862","0.0-6.0-0.1","FRKA","4","m","rechts","22","","fixation","","","",""
"775","img/90_210.png","74","image-keyboard-response","9","50638","0.0-6.0-1.1","FRKA","4","m","rechts","22","","","self","j","90","true"
"null","<div style=""font-size:60px;"">+</div>","null","html-keyboard-response","10","51090","0.0-6.0-0.2","FRKA","4","m","rechts","22","","fixation","","","",""
"590","img/90_180.png","74","image-keyboard-response","11","51681","0.0-6.0-1.2","FRKA","4","m","rechts","22","","","self","j","90","true"
"null","<div style=""font-size:60px;"">+</div>","null","html-keyboard-response","12","52083","0.0-6.0-0.3","FRKA","4","m","rechts","22","","fixation","","","",""
"762","img/120_270.png","74","image-keyboard-response","13","52846","0.0-6.0-1.3","FRKA","4","m","rechts","22","","","self","j","120","true"
"null","<div style=""font-size:60px;"">+</div>","null","html-keyboard-response","14","53298","0.0-6.0-0.4","FRKA","4","m","rechts","22","","fixation","","","",""
"1181","img/30_240.png","70","image-keyboard-response","15","54480","0.0-6.0-1.4","FRKA","4","m","rechts","22","","","self","f","30","true"
"null","<div style=""font-size:60px;"">+</div>","null","html-keyboard-response","16","54881","0.0-6.0-0.5","FRKA","4","m","rechts","22","","fixation","","","",""
"710","img/150_240.png","74","image-keyboard-response","17","55592","0.0-6.0-1.5","FRKA","4","m","rechts","22","","","self","j","150","true"
"null","<div style=""font-size:60px;"">+</div>","null","html-keyboard-response","18","56094","0.0-6.0-0.6","FRKA","4","m","rechts","22","","fixation","","","",""
"602","img/150_180.png","74","image-keyboard-response","19","56697","0.0-6.0-1.6","FRKA","4","m","rechts","22","","","self","j","150","true"
"null","<div style=""font-size:60px;"">+</div>","null","html-keyboard-response","20","57199","0.0-6.0-0.7","FRKA","4","m","rechts","22","","fixation","","","",""
"629","img/0_240.png","70","image-keyboard-response","21","57829","0.0-6.0-1.7","FRKA","4","m","rechts","22","","","self","f","0","true"
"null","<div style=""font-size:60px;"">+</div>","null","html-keyboard-response","22","58231","0.0-6.0-0.8","FRKA","4","m","rechts","22","","fixation","","","",""
"1067","img/150_300.png","74","image-keyboard-response","23","59300","0.0-6.0-1.8","FRKA","4","m","rechts","22","","","self","j","150","true"
"null","<div style=""font-size:60px;"">+</div>","null","html-keyboard-response","24","59701","0.0-6.0-0.9","FRKA","4","m","rechts","22","","fixation","","","",""
"651","img/120_180.png","74","image-keyboard-response","25","60353","0.0-6.0-1.9","FRKA","4","m","rechts","22","","","self","j","120","true"
"null","<div style=""font-size:60px;"">+</div>","null","html-keyboard-response","26","60805","0.0-6.0-0.10","FRKA","4","m","rechts","22","","fixation","","","",""
"638","img/60_150.png","70","image-keyboard-response","27","61444","0.0-6.0-1.10","FRKA","4","m","rechts","22","","","self","f","60","true"
"null","<div style=""font-size:60px;"">+</div>","null","html-keyboard-response","28","61896","0.0-6.0-0.11","FRKA","4","m","rechts","22","","fixation","","","",""
"673","img/L60_180.png","70","image-keyboard-response","29","62570","0.0-6.0-1.11","FRKA","4","m","rechts","22","","","self","f","60","true"
"null","<div style=""font-size:60px;"">+</div>","null","html-keyboard-response","30","62922","0.0-6.0-0.12","FRKA","4","m","rechts","22","","fixation","","","",""
"901","img/30_90.png","74","image-keyboard-response","31","63824","0.0-6.0-1.12","FRKA","4","m","rechts","22","","","self","j","30","true"
"null","<div style=""font-size:60px;"">+</div>","null","html-keyboard-response","32","64126","0.0-6.0-0.13","FRKA","4","m","rechts","22","","fixation","","","",""
"703","img/60_330.png","70","image-keyboard-response","33","64830","0.0-6.0-1.13","FRKA","4","m","rechts","22","","","self","f","60","true"
"null","<div style=""font-size:60px;"">+</div>","null","html-keyboard-response","34","65332","0.0-6.0-0.14","FRKA","4","m","rechts","22","","fixation","","","",""
"590","img/0_300.png","70","image-keyboard-response","35","65924","0.0-6.0-1.14","FRKA","4","m","rechts","22","","","self","f","0","true"
"null","<div style=""font-size:60px;"">+</div>","null","html-keyboard-response","36","66376","0.0-6.0-0.15","FRKA","4","m","rechts","22","","fixation","","","",""
"917","img/60_270.png","70","image-keyboard-response","37","67294","0.0-6.0-1.15","FRKA","4","m","rechts","22","","","self","f","60","true"
"null","<div style=""font-size:60px;"">+</div>","null","html-keyboard-response","38","67796","0.0-6.0-0.16","FRKA","4","m","rechts","22","","fixation","","","",""
"834","img/120_330.png","70","image-keyboard-response","39","68632","0.0-6.0-1.16","FRKA","4","m","rechts","22","","","self","f","120","true"
"null","<div style=""font-size:60px;"">+</div>","null","html-keyboard-response","40","69134","0.0-6.0-0.17","FRKA","4","m","rechts","22","","fixation","","","",""
"831","img/30_180.png","74","image-keyboard-response","41","69967","0.0-6.0-1.17","FRKA","4","m","rechts","22","","","self","j","30","true"
"null","<div style=""font-size:60px;"">+</div>","null","html-keyboard-response","42","70369","0.0-6.0-0.18","FRKA","4","m","rechts","22","","fixation","","","",""
"1067","img/0_60.png","74","image-keyboard-response","43","71437","0.0-6.0-1.18","FRKA","4","m","rechts","22","","","self","j","0","true"
"null","<div style=""font-size:60px;"">+</div>","null","html-keyboard-response","44","71889","0.0-6.0-0.19","FRKA","4","m","rechts","22","","fixation","","","",""
"1996","img/150_60.png","70","image-keyboard-response","45","73887","0.0-6.0-1.19","FRKA","4","m","rechts","22","","","self","f","150","true"
"null","<div style=""font-size:60px;"">+</div>","null","html-keyboard-response","46","74389","0.0-6.0-0.20","FRKA","4","m","rechts","22","","fixation","","","",""
"693","img/30_60.png","74","image-keyboard-response","47","75084","0.0-6.0-1.20","FRKA","4","m","rechts","22","","","self","j","30","true"
"null","<div style=""font-size:60px;"">+</div>","null","html-keyboard-response","48","75436","0.0-6.0-0.21","FRKA","4","m","rechts","22","","fixation","","","",""
"813","img/90_240.png","74","image-keyboard-response","49","76251","0.0-6.0-1.21","FRKA","4","m","rechts","22","","","self","j","90","true"
"null","<div style=""font-size:60px;"">+</div>","null","html-keyboard-response","50","76702","0.0-6.0-0.22","FRKA","4","m","rechts","22","","fixation","","","",""
"637","img/0_330.png","70","image-keyboard-response","51","77342","0.0-6.0-1.22","FRKA","4","m","rechts","22","","","self","f","0","true"
"null","<div style=""font-size:60px;"">+</div>","null","html-keyboard-response","52","77793","0.0-6.0-0.23","FRKA","4","m","rechts","22","","fixation","","","",""
"678","img/120_210.png","74","image-keyboard-response","53","78473","0.0-6.0-1.23","FRKA","4","m","rechts","22","","","self","j","120","true"
"null","<div style=""font-size:60px;"">+</div>","null","html-keyboard-response","54","78925","0.0-6.0-0.24","FRKA","4","m","rechts","22","","fixation","","","",""
"698","img/0_30.png","74","image-keyboard-response","55","79625","0.0-6.0-1.24","FRKA","4","m","rechts","22","","","self","j","0","true"
"null","<div style=""font-size:60px;"">+</div>","null","html-keyboard-response","56","79977","0.0-6.0-0.25","FRKA","4","m","rechts","22","","fixation","","","",""
"811","img/60_210.png","74","image-keyboard-response","57","80789","0.0-6.0-1.25","FRKA","4","m","rechts","22","","","self","j","60","true"
"null","<div style=""font-size:60px;"">+</div>","null","html-keyboard-response","58","81241","0.0-6.0-0.26","FRKA","4","m","rechts","22","","fixation","","","",""
"553","img/30_300.png","70","image-keyboard-response","59","81795","0.0-6.0-1.26","FRKA","4","m","rechts","22","","","self","f","30","true"
"null","<div style=""font-size:60px;"">+</div>","null","html-keyboard-response","60","82097","0.0-6.0-0.27","FRKA","4","m","rechts","22","","fixation","","","",""
"698","img/L120_180.png","70","image-keyboard-response","61","82796","0.0-6.0-1.27","FRKA","4","m","rechts","22","","","self","f","120","true"
"null","<div style=""font-size:60px;"">+</div>","null","html-keyboard-response","62","83198","0.0-6.0-0.28","FRKA","4","m","rechts","22","","fixation","","","",""
"775","img/150_270.png","74","image-keyboard-response","63","83974","0.0-6.0-1.28","FRKA","4","m","rechts","22","","","self","j","150","true"
"null","<div style=""font-size:60px;"">+</div>","null","html-keyboard-response","64","84276","0.0-6.0-0.29","FRKA","4","m","rechts","22","","fixation","","","",""
"634","img/L90_180.png","70","image-keyboard-response","65","84912","0.0-6.0-1.29","FRKA","4","m","rechts","22","","","self","f","90","true"
"null","<div style=""font-size:60px;"">+</div>","null","html-keyboard-response","66","85363","0.0-6.0-0.30","FRKA","4","m","rechts","22","","fixation","","","",""
"554","img/0_210.png","70","image-keyboard-response","67","85918","0.0-6.0-1.30","FRKA","4","m","rechts","22","","","self","f","0","true"
"null","<div style=""font-size:60px;"">+</div>","null","html-keyboard-response","68","86270","0.0-6.0-0.31","FRKA","4","m","rechts","22","","fixation","","","",""
"1251","img/30_120.png","74","image-keyboard-response","69","87522","0.0-6.0-1.31","FRKA","4","m","rechts","22","","","self","j","30","true"
"null","<div style=""font-size:60px;"">+</div>","null","html-keyboard-response","70","87924","0.0-6.0-0.32","FRKA","4","m","rechts","22","","fixation","","","",""
"687","img/90_330.png","70","image-keyboard-response","71","88612","0.0-6.0-1.32","FRKA","4","m","rechts","22","","","self","f","90","true"
"null","<div style=""font-size:60px;"">+</div>","null","html-keyboard-response","72","88964","0.0-6.0-0.33","FRKA","4","m","rechts","22","","fixation","","","",""
"843","img/60_90.png","74","image-keyboard-response","73","89808","0.0-6.0-1.33","FRKA","4","m","rechts","22","","","self","j","60","true"
"null","<div style=""font-size:60px;"">+</div>","null","html-keyboard-response","74","90260","0.0-6.0-0.34","FRKA","4","m","rechts","22","","fixation","","","",""
"626","img/90_300.png","70","image-keyboard-response","75","90888","0.0-6.0-1.34","FRKA","4","m","rechts","22","","","self","f","90","true"
"null","<div style=""font-size:60px;"">+</div>","null","html-keyboard-response","76","91190","0.0-6.0-0.35","FRKA","4","m","rechts","22","","fixation","","","",""
"739","img/120_150.png","70","image-keyboard-response","77","91930","0.0-6.0-1.35","FRKA","4","m","rechts","22","","","self","f","120","true"
"null","<div style=""font-size:60px;"">+</div>","null","html-keyboard-response","78","92232","0.0-6.0-0.36","FRKA","4","m","rechts","22","","fixation","","","",""
"786","img/90_120.png","70","image-keyboard-response","79","93019","0.0-6.0-1.36","FRKA","4","m","rechts","22","","","self","f","90","true"
"null","<div style=""font-size:60px;"">+</div>","null","html-keyboard-response","80","93472","0.0-6.0-0.37","FRKA","4","m","rechts","22","","fixation","","","",""
"942","img/90_30.png","74","image-keyboard-response","81","94416","0.0-6.0-1.37","FRKA","4","m","rechts","22","","","self","j","90","true"
"null","<div style=""font-size:60px;"">+</div>","null","html-keyboard-response","82","94818","0.0-6.0-0.38","FRKA","4","m","rechts","22","","fixation","","","",""
"709","img/90_60.png","74","image-keyboard-response","83","95529","0.0-6.0-1.38","FRKA","4","m","rechts","22","","","self","j","90","true"
"null","<div style=""font-size:60px;"">+</div>","null","html-keyboard-response","84","95931","0.0-6.0-0.39","FRKA","4","m","rechts","22","","fixation","","","",""
"637","img/0_150.png","74","image-keyboard-response","85","96569","0.0-6.0-1.39","FRKA","4","m","rechts","22","","","self","j","0","true"
"null","<div style=""font-size:60px;"">+</div>","null","html-keyboard-response","86","97021","0.0-6.0-0.40","FRKA","4","m","rechts","22","","fixation","","","",""
"913","img/120_90.png","70","image-keyboard-response","87","97935","0.0-6.0-1.40","FRKA","4","m","rechts","22","","","self","f","120","true"
"null","<div style=""font-size:60px;"">+</div>","null","html-keyboard-response","88","98437","0.0-6.0-0.41","FRKA","4","m","rechts","22","","fixation","","","",""
"562","img/0_120.png","74","image-keyboard-response","89","99000","0.0-6.0-1.41","FRKA","4","m","rechts","22","","","self","j","0","true"
"null","<div style=""font-size:60px;"">+</div>","null","html-keyboard-response","90","99402","0.0-6.0-0.42","FRKA","4","m","rechts","22","","fixation","","","",""
"770","img/120_30.png","74","image-keyboard-response","91","100173","0.0-6.0-1.42","FRKA","4","m","rechts","22","","","self","j","120","true"
"null","<div style=""font-size:60px;"">+</div>","null","html-keyboard-response","92","100675","0.0-6.0-0.43","FRKA","4","m","rechts","22","","fixation","","","",""
"841","img/150_90.png","70","image-keyboard-response","93","101517","0.0-6.0-1.43","FRKA","4","m","rechts","22","","","self","f","150","true"
"null","<div style=""font-size:60px;"">+</div>","null","html-keyboard-response","94","101969","0.0-6.0-0.44","FRKA","4","m","rechts","22","","fixation","","","",""
"710","img/L30_180.png","70","image-keyboard-response","95","102680","0.0-6.0-1.44","FRKA","4","m","rechts","22","","","self","f","30","true"
"null","<div style=""font-size:60px;"">+</div>","null","html-keyboard-response","96","102982","0.0-6.0-0.45","FRKA","4","m","rechts","22","","fixation","","","",""
"605","img/L150_180.png","70","image-keyboard-response","97","103588","0.0-6.0-1.45","FRKA","4","m","rechts","22","","","self","f","150","true"
"null","<div style=""font-size:60px;"">+</div>","null","html-keyboard-response","98","103890","0.0-6.0-0.46","FRKA","4","m","rechts","22","","fixation","","","",""
"683","img/60_180.png","74","image-keyboard-response","99","104575","0.0-6.0-1.46","FRKA","4","m","rechts","22","","","self","j","60","true"
"null","<div style=""font-size:60px;"">+</div>","null","html-keyboard-response","100","104977","0.0-6.0-0.47","FRKA","4","m","rechts","22","","fixation","","","",""
"611","img/0_90.png","74","image-keyboard-response","101","105589","0.0-6.0-1.47","FRKA","4","m","rechts","22","","","self","j","0","true"
"null","<div style=""font-size:60px;"">+</div>","null","html-keyboard-response","102","105991","0.0-6.0-0.48","FRKA","4","m","rechts","22","","fixation","","","",""
"593","img/0_270.png","70","image-keyboard-response","103","106586","0.0-6.0-1.48","FRKA","4","m","rechts","22","","","self","f","0","true"
"null","<div style=""font-size:60px;"">+</div>","null","html-keyboard-response","104","107038","0.0-6.0-0.49","FRKA","4","m","rechts","22","","fixation","","","",""
"491","img/150_120.png","70","image-keyboard-response","105","107531","0.0-6.0-1.49","FRKA","4","m","rechts","22","","","self","f","150","true"
"null","<div style=""font-size:60px;"">+</div>","null","html-keyboard-response","106","107883","0.0-6.0-0.50","FRKA","4","m","rechts","22","","fixation","","","",""
"625","img/60_30.png","74","image-keyboard-response","107","108510","0.0-6.0-1.50","FRKA","4","m","rechts","22","","","self","j","60","true"
"null","<div style=""font-size:60px;"">+</div>","null","html-keyboard-response","108","108962","0.0-6.0-0.51","FRKA","4","m","rechts","22","","fixation","","","",""
"689","img/90_150.png","70","image-keyboard-response","109","109653","0.0-6.0-1.51","FRKA","4","m","rechts","22","","","self","f","90","true"
"null","<div style=""font-size:60px;"">+</div>","null","html-keyboard-response","110","109955","0.0-6.0-0.52","FRKA","4","m","rechts","22","","fixation","","","",""
"617","img/30_60.png","74","image-keyboard-response","111","110574","0.0-6.0-1.52","FRKA","4","m","rechts","22","","","self","j","30","true"
"null","<div style=""font-size:60px;"">+</div>","null","html-keyboard-response","112","110876","0.0-6.0-0.53","FRKA","4","m","rechts","22","","fixation","","","",""
"673","img/120_210.png","74","image-keyboard-response","113","111550","0.0-6.0-1.53","FRKA","4","m","rechts","22","","","self","j","120","true"
"null","<div style=""font-size:60px;"">+</div>","null","html-keyboard-response","114","111951","0.0-6.0-0.54","FRKA","4","m","rechts","22","","fixation","","","",""
"673","img/90_30.png","74","image-keyboard-response","115","112626","0.0-6.0-1.54","FRKA","4","m","rechts","22","","","self","j","90","true"
"null","<div style=""font-size:60px;"">+</div>","null","html-keyboard-response","116","113078","0.0-6.0-0.55","FRKA","4","m","rechts","22","","fixation","","","",""
"944","img/30_180.png","74","image-keyboard-response","117","114023","0.0-6.0-1.55","FRKA","4","m","rechts","22","","","self","j","30","true"
"null","<div style=""font-size:60px;"">+</div>","null","html-keyboard-response","118","114474","0.0-6.0-0.56","FRKA","4","m","rechts","22","","fixation","","","",""
"652","img/60_180.png","74","image-keyboard-response","119","115128","0.0-6.0-1.56","FRKA","4","m","rechts","22","","","self","j","60","true"
"null","<div style=""font-size:60px;"">+</div>","null","html-keyboard-response","120","115429","0.0-6.0-0.57","FRKA","4","m","rechts","22","","fixation","","","",""
"674","img/60_30.png","74","image-keyboard-response","121","116104","0.0-6.0-1.57","FRKA","4","m","rechts","22","","","self","j","60","true"
"null","<div style=""font-size:60px;"">+</div>","null","html-keyboard-response","122","116556","0.0-6.0-0.58","FRKA","4","m","rechts","22","","fixation","","","",""
"678","img/90_60.png","74","image-keyboard-response","123","117235","0.0-6.0-1.58","FRKA","4","m","rechts","22","","","self","j","90","true"
"null","<div style=""font-size:60px;"">+</div>","null","html-keyboard-response","124","117587","0.0-6.0-0.59","FRKA","4","m","rechts","22","","fixation","","","",""
"667","img/L90_180.png","70","image-keyboard-response","125","118255","0.0-6.0-1.59","FRKA","4","m","rechts","22","","","self","f","90","true"
"null","<div style=""font-size:60px;"">+</div>","null","html-keyboard-response","126","118607","0.0-6.0-0.60","FRKA","4","m","rechts","22","","fixation","","","",""
"826","img/150_180.png","74","image-keyboard-response","127","119434","0.0-6.0-1.60","FRKA","4","m","rechts","22","","","self","j","150","true"
"null","<div style=""font-size:60px;"">+</div>","null","html-keyboard-response","128","119786","0.0-6.0-0.61","FRKA","4","m","rechts","22","","fixation","","","",""
"637","img/60_330.png","74","image-keyboard-response","129","120424","0.0-6.0-1.61","FRKA","4","m","rechts","22","","","self","f","60","false"
"null","<div style=""font-size:60px;"">+</div>","null","html-keyboard-response","130","120826","0.0-6.0-0.62","FRKA","4","m","rechts","22","","fixation","","","",""
"528","img/0_270.png","70","image-keyboard-response","131","121355","0.0-6.0-1.62","FRKA","4","m","rechts","22","","","self","f","0","true"
"null","<div style=""font-size:60px;"">+</div>","null","html-keyboard-response","132","121657","0.0-6.0-0.63","FRKA","4","m","rechts","22","","fixation","","","",""
"751","img/150_270.png","74","image-keyboard-response","133","122409","0.0-6.0-1.63","FRKA","4","m","rechts","22","","","self","j","150","true"
"null","<div style=""font-size:60px;"">+</div>","null","html-keyboard-response","134","122911","0.0-6.0-0.64","FRKA","4","m","rechts","22","","fixation","","","",""
"669","img/120_270.png","74","image-keyboard-response","135","123581","0.0-6.0-1.64","FRKA","4","m","rechts","22","","","self","j","120","true"
"null","<div style=""font-size:60px;"">+</div>","null","html-keyboard-response","136","123883","0.0-6.0-0.65","FRKA","4","m","rechts","22","","fixation","","","",""
"1100","img/30_240.png","70","image-keyboard-response","137","124984","0.0-6.0-1.65","FRKA","4","m","rechts","22","","","self","f","30","true"
"null","<div style=""font-size:60px;"">+</div>","null","html-keyboard-response","138","125286","0.0-6.0-0.66","FRKA","4","m","rechts","22","","fixation","","","",""
"575","img/0_300.png","70","image-keyboard-response","139","125862","0.0-6.0-1.66","FRKA","4","m","rechts","22","","","self","f","0","true"
"null","<div style=""font-size:60px;"">+</div>","null","html-keyboard-response","140","126214","0.0-6.0-0.67","FRKA","4","m","rechts","22","","fixation","","","",""
"813","img/60_90.png","70","image-keyboard-response","141","127028","0.0-6.0-1.67","FRKA","4","m","rechts","22","","","self","j","60","false"
"null","<div style=""font-size:60px;"">+</div>","null","html-keyboard-response","142","127530","0.0-6.0-0.68","FRKA","4","m","rechts","22","","fixation","","","",""
"846","img/L120_180.png","70","image-keyboard-response","143","128377","0.0-6.0-1.68","FRKA","4","m","rechts","22","","","self","f","120","true"
"null","<div style=""font-size:60px;"">+</div>","null","html-keyboard-response","144","128729","0.0-6.0-0.69","FRKA","4","m","rechts","22","","fixation","","","",""
"979","img/120_330.png","70","image-keyboard-response","145","129708","0.0-6.0-1.69","FRKA","4","m","rechts","22","","","self","f","120","true"
"null","<div style=""font-size:60px;"">+</div>","null","html-keyboard-response","146","130010","0.0-6.0-0.70","FRKA","4","m","rechts","22","","fixation","","","",""
"732","img/L60_180.png","70","image-keyboard-response","147","130743","0.0-6.0-1.70","FRKA","4","m","rechts","22","","","self","f","60","true"
"null","<div style=""font-size:60px;"">+</div>","null","html-keyboard-response","148","131195","0.0-6.0-0.71","FRKA","4","m","rechts","22","","fixation","","","",""
"629","img/120_150.png","70","image-keyboard-response","149","131825","0.0-6.0-1.71","FRKA","4","m","rechts","22","","","self","f","120","true"
"null","<div style=""font-size:60px;"">+</div>","null","html-keyboard-response","150","132127","0.0-6.0-0.72","FRKA","4","m","rechts","22","","fixation","","","",""
"606","img/0_60.png","74","image-keyboard-response","151","132734","0.0-6.0-1.72","FRKA","4","m","rechts","22","","","self","j","0","true"
"null","<div style=""font-size:60px;"">+</div>","null","html-keyboard-response","152","133186","0.0-6.0-0.73","FRKA","4","m","rechts","22","","fixation","","","",""
"465","img/90_150.png","70","image-keyboard-response","153","133652","0.0-6.0-1.73","FRKA","4","m","rechts","22","","","self","f","90","true"
"null","<div style=""font-size:60px;"">+</div>","null","html-keyboard-response","154","134154","0.0-6.0-0.74","FRKA","4","m","rechts","22","","fixation","","","",""
"557","img/0_90.png","74","image-keyboard-response","155","134712","0.0-6.0-1.74","FRKA","4","m","rechts","22","","","self","j","0","true"
"null","<div style=""font-size:60px;"">+</div>","null","html-keyboard-response","156","135114","0.0-6.0-0.75","FRKA","4","m","rechts","22","","fixation","","","",""
"656","img/90_210.png","74","image-keyboard-response","157","135771","0.0-6.0-1.75","FRKA","4","m","rechts","22","","","self","j","90","true"
"null","<div style=""font-size:60px;"">+</div>","null","html-keyboard-response","158","136223","0.0-6.0-0.76","FRKA","4","m","rechts","22","","fixation","","","",""
"627","img/0_240.png","70","image-keyboard-response","159","136851","0.0-6.0-1.76","FRKA","4","m","rechts","22","","","self","f","0","true"
"null","<div style=""font-size:60px;"">+</div>","null","html-keyboard-response","160","137353","0.0-6.0-0.77","FRKA","4","m","rechts","22","","fixation","","","",""
"881","img/30_90.png","74","image-keyboard-response","161","138235","0.0-6.0-1.77","FRKA","4","m","rechts","22","","","self","j","30","true"
"null","<div style=""font-size:60px;"">+</div>","null","html-keyboard-response","162","138637","0.0-6.0-0.78","FRKA","4","m","rechts","22","","fixation","","","",""
"800","img/90_300.png","70","image-keyboard-response","163","139438","0.0-6.0-1.78","FRKA","4","m","rechts","22","","","self","f","90","true"
"null","<div style=""font-size:60px;"">+</div>","null","html-keyboard-response","164","139940","0.0-6.0-0.79","FRKA","4","m","rechts","22","","fixation","","","",""
"574","img/0_330.png","70","image-keyboard-response","165","140515","0.0-6.0-1.79","FRKA","4","m","rechts","22","","","self","f","0","true"
"null","<div style=""font-size:60px;"">+</div>","null","html-keyboard-response","166","141017","0.0-6.0-0.80","FRKA","4","m","rechts","22","","fixation","","","",""
"654","img/0_150.png","74","image-keyboard-response","167","141672","0.0-6.0-1.80","FRKA","4","m","rechts","22","","","self","j","0","true"
"null","<div style=""font-size:60px;"">+</div>","null","html-keyboard-response","168","142024","0.0-6.0-0.81","FRKA","4","m","rechts","22","","fixation","","","",""
"606","img/120_180.png","74","image-keyboard-response","169","142631","0.0-6.0-1.81","FRKA","4","m","rechts","22","","","self","j","120","true"
"null","<div style=""font-size:60px;"">+</div>","null","html-keyboard-response","170","142983","0.0-6.0-0.82","FRKA","4","m","rechts","22","","fixation","","","",""
"837","img/150_60.png","74","image-keyboard-response","171","143821","0.0-6.0-1.82","FRKA","4","m","rechts","22","","","self","f","150","false"
"null","<div style=""font-size:60px;"">+</div>","null","html-keyboard-response","172","144173","0.0-6.0-0.83","FRKA","4","m","rechts","22","","fixation","","","",""
"917","img/90_120.png","70","image-keyboard-response","173","145091","0.0-6.0-1.83","FRKA","4","m","rechts","22","","","self","f","90","true"
"null","<div style=""font-size:60px;"">+</div>","null","html-keyboard-response","174","145543","0.0-6.0-0.84","FRKA","4","m","rechts","22","","fixation","","","",""
"526","img/0_30.png","74","image-keyboard-response","175","146071","0.0-6.0-1.84","FRKA","4","m","rechts","22","","","self","j","0","true"
"null","<div style=""font-size:60px;"">+</div>","null","html-keyboard-response","176","146423","0.0-6.0-0.85","FRKA","4","m","rechts","22","","fixation","","","",""
"602","img/90_240.png","74","image-keyboard-response","177","147027","0.0-6.0-1.85","FRKA","4","m","rechts","22","","","self","j","90","true"
"null","<div style=""font-size:60px;"">+</div>","null","html-keyboard-response","178","147479","0.0-6.0-0.86","FRKA","4","m","rechts","22","","fixation","","","",""
"586","img/L150_180.png","70","image-keyboard-response","179","148066","0.0-6.0-1.86","FRKA","4","m","rechts","22","","","self","f","150","true"
"null","<div style=""font-size:60px;"">+</div>","null","html-keyboard-response","180","148468","0.0-6.0-0.87","FRKA","4","m","rechts","22","","fixation","","","",""
"931","img/30_270.png","70","image-keyboard-response","181","149401","0.0-6.0-1.87","FRKA","4","m","rechts","22","","","self","f","30","true"
"null","<div style=""font-size:60px;"">+</div>","null","html-keyboard-response","182","149803","0.0-6.0-0.88","FRKA","4","m","rechts","22","","fixation","","","",""
"635","img/150_90.png","70","image-keyboard-response","183","150439","0.0-6.0-1.88","FRKA","4","m","rechts","22","","","self","f","150","true"
"null","<div style=""font-size:60px;"">+</div>","null","html-keyboard-response","184","150890","0.0-6.0-0.89","FRKA","4","m","rechts","22","","fixation","","","",""
"812","img/30_120.png","74","image-keyboard-response","185","151703","0.0-6.0-1.89","FRKA","4","m","rechts","22","","","self","j","30","true"
"null","<div style=""font-size:60px;"">+</div>","null","html-keyboard-response","186","152105","0.0-6.0-0.90","FRKA","4","m","rechts","22","","fixation","","","",""
"667","img/0_210.png","70","image-keyboard-response","187","152776","0.0-6.0-1.90","FRKA","4","m","rechts","22","","","self","f","0","true"
"null","<div style=""font-size:60px;"">+</div>","null","html-keyboard-response","188","153078","0.0-6.0-0.91","FRKA","4","m","rechts","22","","fixation","","","",""
"684","img/60_150.png","70","image-keyboard-response","189","153763","0.0-6.0-1.91","FRKA","4","m","rechts","22","","","self","f","60","true"
"null","<div style=""font-size:60px;"">+</div>","null","html-keyboard-response","190","154165","0.0-6.0-0.92","FRKA","4","m","rechts","22","","fixation","","","",""
"551","img/0_120.png","74","image-keyboard-response","191","154718","0.0-6.0-1.92","FRKA","4","m","rechts","22","","","self","j","0","true"
"null","<div style=""font-size:60px;"">+</div>","null","html-keyboard-response","192","155171","0.0-6.0-0.93","FRKA","4","m","rechts","22","","fixation","","","",""
"596","img/120_30.png","70","image-keyboard-response","193","155768","0.0-6.0-1.93","FRKA","4","m","rechts","22","","","self","j","120","false"
"null","<div style=""font-size:60px;"">+</div>","null","html-keyboard-response","194","156070","0.0-6.0-0.94","FRKA","4","m","rechts","22","","fixation","","","",""
"826","img/60_270.png","70","image-keyboard-response","195","156897","0.0-6.0-1.94","FRKA","4","m","rechts","22","","","self","f","60","true"
"null","<div style=""font-size:60px;"">+</div>","null","html-keyboard-response","196","157250","0.0-6.0-0.95","FRKA","4","m","rechts","22","","fixation","","","",""
"804","img/60_210.png","74","image-keyboard-response","197","158055","0.0-6.0-1.95","FRKA","4","m","rechts","22","","","self","j","60","true"
"null","<div style=""font-size:60px;"">+</div>","null","html-keyboard-response","198","158457","0.0-6.0-0.96","FRKA","4","m","rechts","22","","fixation","","","",""
"650","img/30_300.png","70","image-keyboard-response","199","159108","0.0-6.0-1.96","FRKA","4","m","rechts","22","","","self","f","30","true"
"null","<div style=""font-size:60px;"">+</div>","null","html-keyboard-response","200","159410","0.0-6.0-0.97","FRKA","4","m","rechts","22","","fixation","","","",""
"1900","img/150_300.png","74","image-keyboard-response","201","161311","0.0-6.0-1.97","FRKA","4","m","rechts","22","","","self","j","150","true"
"null","<div style=""font-size:60px;"">+</div>","null","html-keyboard-response","202","161813","0.0-6.0-0.98","FRKA","4","m","rechts","22","","fixation","","","",""
"733","img/90_180.png","74","image-keyboard-response","203","162549","0.0-6.0-1.98","FRKA","4","m","rechts","22","","","self","j","90","true"
"null","<div style=""font-size:60px;"">+</div>","null","html-keyboard-response","204","162901","0.0-6.0-0.99","FRKA","4","m","rechts","22","","fixation","","","",""
"606","img/150_120.png","70","image-keyboard-response","205","163508","0.0-6.0-1.99","FRKA","4","m","rechts","22","","","self","f","150","true"
"null","<div style=""font-size:60px;"">+</div>","null","html-keyboard-response","206","164010","0.0-6.0-0.100","FRKA","4","m","rechts","22","","fixation","","","",""
"568","img/L30_180.png","70","image-keyboard-response","207","164579","0.0-6.0-1.100","FRKA","4","m","rechts","22","","","self","f","30","true"
"null","<div style=""font-size:60px;"">+</div>","null","html-keyboard-response","208","165031","0.0-6.0-0.101","FRKA","4","m","rechts","22","","fixation","","","",""
"600","img/150_240.png","74","image-keyboard-response","209","165632","0.0-6.0-1.101","FRKA","4","m","rechts","22","","","self","j","150","true"
"null","<div style=""font-size:60px;"">+</div>","null","html-keyboard-response","210","165984","0.0-6.0-0.102","FRKA","4","m","rechts","22","","fixation","","","",""
"584","img/90_330.png","74","image-keyboard-response","211","166569","0.0-6.0-1.102","FRKA","4","m","rechts","22","","","self","f","90","false"
"null","<div style=""font-size:60px;"">+</div>","null","html-keyboard-response","212","167071","0.0-6.0-0.103","FRKA","4","m","rechts","22","","fixation","","","",""
"882","img/120_90.png","70","image-keyboard-response","213","167954","0.0-6.0-1.103","FRKA","4","m","rechts","22","","","self","f","120","true"
"null","<div style=""font-size:60px;"">+</div>","null","html-keyboard-response","214","168456","0.0-6.0-0.104","FRKA","4","m","rechts","22","","fixation","","","",""
"966","img/30_240.png","70","image-keyboard-response","215","169423","0.0-6.0-1.104","FRKA","4","m","rechts","22","","","self","f","30","true"
"null","<div style=""font-size:60px;"">+</div>","null","html-keyboard-response","216","169725","0.0-6.0-0.105","FRKA","4","m","rechts","22","","fixation","","","",""
"627","img/L60_180.png","70","image-keyboard-response","217","170354","0.0-6.0-1.105","FRKA","4","m","rechts","22","","","self","f","60","true"
"null","<div style=""font-size:60px;"">+</div>","null","html-keyboard-response","218","170657","0.0-6.0-0.106","FRKA","4","m","rechts","22","","fixation","","","",""
"908","img/120_270.png","74","image-keyboard-response","219","171566","0.0-6.0-1.106","FRKA","4","m","rechts","22","","","self","j","120","true"
"null","<div style=""font-size:60px;"">+</div>","null","html-keyboard-response","220","171968","0.0-6.0-0.107","FRKA","4","m","rechts","22","","fixation","","","",""
"534","img/120_180.png","74","image-keyboard-response","221","172503","0.0-6.0-1.107","FRKA","4","m","rechts","22","","","self","j","120","true"
"null","<div style=""font-size:60px;"">+</div>","null","html-keyboard-response","222","172805","0.0-6.0-0.108","FRKA","4","m","rechts","22","","fixation","","","",""
"657","img/90_120.png","70","image-keyboard-response","223","173463","0.0-6.0-1.108","FRKA","4","m","rechts","22","","","self","f","90","true"
"null","<div style=""font-size:60px;"">+</div>","null","html-keyboard-response","224","173915","0.0-6.0-0.109","FRKA","4","m","rechts","22","","fixation","","","",""
"607","img/0_300.png","70","image-keyboard-response","225","174524","0.0-6.0-1.109","FRKA","4","m","rechts","22","","","self","f","0","true"
"null","<div style=""font-size:60px;"">+</div>","null","html-keyboard-response","226","174926","0.0-6.0-0.110","FRKA","4","m","rechts","22","","fixation","","","",""
"575","img/0_60.png","74","image-keyboard-response","227","175502","0.0-6.0-1.110","FRKA","4","m","rechts","22","","","self","j","0","true"
"null","<div style=""font-size:60px;"">+</div>","null","html-keyboard-response","228","175804","0.0-6.0-0.111","FRKA","4","m","rechts","22","","fixation","","","",""
"564","img/90_240.png","74","image-keyboard-response","229","176369","0.0-6.0-1.111","FRKA","4","m","rechts","22","","","self","j","90","true"
"null","<div style=""font-size:60px;"">+</div>","null","html-keyboard-response","230","176871","0.0-6.0-0.112","FRKA","4","m","rechts","22","","fixation","","","",""
"549","img/30_60.png","74","image-keyboard-response","231","177421","0.0-6.0-1.112","FRKA","4","m","rechts","22","","","self","j","30","true"
"null","<div style=""font-size:60px;"">+</div>","null","html-keyboard-response","232","177723","0.0-6.0-0.113","FRKA","4","m","rechts","22","","fixation","","","",""
"591","img/L120_180.png","70","image-keyboard-response","233","178315","0.0-6.0-1.113","FRKA","4","m","rechts","22","","","self","f","120","true"
"null","<div style=""font-size:60px;"">+</div>","null","html-keyboard-response","234","178717","0.0-6.0-0.114","FRKA","4","m","rechts","22","","fixation","","","",""
"751","img/150_270.png","74","image-keyboard-response","235","179469","0.0-6.0-1.114","FRKA","4","m","rechts","22","","","self","j","150","true"
"null","<div style=""font-size:60px;"">+</div>","null","html-keyboard-response","236","179771","0.0-6.0-0.115","FRKA","4","m","rechts","22","","fixation","","","",""
"628","img/0_150.png","74","image-keyboard-response","237","180400","0.0-6.0-1.115","FRKA","4","m","rechts","22","","","self","j","0","true"
"null","<div style=""font-size:60px;"">+</div>","null","html-keyboard-response","238","180702","0.0-6.0-0.116","FRKA","4","m","rechts","22","","fixation","","","",""
"825","img/0_240.png","70","image-keyboard-response","239","181528","0.0-6.0-1.116","FRKA","4","m","rechts","22","","","self","f","0","true"
"null","<div style=""font-size:60px;"">+</div>","null","html-keyboard-response","240","181980","0.0-6.0-0.117","FRKA","4","m","rechts","22","","fixation","","","",""
"564","img/150_300.png","74","image-keyboard-response","241","182545","0.0-6.0-1.117","FRKA","4","m","rechts","22","","","self","j","150","true"
"null","<div style=""font-size:60px;"">+</div>","null","html-keyboard-response","242","183047","0.0-6.0-0.118","FRKA","4","m","rechts","22","","fixation","","","",""
"514","img/120_150.png","70","image-keyboard-response","243","183562","0.0-6.0-1.118","FRKA","4","m","rechts","22","","","self","f","120","true"
"null","<div style=""font-size:60px;"">+</div>","null","html-keyboard-response","244","184064","0.0-6.0-0.119","FRKA","4","m","rechts","22","","fixation","","","",""
"663","img/150_180.png","74","image-keyboard-response","245","184729","0.0-6.0-1.119","FRKA","4","m","rechts","22","","","self","j","150","true"
"null","<div style=""font-size:60px;"">+</div>","null","html-keyboard-response","246","185181","0.0-6.0-0.120","FRKA","4","m","rechts","22","","fixation","","","",""
"661","img/90_330.png","70","image-keyboard-response","247","185843","0.0-6.0-1.120","FRKA","4","m","rechts","22","","","self","f","90","true"
"null","<div style=""font-size:60px;"">+</div>","null","html-keyboard-response","248","186145","0.0-6.0-0.121","FRKA","4","m","rechts","22","","fixation","","","",""
"708","img/150_90.png","70","image-keyboard-response","249","186855","0.0-6.0-1.121","FRKA","4","m","rechts","22","","","self","f","150","true"
"null","<div style=""font-size:60px;"">+</div>","null","html-keyboard-response","250","187157","0.0-6.0-0.122","FRKA","4","m","rechts","22","","fixation","","","",""
"676","img/90_180.png","74","image-keyboard-response","251","187834","0.0-6.0-1.122","FRKA","4","m","rechts","22","","","self","j","90","true"
"null","<div style=""font-size:60px;"">+</div>","null","html-keyboard-response","252","188236","0.0-6.0-0.123","FRKA","4","m","rechts","22","","fixation","","","",""
"607","img/90_210.png","74","image-keyboard-response","253","188845","0.0-6.0-1.123","FRKA","4","m","rechts","22","","","self","j","90","true"
"null","<div style=""font-size:60px;"">+</div>","null","html-keyboard-response","254","189347","0.0-6.0-0.124","FRKA","4","m","rechts","22","","fixation","","","",""
"536","img/150_120.png","70","image-keyboard-response","255","189886","0.0-6.0-1.124","FRKA","4","m","rechts","22","","","self","f","150","true"
"null","<div style=""font-size:60px;"">+</div>","null","html-keyboard-response","256","190188","0.0-6.0-0.125","FRKA","4","m","rechts","22","","fixation","","","",""
"816","img/60_30.png","74","image-keyboard-response","257","191006","0.0-6.0-1.125","FRKA","4","m","rechts","22","","","self","j","60","true"
"null","<div style=""font-size:60px;"">+</div>","null","html-keyboard-response","258","191408","0.0-6.0-0.126","FRKA","4","m","rechts","22","","fixation","","","",""
"974","img/30_90.png","74","image-keyboard-response","259","192383","0.0-6.0-1.126","FRKA","4","m","rechts","22","","","self","j","30","true"
"null","<div style=""font-size:60px;"">+</div>","null","html-keyboard-response","260","192885","0.0-6.0-0.127","FRKA","4","m","rechts","22","","fixation","","","",""
"961","img/120_30.png","70","image-keyboard-response","261","193848","0.0-6.0-1.127","FRKA","4","m","rechts","22","","","self","j","120","false"
"null","<div style=""font-size:60px;"">+</div>","null","html-keyboard-response","262","194149","0.0-6.0-0.128","FRKA","4","m","rechts","22","","fixation","","","",""
"927","img/30_300.png","70","image-keyboard-response","263","195077","0.0-6.0-1.128","FRKA","4","m","rechts","22","","","self","f","30","true"
"null","<div style=""font-size:60px;"">+</div>","null","html-keyboard-response","264","195529","0.0-6.0-0.129","FRKA","4","m","rechts","22","","fixation","","","",""
"629","img/60_90.png","74","image-keyboard-response","265","196159","0.0-6.0-1.129","FRKA","4","m","rechts","22","","","self","j","60","true"
"null","<div style=""font-size:60px;"">+</div>","null","html-keyboard-response","266","196462","0.0-6.0-0.130","FRKA","4","m","rechts","22","","fixation","","","",""
"891","img/90_30.png","74","image-keyboard-response","267","197354","0.0-6.0-1.130","FRKA","4","m","rechts","22","","","self","j","90","true"
"null","<div style=""font-size:60px;"">+</div>","null","html-keyboard-response","268","197706","0.0-6.0-0.131","FRKA","4","m","rechts","22","","fixation","","","",""
"1160","img/150_60.png","70","image-keyboard-response","269","198867","0.0-6.0-1.131","FRKA","4","m","rechts","22","","","self","f","150","true"
"null","<div style=""font-size:60px;"">+</div>","null","html-keyboard-response","270","199170","0.0-6.0-0.132","FRKA","4","m","rechts","22","","fixation","","","",""
"628","img/0_330.png","70","image-keyboard-response","271","199801","0.0-6.0-1.132","FRKA","4","m","rechts","22","","","self","f","0","true"
"null","<div style=""font-size:60px;"">+</div>","null","html-keyboard-response","272","200203","0.0-6.0-0.133","FRKA","4","m","rechts","22","","fixation","","","",""
"538","img/90_150.png","70","image-keyboard-response","273","200742","0.0-6.0-1.133","FRKA","4","m","rechts","22","","","self","f","90","true"
"null","<div style=""font-size:60px;"">+</div>","null","html-keyboard-response","274","201094","0.0-6.0-0.134","FRKA","4","m","rechts","22","","fixation","","","",""
"758","img/60_180.png","74","image-keyboard-response","275","201853","0.0-6.0-1.134","FRKA","4","m","rechts","22","","","self","j","60","true"
"null","<div style=""font-size:60px;"">+</div>","null","html-keyboard-response","276","202205","0.0-6.0-0.135","FRKA","4","m","rechts","22","","fixation","","","",""
"540","img/0_210.png","70","image-keyboard-response","277","202746","0.0-6.0-1.135","FRKA","4","m","rechts","22","","","self","f","0","true"
"null","<div style=""font-size:60px;"">+</div>","null","html-keyboard-response","278","203248","0.0-6.0-0.136","FRKA","4","m","rechts","22","","fixation","","","",""
"714","img/30_120.png","74","image-keyboard-response","279","203963","0.0-6.0-1.136","FRKA","4","m","rechts","22","","","self","j","30","true"
"null","<div style=""font-size:60px;"">+</div>","null","html-keyboard-response","280","204416","0.0-6.0-0.137","FRKA","4","m","rechts","22","","fixation","","","",""
"591","img/L90_180.png","70","image-keyboard-response","281","205008","0.0-6.0-1.137","FRKA","4","m","rechts","22","","","self","f","90","true"
"null","<div style=""font-size:60px;"">+</div>","null","html-keyboard-response","282","205510","0.0-6.0-0.138","FRKA","4","m","rechts","22","","fixation","","","",""
"753","img/60_270.png","70","image-keyboard-response","283","206264","0.0-6.0-1.138","FRKA","4","m","rechts","22","","","self","f","60","true"
"null","<div style=""font-size:60px;"">+</div>","null","html-keyboard-response","284","206616","0.0-6.0-0.139","FRKA","4","m","rechts","22","","fixation","","","",""
"628","img/120_210.png","74","image-keyboard-response","285","207245","0.0-6.0-1.139","FRKA","4","m","rechts","22","","","self","j","120","true"
"null","<div style=""font-size:60px;"">+</div>","null","html-keyboard-response","286","207547","0.0-6.0-0.140","FRKA","4","m","rechts","22","","fixation","","","",""
"882","img/L30_180.png","70","image-keyboard-response","287","208430","0.0-6.0-1.140","FRKA","4","m","rechts","22","","","self","f","30","true"
"null","<div style=""font-size:60px;"">+</div>","null","html-keyboard-response","288","208932","0.0-6.0-0.141","FRKA","4","m","rechts","22","","fixation","","","",""
"829","img/120_330.png","70","image-keyboard-response","289","209762","0.0-6.0-1.141","FRKA","4","m","rechts","22","","","self","f","120","true"
"null","<div style=""font-size:60px;"">+</div>","null","html-keyboard-response","290","210214","0.0-6.0-0.142","FRKA","4","m","rechts","22","","fixation","","","",""
"853","img/90_60.png","74","image-keyboard-response","291","211068","0.0-6.0-1.142","FRKA","4","m","rechts","22","","","self","j","90","true"
"null","<div style=""font-size:60px;"">+</div>","null","html-keyboard-response","292","211521","0.0-6.0-0.143","FRKA","4","m","rechts","22","","fixation","","","",""
"558","img/L150_180.png","70","image-keyboard-response","293","212080","0.0-6.0-1.143","FRKA","4","m","rechts","22","","","self","f","150","true"
"null","<div style=""font-size:60px;"">+</div>","null","html-keyboard-response","294","212382","0.0-6.0-0.144","FRKA","4","m","rechts","22","","fixation","","","",""
"886","img/30_180.png","74","image-keyboard-response","295","213269","0.0-6.0-1.144","FRKA","4","m","rechts","22","","","self","j","30","true"
"null","<div style=""font-size:60px;"">+</div>","null","html-keyboard-response","296","213721","0.0-6.0-0.145","FRKA","4","m","rechts","22","","fixation","","","",""
"1142","img/60_150.png","70","image-keyboard-response","297","214864","0.0-6.0-1.145","FRKA","4","m","rechts","22","","","self","f","60","true"
"null","<div style=""font-size:60px;"">+</div>","null","html-keyboard-response","298","215216","0.0-6.0-0.146","FRKA","4","m","rechts","22","","fixation","","","",""
"598","img/0_120.png","74","image-keyboard-response","299","215815","0.0-6.0-1.146","FRKA","4","m","rechts","22","","","self","j","0","true"
"null","<div style=""font-size:60px;"">+</div>","null","html-keyboard-response","300","216217","0.0-6.0-0.147","FRKA","4","m","rechts","22","","fixation","","","",""
"538","img/0_90.png","74","image-keyboard-response","301","216756","0.0-6.0-1.147","FRKA","4","m","rechts","22","","","self","j","0","true"
"null","<div style=""font-size:60px;"">+</div>","null","html-keyboard-response","302","217108","0.0-6.0-0.148","FRKA","4","m","rechts","22","","fixation","","","",""
"892","img/60_210.png","74","image-keyboard-response","303","218002","0.0-6.0-1.148","FRKA","4","m","rechts","22","","","self","j","60","true"
"null","<div style=""font-size:60px;"">+</div>","null","html-keyboard-response","304","218454","0.0-6.0-0.149","FRKA","4","m","rechts","22","","fixation","","","",""
"659","img/150_240.png","74","image-keyboard-response","305","219114","0.0-6.0-1.149","FRKA","4","m","rechts","22","","","self","j","150","true"
"null","<div style=""font-size:60px;"">+</div>","null","html-keyboard-response","306","219516","0.0-6.0-0.150","FRKA","4","m","rechts","22","","fixation","","","",""
"839","img/30_270.png","70","image-keyboard-response","307","220356","0.0-6.0-1.150","FRKA","4","m","rechts","22","","","self","f","30","true"
"null","<div style=""font-size:60px;"">+</div>","null","html-keyboard-response","308","220758","0.0-6.0-0.151","FRKA","4","m","rechts","22","","fixation","","","",""
"637","img/60_330.png","70","image-keyboard-response","309","221396","0.0-6.0-1.151","FRKA","4","m","rechts","22","","","self","f","60","true"
"null","<div style=""font-size:60px;"">+</div>","null","html-keyboard-response","310","221748","0.0-6.0-0.152","FRKA","4","m","rechts","22","","fixation","","","",""
"684","img/90_300.png","70","image-keyboard-response","311","222434","0.0-6.0-1.152","FRKA","4","m","rechts","22","","","self","f","90","true"
"null","<div style=""font-size:60px;"">+</div>","null","html-keyboard-response","312","222886","0.0-6.0-0.153","FRKA","4","m","rechts","22","","fixation","","","",""
"765","img/120_90.png","74","image-keyboard-response","313","223653","0.0-6.0-1.153","FRKA","4","m","rechts","22","","","self","f","120","false"
"null","<div style=""font-size:60px;"">+</div>","null","html-keyboard-response","314","224005","0.0-6.0-0.154","FRKA","4","m","rechts","22","","fixation","","","",""
"590","img/0_30.png","70","image-keyboard-response","315","224598","0.0-6.0-1.154","FRKA","4","m","rechts","22","","","self","j","0","false"
"null","<div style=""font-size:60px;"">+</div>","null","html-keyboard-response","316","225100","0.0-6.0-0.155","FRKA","4","m","rechts","22","","fixation","","","",""
"526","img/0_270.png","70","image-keyboard-response","317","225627","0.0-6.0-1.155","FRKA","4","m","rechts","22","","","self","f","0","true"
"null","<div style=""font-size:60px;"">+</div>","null","html-keyboard-response","318","225979","0.0-6.0-0.156","FRKA","4","m","rechts","22","","fixation","","","",""
"580","img/L150_180.png","70","image-keyboard-response","319","226561","0.0-6.0-1.156","FRKA","4","m","rechts","22","","","self","f","150","true"
"null","<div style=""font-size:60px;"">+</div>","null","html-keyboard-response","320","226963","0.0-6.0-0.157","FRKA","4","m","rechts","22","","fixation","","","",""
"706","img/L120_180.png","70","image-keyboard-response","321","227671","0.0-6.0-1.157","FRKA","4","m","rechts","22","","","self","f","120","true"
"null","<div style=""font-size:60px;"">+</div>","null","html-keyboard-response","322","228172","0.0-6.0-0.158","FRKA","4","m","rechts","22","","fixation","","","",""
"1146","img/60_30.png","74","image-keyboard-response","323","229321","0.0-6.0-1.158","FRKA","4","m","rechts","22","","","self","j","60","true"
"null","<div style=""font-size:60px;"">+</div>","null","html-keyboard-response","324","229773","0.0-6.0-0.159","FRKA","4","m","rechts","22","","fixation","","","",""
"813","img/90_30.png","74","image-keyboard-response","325","230587","0.0-6.0-1.159","FRKA","4","m","rechts","22","","","self","j","90","true"
"null","<div style=""font-size:60px;"">+</div>","null","html-keyboard-response","326","230888","0.0-6.0-0.160","FRKA","4","m","rechts","22","","fixation","","","",""
"763","img/L90_180.png","70","image-keyboard-response","327","231653","0.0-6.0-1.160","FRKA","4","m","rechts","22","","","self","f","90","true"
"null","<div style=""font-size:60px;"">+</div>","null","html-keyboard-response","328","232105","0.0-6.0-0.161","FRKA","4","m","rechts","22","","fixation","","","",""
"1074","img/90_60.png","74","image-keyboard-response","329","233179","0.0-6.0-1.161","FRKA","4","m","rechts","22","","","self","j","90","true"
"null","<div style=""font-size:60px;"">+</div>","null","html-keyboard-response","330","233631","0.0-6.0-0.162","FRKA","4","m","rechts","22","","fixation","","","",""
"803","img/150_120.png","70","image-keyboard-response","331","234435","0.0-6.0-1.162","FRKA","4","m","rechts","22","","","self","f","150","true"
"null","<div style=""font-size:60px;"">+</div>","null","html-keyboard-response","332","234837","0.0-6.0-0.163","FRKA","4","m","rechts","22","","fixation","","","",""
"708","img/0_120.png","74","image-keyboard-response","333","235547","0.0-6.0-1.163","FRKA","4","m","rechts","22","","","self","j","0","true"
"null","<div style=""font-size:60px;"">+</div>","null","html-keyboard-response","334","235999","0.0-6.0-0.164","FRKA","4","m","rechts","22","","fixation","","","",""
"1833","img/60_180.png","74","image-keyboard-response","335","237833","0.0-6.0-1.164","FRKA","4","m","rechts","22","","","self","j","60","true"
"null","<div style=""font-size:60px;"">+</div>","null","html-keyboard-response","336","238285","0.0-6.0-0.165","FRKA","4","m","rechts","22","","fixation","","","",""
"821","img/30_120.png","74","image-keyboard-response","337","239107","0.0-6.0-1.165","FRKA","4","m","rechts","22","","","self","j","30","true"
"null","<div style=""font-size:60px;"">+</div>","null","html-keyboard-response","338","239559","0.0-6.0-0.166","FRKA","4","m","rechts","22","","fixation","","","",""
"669","img/30_90.png","74","image-keyboard-response","339","240231","0.0-6.0-1.166","FRKA","4","m","rechts","22","","","self","j","30","true"
"null","<div style=""font-size:60px;"">+</div>","null","html-keyboard-response","340","240733","0.0-6.0-0.167","FRKA","4","m","rechts","22","","fixation","","","",""
"858","img/30_60.png","74","image-keyboard-response","341","241592","0.0-6.0-1.167","FRKA","4","m","rechts","22","","","self","j","30","true"
"null","<div style=""font-size:60px;"">+</div>","null","html-keyboard-response","342","242094","0.0-6.0-0.168","FRKA","4","m","rechts","22","","fixation","","","",""
"968","img/90_240.png","74","image-keyboard-response","343","243063","0.0-6.0-1.168","FRKA","4","m","rechts","22","","","self","j","90","true"
"null","<div style=""font-size:60px;"">+</div>","null","html-keyboard-response","344","243365","0.0-6.0-0.169","FRKA","4","m","rechts","22","","fixation","","","",""
"1288","img/120_330.png","70","image-keyboard-response","345","244654","0.0-6.0-1.169","FRKA","4","m","rechts","22","","","self","f","120","true"
"null","<div style=""font-size:60px;"">+</div>","null","html-keyboard-response","346","244956","0.0-6.0-0.170","FRKA","4","m","rechts","22","","fixation","","","",""
"845","img/30_270.png","74","image-keyboard-response","347","245802","0.0-6.0-1.170","FRKA","4","m","rechts","22","","","self","f","30","false"
"null","<div style=""font-size:60px;"">+</div>","null","html-keyboard-response","348","246206","0.0-6.0-0.171","FRKA","4","m","rechts","22","","fixation","","","",""
"853","img/90_150.png","70","image-keyboard-response","349","247060","0.0-6.0-1.171","FRKA","4","m","rechts","22","","","self","f","90","true"
"null","<div style=""font-size:60px;"">+</div>","null","html-keyboard-response","350","247412","0.0-6.0-0.172","FRKA","4","m","rechts","22","","fixation","","","",""
"675","img/150_90.png","70","image-keyboard-response","351","248088","0.0-6.0-1.172","FRKA","4","m","rechts","22","","","self","f","150","true"
"null","<div style=""font-size:60px;"">+</div>","null","html-keyboard-response","352","248490","0.0-6.0-0.173","FRKA","4","m","rechts","22","","fixation","","","",""
"593","img/0_300.png","70","image-keyboard-response","353","249084","0.0-6.0-1.173","FRKA","4","m","rechts","22","","","self","f","0","true"
"null","<div style=""font-size:60px;"">+</div>","null","html-keyboard-response","354","249586","0.0-6.0-0.174","FRKA","4","m","rechts","22","","fixation","","","",""
"1243","img/90_330.png","70","image-keyboard-response","355","250830","0.0-6.0-1.174","FRKA","4","m","rechts","22","","","self","f","90","true"
"null","<div style=""font-size:60px;"">+</div>","null","html-keyboard-response","356","251133","0.0-6.0-0.175","FRKA","4","m","rechts","22","","fixation","","","",""
"1066","img/120_30.png","74","image-keyboard-response","357","252201","0.0-6.0-1.175","FRKA","4","m","rechts","22","","","self","j","120","true"
"null","<div style=""font-size:60px;"">+</div>","null","html-keyboard-response","358","252603","0.0-6.0-0.176","FRKA","4","m","rechts","22","","fixation","","","",""
"1528","img/150_300.png","74","image-keyboard-response","359","254132","0.0-6.0-1.176","FRKA","4","m","rechts","22","","","self","j","150","true"
"null","<div style=""font-size:60px;"">+</div>","null","html-keyboard-response","360","254634","0.0-6.0-0.177","FRKA","4","m","rechts","22","","fixation","","","",""
"666","img/0_150.png","74","image-keyboard-response","361","255301","0.0-6.0-1.177","FRKA","4","m","rechts","22","","","self","j","0","true"
"null","<div style=""font-size:60px;"">+</div>","null","html-keyboard-response","362","255653","0.0-6.0-0.178","FRKA","4","m","rechts","22","","fixation","","","",""
"858","img/120_270.png","74","image-keyboard-response","363","256512","0.0-6.0-1.178","FRKA","4","m","rechts","22","","","self","j","120","true"
"null","<div style=""font-size:60px;"">+</div>","null","html-keyboard-response","364","256864","0.0-6.0-0.179","FRKA","4","m","rechts","22","","fixation","","","",""
"716","img/60_330.png","70","image-keyboard-response","365","257581","0.0-6.0-1.179","FRKA","4","m","rechts","22","","","self","f","60","true"
"null","<div style=""font-size:60px;"">+</div>","null","html-keyboard-response","366","257884","0.0-6.0-0.180","FRKA","4","m","rechts","22","","fixation","","","",""
"837","img/0_60.png","74","image-keyboard-response","367","258722","0.0-6.0-1.180","FRKA","4","m","rechts","22","","","self","j","0","true"
"null","<div style=""font-size:60px;"">+</div>","null","html-keyboard-response","368","259174","0.0-6.0-0.181","FRKA","4","m","rechts","22","","fixation","","","",""
"812","img/30_300.png","70","image-keyboard-response","369","259987","0.0-6.0-1.181","FRKA","4","m","rechts","22","","","self","f","30","true"
"null","<div style=""font-size:60px;"">+</div>","null","html-keyboard-response","370","260339","0.0-6.0-0.182","FRKA","4","m","rechts","22","","fixation","","","",""
"787","img/120_90.png","70","image-keyboard-response","371","261127","0.0-6.0-1.182","FRKA","4","m","rechts","22","","","self","f","120","true"
"null","<div style=""font-size:60px;"">+</div>","null","html-keyboard-response","372","261529","0.0-6.0-0.183","FRKA","4","m","rechts","22","","fixation","","","",""
"748","img/60_270.png","70","image-keyboard-response","373","262279","0.0-6.0-1.183","FRKA","4","m","rechts","22","","","self","f","60","true"
"null","<div style=""font-size:60px;"">+</div>","null","html-keyboard-response","374","262581","0.0-6.0-0.184","FRKA","4","m","rechts","22","","fixation","","","",""
"852","img/150_60.png","70","image-keyboard-response","375","263435","0.0-6.0-1.184","FRKA","4","m","rechts","22","","","self","f","150","true"
"null","<div style=""font-size:60px;"">+</div>","null","html-keyboard-response","376","263888","0.0-6.0-0.185","FRKA","4","m","rechts","22","","fixation","","","",""
"634","img/120_150.png","70","image-keyboard-response","377","264524","0.0-6.0-1.185","FRKA","4","m","rechts","22","","","self","f","120","true"
"null","<div style=""font-size:60px;"">+</div>","null","html-keyboard-response","378","264926","0.0-6.0-0.186","FRKA","4","m","rechts","22","","fixation","","","",""
"725","img/150_240.png","74","image-keyboard-response","379","265653","0.0-6.0-1.186","FRKA","4","m","rechts","22","","","self","j","150","true"
"null","<div style=""font-size:60px;"">+</div>","null","html-keyboard-response","380","266155","0.0-6.0-0.187","FRKA","4","m","rechts","22","","fixation","","","",""
"629","img/0_240.png","70","image-keyboard-response","381","266786","0.0-6.0-1.187","FRKA","4","m","rechts","22","","","self","f","0","true"
"null","<div style=""font-size:60px;"">+</div>","null","html-keyboard-response","382","267189","0.0-6.0-0.188","FRKA","4","m","rechts","22","","fixation","","","",""
"636","img/120_210.png","74","image-keyboard-response","383","267827","0.0-6.0-1.188","FRKA","4","m","rechts","22","","","self","j","120","true"
"null","<div style=""font-size:60px;"">+</div>","null","html-keyboard-response","384","268329","0.0-6.0-0.189","FRKA","4","m","rechts","22","","fixation","","","",""
"577","img/0_330.png","70","image-keyboard-response","385","268908","0.0-6.0-1.189","FRKA","4","m","rechts","22","","","self","f","0","true"
"null","<div style=""font-size:60px;"">+</div>","null","html-keyboard-response","386","269210","0.0-6.0-0.190","FRKA","4","m","rechts","22","","fixation","","","",""
"545","img/0_210.png","70","image-keyboard-response","387","269757","0.0-6.0-1.190","FRKA","4","m","rechts","22","","","self","f","0","true"
"null","<div style=""font-size:60px;"">+</div>","null","html-keyboard-response","388","270159","0.0-6.0-0.191","FRKA","4","m","rechts","22","","fixation","","","",""
"685","img/60_150.png","70","image-keyboard-response","389","270845","0.0-6.0-1.191","FRKA","4","m","rechts","22","","","self","f","60","true"
"null","<div style=""font-size:60px;"">+</div>","null","html-keyboard-response","390","271248","0.0-6.0-0.192","FRKA","4","m","rechts","22","","fixation","","","",""
"570","img/L30_180.png","70","image-keyboard-response","391","271819","0.0-6.0-1.192","FRKA","4","m","rechts","22","","","self","f","30","true"
"null","<div style=""font-size:60px;"">+</div>","null","html-keyboard-response","392","272171","0.0-6.0-0.193","FRKA","4","m","rechts","22","","fixation","","","",""
"680","img/30_180.png","74","image-keyboard-response","393","272853","0.0-6.0-1.193","FRKA","4","m","rechts","22","","","self","j","30","true"
"null","<div style=""font-size:60px;"">+</div>","null","html-keyboard-response","394","273205","0.0-6.0-0.194","FRKA","4","m","rechts","22","","fixation","","","",""
"549","img/90_180.png","74","image-keyboard-response","395","273755","0.0-6.0-1.194","FRKA","4","m","rechts","22","","","self","j","90","true"
"null","<div style=""font-size:60px;"">+</div>","null","html-keyboard-response","396","274057","0.0-6.0-0.195","FRKA","4","m","rechts","22","","fixation","","","",""
"638","img/150_270.png","74","image-keyboard-response","397","274697","0.0-6.0-1.195","FRKA","4","m","rechts","22","","","self","j","150","true"
"null","<div style=""font-size:60px;"">+</div>","null","html-keyboard-response","398","274999","0.0-6.0-0.196","FRKA","4","m","rechts","22","","fixation","","","",""
"564","img/120_180.png","74","image-keyboard-response","399","275564","0.0-6.0-1.196","FRKA","4","m","rechts","22","","","self","j","120","true"
"null","<div style=""font-size:60px;"">+</div>","null","html-keyboard-response","400","276066","0.0-6.0-0.197","FRKA","4","m","rechts","22","","fixation","","","",""
"741","img/0_30.png","74","image-keyboard-response","401","276809","0.0-6.0-1.197","FRKA","4","m","rechts","22","","","self","j","0","true"
"null","<div style=""font-size:60px;"">+</div>","null","html-keyboard-response","402","277261","0.0-6.0-0.198","FRKA","4","m","rechts","22","","fixation","","","",""
"1066","img/30_240.png","70","image-keyboard-response","403","278330","0.0-6.0-1.198","FRKA","4","m","rechts","22","","","self","f","30","true"
"null","<div style=""font-size:60px;"">+</div>","null","html-keyboard-response","404","278781","0.0-6.0-0.199","FRKA","4","m","rechts","22","","fixation","","","",""
"676","img/90_120.png","70","image-keyboard-response","405","279458","0.0-6.0-1.199","FRKA","4","m","rechts","22","","","self","f","90","true"
"null","<div style=""font-size:60px;"">+</div>","null","html-keyboard-response","406","279760","0.0-6.0-0.200","FRKA","4","m","rechts","22","","fixation","","","",""
"779","img/90_300.png","70","image-keyboard-response","407","280540","0.0-6.0-1.200","FRKA","4","m","rechts","22","","","self","f","90","true"
"null","<div style=""font-size:60px;"">+</div>","null","html-keyboard-response","408","280993","0.0-6.0-0.201","FRKA","4","m","rechts","22","","fixation","","","",""
"746","img/150_180.png","74","image-keyboard-response","409","281740","0.0-6.0-1.201","FRKA","4","m","rechts","22","","","self","j","150","true"
"null","<div style=""font-size:60px;"">+</div>","null","html-keyboard-response","410","282142","0.0-6.0-0.202","FRKA","4","m","rechts","22","","fixation","","","",""
"570","img/L60_180.png","70","image-keyboard-response","411","282714","0.0-6.0-1.202","FRKA","4","m","rechts","22","","","self","f","60","true"
"null","<div style=""font-size:60px;"">+</div>","null","html-keyboard-response","412","283216","0.0-6.0-0.203","FRKA","4","m","rechts","22","","fixation","","","",""
"912","img/60_90.png","74","image-keyboard-response","413","284129","0.0-6.0-1.203","FRKA","4","m","rechts","22","","","self","j","60","true"
"null","<div style=""font-size:60px;"">+</div>","null","html-keyboard-response","414","284531","0.0-6.0-0.204","FRKA","4","m","rechts","22","","fixation","","","",""
"609","img/90_210.png","74","image-keyboard-response","415","285141","0.0-6.0-1.204","FRKA","4","m","rechts","22","","","self","j","90","true"
"null","<div style=""font-size:60px;"">+</div>","null","html-keyboard-response","416","285443","0.0-6.0-0.205","FRKA","4","m","rechts","22","","fixation","","","",""
"662","img/0_270.png","70","image-keyboard-response","417","286106","0.0-6.0-1.205","FRKA","4","m","rechts","22","","","self","f","0","true"
"null","<div style=""font-size:60px;"">+</div>","null","html-keyboard-response","418","286458","0.0-6.0-0.206","FRKA","4","m","rechts","22","","fixation","","","",""
"781","img/0_90.png","74","image-keyboard-response","419","287240","0.0-6.0-1.206","FRKA","4","m","rechts","22","","","self","j","0","true"
"null","<div style=""font-size:60px;"">+</div>","null","html-keyboard-response","420","287692","0.0-6.0-0.207","FRKA","4","m","rechts","22","","fixation","","","",""
"898","img/60_210.png","74","image-keyboard-response","421","288592","0.0-6.0-1.207","FRKA","4","m","rechts","22","","","self","j","60","true"
"7410","<p>Du hast in 93% der Versuche korrekt entschieden.</p><p>Deine durchschnittliche Reaktionszeit war  755ms.</p><p>Dr&uuml;cke eine beliebige Taste, um die Session zu beenden. Vielen Dank!</p>","32","html-keyboard-response","422","296005","0.0-7.0","FRKA","4","m","rechts","22","","","","","",""
