"rt","stimulus","key_press","trial_type","trial_index","time_elapsed","internal_node_id","subject","session","sex","handedness","age","responses","test_part","condition","correct_response","angle","correct"
"1915","<p>Mental Rotation Experiment.</p> <p>Dr&uuml;cke eine beliebige Taste, um anzufangen.</p>","32","html-keyboard-response","0","1918","0.0-0.0","FRKA","3","m","rechts","22","","","","","",""
"13322","","","survey-text","1","15241","0.0-1.0","FRKA","3","m","rechts","22","{""Q0"":""FRKA""}","","","","",""
"3828","","","survey-text","2","19069","0.0-2.0","FRKA","3","m","rechts","22","{""Q0"":""3""}","","","","",""
"6290","","","survey-multi-choice","3","25361","0.0-3.0","FRKA","3","m","rechts","22","{""Q0"":""m"",""Q1"":""rechts""}","","","","",""
"2823","","","survey-text","4","28185","0.0-4.0","FRKA","3","m","rechts","22","{""Q0"":""22""}","","","","",""
"2539","<p> Stell dir vor, dass du vor einem runden Tisch stehst, auf dem sich ein blauer Ball am Tischrand befindet. Entlang des Tischrands ist jeweils ein verschieden langer Pfeil. Nun bewegst du dich entlang dieses Pfeils bis an seine Spitze. Wenn du am Ende des Pfeils angekommen bist, schau zur Tischmitte. </p> <img src='img/90_180.png'></img> <br> <p>Entscheide dann, ob der Ball von deiner neuen (vorgestellten) Position links oder rechts von dir liegt.</p> <p>Dr&uuml;cke die <strong>'f'</strong>-Taste f&uuml;r links, die <strong>'j'</strong>-Taste f&uuml;r rechts.</p> <br><p> Das Bild wird jeweils 1 Sekunde lang pr&auml;sentiert. Du hast 3 Sekunden Zeit eine Entscheidung zu treffen.</p>","32","html-keyboard-response","5","30726","0.0-5.0","FRKA","3","m","rechts","22","","","","","",""
"null","<div style=""font-size:60px;"">+</div>","null","html-keyboard-response","6","32229","0.0-6.0-0.0","FRKA","3","m","rechts","22","","fixation","","","",""
"1615","img/30_120.png","74","image-keyboard-response","7","33845","0.0-6.0-1.0","FRKA","3","m","rechts","22","","","self","j","30","true"
"null","<div style=""font-size:60px;"">+</div>","null","html-keyboard-response","8","34297","0.0-6.0-0.1","FRKA","3","m","rechts","22","","fixation","","","",""
"633","img/0_120.png","74","image-keyboard-response","9","34932","0.0-6.0-1.1","FRKA","3","m","rechts","22","","","self","j","0","true"
"null","<div style=""font-size:60px;"">+</div>","null","html-keyboard-response","10","35234","0.0-6.0-0.2","FRKA","3","m","rechts","22","","fixation","","","",""
"583","img/60_180.png","74","image-keyboard-response","11","35819","0.0-6.0-1.2","FRKA","3","m","rechts","22","","","self","j","60","true"
"null","<div style=""font-size:60px;"">+</div>","null","html-keyboard-response","12","36271","0.0-6.0-0.3","FRKA","3","m","rechts","22","","fixation","","","",""
"706","img/150_180.png","74","image-keyboard-response","13","36979","0.0-6.0-1.3","FRKA","3","m","rechts","22","","","self","j","150","true"
"null","<div style=""font-size:60px;"">+</div>","null","html-keyboard-response","14","37431","0.0-6.0-0.4","FRKA","3","m","rechts","22","","fixation","","","",""
"679","img/0_270.png","70","image-keyboard-response","15","38111","0.0-6.0-1.4","FRKA","3","m","rechts","22","","","self","f","0","true"
"null","<div style=""font-size:60px;"">+</div>","null","html-keyboard-response","16","38513","0.0-6.0-0.5","FRKA","3","m","rechts","22","","fixation","","","",""
"1226","img/150_60.png","70","image-keyboard-response","17","39739","0.0-6.0-1.5","FRKA","3","m","rechts","22","","","self","f","150","true"
"null","<div style=""font-size:60px;"">+</div>","null","html-keyboard-response","18","40041","0.0-6.0-0.6","FRKA","3","m","rechts","22","","fixation","","","",""
"1114","img/60_150.png","70","image-keyboard-response","19","41157","0.0-6.0-1.6","FRKA","3","m","rechts","22","","","self","f","60","true"
"null","<div style=""font-size:60px;"">+</div>","null","html-keyboard-response","20","41558","0.0-6.0-0.7","FRKA","3","m","rechts","22","","fixation","","","",""
"1626","img/120_30.png","74","image-keyboard-response","21","43186","0.0-6.0-1.7","FRKA","3","m","rechts","22","","","self","j","120","true"
"null","<div style=""font-size:60px;"">+</div>","null","html-keyboard-response","22","43687","0.0-6.0-0.8","FRKA","3","m","rechts","22","","fixation","","","",""
"639","img/0_240.png","70","image-keyboard-response","23","44327","0.0-6.0-1.8","FRKA","3","m","rechts","22","","","self","f","0","true"
"null","<div style=""font-size:60px;"">+</div>","null","html-keyboard-response","24","44729","0.0-6.0-0.9","FRKA","3","m","rechts","22","","fixation","","","",""
"854","img/150_120.png","70","image-keyboard-response","25","45584","0.0-6.0-1.9","FRKA","3","m","rechts","22","","","self","f","150","true"
"null","<div style=""font-size:60px;"">+</div>","null","html-keyboard-response","26","46036","0.0-6.0-0.10","FRKA","3","m","rechts","22","","fixation","","","",""
"807","img/60_270.png","70","image-keyboard-response","27","46844","0.0-6.0-1.10","FRKA","3","m","rechts","22","","","self","f","60","true"
"null","<div style=""font-size:60px;"">+</div>","null","html-keyboard-response","28","47146","0.0-6.0-0.11","FRKA","3","m","rechts","22","","fixation","","","",""
"855","img/L120_180.png","70","image-keyboard-response","29","48002","0.0-6.0-1.11","FRKA","3","m","rechts","22","","","self","f","120","true"
"null","<div style=""font-size:60px;"">+</div>","null","html-keyboard-response","30","48354","0.0-6.0-0.12","FRKA","3","m","rechts","22","","fixation","","","",""
"694","img/0_60.png","74","image-keyboard-response","31","49049","0.0-6.0-1.12","FRKA","3","m","rechts","22","","","self","j","0","true"
"null","<div style=""font-size:60px;"">+</div>","null","html-keyboard-response","32","49451","0.0-6.0-0.13","FRKA","3","m","rechts","22","","fixation","","","",""
"580","img/30_300.png","70","image-keyboard-response","33","50032","0.0-6.0-1.13","FRKA","3","m","rechts","22","","","self","f","30","true"
"null","<div style=""font-size:60px;"">+</div>","null","html-keyboard-response","34","50534","0.0-6.0-0.14","FRKA","3","m","rechts","22","","fixation","","","",""
"1506","img/60_330.png","70","image-keyboard-response","35","52042","0.0-6.0-1.14","FRKA","3","m","rechts","22","","","self","f","60","true"
"null","<div style=""font-size:60px;"">+</div>","null","html-keyboard-response","36","52344","0.0-6.0-0.15","FRKA","3","m","rechts","22","","fixation","","","",""
"770","img/30_60.png","74","image-keyboard-response","37","53115","0.0-6.0-1.15","FRKA","3","m","rechts","22","","","self","j","30","true"
"null","<div style=""font-size:60px;"">+</div>","null","html-keyboard-response","38","53467","0.0-6.0-0.16","FRKA","3","m","rechts","22","","fixation","","","",""
"980","img/150_90.png","74","image-keyboard-response","39","54448","0.0-6.0-1.16","FRKA","3","m","rechts","22","","","self","f","150","false"
"null","<div style=""font-size:60px;"">+</div>","null","html-keyboard-response","40","54800","0.0-6.0-0.17","FRKA","3","m","rechts","22","","fixation","","","",""
"1466","img/90_300.png","70","image-keyboard-response","41","56267","0.0-6.0-1.17","FRKA","3","m","rechts","22","","","self","f","90","true"
"null","<div style=""font-size:60px;"">+</div>","null","html-keyboard-response","42","56669","0.0-6.0-0.18","FRKA","3","m","rechts","22","","fixation","","","",""
"965","img/120_330.png","70","image-keyboard-response","43","57635","0.0-6.0-1.18","FRKA","3","m","rechts","22","","","self","f","120","true"
"null","<div style=""font-size:60px;"">+</div>","null","html-keyboard-response","44","58137","0.0-6.0-0.19","FRKA","3","m","rechts","22","","fixation","","","",""
"1153","img/90_180.png","74","image-keyboard-response","45","59291","0.0-6.0-1.19","FRKA","3","m","rechts","22","","","self","j","90","true"
"null","<div style=""font-size:60px;"">+</div>","null","html-keyboard-response","46","59643","0.0-6.0-0.20","FRKA","3","m","rechts","22","","fixation","","","",""
"726","img/L90_180.png","70","image-keyboard-response","47","60371","0.0-6.0-1.20","FRKA","3","m","rechts","22","","","self","f","90","true"
"null","<div style=""font-size:60px;"">+</div>","null","html-keyboard-response","48","60823","0.0-6.0-0.21","FRKA","3","m","rechts","22","","fixation","","","",""
"1101","img/150_300.png","70","image-keyboard-response","49","61925","0.0-6.0-1.21","FRKA","3","m","rechts","22","","","self","j","150","false"
"null","<div style=""font-size:60px;"">+</div>","null","html-keyboard-response","50","62227","0.0-6.0-0.22","FRKA","3","m","rechts","22","","fixation","","","",""
"1093","img/90_120.png","70","image-keyboard-response","51","63321","0.0-6.0-1.22","FRKA","3","m","rechts","22","","","self","f","90","true"
"null","<div style=""font-size:60px;"">+</div>","null","html-keyboard-response","52","63673","0.0-6.0-0.23","FRKA","3","m","rechts","22","","fixation","","","",""
"1063","img/60_30.png","74","image-keyboard-response","53","64738","0.0-6.0-1.23","FRKA","3","m","rechts","22","","","self","j","60","true"
"null","<div style=""font-size:60px;"">+</div>","null","html-keyboard-response","54","65039","0.0-6.0-0.24","FRKA","3","m","rechts","22","","fixation","","","",""
"983","img/150_270.png","74","image-keyboard-response","55","66023","0.0-6.0-1.24","FRKA","3","m","rechts","22","","","self","j","150","true"
"null","<div style=""font-size:60px;"">+</div>","null","html-keyboard-response","56","66525","0.0-6.0-0.25","FRKA","3","m","rechts","22","","fixation","","","",""
"855","img/120_150.png","70","image-keyboard-response","57","67381","0.0-6.0-1.25","FRKA","3","m","rechts","22","","","self","f","120","true"
"null","<div style=""font-size:60px;"">+</div>","null","html-keyboard-response","58","67883","0.0-6.0-0.26","FRKA","3","m","rechts","22","","fixation","","","",""
"1001","img/L30_180.png","70","image-keyboard-response","59","68885","0.0-6.0-1.26","FRKA","3","m","rechts","22","","","self","f","30","true"
"null","<div style=""font-size:60px;"">+</div>","null","html-keyboard-response","60","69387","0.0-6.0-0.27","FRKA","3","m","rechts","22","","fixation","","","",""
"889","img/120_90.png","70","image-keyboard-response","61","70277","0.0-6.0-1.27","FRKA","3","m","rechts","22","","","self","f","120","true"
"null","<div style=""font-size:60px;"">+</div>","null","html-keyboard-response","62","70629","0.0-6.0-0.28","FRKA","3","m","rechts","22","","fixation","","","",""
"1073","img/60_90.png","74","image-keyboard-response","63","71703","0.0-6.0-1.28","FRKA","3","m","rechts","22","","","self","j","60","true"
"null","<div style=""font-size:60px;"">+</div>","null","html-keyboard-response","64","72204","0.0-6.0-0.29","FRKA","3","m","rechts","22","","fixation","","","",""
"797","img/90_150.png","70","image-keyboard-response","65","73003","0.0-6.0-1.29","FRKA","3","m","rechts","22","","","self","f","90","true"
"null","<div style=""font-size:60px;"">+</div>","null","html-keyboard-response","66","73355","0.0-6.0-0.30","FRKA","3","m","rechts","22","","fixation","","","",""
"723","img/0_210.png","70","image-keyboard-response","67","74080","0.0-6.0-1.30","FRKA","3","m","rechts","22","","","self","f","0","true"
"null","<div style=""font-size:60px;"">+</div>","null","html-keyboard-response","68","74381","0.0-6.0-0.31","FRKA","3","m","rechts","22","","fixation","","","",""
"819","img/150_240.png","74","image-keyboard-response","69","75202","0.0-6.0-1.31","FRKA","3","m","rechts","22","","","self","j","150","true"
"null","<div style=""font-size:60px;"">+</div>","null","html-keyboard-response","70","75604","0.0-6.0-0.32","FRKA","3","m","rechts","22","","fixation","","","",""
"1139","img/30_240.png","70","image-keyboard-response","71","76745","0.0-6.0-1.32","FRKA","3","m","rechts","22","","","self","f","30","true"
"null","<div style=""font-size:60px;"">+</div>","null","html-keyboard-response","72","77196","0.0-6.0-0.33","FRKA","3","m","rechts","22","","fixation","","","",""
"823","img/90_330.png","70","image-keyboard-response","73","78021","0.0-6.0-1.33","FRKA","3","m","rechts","22","","","self","f","90","true"
"null","<div style=""font-size:60px;"">+</div>","null","html-keyboard-response","74","78372","0.0-6.0-0.34","FRKA","3","m","rechts","22","","fixation","","","",""
"1071","img/90_30.png","74","image-keyboard-response","75","79444","0.0-6.0-1.34","FRKA","3","m","rechts","22","","","self","j","90","true"
"null","<div style=""font-size:60px;"">+</div>","null","html-keyboard-response","76","79846","0.0-6.0-0.35","FRKA","3","m","rechts","22","","fixation","","","",""
"616","img/0_300.png","70","image-keyboard-response","77","80463","0.0-6.0-1.35","FRKA","3","m","rechts","22","","","self","f","0","true"
"null","<div style=""font-size:60px;"">+</div>","null","html-keyboard-response","78","80815","0.0-6.0-0.36","FRKA","3","m","rechts","22","","fixation","","","",""
"946","img/90_240.png","74","image-keyboard-response","79","81762","0.0-6.0-1.36","FRKA","3","m","rechts","22","","","self","j","90","true"
"null","<div style=""font-size:60px;"">+</div>","null","html-keyboard-response","80","82264","0.0-6.0-0.37","FRKA","3","m","rechts","22","","fixation","","","",""
"830","img/L60_180.png","70","image-keyboard-response","81","83095","0.0-6.0-1.37","FRKA","3","m","rechts","22","","","self","f","60","true"
"null","<div style=""font-size:60px;"">+</div>","null","html-keyboard-response","82","83597","0.0-6.0-0.38","FRKA","3","m","rechts","22","","fixation","","","",""
"899","img/120_270.png","74","image-keyboard-response","83","84497","0.0-6.0-1.38","FRKA","3","m","rechts","22","","","self","j","120","true"
"null","<div style=""font-size:60px;"">+</div>","null","html-keyboard-response","84","84850","0.0-6.0-0.39","FRKA","3","m","rechts","22","","fixation","","","",""
"651","img/120_180.png","74","image-keyboard-response","85","85501","0.0-6.0-1.39","FRKA","3","m","rechts","22","","","self","j","120","true"
"null","<div style=""font-size:60px;"">+</div>","null","html-keyboard-response","86","85903","0.0-6.0-0.40","FRKA","3","m","rechts","22","","fixation","","","",""
"786","img/30_90.png","74","image-keyboard-response","87","86690","0.0-6.0-1.40","FRKA","3","m","rechts","22","","","self","j","30","true"
"null","<div style=""font-size:60px;"">+</div>","null","html-keyboard-response","88","87142","0.0-6.0-0.41","FRKA","3","m","rechts","22","","fixation","","","",""
"690","img/0_150.png","74","image-keyboard-response","89","87833","0.0-6.0-1.41","FRKA","3","m","rechts","22","","","self","j","0","true"
"null","<div style=""font-size:60px;"">+</div>","null","html-keyboard-response","90","88135","0.0-6.0-0.42","FRKA","3","m","rechts","22","","fixation","","","",""
"541","img/0_90.png","74","image-keyboard-response","91","88677","0.0-6.0-1.42","FRKA","3","m","rechts","22","","","self","j","0","true"
"null","<div style=""font-size:60px;"">+</div>","null","html-keyboard-response","92","89079","0.0-6.0-0.43","FRKA","3","m","rechts","22","","fixation","","","",""
"617","img/0_330.png","70","image-keyboard-response","93","89697","0.0-6.0-1.43","FRKA","3","m","rechts","22","","","self","f","0","true"
"null","<div style=""font-size:60px;"">+</div>","null","html-keyboard-response","94","90199","0.0-6.0-0.44","FRKA","3","m","rechts","22","","fixation","","","",""
"1410","img/90_60.png","74","image-keyboard-response","95","91610","0.0-6.0-1.44","FRKA","3","m","rechts","22","","","self","j","90","true"
"null","<div style=""font-size:60px;"">+</div>","null","html-keyboard-response","96","92012","0.0-6.0-0.45","FRKA","3","m","rechts","22","","fixation","","","",""
"816","img/30_180.png","74","image-keyboard-response","97","92829","0.0-6.0-1.45","FRKA","3","m","rechts","22","","","self","j","30","true"
"null","<div style=""font-size:60px;"">+</div>","null","html-keyboard-response","98","93130","0.0-6.0-0.46","FRKA","3","m","rechts","22","","fixation","","","",""
"549","img/0_30.png","74","image-keyboard-response","99","93680","0.0-6.0-1.46","FRKA","3","m","rechts","22","","","self","j","0","true"
"null","<div style=""font-size:60px;"">+</div>","null","html-keyboard-response","100","93982","0.0-6.0-0.47","FRKA","3","m","rechts","22","","fixation","","","",""
"689","img/30_270.png","70","image-keyboard-response","101","94672","0.0-6.0-1.47","FRKA","3","m","rechts","22","","","self","f","30","true"
"null","<div style=""font-size:60px;"">+</div>","null","html-keyboard-response","102","95074","0.0-6.0-0.48","FRKA","3","m","rechts","22","","fixation","","","",""
"729","img/L150_180.png","70","image-keyboard-response","103","95804","0.0-6.0-1.48","FRKA","3","m","rechts","22","","","self","f","150","true"
"null","<div style=""font-size:60px;"">+</div>","null","html-keyboard-response","104","96206","0.0-6.0-0.49","FRKA","3","m","rechts","22","","fixation","","","",""
"643","img/120_210.png","74","image-keyboard-response","105","96850","0.0-6.0-1.49","FRKA","3","m","rechts","22","","","self","j","120","true"
"null","<div style=""font-size:60px;"">+</div>","null","html-keyboard-response","106","97202","0.0-6.0-0.50","FRKA","3","m","rechts","22","","fixation","","","",""
"733","img/90_210.png","74","image-keyboard-response","107","97936","0.0-6.0-1.50","FRKA","3","m","rechts","22","","","self","j","90","true"
"null","<div style=""font-size:60px;"">+</div>","null","html-keyboard-response","108","98288","0.0-6.0-0.51","FRKA","3","m","rechts","22","","fixation","","","",""
"567","img/60_210.png","74","image-keyboard-response","109","98856","0.0-6.0-1.51","FRKA","3","m","rechts","22","","","self","j","60","true"
"null","<div style=""font-size:60px;"">+</div>","null","html-keyboard-response","110","99158","0.0-6.0-0.52","FRKA","3","m","rechts","22","","fixation","","","",""
"1055","img/150_300.png","74","image-keyboard-response","111","100214","0.0-6.0-1.52","FRKA","3","m","rechts","22","","","self","j","150","true"
"null","<div style=""font-size:60px;"">+</div>","null","html-keyboard-response","112","100516","0.0-6.0-0.53","FRKA","3","m","rechts","22","","fixation","","","",""
"785","img/L30_180.png","70","image-keyboard-response","113","101301","0.0-6.0-1.53","FRKA","3","m","rechts","22","","","self","f","30","true"
"null","<div style=""font-size:60px;"">+</div>","null","html-keyboard-response","114","101803","0.0-6.0-0.54","FRKA","3","m","rechts","22","","fixation","","","",""
"1564","img/90_60.png","74","image-keyboard-response","115","103368","0.0-6.0-1.54","FRKA","3","m","rechts","22","","","self","j","90","true"
"null","<div style=""font-size:60px;"">+</div>","null","html-keyboard-response","116","103770","0.0-6.0-0.55","FRKA","3","m","rechts","22","","fixation","","","",""
"871","img/60_270.png","70","image-keyboard-response","117","104642","0.0-6.0-1.55","FRKA","3","m","rechts","22","","","self","f","60","true"
"null","<div style=""font-size:60px;"">+</div>","null","html-keyboard-response","118","105144","0.0-6.0-0.56","FRKA","3","m","rechts","22","","fixation","","","",""
"602","img/60_90.png","74","image-keyboard-response","119","105747","0.0-6.0-1.56","FRKA","3","m","rechts","22","","","self","j","60","true"
"null","<div style=""font-size:60px;"">+</div>","null","html-keyboard-response","120","106149","0.0-6.0-0.57","FRKA","3","m","rechts","22","","fixation","","","",""
"814","img/120_90.png","70","image-keyboard-response","121","106964","0.0-6.0-1.57","FRKA","3","m","rechts","22","","","self","f","120","true"
"null","<div style=""font-size:60px;"">+</div>","null","html-keyboard-response","122","107316","0.0-6.0-0.58","FRKA","3","m","rechts","22","","fixation","","","",""
"652","img/0_30.png","74","image-keyboard-response","123","107968","0.0-6.0-1.58","FRKA","3","m","rechts","22","","","self","j","0","true"
"null","<div style=""font-size:60px;"">+</div>","null","html-keyboard-response","124","108420","0.0-6.0-0.59","FRKA","3","m","rechts","22","","fixation","","","",""
"733","img/90_210.png","74","image-keyboard-response","125","109153","0.0-6.0-1.59","FRKA","3","m","rechts","22","","","self","j","90","true"
"null","<div style=""font-size:60px;"">+</div>","null","html-keyboard-response","126","109605","0.0-6.0-0.60","FRKA","3","m","rechts","22","","fixation","","","",""
"721","img/60_150.png","70","image-keyboard-response","127","110326","0.0-6.0-1.60","FRKA","3","m","rechts","22","","","self","f","60","true"
"null","<div style=""font-size:60px;"">+</div>","null","html-keyboard-response","128","110678","0.0-6.0-0.61","FRKA","3","m","rechts","22","","fixation","","","",""
"1981","img/30_240.png","70","image-keyboard-response","129","112659","0.0-6.0-1.61","FRKA","3","m","rechts","22","","","self","f","30","true"
"null","<div style=""font-size:60px;"">+</div>","null","html-keyboard-response","130","113061","0.0-6.0-0.62","FRKA","3","m","rechts","22","","fixation","","","",""
"1213","img/90_330.png","70","image-keyboard-response","131","114276","0.0-6.0-1.62","FRKA","3","m","rechts","22","","","self","f","90","true"
"null","<div style=""font-size:60px;"">+</div>","null","html-keyboard-response","132","114627","0.0-6.0-0.63","FRKA","3","m","rechts","22","","fixation","","","",""
"1130","img/120_330.png","70","image-keyboard-response","133","115758","0.0-6.0-1.63","FRKA","3","m","rechts","22","","","self","f","120","true"
"null","<div style=""font-size:60px;"">+</div>","null","html-keyboard-response","134","116060","0.0-6.0-0.64","FRKA","3","m","rechts","22","","fixation","","","",""
"1782","img/30_270.png","70","image-keyboard-response","135","117844","0.0-6.0-1.64","FRKA","3","m","rechts","22","","","self","f","30","true"
"null","<div style=""font-size:60px;"">+</div>","null","html-keyboard-response","136","118295","0.0-6.0-0.65","FRKA","3","m","rechts","22","","fixation","","","",""
"708","img/150_180.png","74","image-keyboard-response","137","119005","0.0-6.0-1.65","FRKA","3","m","rechts","22","","","self","j","150","true"
"null","<div style=""font-size:60px;"">+</div>","null","html-keyboard-response","138","119356","0.0-6.0-0.66","FRKA","3","m","rechts","22","","fixation","","","",""
"605","img/0_60.png","74","image-keyboard-response","139","119962","0.0-6.0-1.66","FRKA","3","m","rechts","22","","","self","j","0","true"
"null","<div style=""font-size:60px;"">+</div>","null","html-keyboard-response","140","120264","0.0-6.0-0.67","FRKA","3","m","rechts","22","","fixation","","","",""
"730","img/L150_180.png","70","image-keyboard-response","141","120995","0.0-6.0-1.67","FRKA","3","m","rechts","22","","","self","f","150","true"
"null","<div style=""font-size:60px;"">+</div>","null","html-keyboard-response","142","121497","0.0-6.0-0.68","FRKA","3","m","rechts","22","","fixation","","","",""
"654","img/0_90.png","74","image-keyboard-response","143","122152","0.0-6.0-1.68","FRKA","3","m","rechts","22","","","self","j","0","true"
"null","<div style=""font-size:60px;"">+</div>","null","html-keyboard-response","144","122454","0.0-6.0-0.69","FRKA","3","m","rechts","22","","fixation","","","",""
"552","img/120_180.png","74","image-keyboard-response","145","123007","0.0-6.0-1.69","FRKA","3","m","rechts","22","","","self","j","120","true"
"null","<div style=""font-size:60px;"">+</div>","null","html-keyboard-response","146","123359","0.0-6.0-0.70","FRKA","3","m","rechts","22","","fixation","","","",""
"701","img/L60_180.png","70","image-keyboard-response","147","124061","0.0-6.0-1.70","FRKA","3","m","rechts","22","","","self","f","60","true"
"null","<div style=""font-size:60px;"">+</div>","null","html-keyboard-response","148","124362","0.0-6.0-0.71","FRKA","3","m","rechts","22","","fixation","","","",""
"571","img/0_150.png","74","image-keyboard-response","149","124934","0.0-6.0-1.71","FRKA","3","m","rechts","22","","","self","j","0","true"
"null","<div style=""font-size:60px;"">+</div>","null","html-keyboard-response","150","125386","0.0-6.0-0.72","FRKA","3","m","rechts","22","","fixation","","","",""
"595","img/0_330.png","70","image-keyboard-response","151","125982","0.0-6.0-1.72","FRKA","3","m","rechts","22","","","self","f","0","true"
"null","<div style=""font-size:60px;"">+</div>","null","html-keyboard-response","152","126484","0.0-6.0-0.73","FRKA","3","m","rechts","22","","fixation","","","",""
"1284","img/30_60.png","74","image-keyboard-response","153","127769","0.0-6.0-1.73","FRKA","3","m","rechts","22","","","self","j","30","true"
"null","<div style=""font-size:60px;"">+</div>","null","html-keyboard-response","154","128171","0.0-6.0-0.74","FRKA","3","m","rechts","22","","fixation","","","",""
"694","img/90_300.png","70","image-keyboard-response","155","128866","0.0-6.0-1.74","FRKA","3","m","rechts","22","","","self","f","90","true"
"null","<div style=""font-size:60px;"">+</div>","null","html-keyboard-response","156","129368","0.0-6.0-0.75","FRKA","3","m","rechts","22","","fixation","","","",""
"678","img/90_180.png","74","image-keyboard-response","157","130047","0.0-6.0-1.75","FRKA","3","m","rechts","22","","","self","j","90","true"
"null","<div style=""font-size:60px;"">+</div>","null","html-keyboard-response","158","130349","0.0-6.0-0.76","FRKA","3","m","rechts","22","","fixation","","","",""
"859","img/L120_180.png","70","image-keyboard-response","159","131209","0.0-6.0-1.76","FRKA","3","m","rechts","22","","","self","f","120","true"
"null","<div style=""font-size:60px;"">+</div>","null","html-keyboard-response","160","131711","0.0-6.0-0.77","FRKA","3","m","rechts","22","","fixation","","","",""
"642","img/0_120.png","74","image-keyboard-response","161","132354","0.0-6.0-1.77","FRKA","3","m","rechts","22","","","self","j","0","true"
"null","<div style=""font-size:60px;"">+</div>","null","html-keyboard-response","162","132806","0.0-6.0-0.78","FRKA","3","m","rechts","22","","fixation","","","",""
"643","img/0_240.png","70","image-keyboard-response","163","133450","0.0-6.0-1.78","FRKA","3","m","rechts","22","","","self","f","0","true"
"null","<div style=""font-size:60px;"">+</div>","null","html-keyboard-response","164","133902","0.0-6.0-0.79","FRKA","3","m","rechts","22","","fixation","","","",""
"777","img/60_210.png","74","image-keyboard-response","165","134680","0.0-6.0-1.79","FRKA","3","m","rechts","22","","","self","j","60","true"
"null","<div style=""font-size:60px;"">+</div>","null","html-keyboard-response","166","135132","0.0-6.0-0.80","FRKA","3","m","rechts","22","","fixation","","","",""
"611","img/90_240.png","74","image-keyboard-response","167","135744","0.0-6.0-1.80","FRKA","3","m","rechts","22","","","self","j","90","true"
"null","<div style=""font-size:60px;"">+</div>","null","html-keyboard-response","168","136196","0.0-6.0-0.81","FRKA","3","m","rechts","22","","fixation","","","",""
"972","img/150_60.png","70","image-keyboard-response","169","137169","0.0-6.0-1.81","FRKA","3","m","rechts","22","","","self","f","150","true"
"null","<div style=""font-size:60px;"">+</div>","null","html-keyboard-response","170","137571","0.0-6.0-0.82","FRKA","3","m","rechts","22","","fixation","","","",""
"1847","img/30_90.png","70","image-keyboard-response","171","139419","0.0-6.0-1.82","FRKA","3","m","rechts","22","","","self","j","30","false"
"null","<div style=""font-size:60px;"">+</div>","null","html-keyboard-response","172","139771","0.0-6.0-0.83","FRKA","3","m","rechts","22","","fixation","","","",""
"1317","img/150_240.png","74","image-keyboard-response","173","141089","0.0-6.0-1.83","FRKA","3","m","rechts","22","","","self","j","150","true"
"null","<div style=""font-size:60px;"">+</div>","null","html-keyboard-response","174","141541","0.0-6.0-0.84","FRKA","3","m","rechts","22","","fixation","","","",""
"634","img/L90_180.png","70","image-keyboard-response","175","142176","0.0-6.0-1.84","FRKA","3","m","rechts","22","","","self","f","90","true"
"null","<div style=""font-size:60px;"">+</div>","null","html-keyboard-response","176","142628","0.0-6.0-0.85","FRKA","3","m","rechts","22","","fixation","","","",""
"625","img/120_150.png","70","image-keyboard-response","177","143253","0.0-6.0-1.85","FRKA","3","m","rechts","22","","","self","f","120","true"
"null","<div style=""font-size:60px;"">+</div>","null","html-keyboard-response","178","143555","0.0-6.0-0.86","FRKA","3","m","rechts","22","","fixation","","","",""
"678","img/90_120.png","70","image-keyboard-response","179","144234","0.0-6.0-1.86","FRKA","3","m","rechts","22","","","self","f","90","true"
"null","<div style=""font-size:60px;"">+</div>","null","html-keyboard-response","180","144536","0.0-6.0-0.87","FRKA","3","m","rechts","22","","fixation","","","",""
"738","img/150_270.png","74","image-keyboard-response","181","145275","0.0-6.0-1.87","FRKA","3","m","rechts","22","","","self","j","150","true"
"null","<div style=""font-size:60px;"">+</div>","null","html-keyboard-response","182","145727","0.0-6.0-0.88","FRKA","3","m","rechts","22","","fixation","","","",""
"768","img/60_30.png","74","image-keyboard-response","183","146496","0.0-6.0-1.88","FRKA","3","m","rechts","22","","","self","j","60","true"
"null","<div style=""font-size:60px;"">+</div>","null","html-keyboard-response","184","146798","0.0-6.0-0.89","FRKA","3","m","rechts","22","","fixation","","","",""
"758","img/60_180.png","74","image-keyboard-response","185","147556","0.0-6.0-1.89","FRKA","3","m","rechts","22","","","self","j","60","true"
"null","<div style=""font-size:60px;"">+</div>","null","html-keyboard-response","186","147958","0.0-6.0-0.90","FRKA","3","m","rechts","22","","fixation","","","",""
"677","img/0_300.png","70","image-keyboard-response","187","148636","0.0-6.0-1.90","FRKA","3","m","rechts","22","","","self","f","0","true"
"null","<div style=""font-size:60px;"">+</div>","null","html-keyboard-response","188","149038","0.0-6.0-0.91","FRKA","3","m","rechts","22","","fixation","","","",""
"789","img/90_30.png","74","image-keyboard-response","189","149829","0.0-6.0-1.91","FRKA","3","m","rechts","22","","","self","j","90","true"
"null","<div style=""font-size:60px;"">+</div>","null","html-keyboard-response","190","150231","0.0-6.0-0.92","FRKA","3","m","rechts","22","","fixation","","","",""
"787","img/90_150.png","70","image-keyboard-response","191","151019","0.0-6.0-1.92","FRKA","3","m","rechts","22","","","self","f","90","true"
"null","<div style=""font-size:60px;"">+</div>","null","html-keyboard-response","192","151370","0.0-6.0-0.93","FRKA","3","m","rechts","22","","fixation","","","",""
"667","img/30_180.png","74","image-keyboard-response","193","152039","0.0-6.0-1.93","FRKA","3","m","rechts","22","","","self","j","30","true"
"null","<div style=""font-size:60px;"">+</div>","null","html-keyboard-response","194","152340","0.0-6.0-0.94","FRKA","3","m","rechts","22","","fixation","","","",""
"611","img/0_270.png","70","image-keyboard-response","195","152953","0.0-6.0-1.94","FRKA","3","m","rechts","22","","","self","f","0","true"
"null","<div style=""font-size:60px;"">+</div>","null","html-keyboard-response","196","153305","0.0-6.0-0.95","FRKA","3","m","rechts","22","","fixation","","","",""
"890","img/150_90.png","70","image-keyboard-response","197","154196","0.0-6.0-1.95","FRKA","3","m","rechts","22","","","self","f","150","true"
"null","<div style=""font-size:60px;"">+</div>","null","html-keyboard-response","198","154597","0.0-6.0-0.96","FRKA","3","m","rechts","22","","fixation","","","",""
"1081","img/120_30.png","74","image-keyboard-response","199","155679","0.0-6.0-1.96","FRKA","3","m","rechts","22","","","self","j","120","true"
"null","<div style=""font-size:60px;"">+</div>","null","html-keyboard-response","200","156181","0.0-6.0-0.97","FRKA","3","m","rechts","22","","fixation","","","",""
"1096","img/30_120.png","74","image-keyboard-response","201","157278","0.0-6.0-1.97","FRKA","3","m","rechts","22","","","self","j","30","true"
"null","<div style=""font-size:60px;"">+</div>","null","html-keyboard-response","202","157680","0.0-6.0-0.98","FRKA","3","m","rechts","22","","fixation","","","",""
"860","img/150_120.png","70","image-keyboard-response","203","158541","0.0-6.0-1.98","FRKA","3","m","rechts","22","","","self","f","150","true"
"null","<div style=""font-size:60px;"">+</div>","null","html-keyboard-response","204","158993","0.0-6.0-0.99","FRKA","3","m","rechts","22","","fixation","","","",""
"848","img/60_330.png","70","image-keyboard-response","205","159842","0.0-6.0-1.99","FRKA","3","m","rechts","22","","","self","f","60","true"
"null","<div style=""font-size:60px;"">+</div>","null","html-keyboard-response","206","160344","0.0-6.0-0.100","FRKA","3","m","rechts","22","","fixation","","","",""
"547","img/0_210.png","70","image-keyboard-response","207","160892","0.0-6.0-1.100","FRKA","3","m","rechts","22","","","self","f","0","true"
"null","<div style=""font-size:60px;"">+</div>","null","html-keyboard-response","208","161194","0.0-6.0-0.101","FRKA","3","m","rechts","22","","fixation","","","",""
"631","img/30_300.png","70","image-keyboard-response","209","161826","0.0-6.0-1.101","FRKA","3","m","rechts","22","","","self","f","30","true"
"null","<div style=""font-size:60px;"">+</div>","null","html-keyboard-response","210","162178","0.0-6.0-0.102","FRKA","3","m","rechts","22","","fixation","","","",""
"700","img/120_270.png","74","image-keyboard-response","211","162879","0.0-6.0-1.102","FRKA","3","m","rechts","22","","","self","j","120","true"
"null","<div style=""font-size:60px;"">+</div>","null","html-keyboard-response","212","163281","0.0-6.0-0.103","FRKA","3","m","rechts","22","","fixation","","","",""
"555","img/120_210.png","74","image-keyboard-response","213","163837","0.0-6.0-1.103","FRKA","3","m","rechts","22","","","self","j","120","true"
"null","<div style=""font-size:60px;"">+</div>","null","html-keyboard-response","214","164139","0.0-6.0-0.104","FRKA","3","m","rechts","22","","fixation","","","",""
"673","img/90_120.png","70","image-keyboard-response","215","164813","0.0-6.0-1.104","FRKA","3","m","rechts","22","","","self","f","90","true"
"null","<div style=""font-size:60px;"">+</div>","null","html-keyboard-response","216","165115","0.0-6.0-0.105","FRKA","3","m","rechts","22","","fixation","","","",""
"614","img/L90_180.png","70","image-keyboard-response","217","165730","0.0-6.0-1.105","FRKA","3","m","rechts","22","","","self","f","90","true"
"null","<div style=""font-size:60px;"">+</div>","null","html-keyboard-response","218","166132","0.0-6.0-0.106","FRKA","3","m","rechts","22","","fixation","","","",""
"608","img/150_180.png","74","image-keyboard-response","219","166741","0.0-6.0-1.106","FRKA","3","m","rechts","22","","","self","j","150","true"
"null","<div style=""font-size:60px;"">+</div>","null","html-keyboard-response","220","167193","0.0-6.0-0.107","FRKA","3","m","rechts","22","","fixation","","","",""
"606","img/L30_180.png","70","image-keyboard-response","221","167800","0.0-6.0-1.107","FRKA","3","m","rechts","22","","","self","f","30","true"
"null","<div style=""font-size:60px;"">+</div>","null","html-keyboard-response","222","168302","0.0-6.0-0.108","FRKA","3","m","rechts","22","","fixation","","","",""
"967","img/60_330.png","70","image-keyboard-response","223","169270","0.0-6.0-1.108","FRKA","3","m","rechts","22","","","self","f","60","true"
"null","<div style=""font-size:60px;"">+</div>","null","html-keyboard-response","224","169572","0.0-6.0-0.109","FRKA","3","m","rechts","22","","fixation","","","",""
"794","img/60_270.png","70","image-keyboard-response","225","170367","0.0-6.0-1.109","FRKA","3","m","rechts","22","","","self","f","60","true"
"null","<div style=""font-size:60px;"">+</div>","null","html-keyboard-response","226","170869","0.0-6.0-0.110","FRKA","3","m","rechts","22","","fixation","","","",""
"527","img/0_330.png","70","image-keyboard-response","227","171397","0.0-6.0-1.110","FRKA","3","m","rechts","22","","","self","f","0","true"
"null","<div style=""font-size:60px;"">+</div>","null","html-keyboard-response","228","171749","0.0-6.0-0.111","FRKA","3","m","rechts","22","","fixation","","","",""
"755","img/L60_180.png","70","image-keyboard-response","229","172505","0.0-6.0-1.111","FRKA","3","m","rechts","22","","","self","f","60","true"
"null","<div style=""font-size:60px;"">+</div>","null","html-keyboard-response","230","173007","0.0-6.0-0.112","FRKA","3","m","rechts","22","","fixation","","","",""
"515","img/0_240.png","70","image-keyboard-response","231","173523","0.0-6.0-1.112","FRKA","3","m","rechts","22","","","self","f","0","true"
"null","<div style=""font-size:60px;"">+</div>","null","html-keyboard-response","232","173925","0.0-6.0-0.113","FRKA","3","m","rechts","22","","fixation","","","",""
"1892","img/30_120.png","74","image-keyboard-response","233","175818","0.0-6.0-1.113","FRKA","3","m","rechts","22","","","self","j","30","true"
"null","<div style=""font-size:60px;"">+</div>","null","html-keyboard-response","234","176272","0.0-6.0-0.114","FRKA","3","m","rechts","22","","fixation","","","",""
"830","img/120_180.png","74","image-keyboard-response","235","177103","0.0-6.0-1.114","FRKA","3","m","rechts","22","","","self","j","120","true"
"null","<div style=""font-size:60px;"">+</div>","null","html-keyboard-response","236","177605","0.0-6.0-0.115","FRKA","3","m","rechts","22","","fixation","","","",""
"1102","img/30_180.png","74","image-keyboard-response","237","178708","0.0-6.0-1.115","FRKA","3","m","rechts","22","","","self","j","30","true"
"null","<div style=""font-size:60px;"">+</div>","null","html-keyboard-response","238","179160","0.0-6.0-0.116","FRKA","3","m","rechts","22","","fixation","","","",""
"682","img/90_180.png","74","image-keyboard-response","239","179843","0.0-6.0-1.116","FRKA","3","m","rechts","22","","","self","j","90","true"
"null","<div style=""font-size:60px;"">+</div>","null","html-keyboard-response","240","180345","0.0-6.0-0.117","FRKA","3","m","rechts","22","","fixation","","","",""
"653","img/120_150.png","70","image-keyboard-response","241","180999","0.0-6.0-1.117","FRKA","3","m","rechts","22","","","self","f","120","true"
"null","<div style=""font-size:60px;"">+</div>","null","html-keyboard-response","242","181301","0.0-6.0-0.118","FRKA","3","m","rechts","22","","fixation","","","",""
"1153","img/30_90.png","74","image-keyboard-response","243","182455","0.0-6.0-1.118","FRKA","3","m","rechts","22","","","self","j","30","true"
"null","<div style=""font-size:60px;"">+</div>","null","html-keyboard-response","244","182807","0.0-6.0-0.119","FRKA","3","m","rechts","22","","fixation","","","",""
"654","img/60_180.png","74","image-keyboard-response","245","183461","0.0-6.0-1.119","FRKA","3","m","rechts","22","","","self","j","60","true"
"null","<div style=""font-size:60px;"">+</div>","null","html-keyboard-response","246","183913","0.0-6.0-0.120","FRKA","3","m","rechts","22","","fixation","","","",""
"1062","img/120_330.png","70","image-keyboard-response","247","184976","0.0-6.0-1.120","FRKA","3","m","rechts","22","","","self","f","120","true"
"null","<div style=""font-size:60px;"">+</div>","null","html-keyboard-response","248","185478","0.0-6.0-0.121","FRKA","3","m","rechts","22","","fixation","","","",""
"794","img/150_270.png","74","image-keyboard-response","249","186273","0.0-6.0-1.121","FRKA","3","m","rechts","22","","","self","j","150","true"
"null","<div style=""font-size:60px;"">+</div>","null","html-keyboard-response","250","186675","0.0-6.0-0.122","FRKA","3","m","rechts","22","","fixation","","","",""
"712","img/90_150.png","70","image-keyboard-response","251","187389","0.0-6.0-1.122","FRKA","3","m","rechts","22","","","self","f","90","true"
"null","<div style=""font-size:60px;"">+</div>","null","html-keyboard-response","252","187791","0.0-6.0-0.123","FRKA","3","m","rechts","22","","fixation","","","",""
"1410","img/150_60.png","74","image-keyboard-response","253","189201","0.0-6.0-1.123","FRKA","3","m","rechts","22","","","self","f","150","false"
"null","<div style=""font-size:60px;"">+</div>","null","html-keyboard-response","254","189503","0.0-6.0-0.124","FRKA","3","m","rechts","22","","fixation","","","",""
"787","img/0_300.png","70","image-keyboard-response","255","190291","0.0-6.0-1.124","FRKA","3","m","rechts","22","","","self","f","0","true"
"null","<div style=""font-size:60px;"">+</div>","null","html-keyboard-response","256","190743","0.0-6.0-0.125","FRKA","3","m","rechts","22","","fixation","","","",""
"654","img/60_210.png","74","image-keyboard-response","257","191399","0.0-6.0-1.125","FRKA","3","m","rechts","22","","","self","j","60","true"
"null","<div style=""font-size:60px;"">+</div>","null","html-keyboard-response","258","191801","0.0-6.0-0.126","FRKA","3","m","rechts","22","","fixation","","","",""
"573","img/120_210.png","74","image-keyboard-response","259","192375","0.0-6.0-1.126","FRKA","3","m","rechts","22","","","self","j","120","true"
"null","<div style=""font-size:60px;"">+</div>","null","html-keyboard-response","260","192727","0.0-6.0-0.127","FRKA","3","m","rechts","22","","fixation","","","",""
"1770","img/120_30.png","74","image-keyboard-response","261","194498","0.0-6.0-1.127","FRKA","3","m","rechts","22","","","self","j","120","true"
"null","<div style=""font-size:60px;"">+</div>","null","html-keyboard-response","262","194900","0.0-6.0-0.128","FRKA","3","m","rechts","22","","fixation","","","",""
"1074","img/60_150.png","70","image-keyboard-response","263","195975","0.0-6.0-1.128","FRKA","3","m","rechts","22","","","self","f","60","true"
"null","<div style=""font-size:60px;"">+</div>","null","html-keyboard-response","264","196277","0.0-6.0-0.129","FRKA","3","m","rechts","22","","fixation","","","",""
"633","img/0_270.png","70","image-keyboard-response","265","196911","0.0-6.0-1.129","FRKA","3","m","rechts","22","","","self","f","0","true"
"null","<div style=""font-size:60px;"">+</div>","null","html-keyboard-response","266","197263","0.0-6.0-0.130","FRKA","3","m","rechts","22","","fixation","","","",""
"751","img/150_90.png","70","image-keyboard-response","267","198015","0.0-6.0-1.130","FRKA","3","m","rechts","22","","","self","f","150","true"
"null","<div style=""font-size:60px;"">+</div>","null","html-keyboard-response","268","198318","0.0-6.0-0.131","FRKA","3","m","rechts","22","","fixation","","","",""
"827","img/30_270.png","70","image-keyboard-response","269","199146","0.0-6.0-1.131","FRKA","3","m","rechts","22","","","self","f","30","true"
"null","<div style=""font-size:60px;"">+</div>","null","html-keyboard-response","270","199548","0.0-6.0-0.132","FRKA","3","m","rechts","22","","fixation","","","",""
"1312","img/90_210.png","74","image-keyboard-response","271","200861","0.0-6.0-1.132","FRKA","3","m","rechts","22","","","self","j","90","true"
"null","<div style=""font-size:60px;"">+</div>","null","html-keyboard-response","272","201163","0.0-6.0-0.133","FRKA","3","m","rechts","22","","fixation","","","",""
"647","img/60_90.png","70","image-keyboard-response","273","201811","0.0-6.0-1.133","FRKA","3","m","rechts","22","","","self","j","60","false"
"null","<div style=""font-size:60px;"">+</div>","null","html-keyboard-response","274","202113","0.0-6.0-0.134","FRKA","3","m","rechts","22","","fixation","","","",""
"852","img/0_60.png","74","image-keyboard-response","275","202966","0.0-6.0-1.134","FRKA","3","m","rechts","22","","","self","j","0","true"
"null","<div style=""font-size:60px;"">+</div>","null","html-keyboard-response","276","203368","0.0-6.0-0.135","FRKA","3","m","rechts","22","","fixation","","","",""
"876","img/90_300.png","70","image-keyboard-response","277","204245","0.0-6.0-1.135","FRKA","3","m","rechts","22","","","self","f","90","true"
"null","<div style=""font-size:60px;"">+</div>","null","html-keyboard-response","278","204547","0.0-6.0-0.136","FRKA","3","m","rechts","22","","fixation","","","",""
"659","img/0_120.png","74","image-keyboard-response","279","205207","0.0-6.0-1.136","FRKA","3","m","rechts","22","","","self","j","0","true"
"null","<div style=""font-size:60px;"">+</div>","null","html-keyboard-response","280","205559","0.0-6.0-0.137","FRKA","3","m","rechts","22","","fixation","","","",""
"1210","img/120_90.png","70","image-keyboard-response","281","206770","0.0-6.0-1.137","FRKA","3","m","rechts","22","","","self","f","120","true"
"null","<div style=""font-size:60px;"">+</div>","null","html-keyboard-response","282","207272","0.0-6.0-0.138","FRKA","3","m","rechts","22","","fixation","","","",""
"1166","img/90_30.png","74","image-keyboard-response","283","208439","0.0-6.0-1.138","FRKA","3","m","rechts","22","","","self","j","90","true"
"null","<div style=""font-size:60px;"">+</div>","null","html-keyboard-response","284","208741","0.0-6.0-0.139","FRKA","3","m","rechts","22","","fixation","","","",""
"784","img/120_270.png","74","image-keyboard-response","285","209526","0.0-6.0-1.139","FRKA","3","m","rechts","22","","","self","j","120","true"
"null","<div style=""font-size:60px;"">+</div>","null","html-keyboard-response","286","209878","0.0-6.0-0.140","FRKA","3","m","rechts","22","","fixation","","","",""
"751","img/150_120.png","70","image-keyboard-response","287","210630","0.0-6.0-1.140","FRKA","3","m","rechts","22","","","self","f","150","true"
"null","<div style=""font-size:60px;"">+</div>","null","html-keyboard-response","288","211082","0.0-6.0-0.141","FRKA","3","m","rechts","22","","fixation","","","",""
"645","img/0_150.png","74","image-keyboard-response","289","211728","0.0-6.0-1.141","FRKA","3","m","rechts","22","","","self","j","0","true"
"null","<div style=""font-size:60px;"">+</div>","null","html-keyboard-response","290","212180","0.0-6.0-0.142","FRKA","3","m","rechts","22","","fixation","","","",""
"835","img/90_60.png","74","image-keyboard-response","291","213016","0.0-6.0-1.142","FRKA","3","m","rechts","22","","","self","j","90","true"
"null","<div style=""font-size:60px;"">+</div>","null","html-keyboard-response","292","213418","0.0-6.0-0.143","FRKA","3","m","rechts","22","","fixation","","","",""
"781","img/90_240.png","74","image-keyboard-response","293","214200","0.0-6.0-1.143","FRKA","3","m","rechts","22","","","self","j","90","true"
"null","<div style=""font-size:60px;"">+</div>","null","html-keyboard-response","294","214501","0.0-6.0-0.144","FRKA","3","m","rechts","22","","fixation","","","",""
"666","img/0_210.png","70","image-keyboard-response","295","215168","0.0-6.0-1.144","FRKA","3","m","rechts","22","","","self","f","0","true"
"null","<div style=""font-size:60px;"">+</div>","null","html-keyboard-response","296","215670","0.0-6.0-0.145","FRKA","3","m","rechts","22","","fixation","","","",""
"767","img/L150_180.png","70","image-keyboard-response","297","216438","0.0-6.0-1.145","FRKA","3","m","rechts","22","","","self","f","150","true"
"null","<div style=""font-size:60px;"">+</div>","null","html-keyboard-response","298","216840","0.0-6.0-0.146","FRKA","3","m","rechts","22","","fixation","","","",""
"653","img/0_90.png","74","image-keyboard-response","299","217494","0.0-6.0-1.146","FRKA","3","m","rechts","22","","","self","j","0","true"
"null","<div style=""font-size:60px;"">+</div>","null","html-keyboard-response","300","217996","0.0-6.0-0.147","FRKA","3","m","rechts","22","","fixation","","","",""
"608","img/60_30.png","74","image-keyboard-response","301","218605","0.0-6.0-1.147","FRKA","3","m","rechts","22","","","self","j","60","true"
"null","<div style=""font-size:60px;"">+</div>","null","html-keyboard-response","302","218957","0.0-6.0-0.148","FRKA","3","m","rechts","22","","fixation","","","",""
"727","img/L120_180.png","70","image-keyboard-response","303","219685","0.0-6.0-1.148","FRKA","3","m","rechts","22","","","self","f","120","true"
"null","<div style=""font-size:60px;"">+</div>","null","html-keyboard-response","304","219987","0.0-6.0-0.149","FRKA","3","m","rechts","22","","fixation","","","",""
"1180","img/150_300.png","74","image-keyboard-response","305","221168","0.0-6.0-1.149","FRKA","3","m","rechts","22","","","self","j","150","true"
"null","<div style=""font-size:60px;"">+</div>","null","html-keyboard-response","306","221620","0.0-6.0-0.150","FRKA","3","m","rechts","22","","fixation","","","",""
"1312","img/150_240.png","74","image-keyboard-response","307","222933","0.0-6.0-1.150","FRKA","3","m","rechts","22","","","self","j","150","true"
"null","<div style=""font-size:60px;"">+</div>","null","html-keyboard-response","308","223435","0.0-6.0-0.151","FRKA","3","m","rechts","22","","fixation","","","",""
"732","img/0_30.png","74","image-keyboard-response","309","224168","0.0-6.0-1.151","FRKA","3","m","rechts","22","","","self","j","0","true"
"null","<div style=""font-size:60px;"">+</div>","null","html-keyboard-response","310","224470","0.0-6.0-0.152","FRKA","3","m","rechts","22","","fixation","","","",""
"595","img/30_60.png","74","image-keyboard-response","311","225066","0.0-6.0-1.152","FRKA","3","m","rechts","22","","","self","j","30","true"
"null","<div style=""font-size:60px;"">+</div>","null","html-keyboard-response","312","225468","0.0-6.0-0.153","FRKA","3","m","rechts","22","","fixation","","","",""
"1073","img/90_330.png","70","image-keyboard-response","313","226542","0.0-6.0-1.153","FRKA","3","m","rechts","22","","","self","f","90","true"
"null","<div style=""font-size:60px;"">+</div>","null","html-keyboard-response","314","226993","0.0-6.0-0.154","FRKA","3","m","rechts","22","","fixation","","","",""
"936","img/30_240.png","70","image-keyboard-response","315","227931","0.0-6.0-1.154","FRKA","3","m","rechts","22","","","self","f","30","true"
"null","<div style=""font-size:60px;"">+</div>","null","html-keyboard-response","316","228433","0.0-6.0-0.155","FRKA","3","m","rechts","22","","fixation","","","",""
"877","img/30_300.png","70","image-keyboard-response","317","229311","0.0-6.0-1.155","FRKA","3","m","rechts","22","","","self","f","30","true"
"null","<div style=""font-size:60px;"">+</div>","null","html-keyboard-response","318","229813","0.0-6.0-0.156","FRKA","3","m","rechts","22","","fixation","","","",""
"582","img/0_60.png","74","image-keyboard-response","319","230397","0.0-6.0-1.156","FRKA","3","m","rechts","22","","","self","j","0","true"
"null","<div style=""font-size:60px;"">+</div>","null","html-keyboard-response","320","230749","0.0-6.0-0.157","FRKA","3","m","rechts","22","","fixation","","","",""
"602","img/30_90.png","74","image-keyboard-response","321","231353","0.0-6.0-1.157","FRKA","3","m","rechts","22","","","self","j","30","true"
"null","<div style=""font-size:60px;"">+</div>","null","html-keyboard-response","322","231705","0.0-6.0-0.158","FRKA","3","m","rechts","22","","fixation","","","",""
"896","img/90_180.png","74","image-keyboard-response","323","232602","0.0-6.0-1.158","FRKA","3","m","rechts","22","","","self","j","90","true"
"null","<div style=""font-size:60px;"">+</div>","null","html-keyboard-response","324","232953","0.0-6.0-0.159","FRKA","3","m","rechts","22","","fixation","","","",""
"622","img/60_330.png","70","image-keyboard-response","325","233577","0.0-6.0-1.159","FRKA","3","m","rechts","22","","","self","f","60","true"
"null","<div style=""font-size:60px;"">+</div>","null","html-keyboard-response","326","233878","0.0-6.0-0.160","FRKA","3","m","rechts","22","","fixation","","","",""
"890","img/30_240.png","70","image-keyboard-response","327","234770","0.0-6.0-1.160","FRKA","3","m","rechts","22","","","self","f","30","true"
"null","<div style=""font-size:60px;"">+</div>","null","html-keyboard-response","328","235172","0.0-6.0-0.161","FRKA","3","m","rechts","22","","fixation","","","",""
"574","img/0_300.png","70","image-keyboard-response","329","235747","0.0-6.0-1.161","FRKA","3","m","rechts","22","","","self","f","0","true"
"null","<div style=""font-size:60px;"">+</div>","null","html-keyboard-response","330","236149","0.0-6.0-0.162","FRKA","3","m","rechts","22","","fixation","","","",""
"633","img/120_180.png","74","image-keyboard-response","331","236782","0.0-6.0-1.162","FRKA","3","m","rechts","22","","","self","j","120","true"
"null","<div style=""font-size:60px;"">+</div>","null","html-keyboard-response","332","237284","0.0-6.0-0.163","FRKA","3","m","rechts","22","","fixation","","","",""
"708","img/60_30.png","74","image-keyboard-response","333","237993","0.0-6.0-1.163","FRKA","3","m","rechts","22","","","self","j","60","true"
"null","<div style=""font-size:60px;"">+</div>","null","html-keyboard-response","334","238445","0.0-6.0-0.164","FRKA","3","m","rechts","22","","fixation","","","",""
"776","img/150_240.png","74","image-keyboard-response","335","239222","0.0-6.0-1.164","FRKA","3","m","rechts","22","","","self","j","150","true"
"null","<div style=""font-size:60px;"">+</div>","null","html-keyboard-response","336","239574","0.0-6.0-0.165","FRKA","3","m","rechts","22","","fixation","","","",""
"711","img/120_270.png","74","image-keyboard-response","337","240286","0.0-6.0-1.165","FRKA","3","m","rechts","22","","","self","j","120","true"
"null","<div style=""font-size:60px;"">+</div>","null","html-keyboard-response","338","240788","0.0-6.0-0.166","FRKA","3","m","rechts","22","","fixation","","","",""
"785","img/150_120.png","70","image-keyboard-response","339","241574","0.0-6.0-1.166","FRKA","3","m","rechts","22","","","self","f","150","true"
"null","<div style=""font-size:60px;"">+</div>","null","html-keyboard-response","340","241926","0.0-6.0-0.167","FRKA","3","m","rechts","22","","fixation","","","",""
"654","img/0_150.png","74","image-keyboard-response","341","242581","0.0-6.0-1.167","FRKA","3","m","rechts","22","","","self","j","0","true"
"null","<div style=""font-size:60px;"">+</div>","null","html-keyboard-response","342","242883","0.0-6.0-0.168","FRKA","3","m","rechts","22","","fixation","","","",""
"848","img/0_210.png","70","image-keyboard-response","343","243732","0.0-6.0-1.168","FRKA","3","m","rechts","22","","","self","f","0","true"
"null","<div style=""font-size:60px;"">+</div>","null","html-keyboard-response","344","244084","0.0-6.0-0.169","FRKA","3","m","rechts","22","","fixation","","","",""
"901","img/60_150.png","70","image-keyboard-response","345","244986","0.0-6.0-1.169","FRKA","3","m","rechts","22","","","self","f","60","true"
"null","<div style=""font-size:60px;"">+</div>","null","html-keyboard-response","346","245488","0.0-6.0-0.170","FRKA","3","m","rechts","22","","fixation","","","",""
"817","img/30_270.png","70","image-keyboard-response","347","246306","0.0-6.0-1.170","FRKA","3","m","rechts","22","","","self","f","30","true"
"null","<div style=""font-size:60px;"">+</div>","null","html-keyboard-response","348","246608","0.0-6.0-0.171","FRKA","3","m","rechts","22","","fixation","","","",""
"1475","img/150_300.png","74","image-keyboard-response","349","248084","0.0-6.0-1.171","FRKA","3","m","rechts","22","","","self","j","150","true"
"null","<div style=""font-size:60px;"">+</div>","null","html-keyboard-response","350","248536","0.0-6.0-0.172","FRKA","3","m","rechts","22","","fixation","","","",""
"922","img/30_180.png","74","image-keyboard-response","351","249459","0.0-6.0-1.172","FRKA","3","m","rechts","22","","","self","j","30","true"
"null","<div style=""font-size:60px;"">+</div>","null","html-keyboard-response","352","249961","0.0-6.0-0.173","FRKA","3","m","rechts","22","","fixation","","","",""
"623","img/150_180.png","74","image-keyboard-response","353","250585","0.0-6.0-1.173","FRKA","3","m","rechts","22","","","self","j","150","true"
"null","<div style=""font-size:60px;"">+</div>","null","html-keyboard-response","354","251087","0.0-6.0-0.174","FRKA","3","m","rechts","22","","fixation","","","",""
"585","img/0_30.png","74","image-keyboard-response","355","251673","0.0-6.0-1.174","FRKA","3","m","rechts","22","","","self","j","0","true"
"null","<div style=""font-size:60px;"">+</div>","null","html-keyboard-response","356","252075","0.0-6.0-0.175","FRKA","3","m","rechts","22","","fixation","","","",""
"1715","img/120_30.png","74","image-keyboard-response","357","253791","0.0-6.0-1.175","FRKA","3","m","rechts","22","","","self","j","120","true"
"null","<div style=""font-size:60px;"">+</div>","null","html-keyboard-response","358","254093","0.0-6.0-0.176","FRKA","3","m","rechts","22","","fixation","","","",""
"942","img/90_300.png","70","image-keyboard-response","359","255036","0.0-6.0-1.176","FRKA","3","m","rechts","22","","","self","f","90","true"
"null","<div style=""font-size:60px;"">+</div>","null","html-keyboard-response","360","255338","0.0-6.0-0.177","FRKA","3","m","rechts","22","","fixation","","","",""
"1006","img/90_120.png","70","image-keyboard-response","361","256346","0.0-6.0-1.177","FRKA","3","m","rechts","22","","","self","f","90","true"
"null","<div style=""font-size:60px;"">+</div>","null","html-keyboard-response","362","256648","0.0-6.0-0.178","FRKA","3","m","rechts","22","","fixation","","","",""
"711","img/30_300.png","70","image-keyboard-response","363","257360","0.0-6.0-1.178","FRKA","3","m","rechts","22","","","self","f","30","true"
"null","<div style=""font-size:60px;"">+</div>","null","html-keyboard-response","364","257662","0.0-6.0-0.179","FRKA","3","m","rechts","22","","fixation","","","",""
"840","img/60_180.png","74","image-keyboard-response","365","258503","0.0-6.0-1.179","FRKA","3","m","rechts","22","","","self","j","60","true"
"null","<div style=""font-size:60px;"">+</div>","null","html-keyboard-response","366","258955","0.0-6.0-0.180","FRKA","3","m","rechts","22","","fixation","","","",""
"863","img/150_270.png","74","image-keyboard-response","367","259819","0.0-6.0-1.180","FRKA","3","m","rechts","22","","","self","j","150","true"
"null","<div style=""font-size:60px;"">+</div>","null","html-keyboard-response","368","260121","0.0-6.0-0.181","FRKA","3","m","rechts","22","","fixation","","","",""
"598","img/0_270.png","70","image-keyboard-response","369","260720","0.0-6.0-1.181","FRKA","3","m","rechts","22","","","self","f","0","true"
"null","<div style=""font-size:60px;"">+</div>","null","html-keyboard-response","370","261172","0.0-6.0-0.182","FRKA","3","m","rechts","22","","fixation","","","",""
"753","img/L60_180.png","70","image-keyboard-response","371","261927","0.0-6.0-1.182","FRKA","3","m","rechts","22","","","self","f","60","true"
"null","<div style=""font-size:60px;"">+</div>","null","html-keyboard-response","372","262279","0.0-6.0-0.183","FRKA","3","m","rechts","22","","fixation","","","",""
"902","img/90_330.png","70","image-keyboard-response","373","263182","0.0-6.0-1.183","FRKA","3","m","rechts","22","","","self","f","90","true"
"null","<div style=""font-size:60px;"">+</div>","null","html-keyboard-response","374","263484","0.0-6.0-0.184","FRKA","3","m","rechts","22","","fixation","","","",""
"696","img/30_60.png","74","image-keyboard-response","375","264181","0.0-6.0-1.184","FRKA","3","m","rechts","22","","","self","j","30","true"
"null","<div style=""font-size:60px;"">+</div>","null","html-keyboard-response","376","264583","0.0-6.0-0.185","FRKA","3","m","rechts","22","","fixation","","","",""
"1550","img/L150_180.png","70","image-keyboard-response","377","266134","0.0-6.0-1.185","FRKA","3","m","rechts","22","","","self","f","150","true"
"null","<div style=""font-size:60px;"">+</div>","null","html-keyboard-response","378","266636","0.0-6.0-0.186","FRKA","3","m","rechts","22","","fixation","","","",""
"1072","img/120_90.png","70","image-keyboard-response","379","267709","0.0-6.0-1.186","FRKA","3","m","rechts","22","","","self","f","120","true"
"null","<div style=""font-size:60px;"">+</div>","null","html-keyboard-response","380","268161","0.0-6.0-0.187","FRKA","3","m","rechts","22","","fixation","","","",""
"733","img/90_30.png","74","image-keyboard-response","381","268896","0.0-6.0-1.187","FRKA","3","m","rechts","22","","","self","j","90","true"
"null","<div style=""font-size:60px;"">+</div>","null","html-keyboard-response","382","269348","0.0-6.0-0.188","FRKA","3","m","rechts","22","","fixation","","","",""
"718","img/L120_180.png","70","image-keyboard-response","383","270068","0.0-6.0-1.188","FRKA","3","m","rechts","22","","","self","f","120","true"
"null","<div style=""font-size:60px;"">+</div>","null","html-keyboard-response","384","270470","0.0-6.0-0.189","FRKA","3","m","rechts","22","","fixation","","","",""
"889","img/60_210.png","74","image-keyboard-response","385","271360","0.0-6.0-1.189","FRKA","3","m","rechts","22","","","self","j","60","true"
"null","<div style=""font-size:60px;"">+</div>","null","html-keyboard-response","386","271862","0.0-6.0-0.190","FRKA","3","m","rechts","22","","fixation","","","",""
"1311","img/120_330.png","70","image-keyboard-response","387","273174","0.0-6.0-1.190","FRKA","3","m","rechts","22","","","self","f","120","true"
"null","<div style=""font-size:60px;"">+</div>","null","html-keyboard-response","388","273526","0.0-6.0-0.191","FRKA","3","m","rechts","22","","fixation","","","",""
"768","img/60_270.png","70","image-keyboard-response","389","274296","0.0-6.0-1.191","FRKA","3","m","rechts","22","","","self","f","60","true"
"null","<div style=""font-size:60px;"">+</div>","null","html-keyboard-response","390","274698","0.0-6.0-0.192","FRKA","3","m","rechts","22","","fixation","","","",""
"734","img/90_210.png","74","image-keyboard-response","391","275432","0.0-6.0-1.192","FRKA","3","m","rechts","22","","","self","j","90","true"
"null","<div style=""font-size:60px;"">+</div>","null","html-keyboard-response","392","275834","0.0-6.0-0.193","FRKA","3","m","rechts","22","","fixation","","","",""
"1075","img/L30_180.png","70","image-keyboard-response","393","276911","0.0-6.0-1.193","FRKA","3","m","rechts","22","","","self","f","30","true"
"null","<div style=""font-size:60px;"">+</div>","null","html-keyboard-response","394","277263","0.0-6.0-0.194","FRKA","3","m","rechts","22","","fixation","","","",""
"731","img/150_60.png","70","image-keyboard-response","395","277995","0.0-6.0-1.194","FRKA","3","m","rechts","22","","","self","f","150","true"
"null","<div style=""font-size:60px;"">+</div>","null","html-keyboard-response","396","278397","0.0-6.0-0.195","FRKA","3","m","rechts","22","","fixation","","","",""
"549","img/L90_180.png","70","image-keyboard-response","397","278948","0.0-6.0-1.195","FRKA","3","m","rechts","22","","","self","f","90","true"
"null","<div style=""font-size:60px;"">+</div>","null","html-keyboard-response","398","279450","0.0-6.0-0.196","FRKA","3","m","rechts","22","","fixation","","","",""
"493","img/150_90.png","70","image-keyboard-response","399","279944","0.0-6.0-1.196","FRKA","3","m","rechts","22","","","self","f","150","true"
"null","<div style=""font-size:60px;"">+</div>","null","html-keyboard-response","400","280246","0.0-6.0-0.197","FRKA","3","m","rechts","22","","fixation","","","",""
"634","img/0_240.png","70","image-keyboard-response","401","280881","0.0-6.0-1.197","FRKA","3","m","rechts","22","","","self","f","0","true"
"null","<div style=""font-size:60px;"">+</div>","null","html-keyboard-response","402","281183","0.0-6.0-0.198","FRKA","3","m","rechts","22","","fixation","","","",""
"601","img/90_60.png","70","image-keyboard-response","403","281785","0.0-6.0-1.198","FRKA","3","m","rechts","22","","","self","j","90","false"
"null","<div style=""font-size:60px;"">+</div>","null","html-keyboard-response","404","282237","0.0-6.0-0.199","FRKA","3","m","rechts","22","","fixation","","","",""
"688","img/0_120.png","74","image-keyboard-response","405","282926","0.0-6.0-1.199","FRKA","3","m","rechts","22","","","self","j","0","true"
"null","<div style=""font-size:60px;"">+</div>","null","html-keyboard-response","406","283378","0.0-6.0-0.200","FRKA","3","m","rechts","22","","fixation","","","",""
"845","img/60_90.png","74","image-keyboard-response","407","284224","0.0-6.0-1.200","FRKA","3","m","rechts","22","","","self","j","60","true"
"null","<div style=""font-size:60px;"">+</div>","null","html-keyboard-response","408","284576","0.0-6.0-0.201","FRKA","3","m","rechts","22","","fixation","","","",""
"604","img/0_330.png","70","image-keyboard-response","409","285181","0.0-6.0-1.201","FRKA","3","m","rechts","22","","","self","f","0","true"
"null","<div style=""font-size:60px;"">+</div>","null","html-keyboard-response","410","285683","0.0-6.0-0.202","FRKA","3","m","rechts","22","","fixation","","","",""
"697","img/120_150.png","70","image-keyboard-response","411","286381","0.0-6.0-1.202","FRKA","3","m","rechts","22","","","self","f","120","true"
"null","<div style=""font-size:60px;"">+</div>","null","html-keyboard-response","412","286833","0.0-6.0-0.203","FRKA","3","m","rechts","22","","fixation","","","",""
"488","img/90_150.png","70","image-keyboard-response","413","287322","0.0-6.0-1.203","FRKA","3","m","rechts","22","","","self","f","90","true"
"null","<div style=""font-size:60px;"">+</div>","null","html-keyboard-response","414","287674","0.0-6.0-0.204","FRKA","3","m","rechts","22","","fixation","","","",""
"849","img/30_120.png","74","image-keyboard-response","415","288524","0.0-6.0-1.204","FRKA","3","m","rechts","22","","","self","j","30","true"
"null","<div style=""font-size:60px;"">+</div>","null","html-keyboard-response","416","288976","0.0-6.0-0.205","FRKA","3","m","rechts","22","","fixation","","","",""
"799","img/120_210.png","74","image-keyboard-response","417","289776","0.0-6.0-1.205","FRKA","3","m","rechts","22","","","self","j","120","true"
"null","<div style=""font-size:60px;"">+</div>","null","html-keyboard-response","418","290278","0.0-6.0-0.206","FRKA","3","m","rechts","22","","fixation","","","",""
"560","img/0_90.png","74","image-keyboard-response","419","290839","0.0-6.0-1.206","FRKA","3","m","rechts","22","","","self","j","0","true"
"null","<div style=""font-size:60px;"">+</div>","null","html-keyboard-response","420","291241","0.0-6.0-0.207","FRKA","3","m","rechts","22","","fixation","","","",""
"564","img/90_240.png","74","image-keyboard-response","421","291806","0.0-6.0-1.207","FRKA","3","m","rechts","22","","","self","j","90","true"
"5356","<p>Du hast in 94% der Versuche korrekt entschieden.</p><p>Deine durchschnittliche Reaktionszeit war  843ms.</p><p>Dr&uuml;cke eine beliebige Taste, um die Session zu beenden. Vielen Dank!</p>","32","html-keyboard-response","422","297164","0.0-7.0","FRKA","3","m","rechts","22","","","","","",""
