"rt","stimulus","key_press","trial_type","trial_index","time_elapsed","internal_node_id","subject","session","sex","handedness","age","responses","test_part","condition","correct_response","angle","correct"
"3306","<p>Mental Rotation Experiment.</p> <p>Dr&uuml;cke eine beliebige Taste, um anzufangen.</p>","13","html-keyboard-response","0","3326","0.0-0.0","MIGE","2","f","links","22","","","","","",""
"3770","","","survey-text","1","7100","0.0-1.0","MIGE","2","f","links","22","{""Q0"":""MIGE""}","","","","",""
"2597","","","survey-text","2","9697","0.0-2.0","MIGE","2","f","links","22","{""Q0"":""2""}","","","","",""
"13101","","","survey-multi-choice","3","22805","0.0-3.0","MIGE","2","f","links","22","{""Q0"":""f"",""Q1"":""links""}","","","","",""
"3327","","","survey-text","4","26134","0.0-4.0","MIGE","2","f","links","22","{""Q0"":""22""}","","","","",""
"152026","<p>Stell dir vor, dass du vor einem runden Tisch stehst, auf dem sich ein blauer Ball am Tischrand befindet. Entlang des Tischrands ist jeweils ein verschieden langer Pfeil. Nun bleibst du an deinem Platz vor dem Tisch und rotierst den Tisch entlang des Pfeils (gleiche Richtung und Länge). </p> <img src='img/30_180.png'></img> <br><p> Nachdem du diese (vorgestellte) Rotation durchgef&uuml;hrt hast, schau in Richtung der Tischmitte, und entscheide dann, ob der Ball links oder rechts von dir liegt.</p> <p>Dr&uuml;cke die <strong>'f'</strong>-Taste f&uuml;r links, die <strong>'j'</strong>-Taste f&uuml;r rechts.</p><br><p> Das Bild wird jeweils 1 Sekunde lang pr&auml;sentiert. Du hast 3 Sekunden Zeit eine Entscheidung zu treffen.</p>","74","html-keyboard-response","5","178168","0.0-5.0","MIGE","2","f","links","22","","","","","",""
"null","<div style=""font-size:60px;"">+</div>","null","html-keyboard-response","6","179662","0.0-6.0-0.0","MIGE","2","f","links","22","","fixation","","","",""
"1799","img/L90_180.png","74","image-keyboard-response","7","181481","0.0-6.0-1.0","MIGE","2","f","links","22","","","object","j","90","true"
"null","<div style=""font-size:60px;"">+</div>","null","html-keyboard-response","8","181915","0.0-6.0-0.1","MIGE","2","f","links","22","","fixation","","","",""
"1377","img/60_180.png","70","image-keyboard-response","9","183311","0.0-6.0-1.1","MIGE","2","f","links","22","","","object","f","60","true"
"null","<div style=""font-size:60px;"">+</div>","null","html-keyboard-response","10","183742","0.0-6.0-0.2","MIGE","2","f","links","22","","fixation","","","",""
"999","img/0_330.png","70","image-keyboard-response","11","184761","0.0-6.0-1.2","MIGE","2","f","links","22","","","object","f","0","true"
"null","<div style=""font-size:60px;"">+</div>","null","html-keyboard-response","12","185183","0.0-6.0-0.3","MIGE","2","f","links","22","","fixation","","","",""
"1159","img/90_330.png","74","image-keyboard-response","13","186360","0.0-6.0-1.3","MIGE","2","f","links","22","","","object","j","90","true"
"null","<div style=""font-size:60px;"">+</div>","null","html-keyboard-response","14","186668","0.0-6.0-0.4","MIGE","2","f","links","22","","fixation","","","",""
"1092","img/L30_180.png","74","image-keyboard-response","15","187776","0.0-6.0-1.4","MIGE","2","f","links","22","","","object","j","30","true"
"null","<div style=""font-size:60px;"">+</div>","null","html-keyboard-response","16","188151","0.0-6.0-0.5","MIGE","2","f","links","22","","fixation","","","",""
"1621","img/30_60.png","74","image-keyboard-response","17","189790","0.0-6.0-1.5","MIGE","2","f","links","22","","","object","j","30","true"
"null","<div style=""font-size:60px;"">+</div>","null","html-keyboard-response","18","190197","0.0-6.0-0.6","MIGE","2","f","links","22","","fixation","","","",""
"869","img/0_240.png","70","image-keyboard-response","19","191083","0.0-6.0-1.6","MIGE","2","f","links","22","","","object","f","0","true"
"null","<div style=""font-size:60px;"">+</div>","null","html-keyboard-response","20","191538","0.0-6.0-0.7","MIGE","2","f","links","22","","fixation","","","",""
"1472","img/150_270.png","74","image-keyboard-response","21","193028","0.0-6.0-1.7","MIGE","2","f","links","22","","","object","j","150","true"
"null","<div style=""font-size:60px;"">+</div>","null","html-keyboard-response","22","193551","0.0-6.0-0.8","MIGE","2","f","links","22","","fixation","","","",""
"1562","img/30_300.png","70","image-keyboard-response","23","195122","0.0-6.0-1.8","MIGE","2","f","links","22","","","object","f","30","true"
"null","<div style=""font-size:60px;"">+</div>","null","html-keyboard-response","24","195495","0.0-6.0-0.9","MIGE","2","f","links","22","","fixation","","","",""
"1113","img/90_210.png","70","image-keyboard-response","25","196631","0.0-6.0-1.9","MIGE","2","f","links","22","","","object","f","90","true"
"null","<div style=""font-size:60px;"">+</div>","null","html-keyboard-response","26","196948","0.0-6.0-0.10","MIGE","2","f","links","22","","fixation","","","",""
"1382","img/120_180.png","70","image-keyboard-response","27","198350","0.0-6.0-1.10","MIGE","2","f","links","22","","","object","f","120","true"
"null","<div style=""font-size:60px;"">+</div>","null","html-keyboard-response","28","198807","0.0-6.0-0.11","MIGE","2","f","links","22","","fixation","","","",""
"1004","img/90_30.png","70","image-keyboard-response","29","199828","0.0-6.0-1.11","MIGE","2","f","links","22","","","object","f","90","true"
"null","<div style=""font-size:60px;"">+</div>","null","html-keyboard-response","30","200153","0.0-6.0-0.12","MIGE","2","f","links","22","","fixation","","","",""
"1068","img/0_30.png","74","image-keyboard-response","31","201242","0.0-6.0-1.12","MIGE","2","f","links","22","","","object","j","0","true"
"null","<div style=""font-size:60px;"">+</div>","null","html-keyboard-response","32","201606","0.0-6.0-0.13","MIGE","2","f","links","22","","fixation","","","",""
"1229","img/60_210.png","70","image-keyboard-response","33","202852","0.0-6.0-1.13","MIGE","2","f","links","22","","","object","f","60","true"
"null","<div style=""font-size:60px;"">+</div>","null","html-keyboard-response","34","203309","0.0-6.0-0.14","MIGE","2","f","links","22","","fixation","","","",""
"748","img/0_300.png","70","image-keyboard-response","35","204077","0.0-6.0-1.14","MIGE","2","f","links","22","","","object","f","0","true"
"null","<div style=""font-size:60px;"">+</div>","null","html-keyboard-response","36","204382","0.0-6.0-0.15","MIGE","2","f","links","22","","fixation","","","",""
"2694","img/60_90.png","74","image-keyboard-response","37","207093","0.0-6.0-1.15","MIGE","2","f","links","22","","","object","j","60","true"
"null","<div style=""font-size:60px;"">+</div>","null","html-keyboard-response","38","207547","0.0-6.0-0.16","MIGE","2","f","links","22","","fixation","","","",""
"1273","img/150_90.png","70","image-keyboard-response","39","208836","0.0-6.0-1.16","MIGE","2","f","links","22","","","object","f","150","true"
"null","<div style=""font-size:60px;"">+</div>","null","html-keyboard-response","40","209299","0.0-6.0-0.17","MIGE","2","f","links","22","","fixation","","","",""
"1386","img/L120_180.png","74","image-keyboard-response","41","210705","0.0-6.0-1.17","MIGE","2","f","links","22","","","object","j","120","true"
"null","<div style=""font-size:60px;"">+</div>","null","html-keyboard-response","42","211165","0.0-6.0-0.18","MIGE","2","f","links","22","","fixation","","","",""
"2199","img/150_120.png","74","image-keyboard-response","43","213382","0.0-6.0-1.18","MIGE","2","f","links","22","","","object","f","150","false"
"null","<div style=""font-size:60px;"">+</div>","null","html-keyboard-response","44","213789","0.0-6.0-0.19","MIGE","2","f","links","22","","fixation","","","",""
"2286","img/120_210.png","70","image-keyboard-response","45","216093","0.0-6.0-1.19","MIGE","2","f","links","22","","","object","f","120","true"
"null","<div style=""font-size:60px;"">+</div>","null","html-keyboard-response","46","216460","0.0-6.0-0.20","MIGE","2","f","links","22","","fixation","","","",""
"1289","img/60_330.png","74","image-keyboard-response","47","217767","0.0-6.0-1.20","MIGE","2","f","links","22","","","object","j","60","true"
"null","<div style=""font-size:60px;"">+</div>","null","html-keyboard-response","48","218196","0.0-6.0-0.21","MIGE","2","f","links","22","","fixation","","","",""
"805","img/120_330.png","74","image-keyboard-response","49","219018","0.0-6.0-1.21","MIGE","2","f","links","22","","","object","j","120","true"
"null","<div style=""font-size:60px;"">+</div>","null","html-keyboard-response","50","219399","0.0-6.0-0.22","MIGE","2","f","links","22","","fixation","","","",""
"701","img/0_90.png","74","image-keyboard-response","51","220118","0.0-6.0-1.22","MIGE","2","f","links","22","","","object","j","0","true"
"null","<div style=""font-size:60px;"">+</div>","null","html-keyboard-response","52","220571","0.0-6.0-0.23","MIGE","2","f","links","22","","fixation","","","",""
"1531","img/150_240.png","74","image-keyboard-response","53","222112","0.0-6.0-1.23","MIGE","2","f","links","22","","","object","j","150","true"
"null","<div style=""font-size:60px;"">+</div>","null","html-keyboard-response","54","222572","0.0-6.0-0.24","MIGE","2","f","links","22","","fixation","","","",""
"645","img/0_60.png","74","image-keyboard-response","55","223235","0.0-6.0-1.24","MIGE","2","f","links","22","","","object","j","0","true"
"null","<div style=""font-size:60px;"">+</div>","null","html-keyboard-response","56","223649","0.0-6.0-0.25","MIGE","2","f","links","22","","fixation","","","",""
"1252","img/120_90.png","70","image-keyboard-response","57","224913","0.0-6.0-1.25","MIGE","2","f","links","22","","","object","f","120","true"
"null","<div style=""font-size:60px;"">+</div>","null","html-keyboard-response","58","225369","0.0-6.0-0.26","MIGE","2","f","links","22","","fixation","","","",""
"1390","img/90_180.png","70","image-keyboard-response","59","226777","0.0-6.0-1.26","MIGE","2","f","links","22","","","object","f","90","true"
"null","<div style=""font-size:60px;"">+</div>","null","html-keyboard-response","60","227132","0.0-6.0-0.27","MIGE","2","f","links","22","","fixation","","","",""
"1195","img/120_270.png","74","image-keyboard-response","61","228347","0.0-6.0-1.27","MIGE","2","f","links","22","","","object","j","120","true"
"null","<div style=""font-size:60px;"">+</div>","null","html-keyboard-response","62","228711","0.0-6.0-0.28","MIGE","2","f","links","22","","fixation","","","",""
"798","img/30_270.png","70","image-keyboard-response","63","229526","0.0-6.0-1.28","MIGE","2","f","links","22","","","object","f","30","true"
"null","<div style=""font-size:60px;"">+</div>","null","html-keyboard-response","64","229932","0.0-6.0-0.29","MIGE","2","f","links","22","","fixation","","","",""
"1277","img/60_150.png","74","image-keyboard-response","65","231226","0.0-6.0-1.29","MIGE","2","f","links","22","","","object","j","60","true"
"null","<div style=""font-size:60px;"">+</div>","null","html-keyboard-response","66","231681","0.0-6.0-0.30","MIGE","2","f","links","22","","fixation","","","",""
"1097","img/L60_180.png","74","image-keyboard-response","67","232802","0.0-6.0-1.30","MIGE","2","f","links","22","","","object","j","60","true"
"null","<div style=""font-size:60px;"">+</div>","null","html-keyboard-response","68","233260","0.0-6.0-0.31","MIGE","2","f","links","22","","fixation","","","",""
"928","img/30_240.png","70","image-keyboard-response","69","234205","0.0-6.0-1.31","MIGE","2","f","links","22","","","object","f","30","true"
"null","<div style=""font-size:60px;"">+</div>","null","html-keyboard-response","70","234658","0.0-6.0-0.32","MIGE","2","f","links","22","","fixation","","","",""
"766","img/0_120.png","74","image-keyboard-response","71","235442","0.0-6.0-1.32","MIGE","2","f","links","22","","","object","j","0","true"
"null","<div style=""font-size:60px;"">+</div>","null","html-keyboard-response","72","235907","0.0-6.0-0.33","MIGE","2","f","links","22","","fixation","","","",""
"1025","img/30_90.png","74","image-keyboard-response","73","236949","0.0-6.0-1.33","MIGE","2","f","links","22","","","object","j","30","true"
"null","<div style=""font-size:60px;"">+</div>","null","html-keyboard-response","74","237376","0.0-6.0-0.34","MIGE","2","f","links","22","","fixation","","","",""
"862","img/90_300.png","74","image-keyboard-response","75","238256","0.0-6.0-1.34","MIGE","2","f","links","22","","","object","j","90","true"
"null","<div style=""font-size:60px;"">+</div>","null","html-keyboard-response","76","238766","0.0-6.0-0.35","MIGE","2","f","links","22","","fixation","","","",""
"1236","img/30_120.png","74","image-keyboard-response","77","240021","0.0-6.0-1.35","MIGE","2","f","links","22","","","object","j","30","true"
"null","<div style=""font-size:60px;"">+</div>","null","html-keyboard-response","78","240438","0.0-6.0-0.36","MIGE","2","f","links","22","","fixation","","","",""
"711","img/0_270.png","70","image-keyboard-response","79","241170","0.0-6.0-1.36","MIGE","2","f","links","22","","","object","f","0","true"
"null","<div style=""font-size:60px;"">+</div>","null","html-keyboard-response","80","241633","0.0-6.0-0.37","MIGE","2","f","links","22","","fixation","","","",""
"1576","img/120_150.png","74","image-keyboard-response","81","243229","0.0-6.0-1.37","MIGE","2","f","links","22","","","object","j","120","true"
"null","<div style=""font-size:60px;"">+</div>","null","html-keyboard-response","82","243679","0.0-6.0-0.38","MIGE","2","f","links","22","","fixation","","","",""
"868","img/150_300.png","74","image-keyboard-response","83","244567","0.0-6.0-1.38","MIGE","2","f","links","22","","","object","j","150","true"
"null","<div style=""font-size:60px;"">+</div>","null","html-keyboard-response","84","244928","0.0-6.0-0.39","MIGE","2","f","links","22","","fixation","","","",""
"1221","img/90_150.png","74","image-keyboard-response","85","246166","0.0-6.0-1.39","MIGE","2","f","links","22","","","object","j","90","true"
"null","<div style=""font-size:60px;"">+</div>","null","html-keyboard-response","86","246616","0.0-6.0-0.40","MIGE","2","f","links","22","","fixation","","","",""
"1194","img/30_180.png","70","image-keyboard-response","87","247818","0.0-6.0-1.40","MIGE","2","f","links","22","","","object","f","30","true"
"null","<div style=""font-size:60px;"">+</div>","null","html-keyboard-response","88","248226","0.0-6.0-0.41","MIGE","2","f","links","22","","fixation","","","",""
"758","img/0_210.png","70","image-keyboard-response","89","249001","0.0-6.0-1.41","MIGE","2","f","links","22","","","object","f","0","true"
"null","<div style=""font-size:60px;"">+</div>","null","html-keyboard-response","90","249367","0.0-6.0-0.42","MIGE","2","f","links","22","","fixation","","","",""
"1935","img/150_180.png","70","image-keyboard-response","91","251321","0.0-6.0-1.42","MIGE","2","f","links","22","","","object","f","150","true"
"null","<div style=""font-size:60px;"">+</div>","null","html-keyboard-response","92","251650","0.0-6.0-0.43","MIGE","2","f","links","22","","fixation","","","",""
"718","img/0_150.png","74","image-keyboard-response","93","252386","0.0-6.0-1.43","MIGE","2","f","links","22","","","object","j","0","true"
"null","<div style=""font-size:60px;"">+</div>","null","html-keyboard-response","94","252894","0.0-6.0-0.44","MIGE","2","f","links","22","","fixation","","","",""
"1731","img/60_270.png","70","image-keyboard-response","95","254646","0.0-6.0-1.44","MIGE","2","f","links","22","","","object","f","60","true"
"null","<div style=""font-size:60px;"">+</div>","null","html-keyboard-response","96","255162","0.0-6.0-0.45","MIGE","2","f","links","22","","fixation","","","",""
"1390","img/90_240.png","70","image-keyboard-response","97","256571","0.0-6.0-1.45","MIGE","2","f","links","22","","","object","f","90","true"
"null","<div style=""font-size:60px;"">+</div>","null","html-keyboard-response","98","256978","0.0-6.0-0.46","MIGE","2","f","links","22","","fixation","","","",""
"1175","img/150_60.png","70","image-keyboard-response","99","258168","0.0-6.0-1.46","MIGE","2","f","links","22","","","object","f","150","true"
"null","<div style=""font-size:60px;"">+</div>","null","html-keyboard-response","100","258539","0.0-6.0-0.47","MIGE","2","f","links","22","","fixation","","","",""
"1757","img/L150_180.png","74","image-keyboard-response","101","260317","0.0-6.0-1.47","MIGE","2","f","links","22","","","object","j","150","true"
"null","<div style=""font-size:60px;"">+</div>","null","html-keyboard-response","102","260823","0.0-6.0-0.48","MIGE","2","f","links","22","","fixation","","","",""
"797","img/90_60.png","70","image-keyboard-response","103","261642","0.0-6.0-1.48","MIGE","2","f","links","22","","","object","f","90","true"
"null","<div style=""font-size:60px;"">+</div>","null","html-keyboard-response","104","262144","0.0-6.0-0.49","MIGE","2","f","links","22","","fixation","","","",""
"1440","img/90_120.png","74","image-keyboard-response","105","263602","0.0-6.0-1.49","MIGE","2","f","links","22","","","object","j","90","true"
"null","<div style=""font-size:60px;"">+</div>","null","html-keyboard-response","106","263910","0.0-6.0-0.50","MIGE","2","f","links","22","","fixation","","","",""
"865","img/120_30.png","70","image-keyboard-response","107","264793","0.0-6.0-1.50","MIGE","2","f","links","22","","","object","f","120","true"
"null","<div style=""font-size:60px;"">+</div>","null","html-keyboard-response","108","265247","0.0-6.0-0.51","MIGE","2","f","links","22","","fixation","","","",""
"620","img/60_30.png","70","image-keyboard-response","109","265887","0.0-6.0-1.51","MIGE","2","f","links","22","","","object","f","60","true"
"null","<div style=""font-size:60px;"">+</div>","null","html-keyboard-response","110","266370","0.0-6.0-0.52","MIGE","2","f","links","22","","fixation","","","",""
"914","img/30_120.png","74","image-keyboard-response","111","267295","0.0-6.0-1.52","MIGE","2","f","links","22","","","object","j","30","true"
"null","<div style=""font-size:60px;"">+</div>","null","html-keyboard-response","112","267824","0.0-6.0-0.53","MIGE","2","f","links","22","","fixation","","","",""
"2216","img/120_150.png","74","image-keyboard-response","113","270049","0.0-6.0-1.53","MIGE","2","f","links","22","","","object","j","120","true"
"null","<div style=""font-size:60px;"">+</div>","null","html-keyboard-response","114","270528","0.0-6.0-0.54","MIGE","2","f","links","22","","fixation","","","",""
"676","img/90_30.png","70","image-keyboard-response","115","271218","0.0-6.0-1.54","MIGE","2","f","links","22","","","object","f","90","true"
"null","<div style=""font-size:60px;"">+</div>","null","html-keyboard-response","116","271634","0.0-6.0-0.55","MIGE","2","f","links","22","","fixation","","","",""
"702","img/0_30.png","74","image-keyboard-response","117","272343","0.0-6.0-1.55","MIGE","2","f","links","22","","","object","j","0","true"
"null","<div style=""font-size:60px;"">+</div>","null","html-keyboard-response","118","272699","0.0-6.0-0.56","MIGE","2","f","links","22","","fixation","","","",""
"1374","img/150_90.png","70","image-keyboard-response","119","274087","0.0-6.0-1.56","MIGE","2","f","links","22","","","object","f","150","true"
"null","<div style=""font-size:60px;"">+</div>","null","html-keyboard-response","120","274447","0.0-6.0-0.57","MIGE","2","f","links","22","","fixation","","","",""
"null","img/150_240.png","null","image-keyboard-response","121","277477","0.0-6.0-1.57","MIGE","2","f","links","22","","","object","j","150","false"
"null","<div style=""font-size:60px;"">+</div>","null","html-keyboard-response","122","277836","0.0-6.0-0.58","MIGE","2","f","links","22","","fixation","","","",""
"1459","img/90_210.png","70","image-keyboard-response","123","279308","0.0-6.0-1.58","MIGE","2","f","links","22","","","object","f","90","true"
"null","<div style=""font-size:60px;"">+</div>","null","html-keyboard-response","124","279820","0.0-6.0-0.59","MIGE","2","f","links","22","","fixation","","","",""
"1796","img/90_150.png","74","image-keyboard-response","125","281625","0.0-6.0-1.59","MIGE","2","f","links","22","","","object","j","90","true"
"null","<div style=""font-size:60px;"">+</div>","null","html-keyboard-response","126","282040","0.0-6.0-0.60","MIGE","2","f","links","22","","fixation","","","",""
"904","img/30_270.png","70","image-keyboard-response","127","282953","0.0-6.0-1.60","MIGE","2","f","links","22","","","object","f","30","true"
"null","<div style=""font-size:60px;"">+</div>","null","html-keyboard-response","128","283368","0.0-6.0-0.61","MIGE","2","f","links","22","","fixation","","","",""
"888","img/150_300.png","74","image-keyboard-response","129","284266","0.0-6.0-1.61","MIGE","2","f","links","22","","","object","j","150","true"
"null","<div style=""font-size:60px;"">+</div>","null","html-keyboard-response","130","284742","0.0-6.0-0.62","MIGE","2","f","links","22","","fixation","","","",""
"1033","img/30_300.png","70","image-keyboard-response","131","285787","0.0-6.0-1.62","MIGE","2","f","links","22","","","object","f","30","true"
"null","<div style=""font-size:60px;"">+</div>","null","html-keyboard-response","132","286260","0.0-6.0-0.63","MIGE","2","f","links","22","","fixation","","","",""
"1598","img/60_270.png","70","image-keyboard-response","133","287868","0.0-6.0-1.63","MIGE","2","f","links","22","","","object","f","60","true"
"null","<div style=""font-size:60px;"">+</div>","null","html-keyboard-response","134","288278","0.0-6.0-0.64","MIGE","2","f","links","22","","fixation","","","",""
"786","img/0_150.png","74","image-keyboard-response","135","289074","0.0-6.0-1.64","MIGE","2","f","links","22","","","object","j","0","true"
"null","<div style=""font-size:60px;"">+</div>","null","html-keyboard-response","136","289603","0.0-6.0-0.65","MIGE","2","f","links","22","","fixation","","","",""
"781","img/60_30.png","70","image-keyboard-response","137","290389","0.0-6.0-1.65","MIGE","2","f","links","22","","","object","f","60","true"
"null","<div style=""font-size:60px;"">+</div>","null","html-keyboard-response","138","290917","0.0-6.0-0.66","MIGE","2","f","links","22","","fixation","","","",""
"875","img/90_330.png","74","image-keyboard-response","139","291806","0.0-6.0-1.66","MIGE","2","f","links","22","","","object","j","90","true"
"null","<div style=""font-size:60px;"">+</div>","null","html-keyboard-response","140","292213","0.0-6.0-0.67","MIGE","2","f","links","22","","fixation","","","",""
"1089","img/L30_180.png","74","image-keyboard-response","141","293315","0.0-6.0-1.67","MIGE","2","f","links","22","","","object","j","30","true"
"null","<div style=""font-size:60px;"">+</div>","null","html-keyboard-response","142","293633","0.0-6.0-0.68","MIGE","2","f","links","22","","fixation","","","",""
"888","img/0_240.png","70","image-keyboard-response","143","294529","0.0-6.0-1.68","MIGE","2","f","links","22","","","object","f","0","true"
"null","<div style=""font-size:60px;"">+</div>","null","html-keyboard-response","144","294996","0.0-6.0-0.69","MIGE","2","f","links","22","","fixation","","","",""
"1344","img/120_180.png","70","image-keyboard-response","145","296352","0.0-6.0-1.69","MIGE","2","f","links","22","","","object","f","120","true"
"null","<div style=""font-size:60px;"">+</div>","null","html-keyboard-response","146","296733","0.0-6.0-0.70","MIGE","2","f","links","22","","fixation","","","",""
"1461","img/150_270.png","74","image-keyboard-response","147","298208","0.0-6.0-1.70","MIGE","2","f","links","22","","","object","j","150","true"
"null","<div style=""font-size:60px;"">+</div>","null","html-keyboard-response","148","298623","0.0-6.0-0.71","MIGE","2","f","links","22","","fixation","","","",""
"1392","img/120_90.png","70","image-keyboard-response","149","300022","0.0-6.0-1.71","MIGE","2","f","links","22","","","object","f","120","true"
"null","<div style=""font-size:60px;"">+</div>","null","html-keyboard-response","150","300326","0.0-6.0-0.72","MIGE","2","f","links","22","","fixation","","","",""
"736","img/0_330.png","70","image-keyboard-response","151","301075","0.0-6.0-1.72","MIGE","2","f","links","22","","","object","f","0","true"
"null","<div style=""font-size:60px;"">+</div>","null","html-keyboard-response","152","301576","0.0-6.0-0.73","MIGE","2","f","links","22","","fixation","","","",""
"1039","img/120_330.png","74","image-keyboard-response","153","302631","0.0-6.0-1.73","MIGE","2","f","links","22","","","object","j","120","true"
"null","<div style=""font-size:60px;"">+</div>","null","html-keyboard-response","154","303138","0.0-6.0-0.74","MIGE","2","f","links","22","","fixation","","","",""
"680","img/60_330.png","74","image-keyboard-response","155","303832","0.0-6.0-1.74","MIGE","2","f","links","22","","","object","j","60","true"
"null","<div style=""font-size:60px;"">+</div>","null","html-keyboard-response","156","304263","0.0-6.0-0.75","MIGE","2","f","links","22","","fixation","","","",""
"1491","img/30_60.png","74","image-keyboard-response","157","305767","0.0-6.0-1.75","MIGE","2","f","links","22","","","object","j","30","true"
"null","<div style=""font-size:60px;"">+</div>","null","html-keyboard-response","158","306140","0.0-6.0-0.76","MIGE","2","f","links","22","","fixation","","","",""
"1605","img/60_180.png","70","image-keyboard-response","159","307759","0.0-6.0-1.76","MIGE","2","f","links","22","","","object","f","60","true"
"null","<div style=""font-size:60px;"">+</div>","null","html-keyboard-response","160","308187","0.0-6.0-0.77","MIGE","2","f","links","22","","fixation","","","",""
"1945","img/60_90.png","74","image-keyboard-response","161","310144","0.0-6.0-1.77","MIGE","2","f","links","22","","","object","j","60","true"
"null","<div style=""font-size:60px;"">+</div>","null","html-keyboard-response","162","310659","0.0-6.0-0.78","MIGE","2","f","links","22","","fixation","","","",""
"1013","img/L90_180.png","74","image-keyboard-response","163","311688","0.0-6.0-1.78","MIGE","2","f","links","22","","","object","j","90","true"
"null","<div style=""font-size:60px;"">+</div>","null","html-keyboard-response","164","311988","0.0-6.0-0.79","MIGE","2","f","links","22","","fixation","","","",""
"1974","img/90_120.png","74","image-keyboard-response","165","313971","0.0-6.0-1.79","MIGE","2","f","links","22","","","object","j","90","true"
"null","<div style=""font-size:60px;"">+</div>","null","html-keyboard-response","166","314330","0.0-6.0-0.80","MIGE","2","f","links","22","","fixation","","","",""
"795","img/0_270.png","70","image-keyboard-response","167","315138","0.0-6.0-1.80","MIGE","2","f","links","22","","","object","f","0","true"
"null","<div style=""font-size:60px;"">+</div>","null","html-keyboard-response","168","315611","0.0-6.0-0.81","MIGE","2","f","links","22","","fixation","","","",""
"1121","img/60_150.png","74","image-keyboard-response","169","316740","0.0-6.0-1.81","MIGE","2","f","links","22","","","object","j","60","true"
"null","<div style=""font-size:60px;"">+</div>","null","html-keyboard-response","170","317096","0.0-6.0-0.82","MIGE","2","f","links","22","","fixation","","","",""
"2338","img/150_120.png","74","image-keyboard-response","171","319447","0.0-6.0-1.82","MIGE","2","f","links","22","","","object","f","150","false"
"null","<div style=""font-size:60px;"">+</div>","null","html-keyboard-response","172","319876","0.0-6.0-0.83","MIGE","2","f","links","22","","fixation","","","",""
"1459","img/60_210.png","70","image-keyboard-response","173","321350","0.0-6.0-1.83","MIGE","2","f","links","22","","","object","f","60","true"
"null","<div style=""font-size:60px;"">+</div>","null","html-keyboard-response","174","321675","0.0-6.0-0.84","MIGE","2","f","links","22","","fixation","","","",""
"1585","img/150_180.png","70","image-keyboard-response","175","323273","0.0-6.0-1.84","MIGE","2","f","links","22","","","object","f","150","true"
"null","<div style=""font-size:60px;"">+</div>","null","html-keyboard-response","176","323581","0.0-6.0-0.85","MIGE","2","f","links","22","","fixation","","","",""
"1334","img/150_60.png","70","image-keyboard-response","177","324926","0.0-6.0-1.85","MIGE","2","f","links","22","","","object","f","150","true"
"null","<div style=""font-size:60px;"">+</div>","null","html-keyboard-response","178","325286","0.0-6.0-0.86","MIGE","2","f","links","22","","fixation","","","",""
"667","img/0_60.png","74","image-keyboard-response","179","325966","0.0-6.0-1.86","MIGE","2","f","links","22","","","object","j","0","true"
"null","<div style=""font-size:60px;"">+</div>","null","html-keyboard-response","180","326394","0.0-6.0-0.87","MIGE","2","f","links","22","","fixation","","","",""
"1098","img/L150_180.png","74","image-keyboard-response","181","327502","0.0-6.0-1.87","MIGE","2","f","links","22","","","object","j","150","true"
"null","<div style=""font-size:60px;"">+</div>","null","html-keyboard-response","182","327919","0.0-6.0-0.88","MIGE","2","f","links","22","","fixation","","","",""
"1619","img/L120_180.png","74","image-keyboard-response","183","329551","0.0-6.0-1.88","MIGE","2","f","links","22","","","object","j","120","true"
"null","<div style=""font-size:60px;"">+</div>","null","html-keyboard-response","184","330083","0.0-6.0-0.89","MIGE","2","f","links","22","","fixation","","","",""
"1174","img/L60_180.png","74","image-keyboard-response","185","331272","0.0-6.0-1.89","MIGE","2","f","links","22","","","object","j","60","true"
"null","<div style=""font-size:60px;"">+</div>","null","html-keyboard-response","186","331627","0.0-6.0-0.90","MIGE","2","f","links","22","","fixation","","","",""
"616","img/0_120.png","74","image-keyboard-response","187","332249","0.0-6.0-1.90","MIGE","2","f","links","22","","","object","j","0","true"
"null","<div style=""font-size:60px;"">+</div>","null","html-keyboard-response","188","332767","0.0-6.0-0.91","MIGE","2","f","links","22","","fixation","","","",""
"494","img/0_300.png","70","image-keyboard-response","189","333276","0.0-6.0-1.91","MIGE","2","f","links","22","","","object","f","0","true"
"null","<div style=""font-size:60px;"">+</div>","null","html-keyboard-response","190","333737","0.0-6.0-0.92","MIGE","2","f","links","22","","fixation","","","",""
"1752","img/120_210.png","70","image-keyboard-response","191","335502","0.0-6.0-1.92","MIGE","2","f","links","22","","","object","f","120","true"
"null","<div style=""font-size:60px;"">+</div>","null","html-keyboard-response","192","335911","0.0-6.0-0.93","MIGE","2","f","links","22","","fixation","","","",""
"1164","img/30_180.png","70","image-keyboard-response","193","337088","0.0-6.0-1.93","MIGE","2","f","links","22","","","object","f","30","true"
"null","<div style=""font-size:60px;"">+</div>","null","html-keyboard-response","194","337458","0.0-6.0-0.94","MIGE","2","f","links","22","","fixation","","","",""
"1134","img/90_180.png","70","image-keyboard-response","195","338606","0.0-6.0-1.94","MIGE","2","f","links","22","","","object","f","90","true"
"null","<div style=""font-size:60px;"">+</div>","null","html-keyboard-response","196","338927","0.0-6.0-0.95","MIGE","2","f","links","22","","fixation","","","",""
"2129","img/90_60.png","70","image-keyboard-response","197","341070","0.0-6.0-1.95","MIGE","2","f","links","22","","","object","f","90","true"
"null","<div style=""font-size:60px;"">+</div>","null","html-keyboard-response","198","341536","0.0-6.0-0.96","MIGE","2","f","links","22","","fixation","","","",""
"1443","img/90_240.png","70","image-keyboard-response","199","342992","0.0-6.0-1.96","MIGE","2","f","links","22","","","object","f","90","true"
"null","<div style=""font-size:60px;"">+</div>","null","html-keyboard-response","200","343355","0.0-6.0-0.97","MIGE","2","f","links","22","","fixation","","","",""
"1022","img/90_300.png","74","image-keyboard-response","201","344391","0.0-6.0-1.97","MIGE","2","f","links","22","","","object","j","90","true"
"null","<div style=""font-size:60px;"">+</div>","null","html-keyboard-response","202","344698","0.0-6.0-0.98","MIGE","2","f","links","22","","fixation","","","",""
"1849","img/120_270.png","70","image-keyboard-response","203","346560","0.0-6.0-1.98","MIGE","2","f","links","22","","","object","j","120","false"
"null","<div style=""font-size:60px;"">+</div>","null","html-keyboard-response","204","346975","0.0-6.0-0.99","MIGE","2","f","links","22","","fixation","","","",""
"628","img/0_210.png","70","image-keyboard-response","205","347619","0.0-6.0-1.99","MIGE","2","f","links","22","","","object","f","0","true"
"null","<div style=""font-size:60px;"">+</div>","null","html-keyboard-response","206","348038","0.0-6.0-0.100","MIGE","2","f","links","22","","fixation","","","",""
"640","img/0_90.png","74","image-keyboard-response","207","348689","0.0-6.0-1.100","MIGE","2","f","links","22","","","object","j","0","true"
"null","<div style=""font-size:60px;"">+</div>","null","html-keyboard-response","208","349192","0.0-6.0-0.101","MIGE","2","f","links","22","","fixation","","","",""
"1415","img/120_30.png","70","image-keyboard-response","209","350620","0.0-6.0-1.101","MIGE","2","f","links","22","","","object","f","120","true"
"null","<div style=""font-size:60px;"">+</div>","null","html-keyboard-response","210","351131","0.0-6.0-0.102","MIGE","2","f","links","22","","fixation","","","",""
"997","img/30_90.png","74","image-keyboard-response","211","352140","0.0-6.0-1.102","MIGE","2","f","links","22","","","object","j","30","true"
"null","<div style=""font-size:60px;"">+</div>","null","html-keyboard-response","212","352603","0.0-6.0-0.103","MIGE","2","f","links","22","","fixation","","","",""
"1013","img/30_240.png","70","image-keyboard-response","213","353625","0.0-6.0-1.103","MIGE","2","f","links","22","","","object","f","30","true"
"null","<div style=""font-size:60px;"">+</div>","null","html-keyboard-response","214","353927","0.0-6.0-0.104","MIGE","2","f","links","22","","fixation","","","",""
"964","img/30_240.png","70","image-keyboard-response","215","354901","0.0-6.0-1.104","MIGE","2","f","links","22","","","object","f","30","true"
"null","<div style=""font-size:60px;"">+</div>","null","html-keyboard-response","216","355382","0.0-6.0-0.105","MIGE","2","f","links","22","","fixation","","","",""
"1891","img/L120_180.png","74","image-keyboard-response","217","357283","0.0-6.0-1.105","MIGE","2","f","links","22","","","object","j","120","true"
"null","<div style=""font-size:60px;"">+</div>","null","html-keyboard-response","218","357662","0.0-6.0-0.106","MIGE","2","f","links","22","","fixation","","","",""
"1305","img/30_120.png","74","image-keyboard-response","219","358980","0.0-6.0-1.106","MIGE","2","f","links","22","","","object","j","30","true"
"null","<div style=""font-size:60px;"">+</div>","null","html-keyboard-response","220","359287","0.0-6.0-0.107","MIGE","2","f","links","22","","fixation","","","",""
"1976","img/120_180.png","70","image-keyboard-response","221","361276","0.0-6.0-1.107","MIGE","2","f","links","22","","","object","f","120","true"
"null","<div style=""font-size:60px;"">+</div>","null","html-keyboard-response","222","361790","0.0-6.0-0.108","MIGE","2","f","links","22","","fixation","","","",""
"1306","img/90_210.png","70","image-keyboard-response","223","363109","0.0-6.0-1.108","MIGE","2","f","links","22","","","object","f","90","true"
"null","<div style=""font-size:60px;"">+</div>","null","html-keyboard-response","224","363539","0.0-6.0-0.109","MIGE","2","f","links","22","","fixation","","","",""
"1377","img/120_270.png","74","image-keyboard-response","225","364927","0.0-6.0-1.109","MIGE","2","f","links","22","","","object","j","120","true"
"null","<div style=""font-size:60px;"">+</div>","null","html-keyboard-response","226","365382","0.0-6.0-0.110","MIGE","2","f","links","22","","fixation","","","",""
"1410","img/150_60.png","70","image-keyboard-response","227","366802","0.0-6.0-1.110","MIGE","2","f","links","22","","","object","f","150","true"
"null","<div style=""font-size:60px;"">+</div>","null","html-keyboard-response","228","367109","0.0-6.0-0.111","MIGE","2","f","links","22","","fixation","","","",""
"1038","img/90_330.png","74","image-keyboard-response","229","368161","0.0-6.0-1.111","MIGE","2","f","links","22","","","object","j","90","true"
"null","<div style=""font-size:60px;"">+</div>","null","html-keyboard-response","230","368688","0.0-6.0-0.112","MIGE","2","f","links","22","","fixation","","","",""
"839","img/90_300.png","74","image-keyboard-response","231","369536","0.0-6.0-1.112","MIGE","2","f","links","22","","","object","j","90","true"
"null","<div style=""font-size:60px;"">+</div>","null","html-keyboard-response","232","369845","0.0-6.0-0.113","MIGE","2","f","links","22","","fixation","","","",""
"1074","img/30_60.png","74","image-keyboard-response","233","370930","0.0-6.0-1.113","MIGE","2","f","links","22","","","object","j","30","true"
"null","<div style=""font-size:60px;"">+</div>","null","html-keyboard-response","234","371399","0.0-6.0-0.114","MIGE","2","f","links","22","","fixation","","","",""
"644","img/0_150.png","74","image-keyboard-response","235","372057","0.0-6.0-1.114","MIGE","2","f","links","22","","","object","j","0","true"
"null","<div style=""font-size:60px;"">+</div>","null","html-keyboard-response","236","372383","0.0-6.0-0.115","MIGE","2","f","links","22","","fixation","","","",""
"863","img/60_30.png","70","image-keyboard-response","237","373259","0.0-6.0-1.115","MIGE","2","f","links","22","","","object","f","60","true"
"null","<div style=""font-size:60px;"">+</div>","null","html-keyboard-response","238","373789","0.0-6.0-0.116","MIGE","2","f","links","22","","fixation","","","",""
"1760","img/150_240.png","74","image-keyboard-response","239","375563","0.0-6.0-1.116","MIGE","2","f","links","22","","","object","j","150","true"
"null","<div style=""font-size:60px;"">+</div>","null","html-keyboard-response","240","376087","0.0-6.0-0.117","MIGE","2","f","links","22","","fixation","","","",""
"1858","img/150_90.png","70","image-keyboard-response","241","377960","0.0-6.0-1.117","MIGE","2","f","links","22","","","object","f","150","true"
"null","<div style=""font-size:60px;"">+</div>","null","html-keyboard-response","242","378373","0.0-6.0-0.118","MIGE","2","f","links","22","","fixation","","","",""
"799","img/120_330.png","74","image-keyboard-response","243","379186","0.0-6.0-1.118","MIGE","2","f","links","22","","","object","j","120","true"
"null","<div style=""font-size:60px;"">+</div>","null","html-keyboard-response","244","379702","0.0-6.0-0.119","MIGE","2","f","links","22","","fixation","","","",""
"1294","img/150_270.png","74","image-keyboard-response","245","381010","0.0-6.0-1.119","MIGE","2","f","links","22","","","object","j","150","true"
"null","<div style=""font-size:60px;"">+</div>","null","html-keyboard-response","246","381417","0.0-6.0-0.120","MIGE","2","f","links","22","","fixation","","","",""
"715","img/0_270.png","70","image-keyboard-response","247","382144","0.0-6.0-1.120","MIGE","2","f","links","22","","","object","f","0","true"
"null","<div style=""font-size:60px;"">+</div>","null","html-keyboard-response","248","382650","0.0-6.0-0.121","MIGE","2","f","links","22","","fixation","","","",""
"716","img/90_60.png","70","image-keyboard-response","249","383372","0.0-6.0-1.121","MIGE","2","f","links","22","","","object","f","90","true"
"null","<div style=""font-size:60px;"">+</div>","null","html-keyboard-response","250","383884","0.0-6.0-0.122","MIGE","2","f","links","22","","fixation","","","",""
"782","img/0_300.png","70","image-keyboard-response","251","384675","0.0-6.0-1.122","MIGE","2","f","links","22","","","object","f","0","true"
"null","<div style=""font-size:60px;"">+</div>","null","html-keyboard-response","252","385104","0.0-6.0-0.123","MIGE","2","f","links","22","","fixation","","","",""
"2316","img/120_150.png","74","image-keyboard-response","253","387434","0.0-6.0-1.123","MIGE","2","f","links","22","","","object","j","120","true"
"null","<div style=""font-size:60px;"">+</div>","null","html-keyboard-response","254","387915","0.0-6.0-0.124","MIGE","2","f","links","22","","fixation","","","",""
"2025","img/L90_180.png","74","image-keyboard-response","255","389953","0.0-6.0-1.124","MIGE","2","f","links","22","","","object","j","90","true"
"null","<div style=""font-size:60px;"">+</div>","null","html-keyboard-response","256","390464","0.0-6.0-0.125","MIGE","2","f","links","22","","fixation","","","",""
"818","img/L60_180.png","74","image-keyboard-response","257","391291","0.0-6.0-1.125","MIGE","2","f","links","22","","","object","j","60","true"
"null","<div style=""font-size:60px;"">+</div>","null","html-keyboard-response","258","391603","0.0-6.0-0.126","MIGE","2","f","links","22","","fixation","","","",""
"1464","img/90_120.png","74","image-keyboard-response","259","393071","0.0-6.0-1.126","MIGE","2","f","links","22","","","object","j","90","true"
"null","<div style=""font-size:60px;"">+</div>","null","html-keyboard-response","260","393605","0.0-6.0-0.127","MIGE","2","f","links","22","","fixation","","","",""
"924","img/60_150.png","74","image-keyboard-response","261","394543","0.0-6.0-1.127","MIGE","2","f","links","22","","","object","j","60","true"
"null","<div style=""font-size:60px;"">+</div>","null","html-keyboard-response","262","394901","0.0-6.0-0.128","MIGE","2","f","links","22","","fixation","","","",""
"1074","img/90_180.png","70","image-keyboard-response","263","395984","0.0-6.0-1.128","MIGE","2","f","links","22","","","object","f","90","true"
"null","<div style=""font-size:60px;"">+</div>","null","html-keyboard-response","264","396447","0.0-6.0-0.129","MIGE","2","f","links","22","","fixation","","","",""
"929","img/90_30.png","70","image-keyboard-response","265","397390","0.0-6.0-1.129","MIGE","2","f","links","22","","","object","f","90","true"
"null","<div style=""font-size:60px;"">+</div>","null","html-keyboard-response","266","397806","0.0-6.0-0.130","MIGE","2","f","links","22","","fixation","","","",""
"2559","img/150_120.png","70","image-keyboard-response","267","400382","0.0-6.0-1.130","MIGE","2","f","links","22","","","object","f","150","true"
"null","<div style=""font-size:60px;"">+</div>","null","html-keyboard-response","268","400840","0.0-6.0-0.131","MIGE","2","f","links","22","","fixation","","","",""
"612","img/0_240.png","70","image-keyboard-response","269","401467","0.0-6.0-1.131","MIGE","2","f","links","22","","","object","f","0","true"
"null","<div style=""font-size:60px;"">+</div>","null","html-keyboard-response","270","401989","0.0-6.0-0.132","MIGE","2","f","links","22","","fixation","","","",""
"552","img/0_90.png","74","image-keyboard-response","271","402554","0.0-6.0-1.132","MIGE","2","f","links","22","","","object","j","0","true"
"null","<div style=""font-size:60px;"">+</div>","null","html-keyboard-response","272","402962","0.0-6.0-0.133","MIGE","2","f","links","22","","fixation","","","",""
"1073","img/150_300.png","74","image-keyboard-response","273","404049","0.0-6.0-1.133","MIGE","2","f","links","22","","","object","j","150","true"
"null","<div style=""font-size:60px;"">+</div>","null","html-keyboard-response","274","404417","0.0-6.0-0.134","MIGE","2","f","links","22","","fixation","","","",""
"2445","img/120_210.png","70","image-keyboard-response","275","406870","0.0-6.0-1.134","MIGE","2","f","links","22","","","object","f","120","true"
"null","<div style=""font-size:60px;"">+</div>","null","html-keyboard-response","276","407291","0.0-6.0-0.135","MIGE","2","f","links","22","","fixation","","","",""
"1247","img/30_90.png","74","image-keyboard-response","277","408547","0.0-6.0-1.135","MIGE","2","f","links","22","","","object","j","30","true"
"null","<div style=""font-size:60px;"">+</div>","null","html-keyboard-response","278","408900","0.0-6.0-0.136","MIGE","2","f","links","22","","fixation","","","",""
"648","img/0_60.png","74","image-keyboard-response","279","409562","0.0-6.0-1.136","MIGE","2","f","links","22","","","object","j","0","true"
"null","<div style=""font-size:60px;"">+</div>","null","html-keyboard-response","280","409979","0.0-6.0-0.137","MIGE","2","f","links","22","","fixation","","","",""
"1900","img/60_90.png","74","image-keyboard-response","281","411893","0.0-6.0-1.137","MIGE","2","f","links","22","","","object","j","60","true"
"null","<div style=""font-size:60px;"">+</div>","null","html-keyboard-response","282","412201","0.0-6.0-0.138","MIGE","2","f","links","22","","fixation","","","",""
"1307","img/90_150.png","74","image-keyboard-response","283","413521","0.0-6.0-1.138","MIGE","2","f","links","22","","","object","j","90","true"
"null","<div style=""font-size:60px;"">+</div>","null","html-keyboard-response","284","413936","0.0-6.0-0.139","MIGE","2","f","links","22","","fixation","","","",""
"1117","img/60_210.png","70","image-keyboard-response","285","415066","0.0-6.0-1.139","MIGE","2","f","links","22","","","object","f","60","true"
"null","<div style=""font-size:60px;"">+</div>","null","html-keyboard-response","286","415499","0.0-6.0-0.140","MIGE","2","f","links","22","","fixation","","","",""
"947","img/30_270.png","70","image-keyboard-response","287","416459","0.0-6.0-1.140","MIGE","2","f","links","22","","","object","f","30","true"
"null","<div style=""font-size:60px;"">+</div>","null","html-keyboard-response","288","416780","0.0-6.0-0.141","MIGE","2","f","links","22","","fixation","","","",""
"766","img/0_330.png","70","image-keyboard-response","289","417562","0.0-6.0-1.141","MIGE","2","f","links","22","","","object","f","0","true"
"null","<div style=""font-size:60px;"">+</div>","null","html-keyboard-response","290","418077","0.0-6.0-0.142","MIGE","2","f","links","22","","fixation","","","",""
"2499","img/30_180.png","70","image-keyboard-response","291","420590","0.0-6.0-1.142","MIGE","2","f","links","22","","","object","f","30","true"
"null","<div style=""font-size:60px;"">+</div>","null","html-keyboard-response","292","420952","0.0-6.0-0.143","MIGE","2","f","links","22","","fixation","","","",""
"1273","img/150_180.png","70","image-keyboard-response","293","422239","0.0-6.0-1.143","MIGE","2","f","links","22","","","object","f","150","true"
"null","<div style=""font-size:60px;"">+</div>","null","html-keyboard-response","294","422749","0.0-6.0-0.144","MIGE","2","f","links","22","","fixation","","","",""
"1108","img/30_300.png","70","image-keyboard-response","295","423871","0.0-6.0-1.144","MIGE","2","f","links","22","","","object","f","30","true"
"null","<div style=""font-size:60px;"">+</div>","null","html-keyboard-response","296","424373","0.0-6.0-0.145","MIGE","2","f","links","22","","fixation","","","",""
"689","img/0_120.png","74","image-keyboard-response","297","425075","0.0-6.0-1.145","MIGE","2","f","links","22","","","object","j","0","true"
"null","<div style=""font-size:60px;"">+</div>","null","html-keyboard-response","298","425407","0.0-6.0-0.146","MIGE","2","f","links","22","","fixation","","","",""
"671","img/0_210.png","70","image-keyboard-response","299","426091","0.0-6.0-1.146","MIGE","2","f","links","22","","","object","f","0","true"
"null","<div style=""font-size:60px;"">+</div>","null","html-keyboard-response","300","426407","0.0-6.0-0.147","MIGE","2","f","links","22","","fixation","","","",""
"1110","img/120_30.png","70","image-keyboard-response","301","427532","0.0-6.0-1.147","MIGE","2","f","links","22","","","object","f","120","true"
"null","<div style=""font-size:60px;"">+</div>","null","html-keyboard-response","302","427892","0.0-6.0-0.148","MIGE","2","f","links","22","","fixation","","","",""
"1557","img/60_270.png","70","image-keyboard-response","303","429465","0.0-6.0-1.148","MIGE","2","f","links","22","","","object","f","60","true"
"null","<div style=""font-size:60px;"">+</div>","null","html-keyboard-response","304","429892","0.0-6.0-0.149","MIGE","2","f","links","22","","fixation","","","",""
"1372","img/90_240.png","70","image-keyboard-response","305","431277","0.0-6.0-1.149","MIGE","2","f","links","22","","","object","f","90","true"
"null","<div style=""font-size:60px;"">+</div>","null","html-keyboard-response","306","431736","0.0-6.0-0.150","MIGE","2","f","links","22","","fixation","","","",""
"1515","img/120_90.png","74","image-keyboard-response","307","433266","0.0-6.0-1.150","MIGE","2","f","links","22","","","object","f","120","false"
"null","<div style=""font-size:60px;"">+</div>","null","html-keyboard-response","308","433719","0.0-6.0-0.151","MIGE","2","f","links","22","","fixation","","","",""
"1683","img/L30_180.png","74","image-keyboard-response","309","435415","0.0-6.0-1.151","MIGE","2","f","links","22","","","object","j","30","true"
"null","<div style=""font-size:60px;"">+</div>","null","html-keyboard-response","310","435923","0.0-6.0-0.152","MIGE","2","f","links","22","","fixation","","","",""
"1042","img/60_180.png","70","image-keyboard-response","311","436978","0.0-6.0-1.152","MIGE","2","f","links","22","","","object","f","60","true"
"null","<div style=""font-size:60px;"">+</div>","null","html-keyboard-response","312","437482","0.0-6.0-0.153","MIGE","2","f","links","22","","fixation","","","",""
"null","img/L150_180.png","null","image-keyboard-response","313","440500","0.0-6.0-1.153","MIGE","2","f","links","22","","","object","j","150","false"
"null","<div style=""font-size:60px;"">+</div>","null","html-keyboard-response","314","440861","0.0-6.0-0.154","MIGE","2","f","links","22","","fixation","","","",""
"824","img/60_330.png","74","image-keyboard-response","315","441692","0.0-6.0-1.154","MIGE","2","f","links","22","","","object","j","60","true"
"null","<div style=""font-size:60px;"">+</div>","null","html-keyboard-response","316","442112","0.0-6.0-0.155","MIGE","2","f","links","22","","fixation","","","",""
"758","img/0_30.png","74","image-keyboard-response","317","442884","0.0-6.0-1.155","MIGE","2","f","links","22","","","object","j","0","true"
"null","<div style=""font-size:60px;"">+</div>","null","html-keyboard-response","318","443188","0.0-6.0-0.156","MIGE","2","f","links","22","","fixation","","","",""
"1105","img/30_270.png","70","image-keyboard-response","319","444302","0.0-6.0-1.156","MIGE","2","f","links","22","","","object","f","30","true"
"null","<div style=""font-size:60px;"">+</div>","null","html-keyboard-response","320","444706","0.0-6.0-0.157","MIGE","2","f","links","22","","fixation","","","",""
"1558","img/150_60.png","70","image-keyboard-response","321","446270","0.0-6.0-1.157","MIGE","2","f","links","22","","","object","f","150","true"
"null","<div style=""font-size:60px;"">+</div>","null","html-keyboard-response","322","446784","0.0-6.0-0.158","MIGE","2","f","links","22","","fixation","","","",""
"2263","img/150_240.png","70","image-keyboard-response","323","449061","0.0-6.0-1.158","MIGE","2","f","links","22","","","object","j","150","false"
"null","<div style=""font-size:60px;"">+</div>","null","html-keyboard-response","324","449378","0.0-6.0-0.159","MIGE","2","f","links","22","","fixation","","","",""
"1671","img/120_270.png","74","image-keyboard-response","325","451062","0.0-6.0-1.159","MIGE","2","f","links","22","","","object","j","120","true"
"null","<div style=""font-size:60px;"">+</div>","null","html-keyboard-response","326","451520","0.0-6.0-0.160","MIGE","2","f","links","22","","fixation","","","",""
"980","img/30_240.png","70","image-keyboard-response","327","452513","0.0-6.0-1.160","MIGE","2","f","links","22","","","object","f","30","true"
"null","<div style=""font-size:60px;"">+</div>","null","html-keyboard-response","328","452878","0.0-6.0-0.161","MIGE","2","f","links","22","","fixation","","","",""
"1664","img/120_210.png","70","image-keyboard-response","329","454552","0.0-6.0-1.161","MIGE","2","f","links","22","","","object","f","120","true"
"null","<div style=""font-size:60px;"">+</div>","null","html-keyboard-response","330","454926","0.0-6.0-0.162","MIGE","2","f","links","22","","fixation","","","",""
"null","img/90_150.png","null","image-keyboard-response","331","457956","0.0-6.0-1.162","MIGE","2","f","links","22","","","object","j","90","false"
"null","<div style=""font-size:60px;"">+</div>","null","html-keyboard-response","332","458408","0.0-6.0-0.163","MIGE","2","f","links","22","","fixation","","","",""
"1271","img/90_240.png","70","image-keyboard-response","333","459692","0.0-6.0-1.163","MIGE","2","f","links","22","","","object","f","90","true"
"null","<div style=""font-size:60px;"">+</div>","null","html-keyboard-response","334","460209","0.0-6.0-0.164","MIGE","2","f","links","22","","fixation","","","",""
"1280","img/90_120.png","74","image-keyboard-response","335","461498","0.0-6.0-1.164","MIGE","2","f","links","22","","","object","j","90","true"
"null","<div style=""font-size:60px;"">+</div>","null","html-keyboard-response","336","462021","0.0-6.0-0.165","MIGE","2","f","links","22","","fixation","","","",""
"1633","img/150_300.png","74","image-keyboard-response","337","463663","0.0-6.0-1.165","MIGE","2","f","links","22","","","object","j","150","true"
"null","<div style=""font-size:60px;"">+</div>","null","html-keyboard-response","338","464192","0.0-6.0-0.166","MIGE","2","f","links","22","","fixation","","","",""
"1162","img/L60_180.png","74","image-keyboard-response","339","465361","0.0-6.0-1.166","MIGE","2","f","links","22","","","object","j","60","true"
"null","<div style=""font-size:60px;"">+</div>","null","html-keyboard-response","340","465692","0.0-6.0-0.167","MIGE","2","f","links","22","","fixation","","","",""
"825","img/0_330.png","70","image-keyboard-response","341","466524","0.0-6.0-1.167","MIGE","2","f","links","22","","","object","f","0","true"
"null","<div style=""font-size:60px;"">+</div>","null","html-keyboard-response","342","466832","0.0-6.0-0.168","MIGE","2","f","links","22","","fixation","","","",""
"1558","img/150_90.png","70","image-keyboard-response","343","468400","0.0-6.0-1.168","MIGE","2","f","links","22","","","object","f","150","true"
"null","<div style=""font-size:60px;"">+</div>","null","html-keyboard-response","344","468910","0.0-6.0-0.169","MIGE","2","f","links","22","","fixation","","","",""
"2009","img/120_30.png","70","image-keyboard-response","345","470932","0.0-6.0-1.169","MIGE","2","f","links","22","","","object","f","120","true"
"null","<div style=""font-size:60px;"">+</div>","null","html-keyboard-response","346","471350","0.0-6.0-0.170","MIGE","2","f","links","22","","fixation","","","",""
"1343","img/30_60.png","74","image-keyboard-response","347","472707","0.0-6.0-1.170","MIGE","2","f","links","22","","","object","j","30","true"
"null","<div style=""font-size:60px;"">+</div>","null","html-keyboard-response","348","473170","0.0-6.0-0.171","MIGE","2","f","links","22","","fixation","","","",""
"835","img/90_30.png","70","image-keyboard-response","349","474014","0.0-6.0-1.171","MIGE","2","f","links","22","","","object","f","90","true"
"null","<div style=""font-size:60px;"">+</div>","null","html-keyboard-response","350","474434","0.0-6.0-0.172","MIGE","2","f","links","22","","fixation","","","",""
"749","img/0_90.png","74","image-keyboard-response","351","475196","0.0-6.0-1.172","MIGE","2","f","links","22","","","object","j","0","true"
"null","<div style=""font-size:60px;"">+</div>","null","html-keyboard-response","352","475555","0.0-6.0-0.173","MIGE","2","f","links","22","","fixation","","","",""
"1000","img/90_60.png","70","image-keyboard-response","353","476568","0.0-6.0-1.173","MIGE","2","f","links","22","","","object","f","90","true"
"null","<div style=""font-size:60px;"">+</div>","null","html-keyboard-response","354","476992","0.0-6.0-0.174","MIGE","2","f","links","22","","fixation","","","",""
"711","img/0_240.png","70","image-keyboard-response","355","477714","0.0-6.0-1.174","MIGE","2","f","links","22","","","object","f","0","true"
"null","<div style=""font-size:60px;"">+</div>","null","html-keyboard-response","356","478164","0.0-6.0-0.175","MIGE","2","f","links","22","","fixation","","","",""
"1374","img/90_180.png","70","image-keyboard-response","357","479549","0.0-6.0-1.175","MIGE","2","f","links","22","","","object","f","90","true"
"null","<div style=""font-size:60px;"">+</div>","null","html-keyboard-response","358","479906","0.0-6.0-0.176","MIGE","2","f","links","22","","fixation","","","",""
"1951","img/60_90.png","74","image-keyboard-response","359","481866","0.0-6.0-1.176","MIGE","2","f","links","22","","","object","j","60","true"
"null","<div style=""font-size:60px;"">+</div>","null","html-keyboard-response","360","482175","0.0-6.0-0.177","MIGE","2","f","links","22","","fixation","","","",""
"1614","img/L120_180.png","74","image-keyboard-response","361","483802","0.0-6.0-1.177","MIGE","2","f","links","22","","","object","j","120","true"
"null","<div style=""font-size:60px;"">+</div>","null","html-keyboard-response","362","484222","0.0-6.0-0.178","MIGE","2","f","links","22","","fixation","","","",""
"1568","img/120_330.png","74","image-keyboard-response","363","485803","0.0-6.0-1.178","MIGE","2","f","links","22","","","object","j","120","true"
"null","<div style=""font-size:60px;"">+</div>","null","html-keyboard-response","364","486226","0.0-6.0-0.179","MIGE","2","f","links","22","","fixation","","","",""
"1601","img/60_270.png","74","image-keyboard-response","365","487841","0.0-6.0-1.179","MIGE","2","f","links","22","","","object","f","60","false"
"null","<div style=""font-size:60px;"">+</div>","null","html-keyboard-response","366","488165","0.0-6.0-0.180","MIGE","2","f","links","22","","fixation","","","",""
"876","img/0_150.png","74","image-keyboard-response","367","489056","0.0-6.0-1.180","MIGE","2","f","links","22","","","object","j","0","true"
"null","<div style=""font-size:60px;"">+</div>","null","html-keyboard-response","368","489508","0.0-6.0-0.181","MIGE","2","f","links","22","","fixation","","","",""
"1952","img/150_120.png","70","image-keyboard-response","369","491474","0.0-6.0-1.181","MIGE","2","f","links","22","","","object","f","150","true"
"null","<div style=""font-size:60px;"">+</div>","null","html-keyboard-response","370","491790","0.0-6.0-0.182","MIGE","2","f","links","22","","fixation","","","",""
"1179","img/120_150.png","74","image-keyboard-response","371","492983","0.0-6.0-1.182","MIGE","2","f","links","22","","","object","j","120","true"
"null","<div style=""font-size:60px;"">+</div>","null","html-keyboard-response","372","493291","0.0-6.0-0.183","MIGE","2","f","links","22","","fixation","","","",""
"818","img/60_330.png","74","image-keyboard-response","373","494118","0.0-6.0-1.183","MIGE","2","f","links","22","","","object","j","60","true"
"null","<div style=""font-size:60px;"">+</div>","null","html-keyboard-response","374","494572","0.0-6.0-0.184","MIGE","2","f","links","22","","fixation","","","",""
"649","img/0_30.png","74","image-keyboard-response","375","495231","0.0-6.0-1.184","MIGE","2","f","links","22","","","object","j","0","true"
"null","<div style=""font-size:60px;"">+</div>","null","html-keyboard-response","376","495603","0.0-6.0-0.185","MIGE","2","f","links","22","","fixation","","","",""
"952","img/60_30.png","70","image-keyboard-response","377","496571","0.0-6.0-1.185","MIGE","2","f","links","22","","","object","f","60","true"
"null","<div style=""font-size:60px;"">+</div>","null","html-keyboard-response","378","496978","0.0-6.0-0.186","MIGE","2","f","links","22","","fixation","","","",""
"749","img/0_300.png","70","image-keyboard-response","379","497741","0.0-6.0-1.186","MIGE","2","f","links","22","","","object","f","0","true"
"null","<div style=""font-size:60px;"">+</div>","null","html-keyboard-response","380","498104","0.0-6.0-0.187","MIGE","2","f","links","22","","fixation","","","",""
"1243","img/60_210.png","70","image-keyboard-response","381","499360","0.0-6.0-1.187","MIGE","2","f","links","22","","","object","f","60","true"
"null","<div style=""font-size:60px;"">+</div>","null","html-keyboard-response","382","499868","0.0-6.0-0.188","MIGE","2","f","links","22","","fixation","","","",""
"1209","img/90_300.png","74","image-keyboard-response","383","501092","0.0-6.0-1.188","MIGE","2","f","links","22","","","object","j","90","true"
"null","<div style=""font-size:60px;"">+</div>","null","html-keyboard-response","384","501511","0.0-6.0-0.189","MIGE","2","f","links","22","","fixation","","","",""
"750","img/90_330.png","74","image-keyboard-response","385","502274","0.0-6.0-1.189","MIGE","2","f","links","22","","","object","j","90","true"
"null","<div style=""font-size:60px;"">+</div>","null","html-keyboard-response","386","502776","0.0-6.0-0.190","MIGE","2","f","links","22","","fixation","","","",""
"644","img/0_270.png","70","image-keyboard-response","387","503433","0.0-6.0-1.190","MIGE","2","f","links","22","","","object","f","0","true"
"null","<div style=""font-size:60px;"">+</div>","null","html-keyboard-response","388","503949","0.0-6.0-0.191","MIGE","2","f","links","22","","fixation","","","",""
"574","img/0_60.png","74","image-keyboard-response","389","504537","0.0-6.0-1.191","MIGE","2","f","links","22","","","object","j","0","true"
"null","<div style=""font-size:60px;"">+</div>","null","html-keyboard-response","390","504918","0.0-6.0-0.192","MIGE","2","f","links","22","","fixation","","","",""
"1145","img/30_90.png","74","image-keyboard-response","391","506077","0.0-6.0-1.192","MIGE","2","f","links","22","","","object","j","30","true"
"null","<div style=""font-size:60px;"">+</div>","null","html-keyboard-response","392","506482","0.0-6.0-0.193","MIGE","2","f","links","22","","fixation","","","",""
"null","img/150_270.png","null","image-keyboard-response","393","509508","0.0-6.0-1.193","MIGE","2","f","links","22","","","object","j","150","false"
"null","<div style=""font-size:60px;"">+</div>","null","html-keyboard-response","394","509961","0.0-6.0-0.194","MIGE","2","f","links","22","","fixation","","","",""
"1052","img/30_180.png","70","image-keyboard-response","395","511027","0.0-6.0-1.194","MIGE","2","f","links","22","","","object","f","30","true"
"null","<div style=""font-size:60px;"">+</div>","null","html-keyboard-response","396","511538","0.0-6.0-0.195","MIGE","2","f","links","22","","fixation","","","",""
"2085","img/L90_180.png","74","image-keyboard-response","397","513637","0.0-6.0-1.195","MIGE","2","f","links","22","","","object","j","90","true"
"null","<div style=""font-size:60px;"">+</div>","null","html-keyboard-response","398","514049","0.0-6.0-0.196","MIGE","2","f","links","22","","fixation","","","",""
"1320","img/L30_180.png","74","image-keyboard-response","399","515382","0.0-6.0-1.196","MIGE","2","f","links","22","","","object","j","30","true"
"null","<div style=""font-size:60px;"">+</div>","null","html-keyboard-response","400","515898","0.0-6.0-0.197","MIGE","2","f","links","22","","fixation","","","",""
"null","img/L150_180.png","null","image-keyboard-response","401","518915","0.0-6.0-1.197","MIGE","2","f","links","22","","","object","j","150","false"
"null","<div style=""font-size:60px;"">+</div>","null","html-keyboard-response","402","519226","0.0-6.0-0.198","MIGE","2","f","links","22","","fixation","","","",""
"1294","img/150_180.png","70","image-keyboard-response","403","520533","0.0-6.0-1.198","MIGE","2","f","links","22","","","object","f","150","true"
"null","<div style=""font-size:60px;"">+</div>","null","html-keyboard-response","404","520945","0.0-6.0-0.199","MIGE","2","f","links","22","","fixation","","","",""
"1364","img/90_210.png","70","image-keyboard-response","405","522322","0.0-6.0-1.199","MIGE","2","f","links","22","","","object","f","90","true"
"null","<div style=""font-size:60px;"">+</div>","null","html-keyboard-response","406","522725","0.0-6.0-0.200","MIGE","2","f","links","22","","fixation","","","",""
"1253","img/0_210.png","70","image-keyboard-response","407","523987","0.0-6.0-1.200","MIGE","2","f","links","22","","","object","f","0","true"
"null","<div style=""font-size:60px;"">+</div>","null","html-keyboard-response","408","524289","0.0-6.0-0.201","MIGE","2","f","links","22","","fixation","","","",""
"1349","img/120_180.png","70","image-keyboard-response","409","525651","0.0-6.0-1.201","MIGE","2","f","links","22","","","object","f","120","true"
"null","<div style=""font-size:60px;"">+</div>","null","html-keyboard-response","410","526119","0.0-6.0-0.202","MIGE","2","f","links","22","","fixation","","","",""
"2357","img/30_120.png","74","image-keyboard-response","411","528489","0.0-6.0-1.202","MIGE","2","f","links","22","","","object","j","30","true"
"null","<div style=""font-size:60px;"">+</div>","null","html-keyboard-response","412","528953","0.0-6.0-0.203","MIGE","2","f","links","22","","fixation","","","",""
"1220","img/30_300.png","70","image-keyboard-response","413","530186","0.0-6.0-1.203","MIGE","2","f","links","22","","","object","f","30","true"
"null","<div style=""font-size:60px;"">+</div>","null","html-keyboard-response","414","530590","0.0-6.0-0.204","MIGE","2","f","links","22","","fixation","","","",""
"1867","img/60_180.png","70","image-keyboard-response","415","532469","0.0-6.0-1.204","MIGE","2","f","links","22","","","object","f","60","true"
"null","<div style=""font-size:60px;"">+</div>","null","html-keyboard-response","416","532885","0.0-6.0-0.205","MIGE","2","f","links","22","","fixation","","","",""
"638","img/0_120.png","74","image-keyboard-response","417","533538","0.0-6.0-1.205","MIGE","2","f","links","22","","","object","j","0","true"
"null","<div style=""font-size:60px;"">+</div>","null","html-keyboard-response","418","534043","0.0-6.0-0.206","MIGE","2","f","links","22","","fixation","","","",""
"1305","img/60_150.png","74","image-keyboard-response","419","535363","0.0-6.0-1.206","MIGE","2","f","links","22","","","object","j","60","true"
"null","<div style=""font-size:60px;"">+</div>","null","html-keyboard-response","420","535824","0.0-6.0-0.207","MIGE","2","f","links","22","","fixation","","","",""
"1165","img/120_90.png","70","image-keyboard-response","421","537005","0.0-6.0-1.207","MIGE","2","f","links","22","","","object","f","120","true"
"11999","<p>Du hast in 92% der Versuche korrekt entschieden.</p><p>Deine durchschnittliche Reaktionszeit war  1220ms.</p><p>Dr&uuml;cke eine beliebige Taste, um die Session zu beenden. Vielen Dank!</p>","32","html-keyboard-response","422","549010","0.0-7.0","MIGE","2","f","links","22","","","","","",""
