"rt","stimulus","key_press","trial_type","trial_index","time_elapsed","internal_node_id","subject","session","sex","handedness","age","responses","test_part","condition","correct_response","angle","correct"
"4338","<p>Mental Rotation Experiment.</p> <p>Dr&uuml;cke eine beliebige Taste, um anzufangen.</p>","13","html-keyboard-response","0","4360","0.0-0.0","MIGE","4","f","links","22","","","","","",""
"10566","","","survey-text","1","14929","0.0-1.0","MIGE","4","f","links","22","{""Q0"":""MIGE""}","","","","",""
"29561","","","survey-text","2","44490","0.0-2.0","MIGE","4","f","links","22","{""Q0"":""4""}","","","","",""
"30866","","","survey-multi-choice","3","75360","0.0-3.0","MIGE","4","f","links","22","{""Q0"":""f"",""Q1"":""links""}","","","","",""
"3632","","","survey-text","4","78995","0.0-4.0","MIGE","4","f","links","22","{""Q0"":""22""}","","","","",""
"30408","<p>Stell dir vor, dass du vor einem runden Tisch stehst, auf dem sich ein blauer Ball am Tischrand befindet. Entlang des Tischrands ist jeweils ein verschieden langer Pfeil. Nun bleibst du an deinem Platz vor dem Tisch und rotierst den Tisch entlang des Pfeils (gleiche Richtung und Länge). </p> <img src='img/30_180.png'></img> <br><p> Nachdem du diese (vorgestellte) Rotation durchgef&uuml;hrt hast, schau in Richtung der Tischmitte, und entscheide dann, ob der Ball links oder rechts von dir liegt.</p> <p>Dr&uuml;cke die <strong>'f'</strong>-Taste f&uuml;r links, die <strong>'j'</strong>-Taste f&uuml;r rechts.</p><br><p> Das Bild wird jeweils 1 Sekunde lang pr&auml;sentiert. Du hast 3 Sekunden Zeit eine Entscheidung zu treffen.</p>","70","html-keyboard-response","5","109411","0.0-5.0","MIGE","4","f","links","22","","","","","",""
"null","<div style=""font-size:60px;"">+</div>","null","html-keyboard-response","6","110937","0.0-6.0-0.0","MIGE","4","f","links","22","","fixation","","","",""
"1119","img/0_210.png","70","image-keyboard-response","7","112078","0.0-6.0-1.0","MIGE","4","f","links","22","","","object","f","0","true"
"null","<div style=""font-size:60px;"">+</div>","null","html-keyboard-response","8","112432","0.0-6.0-0.1","MIGE","4","f","links","22","","fixation","","","",""
"null","img/0_30.png","null","image-keyboard-response","9","115480","0.0-6.0-1.1","MIGE","4","f","links","22","","","object","j","0","false"
"null","<div style=""font-size:60px;"">+</div>","null","html-keyboard-response","10","115932","0.0-6.0-0.2","MIGE","4","f","links","22","","fixation","","","",""
"1311","img/30_180.png","70","image-keyboard-response","11","117251","0.0-6.0-1.2","MIGE","4","f","links","22","","","object","f","30","true"
"null","<div style=""font-size:60px;"">+</div>","null","html-keyboard-response","12","117654","0.0-6.0-0.3","MIGE","4","f","links","22","","fixation","","","",""
"1353","img/150_90.png","70","image-keyboard-response","13","119025","0.0-6.0-1.3","MIGE","4","f","links","22","","","object","f","150","true"
"null","<div style=""font-size:60px;"">+</div>","null","html-keyboard-response","14","119537","0.0-6.0-0.4","MIGE","4","f","links","22","","fixation","","","",""
"945","img/30_90.png","74","image-keyboard-response","15","120499","0.0-6.0-1.4","MIGE","4","f","links","22","","","object","j","30","true"
"null","<div style=""font-size:60px;"">+</div>","null","html-keyboard-response","16","121006","0.0-6.0-0.5","MIGE","4","f","links","22","","fixation","","","",""
"982","img/L90_180.png","74","image-keyboard-response","17","122005","0.0-6.0-1.5","MIGE","4","f","links","22","","","object","j","90","true"
"null","<div style=""font-size:60px;"">+</div>","null","html-keyboard-response","18","122365","0.0-6.0-0.6","MIGE","4","f","links","22","","fixation","","","",""
"879","img/L150_180.png","74","image-keyboard-response","19","123255","0.0-6.0-1.6","MIGE","4","f","links","22","","","object","j","150","true"
"null","<div style=""font-size:60px;"">+</div>","null","html-keyboard-response","20","123772","0.0-6.0-0.7","MIGE","4","f","links","22","","fixation","","","",""
"780","img/0_300.png","70","image-keyboard-response","21","124571","0.0-6.0-1.7","MIGE","4","f","links","22","","","object","f","0","true"
"null","<div style=""font-size:60px;"">+</div>","null","html-keyboard-response","22","125038","0.0-6.0-0.8","MIGE","4","f","links","22","","fixation","","","",""
"919","img/120_180.png","70","image-keyboard-response","23","125978","0.0-6.0-1.8","MIGE","4","f","links","22","","","object","f","120","true"
"null","<div style=""font-size:60px;"">+</div>","null","html-keyboard-response","24","126503","0.0-6.0-0.9","MIGE","4","f","links","22","","fixation","","","",""
"770","img/30_270.png","70","image-keyboard-response","25","127291","0.0-6.0-1.9","MIGE","4","f","links","22","","","object","f","30","true"
"null","<div style=""font-size:60px;"">+</div>","null","html-keyboard-response","26","127660","0.0-6.0-0.10","MIGE","4","f","links","22","","fixation","","","",""
"877","img/120_30.png","70","image-keyboard-response","27","128555","0.0-6.0-1.10","MIGE","4","f","links","22","","","object","f","120","true"
"null","<div style=""font-size:60px;"">+</div>","null","html-keyboard-response","28","129021","0.0-6.0-0.11","MIGE","4","f","links","22","","fixation","","","",""
"900","img/150_180.png","70","image-keyboard-response","29","129936","0.0-6.0-1.11","MIGE","4","f","links","22","","","object","f","150","true"
"null","<div style=""font-size:60px;"">+</div>","null","html-keyboard-response","30","130395","0.0-6.0-0.12","MIGE","4","f","links","22","","fixation","","","",""
"760","img/90_30.png","70","image-keyboard-response","31","131164","0.0-6.0-1.12","MIGE","4","f","links","22","","","object","f","90","true"
"null","<div style=""font-size:60px;"">+</div>","null","html-keyboard-response","32","131571","0.0-6.0-0.13","MIGE","4","f","links","22","","fixation","","","",""
"1521","img/90_240.png","70","image-keyboard-response","33","133109","0.0-6.0-1.13","MIGE","4","f","links","22","","","object","f","90","true"
"null","<div style=""font-size:60px;"">+</div>","null","html-keyboard-response","34","133413","0.0-6.0-0.14","MIGE","4","f","links","22","","fixation","","","",""
"1082","img/150_270.png","74","image-keyboard-response","35","134516","0.0-6.0-1.14","MIGE","4","f","links","22","","","object","j","150","true"
"null","<div style=""font-size:60px;"">+</div>","null","html-keyboard-response","36","134879","0.0-6.0-0.15","MIGE","4","f","links","22","","fixation","","","",""
"1183","img/30_60.png","74","image-keyboard-response","37","136079","0.0-6.0-1.15","MIGE","4","f","links","22","","","object","j","30","true"
"null","<div style=""font-size:60px;"">+</div>","null","html-keyboard-response","38","136556","0.0-6.0-0.16","MIGE","4","f","links","22","","fixation","","","",""
"1045","img/120_210.png","70","image-keyboard-response","39","137623","0.0-6.0-1.16","MIGE","4","f","links","22","","","object","f","120","true"
"null","<div style=""font-size:60px;"">+</div>","null","html-keyboard-response","40","138026","0.0-6.0-0.17","MIGE","4","f","links","22","","fixation","","","",""
"1099","img/120_270.png","74","image-keyboard-response","41","139140","0.0-6.0-1.17","MIGE","4","f","links","22","","","object","j","120","true"
"null","<div style=""font-size:60px;"">+</div>","null","html-keyboard-response","42","139495","0.0-6.0-0.18","MIGE","4","f","links","22","","fixation","","","",""
"1575","img/L120_180.png","74","image-keyboard-response","43","141087","0.0-6.0-1.18","MIGE","4","f","links","22","","","object","j","120","true"
"null","<div style=""font-size:60px;"">+</div>","null","html-keyboard-response","44","141447","0.0-6.0-0.19","MIGE","4","f","links","22","","fixation","","","",""
"757","img/30_120.png","74","image-keyboard-response","45","142222","0.0-6.0-1.19","MIGE","4","f","links","22","","","object","j","30","true"
"null","<div style=""font-size:60px;"">+</div>","null","html-keyboard-response","46","142698","0.0-6.0-0.20","MIGE","4","f","links","22","","fixation","","","",""
"845","img/90_60.png","70","image-keyboard-response","47","143560","0.0-6.0-1.20","MIGE","4","f","links","22","","","object","f","90","true"
"null","<div style=""font-size:60px;"">+</div>","null","html-keyboard-response","48","143915","0.0-6.0-0.21","MIGE","4","f","links","22","","fixation","","","",""
"1271","img/150_120.png","70","image-keyboard-response","49","145203","0.0-6.0-1.21","MIGE","4","f","links","22","","","object","f","150","true"
"null","<div style=""font-size:60px;"">+</div>","null","html-keyboard-response","50","145664","0.0-6.0-0.22","MIGE","4","f","links","22","","fixation","","","",""
"1364","img/30_240.png","70","image-keyboard-response","51","147048","0.0-6.0-1.22","MIGE","4","f","links","22","","","object","f","30","true"
"null","<div style=""font-size:60px;"">+</div>","null","html-keyboard-response","52","147399","0.0-6.0-0.23","MIGE","4","f","links","22","","fixation","","","",""
"1046","img/60_150.png","74","image-keyboard-response","53","148454","0.0-6.0-1.23","MIGE","4","f","links","22","","","object","j","60","true"
"null","<div style=""font-size:60px;"">+</div>","null","html-keyboard-response","54","148914","0.0-6.0-0.24","MIGE","4","f","links","22","","fixation","","","",""
"996","img/30_300.png","70","image-keyboard-response","55","149930","0.0-6.0-1.24","MIGE","4","f","links","22","","","object","f","30","true"
"null","<div style=""font-size:60px;"">+</div>","null","html-keyboard-response","56","150352","0.0-6.0-0.25","MIGE","4","f","links","22","","fixation","","","",""
"1213","img/120_150.png","74","image-keyboard-response","57","151582","0.0-6.0-1.25","MIGE","4","f","links","22","","","object","j","120","true"
"null","<div style=""font-size:60px;"">+</div>","null","html-keyboard-response","58","151901","0.0-6.0-0.26","MIGE","4","f","links","22","","fixation","","","",""
"1069","img/90_210.png","70","image-keyboard-response","59","152989","0.0-6.0-1.26","MIGE","4","f","links","22","","","object","f","90","true"
"null","<div style=""font-size:60px;"">+</div>","null","html-keyboard-response","60","153447","0.0-6.0-0.27","MIGE","4","f","links","22","","fixation","","","",""
"1163","img/90_120.png","74","image-keyboard-response","61","154620","0.0-6.0-1.27","MIGE","4","f","links","22","","","object","j","90","true"
"null","<div style=""font-size:60px;"">+</div>","null","html-keyboard-response","62","155140","0.0-6.0-0.28","MIGE","4","f","links","22","","fixation","","","",""
"1038","img/90_180.png","70","image-keyboard-response","63","156196","0.0-6.0-1.28","MIGE","4","f","links","22","","","object","f","90","true"
"null","<div style=""font-size:60px;"">+</div>","null","html-keyboard-response","64","156655","0.0-6.0-0.29","MIGE","4","f","links","22","","fixation","","","",""
"974","img/150_60.png","70","image-keyboard-response","65","157646","0.0-6.0-1.29","MIGE","4","f","links","22","","","object","f","150","true"
"null","<div style=""font-size:60px;"">+</div>","null","html-keyboard-response","66","157952","0.0-6.0-0.30","MIGE","4","f","links","22","","fixation","","","",""
"766","img/60_30.png","70","image-keyboard-response","67","158738","0.0-6.0-1.30","MIGE","4","f","links","22","","","object","f","60","true"
"null","<div style=""font-size:60px;"">+</div>","null","html-keyboard-response","68","159061","0.0-6.0-0.31","MIGE","4","f","links","22","","fixation","","","",""
"1032","img/60_210.png","70","image-keyboard-response","69","160110","0.0-6.0-1.31","MIGE","4","f","links","22","","","object","f","60","true"
"null","<div style=""font-size:60px;"">+</div>","null","html-keyboard-response","70","160640","0.0-6.0-0.32","MIGE","4","f","links","22","","fixation","","","",""
"1400","img/0_270.png","70","image-keyboard-response","71","162057","0.0-6.0-1.32","MIGE","4","f","links","22","","","object","f","0","true"
"null","<div style=""font-size:60px;"">+</div>","null","html-keyboard-response","72","162482","0.0-6.0-0.33","MIGE","4","f","links","22","","fixation","","","",""
"636","img/0_60.png","74","image-keyboard-response","73","163136","0.0-6.0-1.33","MIGE","4","f","links","22","","","object","j","0","true"
"null","<div style=""font-size:60px;"">+</div>","null","html-keyboard-response","74","163594","0.0-6.0-0.34","MIGE","4","f","links","22","","fixation","","","",""
"1338","img/60_270.png","70","image-keyboard-response","75","164948","0.0-6.0-1.34","MIGE","4","f","links","22","","","object","f","60","true"
"null","<div style=""font-size:60px;"">+</div>","null","html-keyboard-response","76","165264","0.0-6.0-0.35","MIGE","4","f","links","22","","fixation","","","",""
"1207","img/60_180.png","70","image-keyboard-response","77","166489","0.0-6.0-1.35","MIGE","4","f","links","22","","","object","f","60","true"
"null","<div style=""font-size:60px;"">+</div>","null","html-keyboard-response","78","166798","0.0-6.0-0.36","MIGE","4","f","links","22","","fixation","","","",""
"720","img/0_150.png","74","image-keyboard-response","79","167536","0.0-6.0-1.36","MIGE","4","f","links","22","","","object","j","0","true"
"null","<div style=""font-size:60px;"">+</div>","null","html-keyboard-response","80","167937","0.0-6.0-0.37","MIGE","4","f","links","22","","fixation","","","",""
"961","img/90_150.png","74","image-keyboard-response","81","168919","0.0-6.0-1.37","MIGE","4","f","links","22","","","object","j","90","true"
"null","<div style=""font-size:60px;"">+</div>","null","html-keyboard-response","82","169338","0.0-6.0-0.38","MIGE","4","f","links","22","","fixation","","","",""
"745","img/0_330.png","70","image-keyboard-response","83","170100","0.0-6.0-1.38","MIGE","4","f","links","22","","","object","f","0","true"
"null","<div style=""font-size:60px;"">+</div>","null","html-keyboard-response","84","170430","0.0-6.0-0.39","MIGE","4","f","links","22","","fixation","","","",""
"884","img/150_300.png","74","image-keyboard-response","85","171326","0.0-6.0-1.39","MIGE","4","f","links","22","","","object","j","150","true"
"null","<div style=""font-size:60px;"">+</div>","null","html-keyboard-response","86","171791","0.0-6.0-0.40","MIGE","4","f","links","22","","fixation","","","",""
"664","img/60_330.png","74","image-keyboard-response","87","172473","0.0-6.0-1.40","MIGE","4","f","links","22","","","object","j","60","true"
"null","<div style=""font-size:60px;"">+</div>","null","html-keyboard-response","88","172837","0.0-6.0-0.41","MIGE","4","f","links","22","","fixation","","","",""
"845","img/L60_180.png","74","image-keyboard-response","89","173699","0.0-6.0-1.41","MIGE","4","f","links","22","","","object","j","60","true"
"null","<div style=""font-size:60px;"">+</div>","null","html-keyboard-response","90","174165","0.0-6.0-0.42","MIGE","4","f","links","22","","fixation","","","",""
"1125","img/L30_180.png","74","image-keyboard-response","91","175308","0.0-6.0-1.42","MIGE","4","f","links","22","","","object","j","30","true"
"null","<div style=""font-size:60px;"">+</div>","null","html-keyboard-response","92","175619","0.0-6.0-0.43","MIGE","4","f","links","22","","fixation","","","",""
"1596","img/120_90.png","70","image-keyboard-response","93","177233","0.0-6.0-1.43","MIGE","4","f","links","22","","","object","f","120","true"
"null","<div style=""font-size:60px;"">+</div>","null","html-keyboard-response","94","177761","0.0-6.0-0.44","MIGE","4","f","links","22","","fixation","","","",""
"826","img/0_120.png","74","image-keyboard-response","95","178605","0.0-6.0-1.44","MIGE","4","f","links","22","","","object","j","0","true"
"null","<div style=""font-size:60px;"">+</div>","null","html-keyboard-response","96","179057","0.0-6.0-0.45","MIGE","4","f","links","22","","fixation","","","",""
"1405","img/60_90.png","74","image-keyboard-response","97","180485","0.0-6.0-1.45","MIGE","4","f","links","22","","","object","j","60","true"
"null","<div style=""font-size:60px;"">+</div>","null","html-keyboard-response","98","180948","0.0-6.0-0.46","MIGE","4","f","links","22","","fixation","","","",""
"1351","img/150_240.png","74","image-keyboard-response","99","182317","0.0-6.0-1.46","MIGE","4","f","links","22","","","object","j","150","true"
"null","<div style=""font-size:60px;"">+</div>","null","html-keyboard-response","100","182778","0.0-6.0-0.47","MIGE","4","f","links","22","","fixation","","","",""
"682","img/0_90.png","74","image-keyboard-response","101","183475","0.0-6.0-1.47","MIGE","4","f","links","22","","","object","j","0","true"
"null","<div style=""font-size:60px;"">+</div>","null","html-keyboard-response","102","183792","0.0-6.0-0.48","MIGE","4","f","links","22","","fixation","","","",""
"700","img/90_330.png","74","image-keyboard-response","103","184512","0.0-6.0-1.48","MIGE","4","f","links","22","","","object","j","90","true"
"null","<div style=""font-size:60px;"">+</div>","null","html-keyboard-response","104","184840","0.0-6.0-0.49","MIGE","4","f","links","22","","fixation","","","",""
"1061","img/90_300.png","74","image-keyboard-response","105","185918","0.0-6.0-1.49","MIGE","4","f","links","22","","","object","j","90","true"
"null","<div style=""font-size:60px;"">+</div>","null","html-keyboard-response","106","186325","0.0-6.0-0.50","MIGE","4","f","links","22","","fixation","","","",""
"688","img/0_240.png","70","image-keyboard-response","107","187031","0.0-6.0-1.50","MIGE","4","f","links","22","","","object","f","0","true"
"null","<div style=""font-size:60px;"">+</div>","null","html-keyboard-response","108","187543","0.0-6.0-0.51","MIGE","4","f","links","22","","fixation","","","",""
"753","img/120_330.png","74","image-keyboard-response","109","188313","0.0-6.0-1.51","MIGE","4","f","links","22","","","object","j","120","true"
"null","<div style=""font-size:60px;"">+</div>","null","html-keyboard-response","110","188779","0.0-6.0-0.52","MIGE","4","f","links","22","","fixation","","","",""
"855","img/L30_180.png","74","image-keyboard-response","111","189642","0.0-6.0-1.52","MIGE","4","f","links","22","","","object","j","30","true"
"null","<div style=""font-size:60px;"">+</div>","null","html-keyboard-response","112","190049","0.0-6.0-0.53","MIGE","4","f","links","22","","fixation","","","",""
"1695","img/150_270.png","74","image-keyboard-response","113","191758","0.0-6.0-1.53","MIGE","4","f","links","22","","","object","j","150","true"
"null","<div style=""font-size:60px;"">+</div>","null","html-keyboard-response","114","192274","0.0-6.0-0.54","MIGE","4","f","links","22","","fixation","","","",""
"1381","img/L150_180.png","74","image-keyboard-response","115","193668","0.0-6.0-1.54","MIGE","4","f","links","22","","","object","j","150","true"
"null","<div style=""font-size:60px;"">+</div>","null","html-keyboard-response","116","193978","0.0-6.0-0.55","MIGE","4","f","links","22","","fixation","","","",""
"1875","img/60_180.png","70","image-keyboard-response","117","195863","0.0-6.0-1.55","MIGE","4","f","links","22","","","object","f","60","true"
"null","<div style=""font-size:60px;"">+</div>","null","html-keyboard-response","118","196369","0.0-6.0-0.56","MIGE","4","f","links","22","","fixation","","","",""
"914","img/120_150.png","74","image-keyboard-response","119","197294","0.0-6.0-1.56","MIGE","4","f","links","22","","","object","j","120","true"
"null","<div style=""font-size:60px;"">+</div>","null","html-keyboard-response","120","197745","0.0-6.0-0.57","MIGE","4","f","links","22","","fixation","","","",""
"1091","img/90_210.png","70","image-keyboard-response","121","198845","0.0-6.0-1.57","MIGE","4","f","links","22","","","object","f","90","true"
"null","<div style=""font-size:60px;"">+</div>","null","html-keyboard-response","122","199166","0.0-6.0-0.58","MIGE","4","f","links","22","","fixation","","","",""
"738","img/0_270.png","70","image-keyboard-response","123","199913","0.0-6.0-1.58","MIGE","4","f","links","22","","","object","f","0","true"
"null","<div style=""font-size:60px;"">+</div>","null","html-keyboard-response","124","200416","0.0-6.0-0.59","MIGE","4","f","links","22","","fixation","","","",""
"718","img/60_270.png","70","image-keyboard-response","125","201140","0.0-6.0-1.59","MIGE","4","f","links","22","","","object","f","60","true"
"null","<div style=""font-size:60px;"">+</div>","null","html-keyboard-response","126","201495","0.0-6.0-0.60","MIGE","4","f","links","22","","fixation","","","",""
"1402","img/L60_180.png","74","image-keyboard-response","127","202906","0.0-6.0-1.60","MIGE","4","f","links","22","","","object","j","60","true"
"null","<div style=""font-size:60px;"">+</div>","null","html-keyboard-response","128","203227","0.0-6.0-0.61","MIGE","4","f","links","22","","fixation","","","",""
"896","img/150_300.png","74","image-keyboard-response","129","204134","0.0-6.0-1.61","MIGE","4","f","links","22","","","object","j","150","true"
"null","<div style=""font-size:60px;"">+</div>","null","html-keyboard-response","130","204588","0.0-6.0-0.62","MIGE","4","f","links","22","","fixation","","","",""
"1780","img/120_210.png","70","image-keyboard-response","131","206382","0.0-6.0-1.62","MIGE","4","f","links","22","","","object","f","120","true"
"null","<div style=""font-size:60px;"">+</div>","null","html-keyboard-response","132","206696","0.0-6.0-0.63","MIGE","4","f","links","22","","fixation","","","",""
"642","img/90_330.png","74","image-keyboard-response","133","207348","0.0-6.0-1.63","MIGE","4","f","links","22","","","object","j","90","true"
"null","<div style=""font-size:60px;"">+</div>","null","html-keyboard-response","134","207758","0.0-6.0-0.64","MIGE","4","f","links","22","","fixation","","","",""
"984","img/120_90.png","70","image-keyboard-response","135","208746","0.0-6.0-1.64","MIGE","4","f","links","22","","","object","f","120","true"
"null","<div style=""font-size:60px;"">+</div>","null","html-keyboard-response","136","209148","0.0-6.0-0.65","MIGE","4","f","links","22","","fixation","","","",""
"1507","img/60_150.png","74","image-keyboard-response","137","210668","0.0-6.0-1.65","MIGE","4","f","links","22","","","object","j","60","true"
"null","<div style=""font-size:60px;"">+</div>","null","html-keyboard-response","138","211023","0.0-6.0-0.66","MIGE","4","f","links","22","","fixation","","","",""
"1150","img/L90_180.png","74","image-keyboard-response","139","212187","0.0-6.0-1.66","MIGE","4","f","links","22","","","object","j","90","true"
"null","<div style=""font-size:60px;"">+</div>","null","html-keyboard-response","140","212541","0.0-6.0-0.67","MIGE","4","f","links","22","","fixation","","","",""
"906","img/90_180.png","70","image-keyboard-response","141","213456","0.0-6.0-1.67","MIGE","4","f","links","22","","","object","f","90","true"
"null","<div style=""font-size:60px;"">+</div>","null","html-keyboard-response","142","213837","0.0-6.0-0.68","MIGE","4","f","links","22","","fixation","","","",""
"701","img/0_240.png","70","image-keyboard-response","143","214547","0.0-6.0-1.68","MIGE","4","f","links","22","","","object","f","0","true"
"null","<div style=""font-size:60px;"">+</div>","null","html-keyboard-response","144","214962","0.0-6.0-0.69","MIGE","4","f","links","22","","fixation","","","",""
"690","img/0_330.png","70","image-keyboard-response","145","215664","0.0-6.0-1.69","MIGE","4","f","links","22","","","object","f","0","true"
"null","<div style=""font-size:60px;"">+</div>","null","html-keyboard-response","146","216120","0.0-6.0-0.70","MIGE","4","f","links","22","","fixation","","","",""
"559","img/0_90.png","74","image-keyboard-response","147","216686","0.0-6.0-1.70","MIGE","4","f","links","22","","","object","j","0","true"
"null","<div style=""font-size:60px;"">+</div>","null","html-keyboard-response","148","217120","0.0-6.0-0.71","MIGE","4","f","links","22","","fixation","","","",""
"2654","img/150_240.png","70","image-keyboard-response","149","219783","0.0-6.0-1.71","MIGE","4","f","links","22","","","object","j","150","false"
"null","<div style=""font-size:60px;"">+</div>","null","html-keyboard-response","150","220204","0.0-6.0-0.72","MIGE","4","f","links","22","","fixation","","","",""
"638","img/90_300.png","74","image-keyboard-response","151","220850","0.0-6.0-1.72","MIGE","4","f","links","22","","","object","j","90","true"
"null","<div style=""font-size:60px;"">+</div>","null","html-keyboard-response","152","221313","0.0-6.0-0.73","MIGE","4","f","links","22","","fixation","","","",""
"770","img/30_90.png","74","image-keyboard-response","153","222097","0.0-6.0-1.73","MIGE","4","f","links","22","","","object","j","30","true"
"null","<div style=""font-size:60px;"">+</div>","null","html-keyboard-response","154","222408","0.0-6.0-0.74","MIGE","4","f","links","22","","fixation","","","",""
"1493","img/90_150.png","74","image-keyboard-response","155","223910","0.0-6.0-1.74","MIGE","4","f","links","22","","","object","j","90","true"
"null","<div style=""font-size:60px;"">+</div>","null","html-keyboard-response","156","224268","0.0-6.0-0.75","MIGE","4","f","links","22","","fixation","","","",""
"759","img/120_330.png","74","image-keyboard-response","157","225036","0.0-6.0-1.75","MIGE","4","f","links","22","","","object","j","120","true"
"null","<div style=""font-size:60px;"">+</div>","null","html-keyboard-response","158","225502","0.0-6.0-0.76","MIGE","4","f","links","22","","fixation","","","",""
"740","img/150_60.png","70","image-keyboard-response","159","226250","0.0-6.0-1.76","MIGE","4","f","links","22","","","object","f","150","true"
"null","<div style=""font-size:60px;"">+</div>","null","html-keyboard-response","160","226628","0.0-6.0-0.77","MIGE","4","f","links","22","","fixation","","","",""
"615","img/0_120.png","74","image-keyboard-response","161","227252","0.0-6.0-1.77","MIGE","4","f","links","22","","","object","j","0","true"
"null","<div style=""font-size:60px;"">+</div>","null","html-keyboard-response","162","227611","0.0-6.0-0.78","MIGE","4","f","links","22","","fixation","","","",""
"1640","img/30_270.png","70","image-keyboard-response","163","229265","0.0-6.0-1.78","MIGE","4","f","links","22","","","object","f","30","true"
"null","<div style=""font-size:60px;"">+</div>","null","html-keyboard-response","164","229784","0.0-6.0-0.79","MIGE","4","f","links","22","","fixation","","","",""
"741","img/60_30.png","70","image-keyboard-response","165","230536","0.0-6.0-1.79","MIGE","4","f","links","22","","","object","f","60","true"
"null","<div style=""font-size:60px;"">+</div>","null","html-keyboard-response","166","230939","0.0-6.0-0.80","MIGE","4","f","links","22","","fixation","","","",""
"2205","img/120_270.png","74","image-keyboard-response","167","233157","0.0-6.0-1.80","MIGE","4","f","links","22","","","object","j","120","true"
"null","<div style=""font-size:60px;"">+</div>","null","html-keyboard-response","168","233472","0.0-6.0-0.81","MIGE","4","f","links","22","","fixation","","","",""
"645","img/0_210.png","70","image-keyboard-response","169","234127","0.0-6.0-1.81","MIGE","4","f","links","22","","","object","f","0","true"
"null","<div style=""font-size:60px;"">+</div>","null","html-keyboard-response","170","234503","0.0-6.0-0.82","MIGE","4","f","links","22","","fixation","","","",""
"872","img/30_60.png","74","image-keyboard-response","171","235385","0.0-6.0-1.82","MIGE","4","f","links","22","","","object","j","30","true"
"null","<div style=""font-size:60px;"">+</div>","null","html-keyboard-response","172","235793","0.0-6.0-0.83","MIGE","4","f","links","22","","fixation","","","",""
"547","img/0_150.png","74","image-keyboard-response","173","236352","0.0-6.0-1.83","MIGE","4","f","links","22","","","object","j","0","true"
"null","<div style=""font-size:60px;"">+</div>","null","html-keyboard-response","174","236879","0.0-6.0-0.84","MIGE","4","f","links","22","","fixation","","","",""
"588","img/60_330.png","74","image-keyboard-response","175","237477","0.0-6.0-1.84","MIGE","4","f","links","22","","","object","j","60","true"
"null","<div style=""font-size:60px;"">+</div>","null","html-keyboard-response","176","237989","0.0-6.0-0.85","MIGE","4","f","links","22","","fixation","","","",""
"1457","img/150_90.png","70","image-keyboard-response","177","239459","0.0-6.0-1.85","MIGE","4","f","links","22","","","object","f","150","true"
"null","<div style=""font-size:60px;"">+</div>","null","html-keyboard-response","178","239815","0.0-6.0-0.86","MIGE","4","f","links","22","","fixation","","","",""
"596","img/120_30.png","70","image-keyboard-response","179","240426","0.0-6.0-1.86","MIGE","4","f","links","22","","","object","f","120","true"
"null","<div style=""font-size:60px;"">+</div>","null","html-keyboard-response","180","240849","0.0-6.0-0.87","MIGE","4","f","links","22","","fixation","","","",""
"1856","img/150_180.png","70","image-keyboard-response","181","242719","0.0-6.0-1.87","MIGE","4","f","links","22","","","object","f","150","true"
"null","<div style=""font-size:60px;"">+</div>","null","html-keyboard-response","182","243144","0.0-6.0-0.88","MIGE","4","f","links","22","","fixation","","","",""
"2093","img/150_120.png","74","image-keyboard-response","183","245251","0.0-6.0-1.88","MIGE","4","f","links","22","","","object","f","150","false"
"null","<div style=""font-size:60px;"">+</div>","null","html-keyboard-response","184","245566","0.0-6.0-0.89","MIGE","4","f","links","22","","fixation","","","",""
"1652","img/90_240.png","70","image-keyboard-response","185","247231","0.0-6.0-1.89","MIGE","4","f","links","22","","","object","f","90","true"
"null","<div style=""font-size:60px;"">+</div>","null","html-keyboard-response","186","247599","0.0-6.0-0.90","MIGE","4","f","links","22","","fixation","","","",""
"1835","img/L120_180.png","74","image-keyboard-response","187","249449","0.0-6.0-1.90","MIGE","4","f","links","22","","","object","j","120","true"
"null","<div style=""font-size:60px;"">+</div>","null","html-keyboard-response","188","249771","0.0-6.0-0.91","MIGE","4","f","links","22","","fixation","","","",""
"788","img/30_240.png","70","image-keyboard-response","189","250572","0.0-6.0-1.91","MIGE","4","f","links","22","","","object","f","30","true"
"null","<div style=""font-size:60px;"">+</div>","null","html-keyboard-response","190","251083","0.0-6.0-0.92","MIGE","4","f","links","22","","fixation","","","",""
"554","img/0_60.png","74","image-keyboard-response","191","251651","0.0-6.0-1.92","MIGE","4","f","links","22","","","object","j","0","true"
"null","<div style=""font-size:60px;"">+</div>","null","html-keyboard-response","192","252005","0.0-6.0-0.93","MIGE","4","f","links","22","","fixation","","","",""
"2437","img/30_180.png","70","image-keyboard-response","193","254459","0.0-6.0-1.93","MIGE","4","f","links","22","","","object","f","30","true"
"null","<div style=""font-size:60px;"">+</div>","null","html-keyboard-response","194","254939","0.0-6.0-0.94","MIGE","4","f","links","22","","fixation","","","",""
"1987","img/90_120.png","74","image-keyboard-response","195","256943","0.0-6.0-1.94","MIGE","4","f","links","22","","","object","j","90","true"
"null","<div style=""font-size:60px;"">+</div>","null","html-keyboard-response","196","257344","0.0-6.0-0.95","MIGE","4","f","links","22","","fixation","","","",""
"887","img/30_300.png","70","image-keyboard-response","197","258246","0.0-6.0-1.95","MIGE","4","f","links","22","","","object","f","30","true"
"null","<div style=""font-size:60px;"">+</div>","null","html-keyboard-response","198","258564","0.0-6.0-0.96","MIGE","4","f","links","22","","fixation","","","",""
"1688","img/60_90.png","74","image-keyboard-response","199","260260","0.0-6.0-1.96","MIGE","4","f","links","22","","","object","j","60","true"
"null","<div style=""font-size:60px;"">+</div>","null","html-keyboard-response","200","260580","0.0-6.0-0.97","MIGE","4","f","links","22","","fixation","","","",""
"598","img/0_300.png","70","image-keyboard-response","201","261191","0.0-6.0-1.97","MIGE","4","f","links","22","","","object","f","0","true"
"null","<div style=""font-size:60px;"">+</div>","null","html-keyboard-response","202","261511","0.0-6.0-0.98","MIGE","4","f","links","22","","fixation","","","",""
"766","img/90_60.png","70","image-keyboard-response","203","262285","0.0-6.0-1.98","MIGE","4","f","links","22","","","object","f","90","true"
"null","<div style=""font-size:60px;"">+</div>","null","html-keyboard-response","204","262697","0.0-6.0-0.99","MIGE","4","f","links","22","","fixation","","","",""
"619","img/0_30.png","74","image-keyboard-response","205","263330","0.0-6.0-1.99","MIGE","4","f","links","22","","","object","j","0","true"
"null","<div style=""font-size:60px;"">+</div>","null","html-keyboard-response","206","263839","0.0-6.0-0.100","MIGE","4","f","links","22","","fixation","","","",""
"794","img/90_30.png","70","image-keyboard-response","207","264646","0.0-6.0-1.100","MIGE","4","f","links","22","","","object","f","90","true"
"null","<div style=""font-size:60px;"">+</div>","null","html-keyboard-response","208","265120","0.0-6.0-0.101","MIGE","4","f","links","22","","fixation","","","",""
"955","img/60_210.png","70","image-keyboard-response","209","266086","0.0-6.0-1.101","MIGE","4","f","links","22","","","object","f","60","true"
"null","<div style=""font-size:60px;"">+</div>","null","html-keyboard-response","210","266413","0.0-6.0-0.102","MIGE","4","f","links","22","","fixation","","","",""
"849","img/30_120.png","74","image-keyboard-response","211","267277","0.0-6.0-1.102","MIGE","4","f","links","22","","","object","j","30","true"
"null","<div style=""font-size:60px;"">+</div>","null","html-keyboard-response","212","267741","0.0-6.0-0.103","MIGE","4","f","links","22","","fixation","","","",""
"996","img/120_180.png","70","image-keyboard-response","213","268742","0.0-6.0-1.103","MIGE","4","f","links","22","","","object","f","120","true"
"null","<div style=""font-size:60px;"">+</div>","null","html-keyboard-response","214","269195","0.0-6.0-0.104","MIGE","4","f","links","22","","fixation","","","",""
"1200","img/L60_180.png","74","image-keyboard-response","215","270408","0.0-6.0-1.104","MIGE","4","f","links","22","","","object","j","60","true"
"null","<div style=""font-size:60px;"">+</div>","null","html-keyboard-response","216","270866","0.0-6.0-0.105","MIGE","4","f","links","22","","fixation","","","",""
"600","img/0_240.png","70","image-keyboard-response","217","271477","0.0-6.0-1.105","MIGE","4","f","links","22","","","object","f","0","true"
"null","<div style=""font-size:60px;"">+</div>","null","html-keyboard-response","218","271927","0.0-6.0-0.106","MIGE","4","f","links","22","","fixation","","","",""
"562","img/0_30.png","74","image-keyboard-response","219","272498","0.0-6.0-1.106","MIGE","4","f","links","22","","","object","j","0","true"
"null","<div style=""font-size:60px;"">+</div>","null","html-keyboard-response","220","273014","0.0-6.0-0.107","MIGE","4","f","links","22","","fixation","","","",""
"1321","img/90_120.png","74","image-keyboard-response","221","274343","0.0-6.0-1.107","MIGE","4","f","links","22","","","object","j","90","true"
"null","<div style=""font-size:60px;"">+</div>","null","html-keyboard-response","222","274655","0.0-6.0-0.108","MIGE","4","f","links","22","","fixation","","","",""
"1075","img/30_60.png","74","image-keyboard-response","223","275740","0.0-6.0-1.108","MIGE","4","f","links","22","","","object","j","30","true"
"null","<div style=""font-size:60px;"">+</div>","null","html-keyboard-response","224","276107","0.0-6.0-0.109","MIGE","4","f","links","22","","fixation","","","",""
"849","img/L90_180.png","74","image-keyboard-response","225","276965","0.0-6.0-1.109","MIGE","4","f","links","22","","","object","j","90","true"
"null","<div style=""font-size:60px;"">+</div>","null","html-keyboard-response","226","277398","0.0-6.0-0.110","MIGE","4","f","links","22","","fixation","","","",""
"1021","img/120_330.png","70","image-keyboard-response","227","278429","0.0-6.0-1.110","MIGE","4","f","links","22","","","object","j","120","false"
"null","<div style=""font-size:60px;"">+</div>","null","html-keyboard-response","228","278835","0.0-6.0-0.111","MIGE","4","f","links","22","","fixation","","","",""
"703","img/90_330.png","74","image-keyboard-response","229","279551","0.0-6.0-1.111","MIGE","4","f","links","22","","","object","j","90","true"
"null","<div style=""font-size:60px;"">+</div>","null","html-keyboard-response","230","280070","0.0-6.0-0.112","MIGE","4","f","links","22","","fixation","","","",""
"1405","img/L30_180.png","74","image-keyboard-response","231","281489","0.0-6.0-1.112","MIGE","4","f","links","22","","","object","j","30","true"
"null","<div style=""font-size:60px;"">+</div>","null","html-keyboard-response","232","281944","0.0-6.0-0.113","MIGE","4","f","links","22","","fixation","","","",""
"705","img/0_300.png","70","image-keyboard-response","233","282658","0.0-6.0-1.113","MIGE","4","f","links","22","","","object","f","0","true"
"null","<div style=""font-size:60px;"">+</div>","null","html-keyboard-response","234","283178","0.0-6.0-0.114","MIGE","4","f","links","22","","fixation","","","",""
"1355","img/120_150.png","74","image-keyboard-response","235","284547","0.0-6.0-1.114","MIGE","4","f","links","22","","","object","j","120","true"
"null","<div style=""font-size:60px;"">+</div>","null","html-keyboard-response","236","284958","0.0-6.0-0.115","MIGE","4","f","links","22","","fixation","","","",""
"1097","img/150_180.png","70","image-keyboard-response","237","286066","0.0-6.0-1.115","MIGE","4","f","links","22","","","object","f","150","true"
"null","<div style=""font-size:60px;"">+</div>","null","html-keyboard-response","238","286382","0.0-6.0-0.116","MIGE","4","f","links","22","","fixation","","","",""
"2375","img/150_120.png","74","image-keyboard-response","239","288768","0.0-6.0-1.116","MIGE","4","f","links","22","","","object","f","150","false"
"null","<div style=""font-size:60px;"">+</div>","null","html-keyboard-response","240","289077","0.0-6.0-0.117","MIGE","4","f","links","22","","fixation","","","",""
"815","img/60_210.png","74","image-keyboard-response","241","289902","0.0-6.0-1.117","MIGE","4","f","links","22","","","object","f","60","false"
"null","<div style=""font-size:60px;"">+</div>","null","html-keyboard-response","242","290328","0.0-6.0-0.118","MIGE","4","f","links","22","","fixation","","","",""
"2306","img/30_240.png","70","image-keyboard-response","243","292645","0.0-6.0-1.118","MIGE","4","f","links","22","","","object","f","30","true"
"null","<div style=""font-size:60px;"">+</div>","null","html-keyboard-response","244","292970","0.0-6.0-0.119","MIGE","4","f","links","22","","fixation","","","",""
"1098","img/30_180.png","70","image-keyboard-response","245","294077","0.0-6.0-1.119","MIGE","4","f","links","22","","","object","f","30","true"
"null","<div style=""font-size:60px;"">+</div>","null","html-keyboard-response","246","294391","0.0-6.0-0.120","MIGE","4","f","links","22","","fixation","","","",""
"784","img/0_120.png","74","image-keyboard-response","247","295188","0.0-6.0-1.120","MIGE","4","f","links","22","","","object","j","0","true"
"null","<div style=""font-size:60px;"">+</div>","null","html-keyboard-response","248","295647","0.0-6.0-0.121","MIGE","4","f","links","22","","fixation","","","",""
"892","img/30_270.png","70","image-keyboard-response","249","296551","0.0-6.0-1.121","MIGE","4","f","links","22","","","object","f","30","true"
"null","<div style=""font-size:60px;"">+</div>","null","html-keyboard-response","250","296914","0.0-6.0-0.122","MIGE","4","f","links","22","","fixation","","","",""
"1507","img/90_60.png","70","image-keyboard-response","251","298430","0.0-6.0-1.122","MIGE","4","f","links","22","","","object","f","90","true"
"null","<div style=""font-size:60px;"">+</div>","null","html-keyboard-response","252","298762","0.0-6.0-0.123","MIGE","4","f","links","22","","fixation","","","",""
"805","img/30_90.png","74","image-keyboard-response","253","299577","0.0-6.0-1.123","MIGE","4","f","links","22","","","object","j","30","true"
"null","<div style=""font-size:60px;"">+</div>","null","html-keyboard-response","254","299935","0.0-6.0-0.124","MIGE","4","f","links","22","","fixation","","","",""
"633","img/0_150.png","74","image-keyboard-response","255","300579","0.0-6.0-1.124","MIGE","4","f","links","22","","","object","j","0","true"
"null","<div style=""font-size:60px;"">+</div>","null","html-keyboard-response","256","300997","0.0-6.0-0.125","MIGE","4","f","links","22","","fixation","","","",""
"1048","img/150_300.png","74","image-keyboard-response","257","302064","0.0-6.0-1.125","MIGE","4","f","links","22","","","object","j","150","true"
"null","<div style=""font-size:60px;"">+</div>","null","html-keyboard-response","258","302369","0.0-6.0-0.126","MIGE","4","f","links","22","","fixation","","","",""
"1247","img/30_300.png","70","image-keyboard-response","259","303625","0.0-6.0-1.126","MIGE","4","f","links","22","","","object","f","30","true"
"null","<div style=""font-size:60px;"">+</div>","null","html-keyboard-response","260","303993","0.0-6.0-0.127","MIGE","4","f","links","22","","fixation","","","",""
"771","img/60_30.png","70","image-keyboard-response","261","304776","0.0-6.0-1.127","MIGE","4","f","links","22","","","object","f","60","true"
"null","<div style=""font-size:60px;"">+</div>","null","html-keyboard-response","262","305243","0.0-6.0-0.128","MIGE","4","f","links","22","","fixation","","","",""
"1148","img/30_120.png","74","image-keyboard-response","263","306395","0.0-6.0-1.128","MIGE","4","f","links","22","","","object","j","30","true"
"null","<div style=""font-size:60px;"">+</div>","null","html-keyboard-response","264","306758","0.0-6.0-0.129","MIGE","4","f","links","22","","fixation","","","",""
"922","img/120_270.png","70","image-keyboard-response","265","307689","0.0-6.0-1.129","MIGE","4","f","links","22","","","object","j","120","false"
"null","<div style=""font-size:60px;"">+</div>","null","html-keyboard-response","266","308096","0.0-6.0-0.130","MIGE","4","f","links","22","","fixation","","","",""
"1362","img/90_30.png","70","image-keyboard-response","267","309468","0.0-6.0-1.130","MIGE","4","f","links","22","","","object","f","90","true"
"null","<div style=""font-size:60px;"">+</div>","null","html-keyboard-response","268","309923","0.0-6.0-0.131","MIGE","4","f","links","22","","fixation","","","",""
"1600","img/150_60.png","70","image-keyboard-response","269","311536","0.0-6.0-1.131","MIGE","4","f","links","22","","","object","f","150","true"
"null","<div style=""font-size:60px;"">+</div>","null","html-keyboard-response","270","311853","0.0-6.0-0.132","MIGE","4","f","links","22","","fixation","","","",""
"2269","img/60_180.png","70","image-keyboard-response","271","314136","0.0-6.0-1.132","MIGE","4","f","links","22","","","object","f","60","true"
"null","<div style=""font-size:60px;"">+</div>","null","html-keyboard-response","272","314650","0.0-6.0-0.133","MIGE","4","f","links","22","","fixation","","","",""
"720","img/0_270.png","70","image-keyboard-response","273","315383","0.0-6.0-1.133","MIGE","4","f","links","22","","","object","f","0","true"
"null","<div style=""font-size:60px;"">+</div>","null","html-keyboard-response","274","315759","0.0-6.0-0.134","MIGE","4","f","links","22","","fixation","","","",""
"1885","img/150_90.png","70","image-keyboard-response","275","317655","0.0-6.0-1.134","MIGE","4","f","links","22","","","object","f","150","true"
"null","<div style=""font-size:60px;"">+</div>","null","html-keyboard-response","276","318123","0.0-6.0-0.135","MIGE","4","f","links","22","","fixation","","","",""
"627","img/0_90.png","74","image-keyboard-response","277","318771","0.0-6.0-1.135","MIGE","4","f","links","22","","","object","j","0","true"
"null","<div style=""font-size:60px;"">+</div>","null","html-keyboard-response","278","319187","0.0-6.0-0.136","MIGE","4","f","links","22","","fixation","","","",""
"1134","img/90_180.png","70","image-keyboard-response","279","320334","0.0-6.0-1.136","MIGE","4","f","links","22","","","object","f","90","true"
"null","<div style=""font-size:60px;"">+</div>","null","html-keyboard-response","280","320749","0.0-6.0-0.137","MIGE","4","f","links","22","","fixation","","","",""
"1934","img/90_300.png","70","image-keyboard-response","281","322696","0.0-6.0-1.137","MIGE","4","f","links","22","","","object","j","90","false"
"null","<div style=""font-size:60px;"">+</div>","null","html-keyboard-response","282","323155","0.0-6.0-0.138","MIGE","4","f","links","22","","fixation","","","",""
"1192","img/120_210.png","70","image-keyboard-response","283","324361","0.0-6.0-1.138","MIGE","4","f","links","22","","","object","f","120","true"
"null","<div style=""font-size:60px;"">+</div>","null","html-keyboard-response","284","324670","0.0-6.0-0.139","MIGE","4","f","links","22","","fixation","","","",""
"732","img/0_330.png","70","image-keyboard-response","285","325408","0.0-6.0-1.139","MIGE","4","f","links","22","","","object","f","0","true"
"null","<div style=""font-size:60px;"">+</div>","null","html-keyboard-response","286","325935","0.0-6.0-0.140","MIGE","4","f","links","22","","fixation","","","",""
"1427","img/60_150.png","74","image-keyboard-response","287","327377","0.0-6.0-1.140","MIGE","4","f","links","22","","","object","j","60","true"
"null","<div style=""font-size:60px;"">+</div>","null","html-keyboard-response","288","327686","0.0-6.0-0.141","MIGE","4","f","links","22","","fixation","","","",""
"1328","img/120_180.png","70","image-keyboard-response","289","329018","0.0-6.0-1.141","MIGE","4","f","links","22","","","object","f","120","true"
"null","<div style=""font-size:60px;"">+</div>","null","html-keyboard-response","290","329328","0.0-6.0-0.142","MIGE","4","f","links","22","","fixation","","","",""
"827","img/120_30.png","70","image-keyboard-response","291","330169","0.0-6.0-1.142","MIGE","4","f","links","22","","","object","f","120","true"
"null","<div style=""font-size:60px;"">+</div>","null","html-keyboard-response","292","330530","0.0-6.0-0.143","MIGE","4","f","links","22","","fixation","","","",""
"1594","img/90_240.png","70","image-keyboard-response","293","332135","0.0-6.0-1.143","MIGE","4","f","links","22","","","object","f","90","true"
"null","<div style=""font-size:60px;"">+</div>","null","html-keyboard-response","294","332563","0.0-6.0-0.144","MIGE","4","f","links","22","","fixation","","","",""
"1910","img/120_90.png","70","image-keyboard-response","295","334488","0.0-6.0-1.144","MIGE","4","f","links","22","","","object","f","120","true"
"null","<div style=""font-size:60px;"">+</div>","null","html-keyboard-response","296","334841","0.0-6.0-0.145","MIGE","4","f","links","22","","fixation","","","",""
"835","img/0_210.png","70","image-keyboard-response","297","335689","0.0-6.0-1.145","MIGE","4","f","links","22","","","object","f","0","true"
"null","<div style=""font-size:60px;"">+</div>","null","html-keyboard-response","298","336153","0.0-6.0-0.146","MIGE","4","f","links","22","","fixation","","","",""
"1167","img/90_150.png","74","image-keyboard-response","299","337334","0.0-6.0-1.146","MIGE","4","f","links","22","","","object","j","90","true"
"null","<div style=""font-size:60px;"">+</div>","null","html-keyboard-response","300","337845","0.0-6.0-0.147","MIGE","4","f","links","22","","fixation","","","",""
"1782","img/150_240.png","70","image-keyboard-response","301","339640","0.0-6.0-1.147","MIGE","4","f","links","22","","","object","j","150","false"
"null","<div style=""font-size:60px;"">+</div>","null","html-keyboard-response","302","339970","0.0-6.0-0.148","MIGE","4","f","links","22","","fixation","","","",""
"613","img/60_330.png","74","image-keyboard-response","303","340597","0.0-6.0-1.148","MIGE","4","f","links","22","","","object","j","60","true"
"null","<div style=""font-size:60px;"">+</div>","null","html-keyboard-response","304","341109","0.0-6.0-0.149","MIGE","4","f","links","22","","fixation","","","",""
"1847","img/L120_180.png","74","image-keyboard-response","305","342971","0.0-6.0-1.149","MIGE","4","f","links","22","","","object","j","120","true"
"null","<div style=""font-size:60px;"">+</div>","null","html-keyboard-response","306","343484","0.0-6.0-0.150","MIGE","4","f","links","22","","fixation","","","",""
"1599","img/L150_180.png","74","image-keyboard-response","307","345096","0.0-6.0-1.150","MIGE","4","f","links","22","","","object","j","150","true"
"null","<div style=""font-size:60px;"">+</div>","null","html-keyboard-response","308","345577","0.0-6.0-0.151","MIGE","4","f","links","22","","fixation","","","",""
"630","img/0_60.png","74","image-keyboard-response","309","346222","0.0-6.0-1.151","MIGE","4","f","links","22","","","object","j","0","true"
"null","<div style=""font-size:60px;"">+</div>","null","html-keyboard-response","310","346627","0.0-6.0-0.152","MIGE","4","f","links","22","","fixation","","","",""
"2594","img/60_90.png","74","image-keyboard-response","311","349237","0.0-6.0-1.152","MIGE","4","f","links","22","","","object","j","60","true"
"null","<div style=""font-size:60px;"">+</div>","null","html-keyboard-response","312","349705","0.0-6.0-0.153","MIGE","4","f","links","22","","fixation","","","",""
"1311","img/90_210.png","70","image-keyboard-response","313","351025","0.0-6.0-1.153","MIGE","4","f","links","22","","","object","f","90","true"
"null","<div style=""font-size:60px;"">+</div>","null","html-keyboard-response","314","351439","0.0-6.0-0.154","MIGE","4","f","links","22","","fixation","","","",""
"1428","img/150_270.png","74","image-keyboard-response","315","352880","0.0-6.0-1.154","MIGE","4","f","links","22","","","object","j","150","true"
"null","<div style=""font-size:60px;"">+</div>","null","html-keyboard-response","316","353347","0.0-6.0-0.155","MIGE","4","f","links","22","","fixation","","","",""
"1339","img/60_270.png","70","image-keyboard-response","317","354702","0.0-6.0-1.155","MIGE","4","f","links","22","","","object","f","60","true"
"null","<div style=""font-size:60px;"">+</div>","null","html-keyboard-response","318","355065","0.0-6.0-0.156","MIGE","4","f","links","22","","fixation","","","",""
"2056","img/90_120.png","74","image-keyboard-response","319","357134","0.0-6.0-1.156","MIGE","4","f","links","22","","","object","j","90","true"
"null","<div style=""font-size:60px;"">+</div>","null","html-keyboard-response","320","357486","0.0-6.0-0.157","MIGE","4","f","links","22","","fixation","","","",""
"1154","img/150_300.png","74","image-keyboard-response","321","358653","0.0-6.0-1.157","MIGE","4","f","links","22","","","object","j","150","true"
"null","<div style=""font-size:60px;"">+</div>","null","html-keyboard-response","322","358971","0.0-6.0-0.158","MIGE","4","f","links","22","","fixation","","","",""
"1428","img/90_180.png","70","image-keyboard-response","323","360408","0.0-6.0-1.158","MIGE","4","f","links","22","","","object","f","90","true"
"null","<div style=""font-size:60px;"">+</div>","null","html-keyboard-response","324","360815","0.0-6.0-0.159","MIGE","4","f","links","22","","fixation","","","",""
"null","img/120_210.png","null","image-keyboard-response","325","364177","0.0-6.0-1.159","MIGE","4","f","links","22","","","object","f","120","false"
"null","<div style=""font-size:60px;"">+</div>","null","html-keyboard-response","326","364848","0.0-6.0-0.160","MIGE","4","f","links","22","","fixation","","","",""
"926","img/0_30.png","74","image-keyboard-response","327","365787","0.0-6.0-1.160","MIGE","4","f","links","22","","","object","j","0","true"
"null","<div style=""font-size:60px;"">+</div>","null","html-keyboard-response","328","366238","0.0-6.0-0.161","MIGE","4","f","links","22","","fixation","","","",""
"660","img/0_210.png","70","image-keyboard-response","329","366908","0.0-6.0-1.161","MIGE","4","f","links","22","","","object","f","0","true"
"null","<div style=""font-size:60px;"">+</div>","null","html-keyboard-response","330","367222","0.0-6.0-0.162","MIGE","4","f","links","22","","fixation","","","",""
"658","img/0_60.png","74","image-keyboard-response","331","367889","0.0-6.0-1.162","MIGE","4","f","links","22","","","object","j","0","true"
"null","<div style=""font-size:60px;"">+</div>","null","html-keyboard-response","332","368269","0.0-6.0-0.163","MIGE","4","f","links","22","","fixation","","","",""
"1248","img/L90_180.png","74","image-keyboard-response","333","369532","0.0-6.0-1.163","MIGE","4","f","links","22","","","object","j","90","true"
"null","<div style=""font-size:60px;"">+</div>","null","html-keyboard-response","334","369850","0.0-6.0-0.164","MIGE","4","f","links","22","","fixation","","","",""
"870","img/120_330.png","74","image-keyboard-response","335","370733","0.0-6.0-1.164","MIGE","4","f","links","22","","","object","j","120","true"
"null","<div style=""font-size:60px;"">+</div>","null","html-keyboard-response","336","371240","0.0-6.0-0.165","MIGE","4","f","links","22","","fixation","","","",""
"1124","img/30_240.png","70","image-keyboard-response","337","372378","0.0-6.0-1.165","MIGE","4","f","links","22","","","object","f","30","true"
"null","<div style=""font-size:60px;"">+</div>","null","html-keyboard-response","338","372693","0.0-6.0-0.166","MIGE","4","f","links","22","","fixation","","","",""
"689","img/0_150.png","74","image-keyboard-response","339","373391","0.0-6.0-1.166","MIGE","4","f","links","22","","","object","j","0","true"
"null","<div style=""font-size:60px;"">+</div>","null","html-keyboard-response","340","373757","0.0-6.0-0.167","MIGE","4","f","links","22","","fixation","","","",""
"1581","img/150_240.png","74","image-keyboard-response","341","375348","0.0-6.0-1.167","MIGE","4","f","links","22","","","object","j","150","true"
"null","<div style=""font-size:60px;"">+</div>","null","html-keyboard-response","342","375772","0.0-6.0-0.168","MIGE","4","f","links","22","","fixation","","","",""
"1992","img/150_120.png","70","image-keyboard-response","343","377828","0.0-6.0-1.168","MIGE","4","f","links","22","","","object","f","150","true"
"null","<div style=""font-size:60px;"">+</div>","null","html-keyboard-response","344","378144","0.0-6.0-0.169","MIGE","4","f","links","22","","fixation","","","",""
"2515","img/30_180.png","70","image-keyboard-response","345","380672","0.0-6.0-1.169","MIGE","4","f","links","22","","","object","f","30","true"
"null","<div style=""font-size:60px;"">+</div>","null","html-keyboard-response","346","381001","0.0-6.0-0.170","MIGE","4","f","links","22","","fixation","","","",""
"1605","img/120_90.png","70","image-keyboard-response","347","382616","0.0-6.0-1.170","MIGE","4","f","links","22","","","object","f","120","true"
"null","<div style=""font-size:60px;"">+</div>","null","html-keyboard-response","348","382992","0.0-6.0-0.171","MIGE","4","f","links","22","","fixation","","","",""
"1302","img/90_150.png","74","image-keyboard-response","349","384303","0.0-6.0-1.171","MIGE","4","f","links","22","","","object","j","90","true"
"null","<div style=""font-size:60px;"">+</div>","null","html-keyboard-response","350","384615","0.0-6.0-0.172","MIGE","4","f","links","22","","fixation","","","",""
"1352","img/120_150.png","74","image-keyboard-response","351","385980","0.0-6.0-1.172","MIGE","4","f","links","22","","","object","j","120","true"
"null","<div style=""font-size:60px;"">+</div>","null","html-keyboard-response","352","386490","0.0-6.0-0.173","MIGE","4","f","links","22","","fixation","","","",""
"838","img/90_30.png","70","image-keyboard-response","353","387341","0.0-6.0-1.173","MIGE","4","f","links","22","","","object","f","90","true"
"null","<div style=""font-size:60px;"">+</div>","null","html-keyboard-response","354","387710","0.0-6.0-0.174","MIGE","4","f","links","22","","fixation","","","",""
"1815","img/60_210.png","70","image-keyboard-response","355","389534","0.0-6.0-1.174","MIGE","4","f","links","22","","","object","f","60","true"
"null","<div style=""font-size:60px;"">+</div>","null","html-keyboard-response","356","389971","0.0-6.0-0.175","MIGE","4","f","links","22","","fixation","","","",""
"1465","img/L150_180.png","74","image-keyboard-response","357","391447","0.0-6.0-1.175","MIGE","4","f","links","22","","","object","j","150","true"
"null","<div style=""font-size:60px;"">+</div>","null","html-keyboard-response","358","391824","0.0-6.0-0.176","MIGE","4","f","links","22","","fixation","","","",""
"705","img/0_270.png","70","image-keyboard-response","359","392538","0.0-6.0-1.176","MIGE","4","f","links","22","","","object","f","0","true"
"null","<div style=""font-size:60px;"">+</div>","null","html-keyboard-response","360","392844","0.0-6.0-0.177","MIGE","4","f","links","22","","fixation","","","",""
"931","img/L30_180.png","74","image-keyboard-response","361","393788","0.0-6.0-1.177","MIGE","4","f","links","22","","","object","j","30","true"
"null","<div style=""font-size:60px;"">+</div>","null","html-keyboard-response","362","394203","0.0-6.0-0.178","MIGE","4","f","links","22","","fixation","","","",""
"1338","img/30_90.png","74","image-keyboard-response","363","395554","0.0-6.0-1.178","MIGE","4","f","links","22","","","object","j","30","true"
"null","<div style=""font-size:60px;"">+</div>","null","html-keyboard-response","364","396009","0.0-6.0-0.179","MIGE","4","f","links","22","","fixation","","","",""
"2259","img/90_240.png","70","image-keyboard-response","365","398278","0.0-6.0-1.179","MIGE","4","f","links","22","","","object","f","90","true"
"null","<div style=""font-size:60px;"">+</div>","null","html-keyboard-response","366","398806","0.0-6.0-0.180","MIGE","4","f","links","22","","fixation","","","",""
"1334","img/150_60.png","70","image-keyboard-response","367","400155","0.0-6.0-1.180","MIGE","4","f","links","22","","","object","f","150","true"
"null","<div style=""font-size:60px;"">+</div>","null","html-keyboard-response","368","400572","0.0-6.0-0.181","MIGE","4","f","links","22","","fixation","","","",""
"897","img/30_120.png","74","image-keyboard-response","369","401482","0.0-6.0-1.181","MIGE","4","f","links","22","","","object","j","30","true"
"null","<div style=""font-size:60px;"">+</div>","null","html-keyboard-response","370","401901","0.0-6.0-0.182","MIGE","4","f","links","22","","fixation","","","",""
"884","img/90_330.png","74","image-keyboard-response","371","402798","0.0-6.0-1.182","MIGE","4","f","links","22","","","object","j","90","true"
"null","<div style=""font-size:60px;"">+</div>","null","html-keyboard-response","372","403104","0.0-6.0-0.183","MIGE","4","f","links","22","","fixation","","","",""
"976","img/30_300.png","70","image-keyboard-response","373","404092","0.0-6.0-1.183","MIGE","4","f","links","22","","","object","f","30","true"
"null","<div style=""font-size:60px;"">+</div>","null","html-keyboard-response","374","404463","0.0-6.0-0.184","MIGE","4","f","links","22","","fixation","","","",""
"1858","img/90_210.png","70","image-keyboard-response","375","406330","0.0-6.0-1.184","MIGE","4","f","links","22","","","object","f","90","true"
"null","<div style=""font-size:60px;"">+</div>","null","html-keyboard-response","376","406792","0.0-6.0-0.185","MIGE","4","f","links","22","","fixation","","","",""
"1538","img/120_180.png","70","image-keyboard-response","377","408346","0.0-6.0-1.185","MIGE","4","f","links","22","","","object","f","120","true"
"null","<div style=""font-size:60px;"">+</div>","null","html-keyboard-response","378","408698","0.0-6.0-0.186","MIGE","4","f","links","22","","fixation","","","",""
"1728","img/60_150.png","74","image-keyboard-response","379","410438","0.0-6.0-1.186","MIGE","4","f","links","22","","","object","j","60","true"
"null","<div style=""font-size:60px;"">+</div>","null","html-keyboard-response","380","410854","0.0-6.0-0.187","MIGE","4","f","links","22","","fixation","","","",""
"1599","img/60_90.png","74","image-keyboard-response","381","412462","0.0-6.0-1.187","MIGE","4","f","links","22","","","object","j","60","true"
"null","<div style=""font-size:60px;"">+</div>","null","html-keyboard-response","382","412967","0.0-6.0-0.188","MIGE","4","f","links","22","","fixation","","","",""
"1575","img/L60_180.png","74","image-keyboard-response","383","414555","0.0-6.0-1.188","MIGE","4","f","links","22","","","object","j","60","true"
"null","<div style=""font-size:60px;"">+</div>","null","html-keyboard-response","384","415065","0.0-6.0-0.189","MIGE","4","f","links","22","","fixation","","","",""
"1006","img/30_60.png","74","image-keyboard-response","385","416083","0.0-6.0-1.189","MIGE","4","f","links","22","","","object","j","30","true"
"null","<div style=""font-size:60px;"">+</div>","null","html-keyboard-response","386","416549","0.0-6.0-0.190","MIGE","4","f","links","22","","fixation","","","",""
"693","img/0_330.png","70","image-keyboard-response","387","417256","0.0-6.0-1.190","MIGE","4","f","links","22","","","object","f","0","true"
"null","<div style=""font-size:60px;"">+</div>","null","html-keyboard-response","388","417767","0.0-6.0-0.191","MIGE","4","f","links","22","","fixation","","","",""
"2366","img/150_270.png","74","image-keyboard-response","389","420140","0.0-6.0-1.191","MIGE","4","f","links","22","","","object","j","150","true"
"null","<div style=""font-size:60px;"">+</div>","null","html-keyboard-response","390","420464","0.0-6.0-0.192","MIGE","4","f","links","22","","fixation","","","",""
"1550","img/60_330.png","74","image-keyboard-response","391","422025","0.0-6.0-1.192","MIGE","4","f","links","22","","","object","j","60","true"
"null","<div style=""font-size:60px;"">+</div>","null","html-keyboard-response","392","422486","0.0-6.0-0.193","MIGE","4","f","links","22","","fixation","","","",""
"809","img/120_30.png","70","image-keyboard-response","393","423308","0.0-6.0-1.193","MIGE","4","f","links","22","","","object","f","120","true"
"null","<div style=""font-size:60px;"">+</div>","null","html-keyboard-response","394","423784","0.0-6.0-0.194","MIGE","4","f","links","22","","fixation","","","",""
"819","img/30_270.png","70","image-keyboard-response","395","424611","0.0-6.0-1.194","MIGE","4","f","links","22","","","object","f","30","true"
"null","<div style=""font-size:60px;"">+</div>","null","html-keyboard-response","396","425127","0.0-6.0-0.195","MIGE","4","f","links","22","","fixation","","","",""
"900","img/60_30.png","70","image-keyboard-response","397","426041","0.0-6.0-1.195","MIGE","4","f","links","22","","","object","f","60","true"
"null","<div style=""font-size:60px;"">+</div>","null","html-keyboard-response","398","426456","0.0-6.0-0.196","MIGE","4","f","links","22","","fixation","","","",""
"1759","img/L120_180.png","74","image-keyboard-response","399","428225","0.0-6.0-1.196","MIGE","4","f","links","22","","","object","j","120","true"
"null","<div style=""font-size:60px;"">+</div>","null","html-keyboard-response","400","428644","0.0-6.0-0.197","MIGE","4","f","links","22","","fixation","","","",""
"908","img/90_60.png","70","image-keyboard-response","401","429563","0.0-6.0-1.197","MIGE","4","f","links","22","","","object","f","90","true"
"null","<div style=""font-size:60px;"">+</div>","null","html-keyboard-response","402","429923","0.0-6.0-0.198","MIGE","4","f","links","22","","fixation","","","",""
"1516","img/60_180.png","70","image-keyboard-response","403","431452","0.0-6.0-1.198","MIGE","4","f","links","22","","","object","f","60","true"
"null","<div style=""font-size:60px;"">+</div>","null","html-keyboard-response","404","431973","0.0-6.0-0.199","MIGE","4","f","links","22","","fixation","","","",""
"1109","img/90_300.png","74","image-keyboard-response","405","433095","0.0-6.0-1.199","MIGE","4","f","links","22","","","object","j","90","true"
"null","<div style=""font-size:60px;"">+</div>","null","html-keyboard-response","406","433503","0.0-6.0-0.200","MIGE","4","f","links","22","","fixation","","","",""
"2407","img/120_270.png","74","image-keyboard-response","407","435923","0.0-6.0-1.200","MIGE","4","f","links","22","","","object","j","120","true"
"null","<div style=""font-size:60px;"">+</div>","null","html-keyboard-response","408","436442","0.0-6.0-0.201","MIGE","4","f","links","22","","fixation","","","",""
"622","img/0_240.png","70","image-keyboard-response","409","437078","0.0-6.0-1.201","MIGE","4","f","links","22","","","object","f","0","true"
"null","<div style=""font-size:60px;"">+</div>","null","html-keyboard-response","410","437538","0.0-6.0-0.202","MIGE","4","f","links","22","","fixation","","","",""
"540","img/0_120.png","74","image-keyboard-response","411","438091","0.0-6.0-1.202","MIGE","4","f","links","22","","","object","j","0","true"
"null","<div style=""font-size:60px;"">+</div>","null","html-keyboard-response","412","438395","0.0-6.0-0.203","MIGE","4","f","links","22","","fixation","","","",""
"1593","img/150_90.png","70","image-keyboard-response","413","440002","0.0-6.0-1.203","MIGE","4","f","links","22","","","object","f","150","true"
"null","<div style=""font-size:60px;"">+</div>","null","html-keyboard-response","414","440317","0.0-6.0-0.204","MIGE","4","f","links","22","","fixation","","","",""
"2705","img/150_180.png","74","image-keyboard-response","415","443035","0.0-6.0-1.204","MIGE","4","f","links","22","","","object","f","150","false"
"null","<div style=""font-size:60px;"">+</div>","null","html-keyboard-response","416","443499","0.0-6.0-0.205","MIGE","4","f","links","22","","fixation","","","",""
"1134","img/0_300.png","70","image-keyboard-response","417","444646","0.0-6.0-1.205","MIGE","4","f","links","22","","","object","f","0","true"
"null","<div style=""font-size:60px;"">+</div>","null","html-keyboard-response","418","445156","0.0-6.0-0.206","MIGE","4","f","links","22","","fixation","","","",""
"538","img/0_90.png","74","image-keyboard-response","419","445707","0.0-6.0-1.206","MIGE","4","f","links","22","","","object","j","0","true"
"null","<div style=""font-size:60px;"">+</div>","null","html-keyboard-response","420","446170","0.0-6.0-0.207","MIGE","4","f","links","22","","fixation","","","",""
"1083","img/60_270.png","70","image-keyboard-response","421","447270","0.0-6.0-1.207","MIGE","4","f","links","22","","","object","f","60","true"
"15646","<p>Du hast in 92% der Versuche korrekt entschieden.</p><p>Deine durchschnittliche Reaktionszeit war  1145ms.</p><p>Dr&uuml;cke eine beliebige Taste, um die Session zu beenden. Vielen Dank!</p>","32","html-keyboard-response","422","462923","0.0-7.0","MIGE","4","f","links","22","","","","","",""
