"rt","stimulus","key_press","trial_type","trial_index","time_elapsed","internal_node_id","subject","session","sex","handedness","age","responses","test_part","condition","correct_response","angle","correct"
"1712","<p>Mental Rotation Experiment.</p> <p>Dr&uuml;cke eine beliebige Taste, um anzufangen.</p>","13","html-keyboard-response","0","1754","0.0-0.0","MIGE","3","f","links","22","","","","","",""
"13063","","","survey-text","1","14818","0.0-1.0","MIGE","3","f","links","22","{""Q0"":""MIGE""}","","","","",""
"3081","","","survey-text","2","17901","0.0-2.0","MIGE","3","f","links","22","{""Q0"":""3""}","","","","",""
"5945","","","survey-multi-choice","3","23850","0.0-3.0","MIGE","3","f","links","22","{""Q0"":""f"",""Q1"":""links""}","","","","",""
"9077","","","survey-text","4","32928","0.0-4.0","MIGE","3","f","links","22","{""Q0"":""22""}","","","","",""
"110652","<p>Stell dir vor, dass du vor einem runden Tisch stehst, auf dem sich ein blauer Ball am Tischrand befindet. Entlang des Tischrands ist jeweils ein verschieden langer Pfeil. Nun bleibst du an deinem Platz vor dem Tisch und rotierst den Tisch entlang des Pfeils (gleiche Richtung und Länge). </p> <img src='img/30_180.png'></img> <br><p> Nachdem du diese (vorgestellte) Rotation durchgef&uuml;hrt hast, schau in Richtung der Tischmitte, und entscheide dann, ob der Ball links oder rechts von dir liegt.</p> <p>Dr&uuml;cke die <strong>'f'</strong>-Taste f&uuml;r links, die <strong>'j'</strong>-Taste f&uuml;r rechts.</p><br><p> Das Bild wird jeweils 1 Sekunde lang pr&auml;sentiert. Du hast 3 Sekunden Zeit eine Entscheidung zu treffen.</p>","70","html-keyboard-response","5","143590","0.0-5.0","MIGE","3","f","links","22","","","","","",""
"null","<div style=""font-size:60px;"">+</div>","null","html-keyboard-response","6","145133","0.0-6.0-0.0","MIGE","3","f","links","22","","fixation","","","",""
"2712","img/L60_180.png","74","image-keyboard-response","7","147865","0.0-6.0-1.0","MIGE","3","f","links","22","","","object","j","60","true"
"null","<div style=""font-size:60px;"">+</div>","null","html-keyboard-response","8","148341","0.0-6.0-0.1","MIGE","3","f","links","22","","fixation","","","",""
"860","img/90_30.png","70","image-keyboard-response","9","149220","0.0-6.0-1.1","MIGE","3","f","links","22","","","object","f","90","true"
"null","<div style=""font-size:60px;"">+</div>","null","html-keyboard-response","10","149622","0.0-6.0-0.2","MIGE","3","f","links","22","","fixation","","","",""
"1413","img/120_180.png","70","image-keyboard-response","11","151056","0.0-6.0-1.2","MIGE","3","f","links","22","","","object","f","120","true"
"null","<div style=""font-size:60px;"">+</div>","null","html-keyboard-response","12","151514","0.0-6.0-0.3","MIGE","3","f","links","22","","fixation","","","",""
"1436","img/30_60.png","74","image-keyboard-response","13","152967","0.0-6.0-1.3","MIGE","3","f","links","22","","","object","j","30","true"
"null","<div style=""font-size:60px;"">+</div>","null","html-keyboard-response","14","153279","0.0-6.0-0.4","MIGE","3","f","links","22","","fixation","","","",""
"1797","img/120_150.png","74","image-keyboard-response","15","155094","0.0-6.0-1.4","MIGE","3","f","links","22","","","object","j","120","true"
"null","<div style=""font-size:60px;"">+</div>","null","html-keyboard-response","16","155607","0.0-6.0-0.5","MIGE","3","f","links","22","","fixation","","","",""
"1057","img/30_270.png","70","image-keyboard-response","17","156680","0.0-6.0-1.5","MIGE","3","f","links","22","","","object","f","30","true"
"null","<div style=""font-size:60px;"">+</div>","null","html-keyboard-response","18","157013","0.0-6.0-0.6","MIGE","3","f","links","22","","fixation","","","",""
"765","img/0_300.png","70","image-keyboard-response","19","157796","0.0-6.0-1.6","MIGE","3","f","links","22","","","object","f","0","true"
"null","<div style=""font-size:60px;"">+</div>","null","html-keyboard-response","20","158263","0.0-6.0-0.7","MIGE","3","f","links","22","","fixation","","","",""
"782","img/30_240.png","70","image-keyboard-response","21","159063","0.0-6.0-1.7","MIGE","3","f","links","22","","","object","f","30","true"
"null","<div style=""font-size:60px;"">+</div>","null","html-keyboard-response","22","159388","0.0-6.0-0.8","MIGE","3","f","links","22","","fixation","","","",""
"761","img/0_210.png","70","image-keyboard-response","23","160168","0.0-6.0-1.8","MIGE","3","f","links","22","","","object","f","0","true"
"null","<div style=""font-size:60px;"">+</div>","null","html-keyboard-response","24","160481","0.0-6.0-0.9","MIGE","3","f","links","22","","fixation","","","",""
"761","img/0_150.png","74","image-keyboard-response","25","161260","0.0-6.0-1.9","MIGE","3","f","links","22","","","object","j","0","true"
"null","<div style=""font-size:60px;"">+</div>","null","html-keyboard-response","26","161684","0.0-6.0-0.10","MIGE","3","f","links","22","","fixation","","","",""
"1313","img/60_270.png","70","image-keyboard-response","27","163015","0.0-6.0-1.10","MIGE","3","f","links","22","","","object","f","60","true"
"null","<div style=""font-size:60px;"">+</div>","null","html-keyboard-response","28","163372","0.0-6.0-0.11","MIGE","3","f","links","22","","fixation","","","",""
"749","img/0_60.png","74","image-keyboard-response","29","164139","0.0-6.0-1.11","MIGE","3","f","links","22","","","object","j","0","true"
"null","<div style=""font-size:60px;"">+</div>","null","html-keyboard-response","30","164605","0.0-6.0-0.12","MIGE","3","f","links","22","","fixation","","","",""
"910","img/90_210.png","70","image-keyboard-response","31","165535","0.0-6.0-1.12","MIGE","3","f","links","22","","","object","f","90","true"
"null","<div style=""font-size:60px;"">+</div>","null","html-keyboard-response","32","165840","0.0-6.0-0.13","MIGE","3","f","links","22","","fixation","","","",""
"734","img/L30_180.png","74","image-keyboard-response","33","166592","0.0-6.0-1.13","MIGE","3","f","links","22","","","object","j","30","true"
"null","<div style=""font-size:60px;"">+</div>","null","html-keyboard-response","34","166918","0.0-6.0-0.14","MIGE","3","f","links","22","","fixation","","","",""
"2091","img/150_240.png","74","image-keyboard-response","35","169028","0.0-6.0-1.14","MIGE","3","f","links","22","","","object","j","150","true"
"null","<div style=""font-size:60px;"">+</div>","null","html-keyboard-response","36","169446","0.0-6.0-0.15","MIGE","3","f","links","22","","fixation","","","",""
"1606","img/90_120.png","74","image-keyboard-response","37","171069","0.0-6.0-1.15","MIGE","3","f","links","22","","","object","j","90","true"
"null","<div style=""font-size:60px;"">+</div>","null","html-keyboard-response","38","171492","0.0-6.0-0.16","MIGE","3","f","links","22","","fixation","","","",""
"1064","img/90_180.png","70","image-keyboard-response","39","172577","0.0-6.0-1.16","MIGE","3","f","links","22","","","object","f","90","true"
"null","<div style=""font-size:60px;"">+</div>","null","html-keyboard-response","40","173087","0.0-6.0-0.17","MIGE","3","f","links","22","","fixation","","","",""
"901","img/30_90.png","74","image-keyboard-response","41","174006","0.0-6.0-1.17","MIGE","3","f","links","22","","","object","j","30","true"
"null","<div style=""font-size:60px;"">+</div>","null","html-keyboard-response","42","174420","0.0-6.0-0.18","MIGE","3","f","links","22","","fixation","","","",""
"1154","img/90_240.png","70","image-keyboard-response","43","175592","0.0-6.0-1.18","MIGE","3","f","links","22","","","object","f","90","true"
"null","<div style=""font-size:60px;"">+</div>","null","html-keyboard-response","44","176014","0.0-6.0-0.19","MIGE","3","f","links","22","","fixation","","","",""
"874","img/30_180.png","70","image-keyboard-response","45","176897","0.0-6.0-1.19","MIGE","3","f","links","22","","","object","f","30","true"
"null","<div style=""font-size:60px;"">+</div>","null","html-keyboard-response","46","177373","0.0-6.0-0.20","MIGE","3","f","links","22","","fixation","","","",""
"743","img/0_270.png","70","image-keyboard-response","47","178133","0.0-6.0-1.20","MIGE","3","f","links","22","","","object","f","0","true"
"null","<div style=""font-size:60px;"">+</div>","null","html-keyboard-response","48","178593","0.0-6.0-0.21","MIGE","3","f","links","22","","fixation","","","",""
"796","img/120_330.png","74","image-keyboard-response","49","179406","0.0-6.0-1.21","MIGE","3","f","links","22","","","object","j","120","true"
"null","<div style=""font-size:60px;"">+</div>","null","html-keyboard-response","50","179719","0.0-6.0-0.22","MIGE","3","f","links","22","","fixation","","","",""
"1164","img/150_180.png","70","image-keyboard-response","51","180902","0.0-6.0-1.22","MIGE","3","f","links","22","","","object","f","150","true"
"null","<div style=""font-size:60px;"">+</div>","null","html-keyboard-response","52","181406","0.0-6.0-0.23","MIGE","3","f","links","22","","fixation","","","",""
"604","img/0_30.png","74","image-keyboard-response","53","182027","0.0-6.0-1.23","MIGE","3","f","links","22","","","object","j","0","true"
"null","<div style=""font-size:60px;"">+</div>","null","html-keyboard-response","54","182391","0.0-6.0-0.24","MIGE","3","f","links","22","","fixation","","","",""
"835","img/90_330.png","74","image-keyboard-response","55","183242","0.0-6.0-1.24","MIGE","3","f","links","22","","","object","j","90","true"
"null","<div style=""font-size:60px;"">+</div>","null","html-keyboard-response","56","183593","0.0-6.0-0.25","MIGE","3","f","links","22","","fixation","","","",""
"1544","img/L150_180.png","74","image-keyboard-response","57","185155","0.0-6.0-1.25","MIGE","3","f","links","22","","","object","j","150","true"
"null","<div style=""font-size:60px;"">+</div>","null","html-keyboard-response","58","185531","0.0-6.0-0.26","MIGE","3","f","links","22","","fixation","","","",""
"796","img/90_300.png","74","image-keyboard-response","59","186346","0.0-6.0-1.26","MIGE","3","f","links","22","","","object","j","90","true"
"null","<div style=""font-size:60px;"">+</div>","null","html-keyboard-response","60","186749","0.0-6.0-0.27","MIGE","3","f","links","22","","fixation","","","",""
"974","img/90_150.png","74","image-keyboard-response","61","187742","0.0-6.0-1.27","MIGE","3","f","links","22","","","object","j","90","true"
"null","<div style=""font-size:60px;"">+</div>","null","html-keyboard-response","62","188203","0.0-6.0-0.28","MIGE","3","f","links","22","","fixation","","","",""
"783","img/120_30.png","70","image-keyboard-response","63","189002","0.0-6.0-1.28","MIGE","3","f","links","22","","","object","f","120","true"
"null","<div style=""font-size:60px;"">+</div>","null","html-keyboard-response","64","189423","0.0-6.0-0.29","MIGE","3","f","links","22","","fixation","","","",""
"699","img/0_240.png","70","image-keyboard-response","65","190139","0.0-6.0-1.29","MIGE","3","f","links","22","","","object","f","0","true"
"null","<div style=""font-size:60px;"">+</div>","null","html-keyboard-response","66","190642","0.0-6.0-0.30","MIGE","3","f","links","22","","fixation","","","",""
"603","img/0_120.png","74","image-keyboard-response","67","191263","0.0-6.0-1.30","MIGE","3","f","links","22","","","object","j","0","true"
"null","<div style=""font-size:60px;"">+</div>","null","html-keyboard-response","68","191626","0.0-6.0-0.31","MIGE","3","f","links","22","","fixation","","","",""
"564","img/0_90.png","74","image-keyboard-response","69","192209","0.0-6.0-1.31","MIGE","3","f","links","22","","","object","j","0","true"
"null","<div style=""font-size:60px;"">+</div>","null","html-keyboard-response","70","192625","0.0-6.0-0.32","MIGE","3","f","links","22","","fixation","","","",""
"1669","img/150_120.png","70","image-keyboard-response","71","194311","0.0-6.0-1.32","MIGE","3","f","links","22","","","object","f","150","true"
"null","<div style=""font-size:60px;"">+</div>","null","html-keyboard-response","72","194824","0.0-6.0-0.33","MIGE","3","f","links","22","","fixation","","","",""
"1168","img/150_270.png","74","image-keyboard-response","73","196011","0.0-6.0-1.33","MIGE","3","f","links","22","","","object","j","150","true"
"null","<div style=""font-size:60px;"">+</div>","null","html-keyboard-response","74","196543","0.0-6.0-0.34","MIGE","3","f","links","22","","fixation","","","",""
"2267","img/60_90.png","74","image-keyboard-response","75","198828","0.0-6.0-1.34","MIGE","3","f","links","22","","","object","j","60","true"
"null","<div style=""font-size:60px;"">+</div>","null","html-keyboard-response","76","199230","0.0-6.0-0.35","MIGE","3","f","links","22","","fixation","","","",""
"770","img/150_300.png","74","image-keyboard-response","77","200016","0.0-6.0-1.35","MIGE","3","f","links","22","","","object","j","150","true"
"null","<div style=""font-size:60px;"">+</div>","null","html-keyboard-response","78","200435","0.0-6.0-0.36","MIGE","3","f","links","22","","fixation","","","",""
"779","img/30_120.png","74","image-keyboard-response","79","201232","0.0-6.0-1.36","MIGE","3","f","links","22","","","object","j","30","true"
"null","<div style=""font-size:60px;"">+</div>","null","html-keyboard-response","80","201592","0.0-6.0-0.37","MIGE","3","f","links","22","","fixation","","","",""
"1246","img/150_90.png","70","image-keyboard-response","81","202860","0.0-6.0-1.37","MIGE","3","f","links","22","","","object","f","150","true"
"null","<div style=""font-size:60px;"">+</div>","null","html-keyboard-response","82","203211","0.0-6.0-0.38","MIGE","3","f","links","22","","fixation","","","",""
"780","img/60_30.png","70","image-keyboard-response","83","204010","0.0-6.0-1.38","MIGE","3","f","links","22","","","object","f","60","true"
"null","<div style=""font-size:60px;"">+</div>","null","html-keyboard-response","84","204414","0.0-6.0-0.39","MIGE","3","f","links","22","","fixation","","","",""
"974","img/L90_180.png","74","image-keyboard-response","85","205404","0.0-6.0-1.39","MIGE","3","f","links","22","","","object","j","90","true"
"null","<div style=""font-size:60px;"">+</div>","null","html-keyboard-response","86","205820","0.0-6.0-0.40","MIGE","3","f","links","22","","fixation","","","",""
"1051","img/60_150.png","74","image-keyboard-response","87","206890","0.0-6.0-1.40","MIGE","3","f","links","22","","","object","j","60","true"
"null","<div style=""font-size:60px;"">+</div>","null","html-keyboard-response","88","207195","0.0-6.0-0.41","MIGE","3","f","links","22","","fixation","","","",""
"1421","img/120_270.png","74","image-keyboard-response","89","208633","0.0-6.0-1.41","MIGE","3","f","links","22","","","object","j","120","true"
"null","<div style=""font-size:60px;"">+</div>","null","html-keyboard-response","90","209087","0.0-6.0-0.42","MIGE","3","f","links","22","","fixation","","","",""
"835","img/0_330.png","70","image-keyboard-response","91","209939","0.0-6.0-1.42","MIGE","3","f","links","22","","","object","f","0","true"
"null","<div style=""font-size:60px;"">+</div>","null","html-keyboard-response","92","210462","0.0-6.0-0.43","MIGE","3","f","links","22","","fixation","","","",""
"1335","img/60_180.png","70","image-keyboard-response","93","211817","0.0-6.0-1.43","MIGE","3","f","links","22","","","object","f","60","true"
"null","<div style=""font-size:60px;"">+</div>","null","html-keyboard-response","94","212336","0.0-6.0-0.44","MIGE","3","f","links","22","","fixation","","","",""
"856","img/60_210.png","70","image-keyboard-response","95","213202","0.0-6.0-1.44","MIGE","3","f","links","22","","","object","f","60","true"
"null","<div style=""font-size:60px;"">+</div>","null","html-keyboard-response","96","213664","0.0-6.0-0.45","MIGE","3","f","links","22","","fixation","","","",""
"969","img/150_60.png","70","image-keyboard-response","97","214652","0.0-6.0-1.45","MIGE","3","f","links","22","","","object","f","150","true"
"null","<div style=""font-size:60px;"">+</div>","null","html-keyboard-response","98","215054","0.0-6.0-0.46","MIGE","3","f","links","22","","fixation","","","",""
"1751","img/120_210.png","70","image-keyboard-response","99","216813","0.0-6.0-1.46","MIGE","3","f","links","22","","","object","f","120","true"
"null","<div style=""font-size:60px;"">+</div>","null","html-keyboard-response","100","217180","0.0-6.0-0.47","MIGE","3","f","links","22","","fixation","","","",""
"1235","img/30_300.png","70","image-keyboard-response","101","218432","0.0-6.0-1.47","MIGE","3","f","links","22","","","object","f","30","true"
"null","<div style=""font-size:60px;"">+</div>","null","html-keyboard-response","102","218838","0.0-6.0-0.48","MIGE","3","f","links","22","","fixation","","","",""
"1048","img/90_60.png","70","image-keyboard-response","103","219906","0.0-6.0-1.48","MIGE","3","f","links","22","","","object","f","90","true"
"null","<div style=""font-size:60px;"">+</div>","null","html-keyboard-response","104","220321","0.0-6.0-0.49","MIGE","3","f","links","22","","fixation","","","",""
"696","img/60_330.png","74","image-keyboard-response","105","221031","0.0-6.0-1.49","MIGE","3","f","links","22","","","object","j","60","true"
"null","<div style=""font-size:60px;"">+</div>","null","html-keyboard-response","106","221509","0.0-6.0-0.50","MIGE","3","f","links","22","","fixation","","","",""
"1709","img/L120_180.png","74","image-keyboard-response","107","223237","0.0-6.0-1.50","MIGE","3","f","links","22","","","object","j","120","true"
"null","<div style=""font-size:60px;"">+</div>","null","html-keyboard-response","108","223603","0.0-6.0-0.51","MIGE","3","f","links","22","","fixation","","","",""
"1132","img/120_90.png","70","image-keyboard-response","109","224755","0.0-6.0-1.51","MIGE","3","f","links","22","","","object","f","120","true"
"null","<div style=""font-size:60px;"">+</div>","null","html-keyboard-response","110","225260","0.0-6.0-0.52","MIGE","3","f","links","22","","fixation","","","",""
"1354","img/60_210.png","70","image-keyboard-response","111","226623","0.0-6.0-1.52","MIGE","3","f","links","22","","","object","f","60","true"
"null","<div style=""font-size:60px;"">+</div>","null","html-keyboard-response","112","227025","0.0-6.0-0.53","MIGE","3","f","links","22","","fixation","","","",""
"667","img/0_30.png","74","image-keyboard-response","113","227702","0.0-6.0-1.53","MIGE","3","f","links","22","","","object","j","0","true"
"null","<div style=""font-size:60px;"">+</div>","null","html-keyboard-response","114","228071","0.0-6.0-0.54","MIGE","3","f","links","22","","fixation","","","",""
"1366","img/120_210.png","70","image-keyboard-response","115","229447","0.0-6.0-1.54","MIGE","3","f","links","22","","","object","f","120","true"
"null","<div style=""font-size:60px;"">+</div>","null","html-keyboard-response","116","229964","0.0-6.0-0.55","MIGE","3","f","links","22","","fixation","","","",""
"764","img/0_90.png","74","image-keyboard-response","117","230739","0.0-6.0-1.55","MIGE","3","f","links","22","","","object","j","0","true"
"null","<div style=""font-size:60px;"">+</div>","null","html-keyboard-response","118","231094","0.0-6.0-0.56","MIGE","3","f","links","22","","fixation","","","",""
"581","img/0_240.png","70","image-keyboard-response","119","231684","0.0-6.0-1.56","MIGE","3","f","links","22","","","object","f","0","true"
"null","<div style=""font-size:60px;"">+</div>","null","html-keyboard-response","120","232045","0.0-6.0-0.57","MIGE","3","f","links","22","","fixation","","","",""
"638","img/30_270.png","70","image-keyboard-response","121","232697","0.0-6.0-1.57","MIGE","3","f","links","22","","","object","f","30","true"
"null","<div style=""font-size:60px;"">+</div>","null","html-keyboard-response","122","233006","0.0-6.0-0.58","MIGE","3","f","links","22","","fixation","","","",""
"545","img/0_300.png","70","image-keyboard-response","123","233564","0.0-6.0-1.58","MIGE","3","f","links","22","","","object","f","0","true"
"null","<div style=""font-size:60px;"">+</div>","null","html-keyboard-response","124","233995","0.0-6.0-0.59","MIGE","3","f","links","22","","fixation","","","",""
"1164","img/120_180.png","70","image-keyboard-response","125","235173","0.0-6.0-1.59","MIGE","3","f","links","22","","","object","f","120","true"
"null","<div style=""font-size:60px;"">+</div>","null","html-keyboard-response","126","235527","0.0-6.0-0.60","MIGE","3","f","links","22","","fixation","","","",""
"2292","img/90_120.png","74","image-keyboard-response","127","237832","0.0-6.0-1.60","MIGE","3","f","links","22","","","object","j","90","true"
"null","<div style=""font-size:60px;"">+</div>","null","html-keyboard-response","128","238356","0.0-6.0-0.61","MIGE","3","f","links","22","","fixation","","","",""
"708","img/30_90.png","74","image-keyboard-response","129","239077","0.0-6.0-1.61","MIGE","3","f","links","22","","","object","j","30","true"
"null","<div style=""font-size:60px;"">+</div>","null","html-keyboard-response","130","239387","0.0-6.0-0.62","MIGE","3","f","links","22","","fixation","","","",""
"635","img/30_120.png","74","image-keyboard-response","131","240033","0.0-6.0-1.62","MIGE","3","f","links","22","","","object","j","30","true"
"null","<div style=""font-size:60px;"">+</div>","null","html-keyboard-response","132","240340","0.0-6.0-0.63","MIGE","3","f","links","22","","fixation","","","",""
"731","img/90_30.png","70","image-keyboard-response","133","241079","0.0-6.0-1.63","MIGE","3","f","links","22","","","object","f","90","true"
"null","<div style=""font-size:60px;"">+</div>","null","html-keyboard-response","134","241387","0.0-6.0-0.64","MIGE","3","f","links","22","","fixation","","","",""
"1624","img/90_180.png","70","image-keyboard-response","135","243026","0.0-6.0-1.64","MIGE","3","f","links","22","","","object","f","90","true"
"null","<div style=""font-size:60px;"">+</div>","null","html-keyboard-response","136","243436","0.0-6.0-0.65","MIGE","3","f","links","22","","fixation","","","",""
"1223","img/L120_180.png","74","image-keyboard-response","137","244667","0.0-6.0-1.65","MIGE","3","f","links","22","","","object","j","120","true"
"null","<div style=""font-size:60px;"">+</div>","null","html-keyboard-response","138","245139","0.0-6.0-0.66","MIGE","3","f","links","22","","fixation","","","",""
"1183","img/150_90.png","70","image-keyboard-response","139","246331","0.0-6.0-1.66","MIGE","3","f","links","22","","","object","f","150","true"
"null","<div style=""font-size:60px;"">+</div>","null","html-keyboard-response","140","246748","0.0-6.0-0.67","MIGE","3","f","links","22","","fixation","","","",""
"682","img/90_300.png","74","image-keyboard-response","141","247444","0.0-6.0-1.67","MIGE","3","f","links","22","","","object","j","90","true"
"null","<div style=""font-size:60px;"">+</div>","null","html-keyboard-response","142","247826","0.0-6.0-0.68","MIGE","3","f","links","22","","fixation","","","",""
"2414","img/30_180.png","70","image-keyboard-response","143","250253","0.0-6.0-1.68","MIGE","3","f","links","22","","","object","f","30","true"
"null","<div style=""font-size:60px;"">+</div>","null","html-keyboard-response","144","250561","0.0-6.0-0.69","MIGE","3","f","links","22","","fixation","","","",""
"1046","img/L30_180.png","74","image-keyboard-response","145","251621","0.0-6.0-1.69","MIGE","3","f","links","22","","","object","j","30","true"
"null","<div style=""font-size:60px;"">+</div>","null","html-keyboard-response","146","252093","0.0-6.0-0.70","MIGE","3","f","links","22","","fixation","","","",""
"1014","img/150_300.png","74","image-keyboard-response","147","253117","0.0-6.0-1.70","MIGE","3","f","links","22","","","object","j","150","true"
"null","<div style=""font-size:60px;"">+</div>","null","html-keyboard-response","148","253576","0.0-6.0-0.71","MIGE","3","f","links","22","","fixation","","","",""
"1708","img/120_150.png","74","image-keyboard-response","149","255298","0.0-6.0-1.71","MIGE","3","f","links","22","","","object","j","120","true"
"null","<div style=""font-size:60px;"">+</div>","null","html-keyboard-response","150","255671","0.0-6.0-0.72","MIGE","3","f","links","22","","fixation","","","",""
"2393","img/150_270.png","74","image-keyboard-response","151","258073","0.0-6.0-1.72","MIGE","3","f","links","22","","","object","j","150","true"
"null","<div style=""font-size:60px;"">+</div>","null","html-keyboard-response","152","258390","0.0-6.0-0.73","MIGE","3","f","links","22","","fixation","","","",""
"1610","img/L60_180.png","74","image-keyboard-response","153","260013","0.0-6.0-1.73","MIGE","3","f","links","22","","","object","j","60","true"
"null","<div style=""font-size:60px;"">+</div>","null","html-keyboard-response","154","260531","0.0-6.0-0.74","MIGE","3","f","links","22","","fixation","","","",""
"1292","img/120_330.png","74","image-keyboard-response","155","261835","0.0-6.0-1.74","MIGE","3","f","links","22","","","object","j","120","true"
"null","<div style=""font-size:60px;"">+</div>","null","html-keyboard-response","156","262354","0.0-6.0-0.75","MIGE","3","f","links","22","","fixation","","","",""
"782","img/60_30.png","70","image-keyboard-response","157","263140","0.0-6.0-1.75","MIGE","3","f","links","22","","","object","f","60","true"
"null","<div style=""font-size:60px;"">+</div>","null","html-keyboard-response","158","263496","0.0-6.0-0.76","MIGE","3","f","links","22","","fixation","","","",""
"765","img/0_150.png","74","image-keyboard-response","159","264277","0.0-6.0-1.76","MIGE","3","f","links","22","","","object","j","0","true"
"null","<div style=""font-size:60px;"">+</div>","null","html-keyboard-response","160","264589","0.0-6.0-0.77","MIGE","3","f","links","22","","fixation","","","",""
"1294","img/90_210.png","70","image-keyboard-response","161","265897","0.0-6.0-1.77","MIGE","3","f","links","22","","","object","f","90","true"
"null","<div style=""font-size:60px;"">+</div>","null","html-keyboard-response","162","266261","0.0-6.0-0.78","MIGE","3","f","links","22","","fixation","","","",""
"1516","img/60_180.png","70","image-keyboard-response","163","267787","0.0-6.0-1.78","MIGE","3","f","links","22","","","object","f","60","true"
"null","<div style=""font-size:60px;"">+</div>","null","html-keyboard-response","164","268146","0.0-6.0-0.79","MIGE","3","f","links","22","","fixation","","","",""
"1316","img/30_240.png","70","image-keyboard-response","165","269475","0.0-6.0-1.79","MIGE","3","f","links","22","","","object","f","30","true"
"null","<div style=""font-size:60px;"">+</div>","null","html-keyboard-response","166","269778","0.0-6.0-0.80","MIGE","3","f","links","22","","fixation","","","",""
"1617","img/150_240.png","74","image-keyboard-response","167","271409","0.0-6.0-1.80","MIGE","3","f","links","22","","","object","j","150","true"
"null","<div style=""font-size:60px;"">+</div>","null","html-keyboard-response","168","271731","0.0-6.0-0.81","MIGE","3","f","links","22","","fixation","","","",""
"670","img/0_330.png","70","image-keyboard-response","169","272410","0.0-6.0-1.81","MIGE","3","f","links","22","","","object","f","0","true"
"null","<div style=""font-size:60px;"">+</div>","null","html-keyboard-response","170","272934","0.0-6.0-0.82","MIGE","3","f","links","22","","fixation","","","",""
"1310","img/60_90.png","74","image-keyboard-response","171","274256","0.0-6.0-1.82","MIGE","3","f","links","22","","","object","j","60","true"
"null","<div style=""font-size:60px;"">+</div>","null","html-keyboard-response","172","274609","0.0-6.0-0.83","MIGE","3","f","links","22","","fixation","","","",""
"590","img/0_120.png","74","image-keyboard-response","173","275211","0.0-6.0-1.83","MIGE","3","f","links","22","","","object","j","0","true"
"null","<div style=""font-size:60px;"">+</div>","null","html-keyboard-response","174","275515","0.0-6.0-0.84","MIGE","3","f","links","22","","fixation","","","",""
"772","img/90_330.png","74","image-keyboard-response","175","276292","0.0-6.0-1.84","MIGE","3","f","links","22","","","object","j","90","true"
"null","<div style=""font-size:60px;"">+</div>","null","html-keyboard-response","176","276797","0.0-6.0-0.85","MIGE","3","f","links","22","","fixation","","","",""
"554","img/60_330.png","74","image-keyboard-response","177","277359","0.0-6.0-1.85","MIGE","3","f","links","22","","","object","j","60","true"
"null","<div style=""font-size:60px;"">+</div>","null","html-keyboard-response","178","277718","0.0-6.0-0.86","MIGE","3","f","links","22","","fixation","","","",""
"767","img/0_60.png","74","image-keyboard-response","179","278498","0.0-6.0-1.86","MIGE","3","f","links","22","","","object","j","0","true"
"null","<div style=""font-size:60px;"">+</div>","null","html-keyboard-response","180","278953","0.0-6.0-0.87","MIGE","3","f","links","22","","fixation","","","",""
"1252","img/120_270.png","74","image-keyboard-response","181","280219","0.0-6.0-1.87","MIGE","3","f","links","22","","","object","j","120","true"
"null","<div style=""font-size:60px;"">+</div>","null","html-keyboard-response","182","280671","0.0-6.0-0.88","MIGE","3","f","links","22","","fixation","","","",""
"1843","img/120_90.png","70","image-keyboard-response","183","282525","0.0-6.0-1.88","MIGE","3","f","links","22","","","object","f","120","true"
"null","<div style=""font-size:60px;"">+</div>","null","html-keyboard-response","184","282999","0.0-6.0-0.89","MIGE","3","f","links","22","","fixation","","","",""
"1008","img/90_150.png","74","image-keyboard-response","185","284020","0.0-6.0-1.89","MIGE","3","f","links","22","","","object","j","90","true"
"null","<div style=""font-size:60px;"">+</div>","null","html-keyboard-response","186","284345","0.0-6.0-0.90","MIGE","3","f","links","22","","fixation","","","",""
"1391","img/30_300.png","70","image-keyboard-response","187","285743","0.0-6.0-1.90","MIGE","3","f","links","22","","","object","f","30","true"
"null","<div style=""font-size:60px;"">+</div>","null","html-keyboard-response","188","286094","0.0-6.0-0.91","MIGE","3","f","links","22","","fixation","","","",""
"1139","img/L150_180.png","74","image-keyboard-response","189","287249","0.0-6.0-1.91","MIGE","3","f","links","22","","","object","j","150","true"
"null","<div style=""font-size:60px;"">+</div>","null","html-keyboard-response","190","287610","0.0-6.0-0.92","MIGE","3","f","links","22","","fixation","","","",""
"943","img/60_150.png","74","image-keyboard-response","191","288566","0.0-6.0-1.92","MIGE","3","f","links","22","","","object","j","60","true"
"null","<div style=""font-size:60px;"">+</div>","null","html-keyboard-response","192","288877","0.0-6.0-0.93","MIGE","3","f","links","22","","fixation","","","",""
"1317","img/60_270.png","70","image-keyboard-response","193","290208","0.0-6.0-1.93","MIGE","3","f","links","22","","","object","f","60","true"
"null","<div style=""font-size:60px;"">+</div>","null","html-keyboard-response","194","290674","0.0-6.0-0.94","MIGE","3","f","links","22","","fixation","","","",""
"1197","img/150_180.png","70","image-keyboard-response","195","291885","0.0-6.0-1.94","MIGE","3","f","links","22","","","object","f","150","true"
"null","<div style=""font-size:60px;"">+</div>","null","html-keyboard-response","196","292408","0.0-6.0-0.95","MIGE","3","f","links","22","","fixation","","","",""
"1556","img/150_60.png","70","image-keyboard-response","197","293978","0.0-6.0-1.95","MIGE","3","f","links","22","","","object","f","150","true"
"null","<div style=""font-size:60px;"">+</div>","null","html-keyboard-response","198","294382","0.0-6.0-0.96","MIGE","3","f","links","22","","fixation","","","",""
"1708","img/90_240.png","70","image-keyboard-response","199","296104","0.0-6.0-1.96","MIGE","3","f","links","22","","","object","f","90","true"
"null","<div style=""font-size:60px;"">+</div>","null","html-keyboard-response","200","296569","0.0-6.0-0.97","MIGE","3","f","links","22","","fixation","","","",""
"825","img/120_30.png","70","image-keyboard-response","201","297408","0.0-6.0-1.97","MIGE","3","f","links","22","","","object","f","120","true"
"null","<div style=""font-size:60px;"">+</div>","null","html-keyboard-response","202","297835","0.0-6.0-0.98","MIGE","3","f","links","22","","fixation","","","",""
"1395","img/L90_180.png","74","image-keyboard-response","203","299243","0.0-6.0-1.98","MIGE","3","f","links","22","","","object","j","90","true"
"null","<div style=""font-size:60px;"">+</div>","null","html-keyboard-response","204","299710","0.0-6.0-0.99","MIGE","3","f","links","22","","fixation","","","",""
"711","img/0_210.png","70","image-keyboard-response","205","300435","0.0-6.0-1.99","MIGE","3","f","links","22","","","object","f","0","true"
"null","<div style=""font-size:60px;"">+</div>","null","html-keyboard-response","206","300912","0.0-6.0-0.100","MIGE","3","f","links","22","","fixation","","","",""
"714","img/90_60.png","70","image-keyboard-response","207","301639","0.0-6.0-1.100","MIGE","3","f","links","22","","","object","f","90","true"
"null","<div style=""font-size:60px;"">+</div>","null","html-keyboard-response","208","301950","0.0-6.0-0.101","MIGE","3","f","links","22","","fixation","","","",""
"677","img/0_270.png","70","image-keyboard-response","209","302640","0.0-6.0-1.101","MIGE","3","f","links","22","","","object","f","0","true"
"null","<div style=""font-size:60px;"">+</div>","null","html-keyboard-response","210","303013","0.0-6.0-0.102","MIGE","3","f","links","22","","fixation","","","",""
"1354","img/150_120.png","70","image-keyboard-response","211","304381","0.0-6.0-1.102","MIGE","3","f","links","22","","","object","f","150","true"
"null","<div style=""font-size:60px;"">+</div>","null","html-keyboard-response","212","304888","0.0-6.0-0.103","MIGE","3","f","links","22","","fixation","","","",""
"955","img/30_60.png","74","image-keyboard-response","213","305858","0.0-6.0-1.103","MIGE","3","f","links","22","","","object","j","30","true"
"null","<div style=""font-size:60px;"">+</div>","null","html-keyboard-response","214","306216","0.0-6.0-0.104","MIGE","3","f","links","22","","fixation","","","",""
"1092","img/L150_180.png","74","image-keyboard-response","215","307319","0.0-6.0-1.104","MIGE","3","f","links","22","","","object","j","150","true"
"null","<div style=""font-size:60px;"">+</div>","null","html-keyboard-response","216","307747","0.0-6.0-0.105","MIGE","3","f","links","22","","fixation","","","",""
"843","img/90_60.png","70","image-keyboard-response","217","308600","0.0-6.0-1.105","MIGE","3","f","links","22","","","object","f","90","true"
"null","<div style=""font-size:60px;"">+</div>","null","html-keyboard-response","218","309061","0.0-6.0-0.106","MIGE","3","f","links","22","","fixation","","","",""
"590","img/0_150.png","74","image-keyboard-response","219","309662","0.0-6.0-1.106","MIGE","3","f","links","22","","","object","j","0","true"
"null","<div style=""font-size:60px;"">+</div>","null","html-keyboard-response","220","310020","0.0-6.0-0.107","MIGE","3","f","links","22","","fixation","","","",""
"1054","img/120_180.png","70","image-keyboard-response","221","311086","0.0-6.0-1.107","MIGE","3","f","links","22","","","object","f","120","true"
"null","<div style=""font-size:60px;"">+</div>","null","html-keyboard-response","222","311597","0.0-6.0-0.108","MIGE","3","f","links","22","","fixation","","","",""
"763","img/120_330.png","74","image-keyboard-response","223","312371","0.0-6.0-1.108","MIGE","3","f","links","22","","","object","j","120","true"
"null","<div style=""font-size:60px;"">+</div>","null","html-keyboard-response","224","312801","0.0-6.0-0.109","MIGE","3","f","links","22","","fixation","","","",""
"1136","img/120_90.png","70","image-keyboard-response","225","313946","0.0-6.0-1.109","MIGE","3","f","links","22","","","object","f","120","true"
"null","<div style=""font-size:60px;"">+</div>","null","html-keyboard-response","226","314395","0.0-6.0-0.110","MIGE","3","f","links","22","","fixation","","","",""
"1392","img/150_270.png","74","image-keyboard-response","227","315803","0.0-6.0-1.110","MIGE","3","f","links","22","","","object","j","150","true"
"null","<div style=""font-size:60px;"">+</div>","null","html-keyboard-response","228","316159","0.0-6.0-0.111","MIGE","3","f","links","22","","fixation","","","",""
"1242","img/30_240.png","70","image-keyboard-response","229","317411","0.0-6.0-1.111","MIGE","3","f","links","22","","","object","f","30","true"
"null","<div style=""font-size:60px;"">+</div>","null","html-keyboard-response","230","317723","0.0-6.0-0.112","MIGE","3","f","links","22","","fixation","","","",""
"1668","img/90_210.png","70","image-keyboard-response","231","319401","0.0-6.0-1.112","MIGE","3","f","links","22","","","object","f","90","true"
"null","<div style=""font-size:60px;"">+</div>","null","html-keyboard-response","232","319817","0.0-6.0-0.113","MIGE","3","f","links","22","","fixation","","","",""
"1385","img/150_180.png","70","image-keyboard-response","233","321213","0.0-6.0-1.113","MIGE","3","f","links","22","","","object","f","150","true"
"null","<div style=""font-size:60px;"">+</div>","null","html-keyboard-response","234","321567","0.0-6.0-0.114","MIGE","3","f","links","22","","fixation","","","",""
"1616","img/L90_180.png","74","image-keyboard-response","235","323194","0.0-6.0-1.114","MIGE","3","f","links","22","","","object","j","90","true"
"null","<div style=""font-size:60px;"">+</div>","null","html-keyboard-response","236","323601","0.0-6.0-0.115","MIGE","3","f","links","22","","fixation","","","",""
"1339","img/150_240.png","70","image-keyboard-response","237","324949","0.0-6.0-1.115","MIGE","3","f","links","22","","","object","j","150","false"
"null","<div style=""font-size:60px;"">+</div>","null","html-keyboard-response","238","325420","0.0-6.0-0.116","MIGE","3","f","links","22","","fixation","","","",""
"731","img/90_30.png","70","image-keyboard-response","239","326164","0.0-6.0-1.116","MIGE","3","f","links","22","","","object","f","90","true"
"null","<div style=""font-size:60px;"">+</div>","null","html-keyboard-response","240","326670","0.0-6.0-0.117","MIGE","3","f","links","22","","fixation","","","",""
"891","img/120_150.png","74","image-keyboard-response","241","327570","0.0-6.0-1.117","MIGE","3","f","links","22","","","object","j","120","true"
"null","<div style=""font-size:60px;"">+</div>","null","html-keyboard-response","242","328075","0.0-6.0-0.118","MIGE","3","f","links","22","","fixation","","","",""
"1624","img/150_120.png","70","image-keyboard-response","243","329708","0.0-6.0-1.118","MIGE","3","f","links","22","","","object","f","150","true"
"null","<div style=""font-size:60px;"">+</div>","null","html-keyboard-response","244","330075","0.0-6.0-0.119","MIGE","3","f","links","22","","fixation","","","",""
"1344","img/L30_180.png","74","image-keyboard-response","245","331429","0.0-6.0-1.119","MIGE","3","f","links","22","","","object","j","30","true"
"null","<div style=""font-size:60px;"">+</div>","null","html-keyboard-response","246","331841","0.0-6.0-0.120","MIGE","3","f","links","22","","fixation","","","",""
"658","img/0_120.png","74","image-keyboard-response","247","332510","0.0-6.0-1.120","MIGE","3","f","links","22","","","object","j","0","true"
"null","<div style=""font-size:60px;"">+</div>","null","html-keyboard-response","248","332919","0.0-6.0-0.121","MIGE","3","f","links","22","","fixation","","","",""
"649","img/120_30.png","70","image-keyboard-response","249","333577","0.0-6.0-1.121","MIGE","3","f","links","22","","","object","f","120","true"
"null","<div style=""font-size:60px;"">+</div>","null","html-keyboard-response","250","334092","0.0-6.0-0.122","MIGE","3","f","links","22","","fixation","","","",""
"598","img/90_330.png","74","image-keyboard-response","251","334702","0.0-6.0-1.122","MIGE","3","f","links","22","","","object","j","90","true"
"null","<div style=""font-size:60px;"">+</div>","null","html-keyboard-response","252","335216","0.0-6.0-0.123","MIGE","3","f","links","22","","fixation","","","",""
"617","img/0_300.png","70","image-keyboard-response","253","335839","0.0-6.0-1.123","MIGE","3","f","links","22","","","object","f","0","true"
"null","<div style=""font-size:60px;"">+</div>","null","html-keyboard-response","254","336346","0.0-6.0-0.124","MIGE","3","f","links","22","","fixation","","","",""
"523","img/0_270.png","70","image-keyboard-response","255","336875","0.0-6.0-1.124","MIGE","3","f","links","22","","","object","f","0","true"
"null","<div style=""font-size:60px;"">+</div>","null","html-keyboard-response","256","337377","0.0-6.0-0.125","MIGE","3","f","links","22","","fixation","","","",""
"535","img/0_30.png","74","image-keyboard-response","257","337920","0.0-6.0-1.125","MIGE","3","f","links","22","","","object","j","0","true"
"null","<div style=""font-size:60px;"">+</div>","null","html-keyboard-response","258","338237","0.0-6.0-0.126","MIGE","3","f","links","22","","fixation","","","",""
"1022","img/30_300.png","70","image-keyboard-response","259","339269","0.0-6.0-1.126","MIGE","3","f","links","22","","","object","f","30","true"
"null","<div style=""font-size:60px;"">+</div>","null","html-keyboard-response","260","339734","0.0-6.0-0.127","MIGE","3","f","links","22","","fixation","","","",""
"885","img/30_120.png","74","image-keyboard-response","261","340631","0.0-6.0-1.127","MIGE","3","f","links","22","","","object","j","30","true"
"null","<div style=""font-size:60px;"">+</div>","null","html-keyboard-response","262","341109","0.0-6.0-0.128","MIGE","3","f","links","22","","fixation","","","",""
"887","img/60_270.png","70","image-keyboard-response","263","342006","0.0-6.0-1.128","MIGE","3","f","links","22","","","object","f","60","true"
"null","<div style=""font-size:60px;"">+</div>","null","html-keyboard-response","264","342468","0.0-6.0-0.129","MIGE","3","f","links","22","","fixation","","","",""
"1170","img/90_150.png","74","image-keyboard-response","265","343646","0.0-6.0-1.129","MIGE","3","f","links","22","","","object","j","90","true"
"null","<div style=""font-size:60px;"">+</div>","null","html-keyboard-response","266","344170","0.0-6.0-0.130","MIGE","3","f","links","22","","fixation","","","",""
"1218","img/L120_180.png","74","image-keyboard-response","267","345403","0.0-6.0-1.130","MIGE","3","f","links","22","","","object","j","120","true"
"null","<div style=""font-size:60px;"">+</div>","null","html-keyboard-response","268","345863","0.0-6.0-0.131","MIGE","3","f","links","22","","fixation","","","",""
"751","img/30_90.png","74","image-keyboard-response","269","346628","0.0-6.0-1.131","MIGE","3","f","links","22","","","object","j","30","true"
"null","<div style=""font-size:60px;"">+</div>","null","html-keyboard-response","270","347082","0.0-6.0-0.132","MIGE","3","f","links","22","","fixation","","","",""
"1007","img/90_120.png","74","image-keyboard-response","271","348102","0.0-6.0-1.132","MIGE","3","f","links","22","","","object","j","90","true"
"null","<div style=""font-size:60px;"">+</div>","null","html-keyboard-response","272","348570","0.0-6.0-0.133","MIGE","3","f","links","22","","fixation","","","",""
"983","img/60_90.png","74","image-keyboard-response","273","349563","0.0-6.0-1.133","MIGE","3","f","links","22","","","object","j","60","true"
"null","<div style=""font-size:60px;"">+</div>","null","html-keyboard-response","274","349978","0.0-6.0-0.134","MIGE","3","f","links","22","","fixation","","","",""
"646","img/0_60.png","74","image-keyboard-response","275","350634","0.0-6.0-1.134","MIGE","3","f","links","22","","","object","j","0","true"
"null","<div style=""font-size:60px;"">+</div>","null","html-keyboard-response","276","351149","0.0-6.0-0.135","MIGE","3","f","links","22","","fixation","","","",""
"927","img/30_60.png","74","image-keyboard-response","277","352084","0.0-6.0-1.135","MIGE","3","f","links","22","","","object","j","30","true"
"null","<div style=""font-size:60px;"">+</div>","null","html-keyboard-response","278","352398","0.0-6.0-0.136","MIGE","3","f","links","22","","fixation","","","",""
"1573","img/60_210.png","74","image-keyboard-response","279","353986","0.0-6.0-1.136","MIGE","3","f","links","22","","","object","f","60","false"
"null","<div style=""font-size:60px;"">+</div>","null","html-keyboard-response","280","354445","0.0-6.0-0.137","MIGE","3","f","links","22","","fixation","","","",""
"1040","img/0_240.png","70","image-keyboard-response","281","355493","0.0-6.0-1.137","MIGE","3","f","links","22","","","object","f","0","true"
"null","<div style=""font-size:60px;"">+</div>","null","html-keyboard-response","282","355804","0.0-6.0-0.138","MIGE","3","f","links","22","","fixation","","","",""
"1555","img/30_180.png","74","image-keyboard-response","283","357373","0.0-6.0-1.138","MIGE","3","f","links","22","","","object","f","30","false"
"null","<div style=""font-size:60px;"">+</div>","null","html-keyboard-response","284","357830","0.0-6.0-0.139","MIGE","3","f","links","22","","fixation","","","",""
"2337","img/90_240.png","70","image-keyboard-response","285","360178","0.0-6.0-1.139","MIGE","3","f","links","22","","","object","f","90","true"
"null","<div style=""font-size:60px;"">+</div>","null","html-keyboard-response","286","360596","0.0-6.0-0.140","MIGE","3","f","links","22","","fixation","","","",""
"1467","img/60_150.png","74","image-keyboard-response","287","362074","0.0-6.0-1.140","MIGE","3","f","links","22","","","object","j","60","true"
"null","<div style=""font-size:60px;"">+</div>","null","html-keyboard-response","288","362392","0.0-6.0-0.141","MIGE","3","f","links","22","","fixation","","","",""
"1130","img/60_180.png","70","image-keyboard-response","289","363537","0.0-6.0-1.141","MIGE","3","f","links","22","","","object","f","60","true"
"null","<div style=""font-size:60px;"">+</div>","null","html-keyboard-response","290","363916","0.0-6.0-0.142","MIGE","3","f","links","22","","fixation","","","",""
"1329","img/90_300.png","74","image-keyboard-response","291","365258","0.0-6.0-1.142","MIGE","3","f","links","22","","","object","j","90","true"
"null","<div style=""font-size:60px;"">+</div>","null","html-keyboard-response","292","365665","0.0-6.0-0.143","MIGE","3","f","links","22","","fixation","","","",""
"783","img/150_300.png","74","image-keyboard-response","293","366461","0.0-6.0-1.143","MIGE","3","f","links","22","","","object","j","150","true"
"null","<div style=""font-size:60px;"">+</div>","null","html-keyboard-response","294","366884","0.0-6.0-0.144","MIGE","3","f","links","22","","fixation","","","",""
"1165","img/120_270.png","74","image-keyboard-response","295","368059","0.0-6.0-1.144","MIGE","3","f","links","22","","","object","j","120","true"
"null","<div style=""font-size:60px;"">+</div>","null","html-keyboard-response","296","368431","0.0-6.0-0.145","MIGE","3","f","links","22","","fixation","","","",""
"656","img/60_330.png","74","image-keyboard-response","297","369094","0.0-6.0-1.145","MIGE","3","f","links","22","","","object","j","60","true"
"null","<div style=""font-size:60px;"">+</div>","null","html-keyboard-response","298","369400","0.0-6.0-0.146","MIGE","3","f","links","22","","fixation","","","",""
"1049","img/90_180.png","70","image-keyboard-response","299","370465","0.0-6.0-1.146","MIGE","3","f","links","22","","","object","f","90","true"
"null","<div style=""font-size:60px;"">+</div>","null","html-keyboard-response","300","370940","0.0-6.0-0.147","MIGE","3","f","links","22","","fixation","","","",""
"1093","img/150_60.png","70","image-keyboard-response","301","372043","0.0-6.0-1.147","MIGE","3","f","links","22","","","object","f","150","true"
"null","<div style=""font-size:60px;"">+</div>","null","html-keyboard-response","302","372455","0.0-6.0-0.148","MIGE","3","f","links","22","","fixation","","","",""
"1155","img/120_210.png","70","image-keyboard-response","303","373617","0.0-6.0-1.148","MIGE","3","f","links","22","","","object","f","120","true"
"null","<div style=""font-size:60px;"">+</div>","null","html-keyboard-response","304","374137","0.0-6.0-0.149","MIGE","3","f","links","22","","fixation","","","",""
"682","img/60_30.png","70","image-keyboard-response","305","374832","0.0-6.0-1.149","MIGE","3","f","links","22","","","object","f","60","true"
"null","<div style=""font-size:60px;"">+</div>","null","html-keyboard-response","306","375355","0.0-6.0-0.150","MIGE","3","f","links","22","","fixation","","","",""
"654","img/0_330.png","70","image-keyboard-response","307","376024","0.0-6.0-1.150","MIGE","3","f","links","22","","","object","f","0","true"
"null","<div style=""font-size:60px;"">+</div>","null","html-keyboard-response","308","376543","0.0-6.0-0.151","MIGE","3","f","links","22","","fixation","","","",""
"927","img/30_270.png","70","image-keyboard-response","309","377488","0.0-6.0-1.151","MIGE","3","f","links","22","","","object","f","30","true"
"null","<div style=""font-size:60px;"">+</div>","null","html-keyboard-response","310","377917","0.0-6.0-0.152","MIGE","3","f","links","22","","fixation","","","",""
"579","img/0_90.png","74","image-keyboard-response","311","378510","0.0-6.0-1.152","MIGE","3","f","links","22","","","object","j","0","true"
"null","<div style=""font-size:60px;"">+</div>","null","html-keyboard-response","312","378888","0.0-6.0-0.153","MIGE","3","f","links","22","","fixation","","","",""
"1308","img/L60_180.png","74","image-keyboard-response","313","380210","0.0-6.0-1.153","MIGE","3","f","links","22","","","object","j","60","true"
"null","<div style=""font-size:60px;"">+</div>","null","html-keyboard-response","314","380527","0.0-6.0-0.154","MIGE","3","f","links","22","","fixation","","","",""
"684","img/0_210.png","70","image-keyboard-response","315","381222","0.0-6.0-1.154","MIGE","3","f","links","22","","","object","f","0","true"
"null","<div style=""font-size:60px;"">+</div>","null","html-keyboard-response","316","381637","0.0-6.0-0.155","MIGE","3","f","links","22","","fixation","","","",""
"1608","img/150_90.png","70","image-keyboard-response","317","383259","0.0-6.0-1.155","MIGE","3","f","links","22","","","object","f","150","true"
"null","<div style=""font-size:60px;"">+</div>","null","html-keyboard-response","318","383717","0.0-6.0-0.156","MIGE","3","f","links","22","","fixation","","","",""
"563","img/0_150.png","74","image-keyboard-response","319","384293","0.0-6.0-1.156","MIGE","3","f","links","22","","","object","j","0","true"
"null","<div style=""font-size:60px;"">+</div>","null","html-keyboard-response","320","384701","0.0-6.0-0.157","MIGE","3","f","links","22","","fixation","","","",""
"872","img/90_210.png","70","image-keyboard-response","321","385588","0.0-6.0-1.157","MIGE","3","f","links","22","","","object","f","90","true"
"null","<div style=""font-size:60px;"">+</div>","null","html-keyboard-response","322","385951","0.0-6.0-0.158","MIGE","3","f","links","22","","fixation","","","",""
"1028","img/150_180.png","70","image-keyboard-response","323","386993","0.0-6.0-1.158","MIGE","3","f","links","22","","","object","f","150","true"
"null","<div style=""font-size:60px;"">+</div>","null","html-keyboard-response","324","387404","0.0-6.0-0.159","MIGE","3","f","links","22","","fixation","","","",""
"2326","img/L120_180.png","74","image-keyboard-response","325","389740","0.0-6.0-1.159","MIGE","3","f","links","22","","","object","j","120","true"
"null","<div style=""font-size:60px;"">+</div>","null","html-keyboard-response","326","390158","0.0-6.0-0.160","MIGE","3","f","links","22","","fixation","","","",""
"647","img/60_30.png","70","image-keyboard-response","327","390819","0.0-6.0-1.160","MIGE","3","f","links","22","","","object","f","60","true"
"null","<div style=""font-size:60px;"">+</div>","null","html-keyboard-response","328","391127","0.0-6.0-0.161","MIGE","3","f","links","22","","fixation","","","",""
"1269","img/30_180.png","70","image-keyboard-response","329","392405","0.0-6.0-1.161","MIGE","3","f","links","22","","","object","f","30","true"
"null","<div style=""font-size:60px;"">+</div>","null","html-keyboard-response","330","392737","0.0-6.0-0.162","MIGE","3","f","links","22","","fixation","","","",""
"558","img/0_90.png","74","image-keyboard-response","331","393304","0.0-6.0-1.162","MIGE","3","f","links","22","","","object","j","0","true"
"null","<div style=""font-size:60px;"">+</div>","null","html-keyboard-response","332","393821","0.0-6.0-0.163","MIGE","3","f","links","22","","fixation","","","",""
"945","img/30_300.png","70","image-keyboard-response","333","394779","0.0-6.0-1.163","MIGE","3","f","links","22","","","object","f","30","true"
"null","<div style=""font-size:60px;"">+</div>","null","html-keyboard-response","334","395242","0.0-6.0-0.164","MIGE","3","f","links","22","","fixation","","","",""
"1231","img/120_210.png","70","image-keyboard-response","335","396477","0.0-6.0-1.164","MIGE","3","f","links","22","","","object","f","120","true"
"null","<div style=""font-size:60px;"">+</div>","null","html-keyboard-response","336","396993","0.0-6.0-0.165","MIGE","3","f","links","22","","fixation","","","",""
"556","img/0_30.png","74","image-keyboard-response","337","397558","0.0-6.0-1.165","MIGE","3","f","links","22","","","object","j","0","true"
"null","<div style=""font-size:60px;"">+</div>","null","html-keyboard-response","338","397914","0.0-6.0-0.166","MIGE","3","f","links","22","","fixation","","","",""
"912","img/120_30.png","70","image-keyboard-response","339","398840","0.0-6.0-1.166","MIGE","3","f","links","22","","","object","f","120","true"
"null","<div style=""font-size:60px;"">+</div>","null","html-keyboard-response","340","399204","0.0-6.0-0.167","MIGE","3","f","links","22","","fixation","","","",""
"635","img/0_270.png","70","image-keyboard-response","341","399853","0.0-6.0-1.167","MIGE","3","f","links","22","","","object","f","0","true"
"null","<div style=""font-size:60px;"">+</div>","null","html-keyboard-response","342","400220","0.0-6.0-0.168","MIGE","3","f","links","22","","fixation","","","",""
"983","img/30_120.png","74","image-keyboard-response","343","401214","0.0-6.0-1.168","MIGE","3","f","links","22","","","object","j","30","true"
"null","<div style=""font-size:60px;"">+</div>","null","html-keyboard-response","344","401688","0.0-6.0-0.169","MIGE","3","f","links","22","","fixation","","","",""
"1136","img/150_300.png","74","image-keyboard-response","345","402835","0.0-6.0-1.169","MIGE","3","f","links","22","","","object","j","150","true"
"null","<div style=""font-size:60px;"">+</div>","null","html-keyboard-response","346","403142","0.0-6.0-0.170","MIGE","3","f","links","22","","fixation","","","",""
"1331","img/L90_180.png","74","image-keyboard-response","347","404487","0.0-6.0-1.170","MIGE","3","f","links","22","","","object","j","90","true"
"null","<div style=""font-size:60px;"">+</div>","null","html-keyboard-response","348","404860","0.0-6.0-0.171","MIGE","3","f","links","22","","fixation","","","",""
"710","img/0_300.png","70","image-keyboard-response","349","405580","0.0-6.0-1.171","MIGE","3","f","links","22","","","object","f","0","true"
"null","<div style=""font-size:60px;"">+</div>","null","html-keyboard-response","350","405907","0.0-6.0-0.172","MIGE","3","f","links","22","","fixation","","","",""
"1031","img/90_240.png","70","image-keyboard-response","351","406951","0.0-6.0-1.172","MIGE","3","f","links","22","","","object","f","90","true"
"null","<div style=""font-size:60px;"">+</div>","null","html-keyboard-response","352","407407","0.0-6.0-0.173","MIGE","3","f","links","22","","fixation","","","",""
"1481","img/120_270.png","74","image-keyboard-response","353","408898","0.0-6.0-1.173","MIGE","3","f","links","22","","","object","j","120","true"
"null","<div style=""font-size:60px;"">+</div>","null","html-keyboard-response","354","409204","0.0-6.0-0.174","MIGE","3","f","links","22","","fixation","","","",""
"944","img/90_180.png","70","image-keyboard-response","355","410158","0.0-6.0-1.174","MIGE","3","f","links","22","","","object","f","90","true"
"null","<div style=""font-size:60px;"">+</div>","null","html-keyboard-response","356","410579","0.0-6.0-0.175","MIGE","3","f","links","22","","fixation","","","",""
"1297","img/120_150.png","74","image-keyboard-response","357","411891","0.0-6.0-1.175","MIGE","3","f","links","22","","","object","j","120","true"
"null","<div style=""font-size:60px;"">+</div>","null","html-keyboard-response","358","412408","0.0-6.0-0.176","MIGE","3","f","links","22","","fixation","","","",""
"642","img/0_210.png","70","image-keyboard-response","359","413060","0.0-6.0-1.176","MIGE","3","f","links","22","","","object","f","0","true"
"null","<div style=""font-size:60px;"">+</div>","null","html-keyboard-response","360","413565","0.0-6.0-0.177","MIGE","3","f","links","22","","fixation","","","",""
"758","img/L60_180.png","74","image-keyboard-response","361","414335","0.0-6.0-1.177","MIGE","3","f","links","22","","","object","j","60","true"
"null","<div style=""font-size:60px;"">+</div>","null","html-keyboard-response","362","414643","0.0-6.0-0.178","MIGE","3","f","links","22","","fixation","","","",""
"720","img/0_60.png","74","image-keyboard-response","363","415378","0.0-6.0-1.178","MIGE","3","f","links","22","","","object","j","0","true"
"null","<div style=""font-size:60px;"">+</div>","null","html-keyboard-response","364","415737","0.0-6.0-0.179","MIGE","3","f","links","22","","fixation","","","",""
"846","img/60_330.png","74","image-keyboard-response","365","416594","0.0-6.0-1.179","MIGE","3","f","links","22","","","object","j","60","true"
"null","<div style=""font-size:60px;"">+</div>","null","html-keyboard-response","366","417014","0.0-6.0-0.180","MIGE","3","f","links","22","","fixation","","","",""
"1241","img/60_270.png","70","image-keyboard-response","367","418268","0.0-6.0-1.180","MIGE","3","f","links","22","","","object","f","60","true"
"null","<div style=""font-size:60px;"">+</div>","null","html-keyboard-response","368","418639","0.0-6.0-0.181","MIGE","3","f","links","22","","fixation","","","",""
"1136","img/150_270.png","74","image-keyboard-response","369","419788","0.0-6.0-1.181","MIGE","3","f","links","22","","","object","j","150","true"
"null","<div style=""font-size:60px;"">+</div>","null","html-keyboard-response","370","420304","0.0-6.0-0.182","MIGE","3","f","links","22","","fixation","","","",""
"806","img/30_240.png","70","image-keyboard-response","371","421125","0.0-6.0-1.182","MIGE","3","f","links","22","","","object","f","30","true"
"null","<div style=""font-size:60px;"">+</div>","null","html-keyboard-response","372","421601","0.0-6.0-0.183","MIGE","3","f","links","22","","fixation","","","",""
"887","img/90_300.png","74","image-keyboard-response","373","422499","0.0-6.0-1.183","MIGE","3","f","links","22","","","object","j","90","true"
"null","<div style=""font-size:60px;"">+</div>","null","html-keyboard-response","374","423007","0.0-6.0-0.184","MIGE","3","f","links","22","","fixation","","","",""
"776","img/30_270.png","70","image-keyboard-response","375","423793","0.0-6.0-1.184","MIGE","3","f","links","22","","","object","f","30","true"
"null","<div style=""font-size:60px;"">+</div>","null","html-keyboard-response","376","424155","0.0-6.0-0.185","MIGE","3","f","links","22","","fixation","","","",""
"1202","img/30_90.png","74","image-keyboard-response","377","425369","0.0-6.0-1.185","MIGE","3","f","links","22","","","object","j","30","true"
"null","<div style=""font-size:60px;"">+</div>","null","html-keyboard-response","378","425781","0.0-6.0-0.186","MIGE","3","f","links","22","","fixation","","","",""
"946","img/30_60.png","74","image-keyboard-response","379","426740","0.0-6.0-1.186","MIGE","3","f","links","22","","","object","j","30","true"
"null","<div style=""font-size:60px;"">+</div>","null","html-keyboard-response","380","427249","0.0-6.0-0.187","MIGE","3","f","links","22","","fixation","","","",""
"787","img/0_240.png","70","image-keyboard-response","381","428045","0.0-6.0-1.187","MIGE","3","f","links","22","","","object","f","0","true"
"null","<div style=""font-size:60px;"">+</div>","null","html-keyboard-response","382","428421","0.0-6.0-0.188","MIGE","3","f","links","22","","fixation","","","",""
"1379","img/150_90.png","74","image-keyboard-response","383","429812","0.0-6.0-1.188","MIGE","3","f","links","22","","","object","f","150","false"
"null","<div style=""font-size:60px;"">+</div>","null","html-keyboard-response","384","430220","0.0-6.0-0.189","MIGE","3","f","links","22","","fixation","","","",""
"1006","img/120_330.png","74","image-keyboard-response","385","431239","0.0-6.0-1.189","MIGE","3","f","links","22","","","object","j","120","true"
"null","<div style=""font-size:60px;"">+</div>","null","html-keyboard-response","386","431610","0.0-6.0-0.190","MIGE","3","f","links","22","","fixation","","","",""
"584","img/0_120.png","74","image-keyboard-response","387","432208","0.0-6.0-1.190","MIGE","3","f","links","22","","","object","j","0","true"
"null","<div style=""font-size:60px;"">+</div>","null","html-keyboard-response","388","432531","0.0-6.0-0.191","MIGE","3","f","links","22","","fixation","","","",""
"1844","img/L30_180.png","74","image-keyboard-response","389","434391","0.0-6.0-1.191","MIGE","3","f","links","22","","","object","j","30","true"
"null","<div style=""font-size:60px;"">+</div>","null","html-keyboard-response","390","434907","0.0-6.0-0.192","MIGE","3","f","links","22","","fixation","","","",""
"2186","img/90_120.png","74","image-keyboard-response","391","437108","0.0-6.0-1.192","MIGE","3","f","links","22","","","object","j","90","true"
"null","<div style=""font-size:60px;"">+</div>","null","html-keyboard-response","392","437415","0.0-6.0-0.193","MIGE","3","f","links","22","","fixation","","","",""
"898","img/60_150.png","74","image-keyboard-response","393","438327","0.0-6.0-1.193","MIGE","3","f","links","22","","","object","j","60","true"
"null","<div style=""font-size:60px;"">+</div>","null","html-keyboard-response","394","438696","0.0-6.0-0.194","MIGE","3","f","links","22","","fixation","","","",""
"1295","img/60_210.png","70","image-keyboard-response","395","440005","0.0-6.0-1.194","MIGE","3","f","links","22","","","object","f","60","true"
"null","<div style=""font-size:60px;"">+</div>","null","html-keyboard-response","396","440320","0.0-6.0-0.195","MIGE","3","f","links","22","","fixation","","","",""
"976","img/60_90.png","74","image-keyboard-response","397","441309","0.0-6.0-1.195","MIGE","3","f","links","22","","","object","j","60","true"
"null","<div style=""font-size:60px;"">+</div>","null","html-keyboard-response","398","441664","0.0-6.0-0.196","MIGE","3","f","links","22","","fixation","","","",""
"1376","img/120_90.png","70","image-keyboard-response","399","443053","0.0-6.0-1.196","MIGE","3","f","links","22","","","object","f","120","true"
"null","<div style=""font-size:60px;"">+</div>","null","html-keyboard-response","400","443413","0.0-6.0-0.197","MIGE","3","f","links","22","","fixation","","","",""
"772","img/90_30.png","70","image-keyboard-response","401","444200","0.0-6.0-1.197","MIGE","3","f","links","22","","","object","f","90","true"
"null","<div style=""font-size:60px;"">+</div>","null","html-keyboard-response","402","444604","0.0-6.0-0.198","MIGE","3","f","links","22","","fixation","","","",""
"1898","img/120_180.png","74","image-keyboard-response","403","446516","0.0-6.0-1.198","MIGE","3","f","links","22","","","object","f","120","false"
"null","<div style=""font-size:60px;"">+</div>","null","html-keyboard-response","404","446947","0.0-6.0-0.199","MIGE","3","f","links","22","","fixation","","","",""
"1682","img/90_150.png","74","image-keyboard-response","405","448644","0.0-6.0-1.199","MIGE","3","f","links","22","","","object","j","90","true"
"null","<div style=""font-size:60px;"">+</div>","null","html-keyboard-response","406","448958","0.0-6.0-0.200","MIGE","3","f","links","22","","fixation","","","",""
"2895","img/L150_180.png","74","image-keyboard-response","407","451867","0.0-6.0-1.200","MIGE","3","f","links","22","","","object","j","150","true"
"null","<div style=""font-size:60px;"">+</div>","null","html-keyboard-response","408","452222","0.0-6.0-0.201","MIGE","3","f","links","22","","fixation","","","",""
"820","img/90_60.png","70","image-keyboard-response","409","453055","0.0-6.0-1.201","MIGE","3","f","links","22","","","object","f","90","true"
"null","<div style=""font-size:60px;"">+</div>","null","html-keyboard-response","410","453518","0.0-6.0-0.202","MIGE","3","f","links","22","","fixation","","","",""
"731","img/90_330.png","74","image-keyboard-response","411","454259","0.0-6.0-1.202","MIGE","3","f","links","22","","","object","j","90","true"
"null","<div style=""font-size:60px;"">+</div>","null","html-keyboard-response","412","454587","0.0-6.0-0.203","MIGE","3","f","links","22","","fixation","","","",""
"1432","img/60_180.png","70","image-keyboard-response","413","456024","0.0-6.0-1.203","MIGE","3","f","links","22","","","object","f","60","true"
"null","<div style=""font-size:60px;"">+</div>","null","html-keyboard-response","414","456479","0.0-6.0-0.204","MIGE","3","f","links","22","","fixation","","","",""
"1601","img/150_240.png","74","image-keyboard-response","415","458095","0.0-6.0-1.204","MIGE","3","f","links","22","","","object","j","150","true"
"null","<div style=""font-size:60px;"">+</div>","null","html-keyboard-response","416","458509","0.0-6.0-0.205","MIGE","3","f","links","22","","fixation","","","",""
"1443","img/150_60.png","70","image-keyboard-response","417","459962","0.0-6.0-1.205","MIGE","3","f","links","22","","","object","f","150","true"
"null","<div style=""font-size:60px;"">+</div>","null","html-keyboard-response","418","460339","0.0-6.0-0.206","MIGE","3","f","links","22","","fixation","","","",""
"870","img/0_330.png","70","image-keyboard-response","419","461222","0.0-6.0-1.206","MIGE","3","f","links","22","","","object","f","0","true"
"null","<div style=""font-size:60px;"">+</div>","null","html-keyboard-response","420","461605","0.0-6.0-0.207","MIGE","3","f","links","22","","fixation","","","",""
"2500","img/150_120.png","74","image-keyboard-response","421","464118","0.0-6.0-1.207","MIGE","3","f","links","22","","","object","f","150","false"
"20974","<p>Du hast in 94% der Versuche korrekt entschieden.</p><p>Deine durchschnittliche Reaktionszeit war  1093ms.</p><p>Dr&uuml;cke eine beliebige Taste, um die Session zu beenden. Vielen Dank!</p>","32","html-keyboard-response","422","485099","0.0-7.0","MIGE","3","f","links","22","","","","","",""
