"rt","stimulus","key_press","trial_type","trial_index","time_elapsed","internal_node_id","subject","session","sex","handedness","age","responses","test_part","condition","correct_response","angle","correct"
"6519","<p>Mental Rotation Experiment.</p> <p>Dr&uuml;cke eine beliebige Taste, um anzufangen.</p>","13","html-keyboard-response","0","6537","0.0-0.0","MIGE","1","f","links","22","","","","","",""
"4155","","","survey-text","1","10696","0.0-1.0","MIGE","1","f","links","22","{""Q0"":""MIGE""}","","","","",""
"3958","","","survey-text","2","14655","0.0-2.0","MIGE","1","f","links","22","{""Q0"":""1""}","","","","",""
"2273","","","survey-multi-choice","3","16934","0.0-3.0","MIGE","1","f","links","22","{""Q0"":""f"",""Q1"":""links""}","","","","",""
"2208","","","survey-text","4","19142","0.0-4.0","MIGE","1","f","links","22","{""Q0"":""22""}","","","","",""
"47672","<p>Stell dir vor, dass du vor einem runden Tisch stehst, auf dem sich ein blauer Ball am Tischrand befindet. Entlang des Tischrands ist jeweils ein verschieden langer Pfeil. Nun bleibst du an deinem Platz vor dem Tisch und rotierst den Tisch entlang des Pfeils (gleiche Richtung und Länge). </p> <img src='img/30_180.png'></img> <br><p> Nachdem du diese (vorgestellte) Rotation durchgef&uuml;hrt hast, schau in Richtung der Tischmitte, und entscheide dann, ob der Ball links oder rechts von dir liegt.</p> <p>Dr&uuml;cke die <strong>'f'</strong>-Taste f&uuml;r links, die <strong>'j'</strong>-Taste f&uuml;r rechts.</p><br><p> Das Bild wird jeweils 1 Sekunde lang pr&auml;sentiert. Du hast 3 Sekunden Zeit eine Entscheidung zu treffen.</p>","70","html-keyboard-response","5","66822","0.0-5.0","MIGE","1","f","links","22","","","","","",""
"null","<div style=""font-size:60px;"">+</div>","null","html-keyboard-response","6","68268","0.0-6.0-0.0","MIGE","1","f","links","22","","fixation","","","",""
"2094","img/60_90.png","70","image-keyboard-response","7","70371","0.0-6.0-1.0","MIGE","1","f","links","22","","","object","j","60","false"
"null","<div style=""font-size:60px;"">+</div>","null","html-keyboard-response","8","70897","0.0-6.0-0.1","MIGE","1","f","links","22","","fixation","","","",""
"null","img/60_270.png","null","image-keyboard-response","9","73939","0.0-6.0-1.1","MIGE","1","f","links","22","","","object","f","60","false"
"null","<div style=""font-size:60px;"">+</div>","null","html-keyboard-response","10","74307","0.0-6.0-0.2","MIGE","1","f","links","22","","fixation","","","",""
"799","img/0_30.png","74","image-keyboard-response","11","75112","0.0-6.0-1.2","MIGE","1","f","links","22","","","object","j","0","true"
"null","<div style=""font-size:60px;"">+</div>","null","html-keyboard-response","12","75479","0.0-6.0-0.3","MIGE","1","f","links","22","","fixation","","","",""
"842","img/0_300.png","70","image-keyboard-response","13","76339","0.0-6.0-1.3","MIGE","1","f","links","22","","","object","f","0","true"
"null","<div style=""font-size:60px;"">+</div>","null","html-keyboard-response","14","76744","0.0-6.0-0.4","MIGE","1","f","links","22","","fixation","","","",""
"1323","img/30_240.png","70","image-keyboard-response","15","78085","0.0-6.0-1.4","MIGE","1","f","links","22","","","object","f","30","true"
"null","<div style=""font-size:60px;"">+</div>","null","html-keyboard-response","16","78597","0.0-6.0-0.5","MIGE","1","f","links","22","","fixation","","","",""
"1393","img/120_90.png","70","image-keyboard-response","17","80007","0.0-6.0-1.5","MIGE","1","f","links","22","","","object","f","120","true"
"null","<div style=""font-size:60px;"">+</div>","null","html-keyboard-response","18","80363","0.0-6.0-0.6","MIGE","1","f","links","22","","fixation","","","",""
"null","img/90_150.png","null","image-keyboard-response","19","83380","0.0-6.0-1.6","MIGE","1","f","links","22","","","object","j","90","false"
"null","<div style=""font-size:60px;"">+</div>","null","html-keyboard-response","20","83739","0.0-6.0-0.7","MIGE","1","f","links","22","","fixation","","","",""
"134","img/30_270.png","70","image-keyboard-response","21","83893","0.0-6.0-1.7","MIGE","1","f","links","22","","","object","f","30","true"
"null","<div style=""font-size:60px;"">+</div>","null","html-keyboard-response","22","84249","0.0-6.0-0.8","MIGE","1","f","links","22","","fixation","","","",""
"2296","img/30_180.png","70","image-keyboard-response","23","86560","0.0-6.0-1.8","MIGE","1","f","links","22","","","object","f","30","true"
"null","<div style=""font-size:60px;"">+</div>","null","html-keyboard-response","24","86915","0.0-6.0-0.9","MIGE","1","f","links","22","","fixation","","","",""
"1352","img/30_90.png","74","image-keyboard-response","25","88285","0.0-6.0-1.9","MIGE","1","f","links","22","","","object","j","30","true"
"null","<div style=""font-size:60px;"">+</div>","null","html-keyboard-response","26","88712","0.0-6.0-0.10","MIGE","1","f","links","22","","fixation","","","",""
"997","img/0_150.png","74","image-keyboard-response","27","89727","0.0-6.0-1.10","MIGE","1","f","links","22","","","object","j","0","true"
"null","<div style=""font-size:60px;"">+</div>","null","html-keyboard-response","28","90149","0.0-6.0-0.11","MIGE","1","f","links","22","","fixation","","","",""
"null","img/90_240.png","null","image-keyboard-response","29","93181","0.0-6.0-1.11","MIGE","1","f","links","22","","","object","f","90","false"
"null","<div style=""font-size:60px;"">+</div>","null","html-keyboard-response","30","93493","0.0-6.0-0.12","MIGE","1","f","links","22","","fixation","","","",""
"541","img/0_330.png","70","image-keyboard-response","31","94053","0.0-6.0-1.12","MIGE","1","f","links","22","","","object","f","0","true"
"null","<div style=""font-size:60px;"">+</div>","null","html-keyboard-response","32","94359","0.0-6.0-0.13","MIGE","1","f","links","22","","fixation","","","",""
"1581","img/60_180.png","70","image-keyboard-response","33","95949","0.0-6.0-1.13","MIGE","1","f","links","22","","","object","f","60","true"
"null","<div style=""font-size:60px;"">+</div>","null","html-keyboard-response","34","96410","0.0-6.0-0.14","MIGE","1","f","links","22","","fixation","","","",""
"1226","img/150_270.png","74","image-keyboard-response","35","97657","0.0-6.0-1.14","MIGE","1","f","links","22","","","object","j","150","true"
"null","<div style=""font-size:60px;"">+</div>","null","html-keyboard-response","36","97973","0.0-6.0-0.15","MIGE","1","f","links","22","","fixation","","","",""
"1905","img/90_180.png","70","image-keyboard-response","37","99894","0.0-6.0-1.15","MIGE","1","f","links","22","","","object","f","90","true"
"null","<div style=""font-size:60px;"">+</div>","null","html-keyboard-response","38","100410","0.0-6.0-0.16","MIGE","1","f","links","22","","fixation","","","",""
"1108","img/L90_180.png","74","image-keyboard-response","39","101540","0.0-6.0-1.16","MIGE","1","f","links","22","","","object","j","90","true"
"null","<div style=""font-size:60px;"">+</div>","null","html-keyboard-response","40","101894","0.0-6.0-0.17","MIGE","1","f","links","22","","fixation","","","",""
"2851","img/120_150.png","74","image-keyboard-response","41","104763","0.0-6.0-1.17","MIGE","1","f","links","22","","","object","j","120","true"
"null","<div style=""font-size:60px;"">+</div>","null","html-keyboard-response","42","105164","0.0-6.0-0.18","MIGE","1","f","links","22","","fixation","","","",""
"2070","img/L120_180.png","74","image-keyboard-response","43","107253","0.0-6.0-1.18","MIGE","1","f","links","22","","","object","j","120","true"
"null","<div style=""font-size:60px;"">+</div>","null","html-keyboard-response","44","107765","0.0-6.0-0.19","MIGE","1","f","links","22","","fixation","","","",""
"2296","img/30_300.png","70","image-keyboard-response","45","110079","0.0-6.0-1.19","MIGE","1","f","links","22","","","object","f","30","true"
"null","<div style=""font-size:60px;"">+</div>","null","html-keyboard-response","46","110592","0.0-6.0-0.20","MIGE","1","f","links","22","","fixation","","","",""
"818","img/0_120.png","74","image-keyboard-response","47","111428","0.0-6.0-1.20","MIGE","1","f","links","22","","","object","j","0","true"
"null","<div style=""font-size:60px;"">+</div>","null","html-keyboard-response","48","111891","0.0-6.0-0.21","MIGE","1","f","links","22","","fixation","","","",""
"815","img/0_60.png","74","image-keyboard-response","49","112722","0.0-6.0-1.21","MIGE","1","f","links","22","","","object","j","0","true"
"null","<div style=""font-size:60px;"">+</div>","null","html-keyboard-response","50","113229","0.0-6.0-0.22","MIGE","1","f","links","22","","fixation","","","",""
"1792","img/120_330.png","74","image-keyboard-response","51","115029","0.0-6.0-1.22","MIGE","1","f","links","22","","","object","j","120","true"
"null","<div style=""font-size:60px;"">+</div>","null","html-keyboard-response","52","115504","0.0-6.0-0.23","MIGE","1","f","links","22","","fixation","","","",""
"2619","img/120_270.png","74","image-keyboard-response","53","118138","0.0-6.0-1.23","MIGE","1","f","links","22","","","object","j","120","true"
"null","<div style=""font-size:60px;"">+</div>","null","html-keyboard-response","54","118618","0.0-6.0-0.24","MIGE","1","f","links","22","","fixation","","","",""
"1004","img/0_210.png","70","image-keyboard-response","55","119642","0.0-6.0-1.24","MIGE","1","f","links","22","","","object","f","0","true"
"null","<div style=""font-size:60px;"">+</div>","null","html-keyboard-response","56","119994","0.0-6.0-0.25","MIGE","1","f","links","22","","fixation","","","",""
"1992","img/90_210.png","70","image-keyboard-response","57","122003","0.0-6.0-1.25","MIGE","1","f","links","22","","","object","f","90","true"
"null","<div style=""font-size:60px;"">+</div>","null","html-keyboard-response","58","122423","0.0-6.0-0.26","MIGE","1","f","links","22","","fixation","","","",""
"1891","img/30_60.png","74","image-keyboard-response","59","124323","0.0-6.0-1.26","MIGE","1","f","links","22","","","object","j","30","true"
"null","<div style=""font-size:60px;"">+</div>","null","html-keyboard-response","60","124673","0.0-6.0-0.27","MIGE","1","f","links","22","","fixation","","","",""
"1504","img/60_150.png","74","image-keyboard-response","61","126186","0.0-6.0-1.27","MIGE","1","f","links","22","","","object","j","60","true"
"null","<div style=""font-size:60px;"">+</div>","null","html-keyboard-response","62","126646","0.0-6.0-0.28","MIGE","1","f","links","22","","fixation","","","",""
"885","img/0_270.png","70","image-keyboard-response","63","127549","0.0-6.0-1.28","MIGE","1","f","links","22","","","object","f","0","true"
"null","<div style=""font-size:60px;"">+</div>","null","html-keyboard-response","64","128060","0.0-6.0-0.29","MIGE","1","f","links","22","","fixation","","","",""
"null","img/150_240.png","null","image-keyboard-response","65","131082","0.0-6.0-1.29","MIGE","1","f","links","22","","","object","j","150","false"
"null","<div style=""font-size:60px;"">+</div>","null","html-keyboard-response","66","131592","0.0-6.0-0.30","MIGE","1","f","links","22","","fixation","","","",""
"1136","img/120_30.png","70","image-keyboard-response","67","132748","0.0-6.0-1.30","MIGE","1","f","links","22","","","object","f","120","true"
"null","<div style=""font-size:60px;"">+</div>","null","html-keyboard-response","68","133159","0.0-6.0-0.31","MIGE","1","f","links","22","","fixation","","","",""
"1346","img/90_30.png","70","image-keyboard-response","69","134523","0.0-6.0-1.31","MIGE","1","f","links","22","","","object","f","90","true"
"null","<div style=""font-size:60px;"">+</div>","null","html-keyboard-response","70","134894","0.0-6.0-0.32","MIGE","1","f","links","22","","fixation","","","",""
"1175","img/150_300.png","74","image-keyboard-response","71","136088","0.0-6.0-1.32","MIGE","1","f","links","22","","","object","j","150","true"
"null","<div style=""font-size:60px;"">+</div>","null","html-keyboard-response","72","136441","0.0-6.0-0.33","MIGE","1","f","links","22","","fixation","","","",""
"1044","img/0_90.png","74","image-keyboard-response","73","137505","0.0-6.0-1.33","MIGE","1","f","links","22","","","object","j","0","true"
"null","<div style=""font-size:60px;"">+</div>","null","html-keyboard-response","74","137816","0.0-6.0-0.34","MIGE","1","f","links","22","","fixation","","","",""
"1630","img/120_180.png","70","image-keyboard-response","75","139465","0.0-6.0-1.34","MIGE","1","f","links","22","","","object","f","120","true"
"null","<div style=""font-size:60px;"">+</div>","null","html-keyboard-response","76","139769","0.0-6.0-0.35","MIGE","1","f","links","22","","fixation","","","",""
"991","img/90_330.png","74","image-keyboard-response","77","140778","0.0-6.0-1.35","MIGE","1","f","links","22","","","object","j","90","true"
"null","<div style=""font-size:60px;"">+</div>","null","html-keyboard-response","78","141159","0.0-6.0-0.36","MIGE","1","f","links","22","","fixation","","","",""
"1561","img/150_90.png","70","image-keyboard-response","79","142738","0.0-6.0-1.36","MIGE","1","f","links","22","","","object","f","150","true"
"null","<div style=""font-size:60px;"">+</div>","null","html-keyboard-response","80","143207","0.0-6.0-0.37","MIGE","1","f","links","22","","fixation","","","",""
"1177","img/90_300.png","74","image-keyboard-response","81","144402","0.0-6.0-1.37","MIGE","1","f","links","22","","","object","j","90","true"
"null","<div style=""font-size:60px;"">+</div>","null","html-keyboard-response","82","144769","0.0-6.0-0.38","MIGE","1","f","links","22","","fixation","","","",""
"1381","img/60_30.png","70","image-keyboard-response","83","146170","0.0-6.0-1.38","MIGE","1","f","links","22","","","object","f","60","true"
"null","<div style=""font-size:60px;"">+</div>","null","html-keyboard-response","84","146534","0.0-6.0-0.39","MIGE","1","f","links","22","","fixation","","","",""
"1269","img/90_60.png","70","image-keyboard-response","85","147822","0.0-6.0-1.39","MIGE","1","f","links","22","","","object","f","90","true"
"null","<div style=""font-size:60px;"">+</div>","null","html-keyboard-response","86","148285","0.0-6.0-0.40","MIGE","1","f","links","22","","fixation","","","",""
"2427","img/120_210.png","70","image-keyboard-response","87","150730","0.0-6.0-1.40","MIGE","1","f","links","22","","","object","f","120","true"
"null","<div style=""font-size:60px;"">+</div>","null","html-keyboard-response","88","151242","0.0-6.0-0.41","MIGE","1","f","links","22","","fixation","","","",""
"2192","img/L60_180.png","74","image-keyboard-response","89","153454","0.0-6.0-1.41","MIGE","1","f","links","22","","","object","j","60","true"
"null","<div style=""font-size:60px;"">+</div>","null","html-keyboard-response","90","153761","0.0-6.0-0.42","MIGE","1","f","links","22","","fixation","","","",""
"1615","img/60_210.png","70","image-keyboard-response","91","155393","0.0-6.0-1.42","MIGE","1","f","links","22","","","object","f","60","true"
"null","<div style=""font-size:60px;"">+</div>","null","html-keyboard-response","92","155854","0.0-6.0-0.43","MIGE","1","f","links","22","","fixation","","","",""
"1188","img/30_120.png","74","image-keyboard-response","93","157060","0.0-6.0-1.43","MIGE","1","f","links","22","","","object","j","30","true"
"null","<div style=""font-size:60px;"">+</div>","null","html-keyboard-response","94","157527","0.0-6.0-0.44","MIGE","1","f","links","22","","fixation","","","",""
"1292","img/150_60.png","70","image-keyboard-response","95","158838","0.0-6.0-1.44","MIGE","1","f","links","22","","","object","f","150","true"
"null","<div style=""font-size:60px;"">+</div>","null","html-keyboard-response","96","159292","0.0-6.0-0.45","MIGE","1","f","links","22","","fixation","","","",""
"922","img/60_330.png","74","image-keyboard-response","97","160233","0.0-6.0-1.45","MIGE","1","f","links","22","","","object","j","60","true"
"null","<div style=""font-size:60px;"">+</div>","null","html-keyboard-response","98","160644","0.0-6.0-0.46","MIGE","1","f","links","22","","fixation","","","",""
"3016","img/L150_180.png","74","image-keyboard-response","99","163678","0.0-6.0-1.46","MIGE","1","f","links","22","","","object","j","150","true"
"null","<div style=""font-size:60px;"">+</div>","null","html-keyboard-response","100","164206","0.0-6.0-0.47","MIGE","1","f","links","22","","fixation","","","",""
"2548","img/90_120.png","74","image-keyboard-response","101","166772","0.0-6.0-1.47","MIGE","1","f","links","22","","","object","j","90","true"
"null","<div style=""font-size:60px;"">+</div>","null","html-keyboard-response","102","167284","0.0-6.0-0.48","MIGE","1","f","links","22","","fixation","","","",""
"1329","img/L30_180.png","74","image-keyboard-response","103","168634","0.0-6.0-1.48","MIGE","1","f","links","22","","","object","j","30","true"
"null","<div style=""font-size:60px;"">+</div>","null","html-keyboard-response","104","168939","0.0-6.0-0.49","MIGE","1","f","links","22","","fixation","","","",""
"2866","img/150_120.png","74","image-keyboard-response","105","171822","0.0-6.0-1.49","MIGE","1","f","links","22","","","object","f","150","false"
"null","<div style=""font-size:60px;"">+</div>","null","html-keyboard-response","106","172304","0.0-6.0-0.50","MIGE","1","f","links","22","","fixation","","","",""
"904","img/0_240.png","70","image-keyboard-response","107","173224","0.0-6.0-1.50","MIGE","1","f","links","22","","","object","f","0","true"
"null","<div style=""font-size:60px;"">+</div>","null","html-keyboard-response","108","173582","0.0-6.0-0.51","MIGE","1","f","links","22","","fixation","","","",""
"null","img/150_180.png","null","image-keyboard-response","109","176629","0.0-6.0-1.51","MIGE","1","f","links","22","","","object","f","150","false"
"null","<div style=""font-size:60px;"">+</div>","null","html-keyboard-response","110","177003","0.0-6.0-0.52","MIGE","1","f","links","22","","fixation","","","",""
"734","img/0_60.png","74","image-keyboard-response","111","177748","0.0-6.0-1.52","MIGE","1","f","links","22","","","object","j","0","true"
"null","<div style=""font-size:60px;"">+</div>","null","html-keyboard-response","112","178051","0.0-6.0-0.53","MIGE","1","f","links","22","","fixation","","","",""
"1173","img/90_30.png","70","image-keyboard-response","113","179233","0.0-6.0-1.53","MIGE","1","f","links","22","","","object","f","90","true"
"null","<div style=""font-size:60px;"">+</div>","null","html-keyboard-response","114","179597","0.0-6.0-0.54","MIGE","1","f","links","22","","fixation","","","",""
"769","img/0_240.png","70","image-keyboard-response","115","180370","0.0-6.0-1.54","MIGE","1","f","links","22","","","object","f","0","true"
"null","<div style=""font-size:60px;"">+</div>","null","html-keyboard-response","116","180738","0.0-6.0-0.55","MIGE","1","f","links","22","","fixation","","","",""
"2649","img/L90_180.png","74","image-keyboard-response","117","183401","0.0-6.0-1.55","MIGE","1","f","links","22","","","object","j","90","true"
"null","<div style=""font-size:60px;"">+</div>","null","html-keyboard-response","118","183756","0.0-6.0-0.56","MIGE","1","f","links","22","","fixation","","","",""
"2287","img/30_270.png","70","image-keyboard-response","119","186056","0.0-6.0-1.56","MIGE","1","f","links","22","","","object","f","30","true"
"null","<div style=""font-size:60px;"">+</div>","null","html-keyboard-response","120","186410","0.0-6.0-0.57","MIGE","1","f","links","22","","fixation","","","",""
"2263","img/90_120.png","74","image-keyboard-response","121","188683","0.0-6.0-1.57","MIGE","1","f","links","22","","","object","j","90","true"
"null","<div style=""font-size:60px;"">+</div>","null","html-keyboard-response","122","189101","0.0-6.0-0.58","MIGE","1","f","links","22","","fixation","","","",""
"738","img/0_150.png","74","image-keyboard-response","123","189852","0.0-6.0-1.58","MIGE","1","f","links","22","","","object","j","0","true"
"null","<div style=""font-size:60px;"">+</div>","null","html-keyboard-response","124","190179","0.0-6.0-0.59","MIGE","1","f","links","22","","fixation","","","",""
"1360","img/30_180.png","70","image-keyboard-response","125","191553","0.0-6.0-1.59","MIGE","1","f","links","22","","","object","f","30","true"
"null","<div style=""font-size:60px;"">+</div>","null","html-keyboard-response","126","191960","0.0-6.0-0.60","MIGE","1","f","links","22","","fixation","","","",""
"2351","img/120_330.png","74","image-keyboard-response","127","194324","0.0-6.0-1.60","MIGE","1","f","links","22","","","object","j","120","true"
"null","<div style=""font-size:60px;"">+</div>","null","html-keyboard-response","128","194740","0.0-6.0-0.61","MIGE","1","f","links","22","","fixation","","","",""
"724","img/0_330.png","70","image-keyboard-response","129","195476","0.0-6.0-1.61","MIGE","1","f","links","22","","","object","f","0","true"
"null","<div style=""font-size:60px;"">+</div>","null","html-keyboard-response","130","195943","0.0-6.0-0.62","MIGE","1","f","links","22","","fixation","","","",""
"null","img/150_180.png","null","image-keyboard-response","131","198969","0.0-6.0-1.62","MIGE","1","f","links","22","","","object","f","150","false"
"null","<div style=""font-size:60px;"">+</div>","null","html-keyboard-response","132","199287","0.0-6.0-0.63","MIGE","1","f","links","22","","fixation","","","",""
"1751","img/90_330.png","74","image-keyboard-response","133","201047","0.0-6.0-1.63","MIGE","1","f","links","22","","","object","j","90","true"
"null","<div style=""font-size:60px;"">+</div>","null","html-keyboard-response","134","201363","0.0-6.0-0.64","MIGE","1","f","links","22","","fixation","","","",""
"1493","img/30_90.png","74","image-keyboard-response","135","202870","0.0-6.0-1.64","MIGE","1","f","links","22","","","object","j","30","true"
"null","<div style=""font-size:60px;"">+</div>","null","html-keyboard-response","136","203376","0.0-6.0-0.65","MIGE","1","f","links","22","","fixation","","","",""
"1619","img/90_180.png","70","image-keyboard-response","137","205008","0.0-6.0-1.65","MIGE","1","f","links","22","","","object","f","90","true"
"null","<div style=""font-size:60px;"">+</div>","null","html-keyboard-response","138","205422","0.0-6.0-0.66","MIGE","1","f","links","22","","fixation","","","",""
"1330","img/L60_180.png","74","image-keyboard-response","139","206761","0.0-6.0-1.66","MIGE","1","f","links","22","","","object","j","60","true"
"null","<div style=""font-size:60px;"">+</div>","null","html-keyboard-response","140","207235","0.0-6.0-0.67","MIGE","1","f","links","22","","fixation","","","",""
"1365","img/90_60.png","70","image-keyboard-response","141","208608","0.0-6.0-1.67","MIGE","1","f","links","22","","","object","f","90","true"
"null","<div style=""font-size:60px;"">+</div>","null","html-keyboard-response","142","208985","0.0-6.0-0.68","MIGE","1","f","links","22","","fixation","","","",""
"2877","img/90_210.png","70","image-keyboard-response","143","211874","0.0-6.0-1.68","MIGE","1","f","links","22","","","object","f","90","true"
"null","<div style=""font-size:60px;"">+</div>","null","html-keyboard-response","144","212183","0.0-6.0-0.69","MIGE","1","f","links","22","","fixation","","","",""
"2422","img/60_90.png","74","image-keyboard-response","145","214620","0.0-6.0-1.69","MIGE","1","f","links","22","","","object","j","60","true"
"null","<div style=""font-size:60px;"">+</div>","null","html-keyboard-response","146","214991","0.0-6.0-0.70","MIGE","1","f","links","22","","fixation","","","",""
"2565","img/120_270.png","74","image-keyboard-response","147","217568","0.0-6.0-1.70","MIGE","1","f","links","22","","","object","j","120","true"
"null","<div style=""font-size:60px;"">+</div>","null","html-keyboard-response","148","218079","0.0-6.0-0.71","MIGE","1","f","links","22","","fixation","","","",""
"1364","img/150_300.png","74","image-keyboard-response","149","219453","0.0-6.0-1.71","MIGE","1","f","links","22","","","object","j","150","true"
"null","<div style=""font-size:60px;"">+</div>","null","html-keyboard-response","150","219861","0.0-6.0-0.72","MIGE","1","f","links","22","","fixation","","","",""
"1349","img/150_60.png","70","image-keyboard-response","151","221219","0.0-6.0-1.72","MIGE","1","f","links","22","","","object","f","150","true"
"null","<div style=""font-size:60px;"">+</div>","null","html-keyboard-response","152","221594","0.0-6.0-0.73","MIGE","1","f","links","22","","fixation","","","",""
"760","img/0_300.png","70","image-keyboard-response","153","222367","0.0-6.0-1.73","MIGE","1","f","links","22","","","object","f","0","true"
"null","<div style=""font-size:60px;"">+</div>","null","html-keyboard-response","154","222800","0.0-6.0-0.74","MIGE","1","f","links","22","","fixation","","","",""
"592","img/0_90.png","74","image-keyboard-response","155","223401","0.0-6.0-1.74","MIGE","1","f","links","22","","","object","j","0","true"
"null","<div style=""font-size:60px;"">+</div>","null","html-keyboard-response","156","223753","0.0-6.0-0.75","MIGE","1","f","links","22","","fixation","","","",""
"1729","img/150_270.png","74","image-keyboard-response","157","225493","0.0-6.0-1.75","MIGE","1","f","links","22","","","object","j","150","true"
"null","<div style=""font-size:60px;"">+</div>","null","html-keyboard-response","158","225910","0.0-6.0-0.76","MIGE","1","f","links","22","","fixation","","","",""
"1561","img/L120_180.png","70","image-keyboard-response","159","227484","0.0-6.0-1.76","MIGE","1","f","links","22","","","object","j","120","false"
"null","<div style=""font-size:60px;"">+</div>","null","html-keyboard-response","160","227895","0.0-6.0-0.77","MIGE","1","f","links","22","","fixation","","","",""
"1605","img/30_120.png","74","image-keyboard-response","161","229510","0.0-6.0-1.77","MIGE","1","f","links","22","","","object","j","30","true"
"null","<div style=""font-size:60px;"">+</div>","null","html-keyboard-response","162","229924","0.0-6.0-0.78","MIGE","1","f","links","22","","fixation","","","",""
"1697","img/30_240.png","70","image-keyboard-response","163","231634","0.0-6.0-1.78","MIGE","1","f","links","22","","","object","f","30","true"
"null","<div style=""font-size:60px;"">+</div>","null","html-keyboard-response","164","231986","0.0-6.0-0.79","MIGE","1","f","links","22","","fixation","","","",""
"2055","img/90_150.png","74","image-keyboard-response","165","234055","0.0-6.0-1.79","MIGE","1","f","links","22","","","object","j","90","true"
"null","<div style=""font-size:60px;"">+</div>","null","html-keyboard-response","166","234566","0.0-6.0-0.80","MIGE","1","f","links","22","","fixation","","","",""
"1959","img/30_300.png","70","image-keyboard-response","167","236540","0.0-6.0-1.80","MIGE","1","f","links","22","","","object","f","30","true"
"null","<div style=""font-size:60px;"">+</div>","null","html-keyboard-response","168","237017","0.0-6.0-0.81","MIGE","1","f","links","22","","fixation","","","",""
"1454","img/120_30.png","70","image-keyboard-response","169","238484","0.0-6.0-1.81","MIGE","1","f","links","22","","","object","f","120","true"
"null","<div style=""font-size:60px;"">+</div>","null","html-keyboard-response","170","238852","0.0-6.0-0.82","MIGE","1","f","links","22","","fixation","","","",""
"1130","img/0_210.png","70","image-keyboard-response","171","239995","0.0-6.0-1.82","MIGE","1","f","links","22","","","object","f","0","true"
"null","<div style=""font-size:60px;"">+</div>","null","html-keyboard-response","172","240357","0.0-6.0-0.83","MIGE","1","f","links","22","","fixation","","","",""
"null","img/60_210.png","null","image-keyboard-response","173","243388","0.0-6.0-1.83","MIGE","1","f","links","22","","","object","f","60","false"
"null","<div style=""font-size:60px;"">+</div>","null","html-keyboard-response","174","243763","0.0-6.0-0.84","MIGE","1","f","links","22","","fixation","","","",""
"1062","img/150_90.png","70","image-keyboard-response","175","244831","0.0-6.0-1.84","MIGE","1","f","links","22","","","object","f","150","true"
"null","<div style=""font-size:60px;"">+</div>","null","html-keyboard-response","176","245203","0.0-6.0-0.85","MIGE","1","f","links","22","","fixation","","","",""
"1811","img/60_150.png","74","image-keyboard-response","177","247027","0.0-6.0-1.85","MIGE","1","f","links","22","","","object","j","60","true"
"null","<div style=""font-size:60px;"">+</div>","null","html-keyboard-response","178","247436","0.0-6.0-0.86","MIGE","1","f","links","22","","fixation","","","",""
"1775","img/60_330.png","74","image-keyboard-response","179","249220","0.0-6.0-1.86","MIGE","1","f","links","22","","","object","j","60","true"
"null","<div style=""font-size:60px;"">+</div>","null","html-keyboard-response","180","249731","0.0-6.0-0.87","MIGE","1","f","links","22","","fixation","","","",""
"2622","img/120_150.png","70","image-keyboard-response","181","252370","0.0-6.0-1.87","MIGE","1","f","links","22","","","object","j","120","false"
"null","<div style=""font-size:60px;"">+</div>","null","html-keyboard-response","182","252826","0.0-6.0-0.88","MIGE","1","f","links","22","","fixation","","","",""
"1372","img/90_300.png","74","image-keyboard-response","183","254203","0.0-6.0-1.88","MIGE","1","f","links","22","","","object","j","90","true"
"null","<div style=""font-size:60px;"">+</div>","null","html-keyboard-response","184","254608","0.0-6.0-0.89","MIGE","1","f","links","22","","fixation","","","",""
"2165","img/120_90.png","70","image-keyboard-response","185","256778","0.0-6.0-1.89","MIGE","1","f","links","22","","","object","f","120","true"
"null","<div style=""font-size:60px;"">+</div>","null","html-keyboard-response","186","257186","0.0-6.0-0.90","MIGE","1","f","links","22","","fixation","","","",""
"1992","img/L150_180.png","74","image-keyboard-response","187","259189","0.0-6.0-1.90","MIGE","1","f","links","22","","","object","j","150","true"
"null","<div style=""font-size:60px;"">+</div>","null","html-keyboard-response","188","259608","0.0-6.0-0.91","MIGE","1","f","links","22","","fixation","","","",""
"712","img/0_120.png","74","image-keyboard-response","189","260335","0.0-6.0-1.91","MIGE","1","f","links","22","","","object","j","0","true"
"null","<div style=""font-size:60px;"">+</div>","null","html-keyboard-response","190","260717","0.0-6.0-0.92","MIGE","1","f","links","22","","fixation","","","",""
"2273","img/0_270.png","70","image-keyboard-response","191","263003","0.0-6.0-1.92","MIGE","1","f","links","22","","","object","f","0","true"
"null","<div style=""font-size:60px;"">+</div>","null","html-keyboard-response","192","263426","0.0-6.0-0.93","MIGE","1","f","links","22","","fixation","","","",""
"1519","img/30_60.png","74","image-keyboard-response","193","264959","0.0-6.0-1.93","MIGE","1","f","links","22","","","object","j","30","true"
"null","<div style=""font-size:60px;"">+</div>","null","html-keyboard-response","194","265268","0.0-6.0-0.94","MIGE","1","f","links","22","","fixation","","","",""
"2673","img/150_120.png","70","image-keyboard-response","195","267952","0.0-6.0-1.94","MIGE","1","f","links","22","","","object","f","150","true"
"null","<div style=""font-size:60px;"">+</div>","null","html-keyboard-response","196","268454","0.0-6.0-0.95","MIGE","1","f","links","22","","fixation","","","",""
"686","img/0_30.png","74","image-keyboard-response","197","269155","0.0-6.0-1.95","MIGE","1","f","links","22","","","object","j","0","true"
"null","<div style=""font-size:60px;"">+</div>","null","html-keyboard-response","198","269471","0.0-6.0-0.96","MIGE","1","f","links","22","","fixation","","","",""
"1471","img/L30_180.png","74","image-keyboard-response","199","270956","0.0-6.0-1.96","MIGE","1","f","links","22","","","object","j","30","true"
"null","<div style=""font-size:60px;"">+</div>","null","html-keyboard-response","200","271504","0.0-6.0-0.97","MIGE","1","f","links","22","","fixation","","","",""
"2060","img/150_240.png","74","image-keyboard-response","201","273577","0.0-6.0-1.97","MIGE","1","f","links","22","","","object","j","150","true"
"null","<div style=""font-size:60px;"">+</div>","null","html-keyboard-response","202","274047","0.0-6.0-0.98","MIGE","1","f","links","22","","fixation","","","",""
"2937","img/120_180.png","70","image-keyboard-response","203","276998","0.0-6.0-1.98","MIGE","1","f","links","22","","","object","f","120","true"
"null","<div style=""font-size:60px;"">+</div>","null","html-keyboard-response","204","277406","0.0-6.0-0.99","MIGE","1","f","links","22","","fixation","","","",""
"1996","img/60_180.png","70","image-keyboard-response","205","279415","0.0-6.0-1.99","MIGE","1","f","links","22","","","object","f","60","true"
"null","<div style=""font-size:60px;"">+</div>","null","html-keyboard-response","206","279785","0.0-6.0-0.100","MIGE","1","f","links","22","","fixation","","","",""
"2041","img/90_240.png","70","image-keyboard-response","207","281833","0.0-6.0-1.100","MIGE","1","f","links","22","","","object","f","90","true"
"null","<div style=""font-size:60px;"">+</div>","null","html-keyboard-response","208","282285","0.0-6.0-0.101","MIGE","1","f","links","22","","fixation","","","",""
"1402","img/60_30.png","70","image-keyboard-response","209","283701","0.0-6.0-1.101","MIGE","1","f","links","22","","","object","f","60","true"
"null","<div style=""font-size:60px;"">+</div>","null","html-keyboard-response","210","284081","0.0-6.0-0.102","MIGE","1","f","links","22","","fixation","","","",""
"1666","img/60_270.png","70","image-keyboard-response","211","285760","0.0-6.0-1.102","MIGE","1","f","links","22","","","object","f","60","true"
"null","<div style=""font-size:60px;"">+</div>","null","html-keyboard-response","212","286112","0.0-6.0-0.103","MIGE","1","f","links","22","","fixation","","","",""
"2143","img/120_210.png","70","image-keyboard-response","213","288271","0.0-6.0-1.103","MIGE","1","f","links","22","","","object","f","120","true"
"null","<div style=""font-size:60px;"">+</div>","null","html-keyboard-response","214","288582","0.0-6.0-0.104","MIGE","1","f","links","22","","fixation","","","",""
"945","img/0_150.png","74","image-keyboard-response","215","289539","0.0-6.0-1.104","MIGE","1","f","links","22","","","object","j","0","true"
"null","<div style=""font-size:60px;"">+</div>","null","html-keyboard-response","216","289894","0.0-6.0-0.105","MIGE","1","f","links","22","","fixation","","","",""
"1700","img/L120_180.png","74","image-keyboard-response","217","291600","0.0-6.0-1.105","MIGE","1","f","links","22","","","object","j","120","true"
"null","<div style=""font-size:60px;"">+</div>","null","html-keyboard-response","218","292003","0.0-6.0-0.106","MIGE","1","f","links","22","","fixation","","","",""
"1676","img/30_180.png","70","image-keyboard-response","219","293694","0.0-6.0-1.106","MIGE","1","f","links","22","","","object","f","30","true"
"null","<div style=""font-size:60px;"">+</div>","null","html-keyboard-response","220","294051","0.0-6.0-0.107","MIGE","1","f","links","22","","fixation","","","",""
"2173","img/60_90.png","74","image-keyboard-response","221","296236","0.0-6.0-1.107","MIGE","1","f","links","22","","","object","j","60","true"
"null","<div style=""font-size:60px;"">+</div>","null","html-keyboard-response","222","296761","0.0-6.0-0.108","MIGE","1","f","links","22","","fixation","","","",""
"1904","img/120_180.png","70","image-keyboard-response","223","298675","0.0-6.0-1.108","MIGE","1","f","links","22","","","object","f","120","true"
"null","<div style=""font-size:60px;"">+</div>","null","html-keyboard-response","224","299077","0.0-6.0-0.109","MIGE","1","f","links","22","","fixation","","","",""
"1687","img/30_270.png","70","image-keyboard-response","225","300781","0.0-6.0-1.109","MIGE","1","f","links","22","","","object","f","30","true"
"null","<div style=""font-size:60px;"">+</div>","null","html-keyboard-response","226","301094","0.0-6.0-0.110","MIGE","1","f","links","22","","fixation","","","",""
"1541","img/150_270.png","74","image-keyboard-response","227","302647","0.0-6.0-1.110","MIGE","1","f","links","22","","","object","j","150","true"
"null","<div style=""font-size:60px;"">+</div>","null","html-keyboard-response","228","303014","0.0-6.0-0.111","MIGE","1","f","links","22","","fixation","","","",""
"691","img/0_30.png","74","image-keyboard-response","229","303716","0.0-6.0-1.111","MIGE","1","f","links","22","","","object","j","0","true"
"null","<div style=""font-size:60px;"">+</div>","null","html-keyboard-response","230","304090","0.0-6.0-0.112","MIGE","1","f","links","22","","fixation","","","",""
"1506","img/90_150.png","70","image-keyboard-response","231","305605","0.0-6.0-1.112","MIGE","1","f","links","22","","","object","j","90","false"
"null","<div style=""font-size:60px;"">+</div>","null","html-keyboard-response","232","306133","0.0-6.0-0.113","MIGE","1","f","links","22","","fixation","","","",""
"1215","img/30_90.png","74","image-keyboard-response","233","307362","0.0-6.0-1.113","MIGE","1","f","links","22","","","object","j","30","true"
"null","<div style=""font-size:60px;"">+</div>","null","html-keyboard-response","234","307815","0.0-6.0-0.114","MIGE","1","f","links","22","","fixation","","","",""
"1707","img/120_270.png","74","image-keyboard-response","235","309532","0.0-6.0-1.114","MIGE","1","f","links","22","","","object","j","120","true"
"null","<div style=""font-size:60px;"">+</div>","null","html-keyboard-response","236","310002","0.0-6.0-0.115","MIGE","1","f","links","22","","fixation","","","",""
"1748","img/60_330.png","74","image-keyboard-response","237","311760","0.0-6.0-1.115","MIGE","1","f","links","22","","","object","j","60","true"
"null","<div style=""font-size:60px;"">+</div>","null","html-keyboard-response","238","312288","0.0-6.0-0.116","MIGE","1","f","links","22","","fixation","","","",""
"null","img/150_240.png","null","image-keyboard-response","239","315301","0.0-6.0-1.116","MIGE","1","f","links","22","","","object","j","150","false"
"null","<div style=""font-size:60px;"">+</div>","null","html-keyboard-response","240","315816","0.0-6.0-0.117","MIGE","1","f","links","22","","fixation","","","",""
"2482","img/60_270.png","70","image-keyboard-response","241","318307","0.0-6.0-1.117","MIGE","1","f","links","22","","","object","f","60","true"
"null","<div style=""font-size:60px;"">+</div>","null","html-keyboard-response","242","318768","0.0-6.0-0.118","MIGE","1","f","links","22","","fixation","","","",""
"2351","img/90_300.png","74","image-keyboard-response","243","321129","0.0-6.0-1.118","MIGE","1","f","links","22","","","object","j","90","true"
"null","<div style=""font-size:60px;"">+</div>","null","html-keyboard-response","244","321487","0.0-6.0-0.119","MIGE","1","f","links","22","","fixation","","","",""
"2228","img/90_60.png","70","image-keyboard-response","245","323731","0.0-6.0-1.119","MIGE","1","f","links","22","","","object","f","90","true"
"null","<div style=""font-size:60px;"">+</div>","null","html-keyboard-response","246","324253","0.0-6.0-0.120","MIGE","1","f","links","22","","fixation","","","",""
"1096","img/90_30.png","70","image-keyboard-response","247","325363","0.0-6.0-1.120","MIGE","1","f","links","22","","","object","f","90","true"
"null","<div style=""font-size:60px;"">+</div>","null","html-keyboard-response","248","325674","0.0-6.0-0.121","MIGE","1","f","links","22","","fixation","","","",""
"1350","img/90_330.png","74","image-keyboard-response","249","327038","0.0-6.0-1.121","MIGE","1","f","links","22","","","object","j","90","true"
"null","<div style=""font-size:60px;"">+</div>","null","html-keyboard-response","250","327501","0.0-6.0-0.122","MIGE","1","f","links","22","","fixation","","","",""
"1165","img/0_300.png","70","image-keyboard-response","251","328679","0.0-6.0-1.122","MIGE","1","f","links","22","","","object","f","0","true"
"null","<div style=""font-size:60px;"">+</div>","null","html-keyboard-response","252","329203","0.0-6.0-0.123","MIGE","1","f","links","22","","fixation","","","",""
"3010","img/120_210.png","70","image-keyboard-response","253","332223","0.0-6.0-1.123","MIGE","1","f","links","22","","","object","f","120","true"
"null","<div style=""font-size:60px;"">+</div>","null","html-keyboard-response","254","332726","0.0-6.0-0.124","MIGE","1","f","links","22","","fixation","","","",""
"2601","img/L90_180.png","74","image-keyboard-response","255","335340","0.0-6.0-1.124","MIGE","1","f","links","22","","","object","j","90","true"
"null","<div style=""font-size:60px;"">+</div>","null","html-keyboard-response","256","335759","0.0-6.0-0.125","MIGE","1","f","links","22","","fixation","","","",""
"1966","img/L30_180.png","74","image-keyboard-response","257","337738","0.0-6.0-1.125","MIGE","1","f","links","22","","","object","j","30","true"
"null","<div style=""font-size:60px;"">+</div>","null","html-keyboard-response","258","338276","0.0-6.0-0.126","MIGE","1","f","links","22","","fixation","","","",""
"2173","img/120_150.png","74","image-keyboard-response","259","340458","0.0-6.0-1.126","MIGE","1","f","links","22","","","object","j","120","true"
"null","<div style=""font-size:60px;"">+</div>","null","html-keyboard-response","260","340838","0.0-6.0-0.127","MIGE","1","f","links","22","","fixation","","","",""
"732","img/0_90.png","74","image-keyboard-response","261","341584","0.0-6.0-1.127","MIGE","1","f","links","22","","","object","j","0","true"
"null","<div style=""font-size:60px;"">+</div>","null","html-keyboard-response","262","342089","0.0-6.0-0.128","MIGE","1","f","links","22","","fixation","","","",""
"588","img/0_210.png","70","image-keyboard-response","263","342687","0.0-6.0-1.128","MIGE","1","f","links","22","","","object","f","0","true"
"null","<div style=""font-size:60px;"">+</div>","null","html-keyboard-response","264","343197","0.0-6.0-0.129","MIGE","1","f","links","22","","fixation","","","",""
"604","img/0_270.png","70","image-keyboard-response","265","343811","0.0-6.0-1.129","MIGE","1","f","links","22","","","object","f","0","true"
"null","<div style=""font-size:60px;"">+</div>","null","html-keyboard-response","266","344228","0.0-6.0-0.130","MIGE","1","f","links","22","","fixation","","","",""
"583","img/0_60.png","74","image-keyboard-response","267","344824","0.0-6.0-1.130","MIGE","1","f","links","22","","","object","j","0","true"
"null","<div style=""font-size:60px;"">+</div>","null","html-keyboard-response","268","345276","0.0-6.0-0.131","MIGE","1","f","links","22","","fixation","","","",""
"619","img/0_120.png","74","image-keyboard-response","269","345904","0.0-6.0-1.131","MIGE","1","f","links","22","","","object","j","0","true"
"null","<div style=""font-size:60px;"">+</div>","null","html-keyboard-response","270","346212","0.0-6.0-0.132","MIGE","1","f","links","22","","fixation","","","",""
"null","img/120_330.png","null","image-keyboard-response","271","349231","0.0-6.0-1.132","MIGE","1","f","links","22","","","object","j","120","false"
"null","<div style=""font-size:60px;"">+</div>","null","html-keyboard-response","272","349761","0.0-6.0-0.133","MIGE","1","f","links","22","","fixation","","","",""
"1948","img/120_90.png","70","image-keyboard-response","273","351720","0.0-6.0-1.133","MIGE","1","f","links","22","","","object","f","120","true"
"null","<div style=""font-size:60px;"">+</div>","null","html-keyboard-response","274","352199","0.0-6.0-0.134","MIGE","1","f","links","22","","fixation","","","",""
"789","img/0_330.png","70","image-keyboard-response","275","353003","0.0-6.0-1.134","MIGE","1","f","links","22","","","object","f","0","true"
"null","<div style=""font-size:60px;"">+</div>","null","html-keyboard-response","276","353465","0.0-6.0-0.135","MIGE","1","f","links","22","","fixation","","","",""
"1403","img/30_240.png","70","image-keyboard-response","277","354882","0.0-6.0-1.135","MIGE","1","f","links","22","","","object","f","30","true"
"null","<div style=""font-size:60px;"">+</div>","null","html-keyboard-response","278","355304","0.0-6.0-0.136","MIGE","1","f","links","22","","fixation","","","",""
"2691","img/150_60.png","70","image-keyboard-response","279","358010","0.0-6.0-1.136","MIGE","1","f","links","22","","","object","f","150","true"
"null","<div style=""font-size:60px;"">+</div>","null","html-keyboard-response","280","358513","0.0-6.0-0.137","MIGE","1","f","links","22","","fixation","","","",""
"2088","img/150_120.png","70","image-keyboard-response","281","360609","0.0-6.0-1.137","MIGE","1","f","links","22","","","object","f","150","true"
"null","<div style=""font-size:60px;"">+</div>","null","html-keyboard-response","282","361075","0.0-6.0-0.138","MIGE","1","f","links","22","","fixation","","","",""
"1193","img/120_30.png","70","image-keyboard-response","283","362281","0.0-6.0-1.138","MIGE","1","f","links","22","","","object","f","120","true"
"null","<div style=""font-size:60px;"">+</div>","null","html-keyboard-response","284","362612","0.0-6.0-0.139","MIGE","1","f","links","22","","fixation","","","",""
"1338","img/60_180.png","70","image-keyboard-response","285","363960","0.0-6.0-1.139","MIGE","1","f","links","22","","","object","f","60","true"
"null","<div style=""font-size:60px;"">+</div>","null","html-keyboard-response","286","364474","0.0-6.0-0.140","MIGE","1","f","links","22","","fixation","","","",""
"1795","img/30_60.png","74","image-keyboard-response","287","366279","0.0-6.0-1.140","MIGE","1","f","links","22","","","object","j","30","true"
"null","<div style=""font-size:60px;"">+</div>","null","html-keyboard-response","288","366699","0.0-6.0-0.141","MIGE","1","f","links","22","","fixation","","","",""
"1324","img/60_150.png","74","image-keyboard-response","289","368033","0.0-6.0-1.141","MIGE","1","f","links","22","","","object","j","60","true"
"null","<div style=""font-size:60px;"">+</div>","null","html-keyboard-response","290","368410","0.0-6.0-0.142","MIGE","1","f","links","22","","fixation","","","",""
"1612","img/90_180.png","70","image-keyboard-response","291","370036","0.0-6.0-1.142","MIGE","1","f","links","22","","","object","f","90","true"
"null","<div style=""font-size:60px;"">+</div>","null","html-keyboard-response","292","370519","0.0-6.0-0.143","MIGE","1","f","links","22","","fixation","","","",""
"1303","img/150_180.png","70","image-keyboard-response","293","371835","0.0-6.0-1.143","MIGE","1","f","links","22","","","object","f","150","true"
"null","<div style=""font-size:60px;"">+</div>","null","html-keyboard-response","294","372363","0.0-6.0-0.144","MIGE","1","f","links","22","","fixation","","","",""
"1000","img/L150_180.png","74","image-keyboard-response","295","373376","0.0-6.0-1.144","MIGE","1","f","links","22","","","object","j","150","true"
"null","<div style=""font-size:60px;"">+</div>","null","html-keyboard-response","296","373789","0.0-6.0-0.145","MIGE","1","f","links","22","","fixation","","","",""
"1543","img/150_300.png","74","image-keyboard-response","297","375346","0.0-6.0-1.145","MIGE","1","f","links","22","","","object","j","150","true"
"null","<div style=""font-size:60px;"">+</div>","null","html-keyboard-response","298","375865","0.0-6.0-0.146","MIGE","1","f","links","22","","fixation","","","",""
"1232","img/30_300.png","74","image-keyboard-response","299","377110","0.0-6.0-1.146","MIGE","1","f","links","22","","","object","f","30","false"
"null","<div style=""font-size:60px;"">+</div>","null","html-keyboard-response","300","377618","0.0-6.0-0.147","MIGE","1","f","links","22","","fixation","","","",""
"2925","img/90_120.png","74","image-keyboard-response","301","380557","0.0-6.0-1.147","MIGE","1","f","links","22","","","object","j","90","true"
"null","<div style=""font-size:60px;"">+</div>","null","html-keyboard-response","302","380869","0.0-6.0-0.148","MIGE","1","f","links","22","","fixation","","","",""
"1614","img/150_90.png","70","image-keyboard-response","303","382500","0.0-6.0-1.148","MIGE","1","f","links","22","","","object","f","150","true"
"null","<div style=""font-size:60px;"">+</div>","null","html-keyboard-response","304","382805","0.0-6.0-0.149","MIGE","1","f","links","22","","fixation","","","",""
"1721","img/60_210.png","70","image-keyboard-response","305","384538","0.0-6.0-1.149","MIGE","1","f","links","22","","","object","f","60","true"
"null","<div style=""font-size:60px;"">+</div>","null","html-keyboard-response","306","384867","0.0-6.0-0.150","MIGE","1","f","links","22","","fixation","","","",""
"2356","img/90_210.png","70","image-keyboard-response","307","387237","0.0-6.0-1.150","MIGE","1","f","links","22","","","object","f","90","true"
"null","<div style=""font-size:60px;"">+</div>","null","html-keyboard-response","308","387604","0.0-6.0-0.151","MIGE","1","f","links","22","","fixation","","","",""
"687","img/0_240.png","70","image-keyboard-response","309","388306","0.0-6.0-1.151","MIGE","1","f","links","22","","","object","f","0","true"
"null","<div style=""font-size:60px;"">+</div>","null","html-keyboard-response","310","388761","0.0-6.0-0.152","MIGE","1","f","links","22","","fixation","","","",""
"1467","img/L60_180.png","74","image-keyboard-response","311","390242","0.0-6.0-1.152","MIGE","1","f","links","22","","","object","j","60","true"
"null","<div style=""font-size:60px;"">+</div>","null","html-keyboard-response","312","390666","0.0-6.0-0.153","MIGE","1","f","links","22","","fixation","","","",""
"2351","img/30_120.png","74","image-keyboard-response","313","393032","0.0-6.0-1.153","MIGE","1","f","links","22","","","object","j","30","true"
"null","<div style=""font-size:60px;"">+</div>","null","html-keyboard-response","314","393495","0.0-6.0-0.154","MIGE","1","f","links","22","","fixation","","","",""
"1450","img/60_30.png","70","image-keyboard-response","315","394954","0.0-6.0-1.154","MIGE","1","f","links","22","","","object","f","60","true"
"null","<div style=""font-size:60px;"">+</div>","null","html-keyboard-response","316","395268","0.0-6.0-0.155","MIGE","1","f","links","22","","fixation","","","",""
"2546","img/90_240.png","74","image-keyboard-response","317","397824","0.0-6.0-1.155","MIGE","1","f","links","22","","","object","f","90","false"
"null","<div style=""font-size:60px;"">+</div>","null","html-keyboard-response","318","398250","0.0-6.0-0.156","MIGE","1","f","links","22","","fixation","","","",""
"844","img/0_210.png","70","image-keyboard-response","319","399106","0.0-6.0-1.156","MIGE","1","f","links","22","","","object","f","0","true"
"null","<div style=""font-size:60px;"">+</div>","null","html-keyboard-response","320","399423","0.0-6.0-0.157","MIGE","1","f","links","22","","fixation","","","",""
"2238","img/90_240.png","70","image-keyboard-response","321","401670","0.0-6.0-1.157","MIGE","1","f","links","22","","","object","f","90","true"
"null","<div style=""font-size:60px;"">+</div>","null","html-keyboard-response","322","402090","0.0-6.0-0.158","MIGE","1","f","links","22","","fixation","","","",""
"697","img/0_90.png","74","image-keyboard-response","323","402796","0.0-6.0-1.158","MIGE","1","f","links","22","","","object","j","0","true"
"null","<div style=""font-size:60px;"">+</div>","null","html-keyboard-response","324","403158","0.0-6.0-0.159","MIGE","1","f","links","22","","fixation","","","",""
"566","img/0_30.png","74","image-keyboard-response","325","403730","0.0-6.0-1.159","MIGE","1","f","links","22","","","object","j","0","true"
"null","<div style=""font-size:60px;"">+</div>","null","html-keyboard-response","326","404142","0.0-6.0-0.160","MIGE","1","f","links","22","","fixation","","","",""
"1971","img/90_120.png","74","image-keyboard-response","327","406125","0.0-6.0-1.160","MIGE","1","f","links","22","","","object","j","90","true"
"null","<div style=""font-size:60px;"">+</div>","null","html-keyboard-response","328","406534","0.0-6.0-0.161","MIGE","1","f","links","22","","fixation","","","",""
"1314","img/150_90.png","70","image-keyboard-response","329","407859","0.0-6.0-1.161","MIGE","1","f","links","22","","","object","f","150","true"
"null","<div style=""font-size:60px;"">+</div>","null","html-keyboard-response","330","408378","0.0-6.0-0.162","MIGE","1","f","links","22","","fixation","","","",""
"764","img/0_60.png","74","image-keyboard-response","331","409153","0.0-6.0-1.162","MIGE","1","f","links","22","","","object","j","0","true"
"null","<div style=""font-size:60px;"">+</div>","null","html-keyboard-response","332","409674","0.0-6.0-0.163","MIGE","1","f","links","22","","fixation","","","",""
"645","img/0_270.png","70","image-keyboard-response","333","410332","0.0-6.0-1.163","MIGE","1","f","links","22","","","object","f","0","true"
"null","<div style=""font-size:60px;"">+</div>","null","html-keyboard-response","334","410815","0.0-6.0-0.164","MIGE","1","f","links","22","","fixation","","","",""
"2018","img/120_210.png","70","image-keyboard-response","335","412843","0.0-6.0-1.164","MIGE","1","f","links","22","","","object","f","120","true"
"null","<div style=""font-size:60px;"">+</div>","null","html-keyboard-response","336","413348","0.0-6.0-0.165","MIGE","1","f","links","22","","fixation","","","",""
"1767","img/30_90.png","74","image-keyboard-response","337","415127","0.0-6.0-1.165","MIGE","1","f","links","22","","","object","j","30","true"
"null","<div style=""font-size:60px;"">+</div>","null","html-keyboard-response","338","415441","0.0-6.0-0.166","MIGE","1","f","links","22","","fixation","","","",""
"1878","img/60_180.png","70","image-keyboard-response","339","417332","0.0-6.0-1.166","MIGE","1","f","links","22","","","object","f","60","true"
"null","<div style=""font-size:60px;"">+</div>","null","html-keyboard-response","340","417707","0.0-6.0-0.167","MIGE","1","f","links","22","","fixation","","","",""
"1447","img/L60_180.png","74","image-keyboard-response","341","419164","0.0-6.0-1.167","MIGE","1","f","links","22","","","object","j","60","true"
"null","<div style=""font-size:60px;"">+</div>","null","html-keyboard-response","342","419644","0.0-6.0-0.168","MIGE","1","f","links","22","","fixation","","","",""
"2699","img/120_270.png","74","image-keyboard-response","343","422361","0.0-6.0-1.168","MIGE","1","f","links","22","","","object","j","120","true"
"null","<div style=""font-size:60px;"">+</div>","null","html-keyboard-response","344","422674","0.0-6.0-0.169","MIGE","1","f","links","22","","fixation","","","",""
"2108","img/L150_180.png","74","image-keyboard-response","345","424791","0.0-6.0-1.169","MIGE","1","f","links","22","","","object","j","150","true"
"null","<div style=""font-size:60px;"">+</div>","null","html-keyboard-response","346","425211","0.0-6.0-0.170","MIGE","1","f","links","22","","fixation","","","",""
"1457","img/90_180.png","70","image-keyboard-response","347","426681","0.0-6.0-1.170","MIGE","1","f","links","22","","","object","f","90","true"
"null","<div style=""font-size:60px;"">+</div>","null","html-keyboard-response","348","427055","0.0-6.0-0.171","MIGE","1","f","links","22","","fixation","","","",""
"2470","img/120_90.png","70","image-keyboard-response","349","429538","0.0-6.0-1.171","MIGE","1","f","links","22","","","object","f","120","true"
"null","<div style=""font-size:60px;"">+</div>","null","html-keyboard-response","350","429997","0.0-6.0-0.172","MIGE","1","f","links","22","","fixation","","","",""
"1946","img/150_270.png","74","image-keyboard-response","351","431958","0.0-6.0-1.172","MIGE","1","f","links","22","","","object","j","150","true"
"null","<div style=""font-size:60px;"">+</div>","null","html-keyboard-response","352","432276","0.0-6.0-0.173","MIGE","1","f","links","22","","fixation","","","",""
"1531","img/60_30.png","70","image-keyboard-response","353","433812","0.0-6.0-1.173","MIGE","1","f","links","22","","","object","f","60","true"
"null","<div style=""font-size:60px;"">+</div>","null","html-keyboard-response","354","434276","0.0-6.0-0.174","MIGE","1","f","links","22","","fixation","","","",""
"755","img/0_120.png","74","image-keyboard-response","355","435038","0.0-6.0-1.174","MIGE","1","f","links","22","","","object","j","0","true"
"null","<div style=""font-size:60px;"">+</div>","null","html-keyboard-response","356","435514","0.0-6.0-0.175","MIGE","1","f","links","22","","fixation","","","",""
"1247","img/120_330.png","74","image-keyboard-response","357","436770","0.0-6.0-1.175","MIGE","1","f","links","22","","","object","j","120","true"
"null","<div style=""font-size:60px;"">+</div>","null","html-keyboard-response","358","437288","0.0-6.0-0.176","MIGE","1","f","links","22","","fixation","","","",""
"639","img/0_240.png","70","image-keyboard-response","359","437930","0.0-6.0-1.176","MIGE","1","f","links","22","","","object","f","0","true"
"null","<div style=""font-size:60px;"">+</div>","null","html-keyboard-response","360","438435","0.0-6.0-0.177","MIGE","1","f","links","22","","fixation","","","",""
"2187","img/30_300.png","70","image-keyboard-response","361","440631","0.0-6.0-1.177","MIGE","1","f","links","22","","","object","f","30","true"
"null","<div style=""font-size:60px;"">+</div>","null","html-keyboard-response","362","441043","0.0-6.0-0.178","MIGE","1","f","links","22","","fixation","","","",""
"1586","img/60_270.png","70","image-keyboard-response","363","442644","0.0-6.0-1.178","MIGE","1","f","links","22","","","object","f","60","true"
"null","<div style=""font-size:60px;"">+</div>","null","html-keyboard-response","364","443075","0.0-6.0-0.179","MIGE","1","f","links","22","","fixation","","","",""
"1538","img/L90_180.png","74","image-keyboard-response","365","444625","0.0-6.0-1.179","MIGE","1","f","links","22","","","object","j","90","true"
"null","<div style=""font-size:60px;"">+</div>","null","html-keyboard-response","366","444950","0.0-6.0-0.180","MIGE","1","f","links","22","","fixation","","","",""
"2797","img/150_120.png","74","image-keyboard-response","367","447765","0.0-6.0-1.180","MIGE","1","f","links","22","","","object","f","150","false"
"null","<div style=""font-size:60px;"">+</div>","null","html-keyboard-response","368","448076","0.0-6.0-0.181","MIGE","1","f","links","22","","fixation","","","",""
"1281","img/90_300.png","74","image-keyboard-response","369","449370","0.0-6.0-1.181","MIGE","1","f","links","22","","","object","j","90","true"
"null","<div style=""font-size:60px;"">+</div>","null","html-keyboard-response","370","449842","0.0-6.0-0.182","MIGE","1","f","links","22","","fixation","","","",""
"2294","img/60_90.png","74","image-keyboard-response","371","452151","0.0-6.0-1.182","MIGE","1","f","links","22","","","object","j","60","true"
"null","<div style=""font-size:60px;"">+</div>","null","html-keyboard-response","372","452513","0.0-6.0-0.183","MIGE","1","f","links","22","","fixation","","","",""
"1190","img/30_120.png","74","image-keyboard-response","373","453714","0.0-6.0-1.183","MIGE","1","f","links","22","","","object","j","30","true"
"null","<div style=""font-size:60px;"">+</div>","null","html-keyboard-response","374","454092","0.0-6.0-0.184","MIGE","1","f","links","22","","fixation","","","",""
"2759","img/90_150.png","74","image-keyboard-response","375","456865","0.0-6.0-1.184","MIGE","1","f","links","22","","","object","j","90","true"
"null","<div style=""font-size:60px;"">+</div>","null","html-keyboard-response","376","457219","0.0-6.0-0.185","MIGE","1","f","links","22","","fixation","","","",""
"2336","img/150_180.png","70","image-keyboard-response","377","459564","0.0-6.0-1.185","MIGE","1","f","links","22","","","object","f","150","true"
"null","<div style=""font-size:60px;"">+</div>","null","html-keyboard-response","378","459972","0.0-6.0-0.186","MIGE","1","f","links","22","","fixation","","","",""
"null","img/120_30.png","null","image-keyboard-response","379","463001","0.0-6.0-1.186","MIGE","1","f","links","22","","","object","f","120","false"
"null","<div style=""font-size:60px;"">+</div>","null","html-keyboard-response","380","463517","0.0-6.0-0.187","MIGE","1","f","links","22","","fixation","","","",""
"2948","img/120_150.png","70","image-keyboard-response","381","466473","0.0-6.0-1.187","MIGE","1","f","links","22","","","object","j","120","false"
"null","<div style=""font-size:60px;"">+</div>","null","html-keyboard-response","382","466829","0.0-6.0-0.188","MIGE","1","f","links","22","","fixation","","","",""
"null","img/90_60.png","null","image-keyboard-response","383","469844","0.0-6.0-1.188","MIGE","1","f","links","22","","","object","f","90","false"
"null","<div style=""font-size:60px;"">+</div>","null","html-keyboard-response","384","470172","0.0-6.0-0.189","MIGE","1","f","links","22","","fixation","","","",""
"1663","img/30_240.png","70","image-keyboard-response","385","471839","0.0-6.0-1.189","MIGE","1","f","links","22","","","object","f","30","true"
"null","<div style=""font-size:60px;"">+</div>","null","html-keyboard-response","386","472311","0.0-6.0-0.190","MIGE","1","f","links","22","","fixation","","","",""
"1576","img/150_60.png","70","image-keyboard-response","387","473898","0.0-6.0-1.190","MIGE","1","f","links","22","","","object","f","150","true"
"null","<div style=""font-size:60px;"">+</div>","null","html-keyboard-response","388","474361","0.0-6.0-0.191","MIGE","1","f","links","22","","fixation","","","",""
"1564","img/60_150.png","74","image-keyboard-response","389","475933","0.0-6.0-1.191","MIGE","1","f","links","22","","","object","j","60","true"
"null","<div style=""font-size:60px;"">+</div>","null","html-keyboard-response","390","476345","0.0-6.0-0.192","MIGE","1","f","links","22","","fixation","","","",""
"2057","img/90_210.png","70","image-keyboard-response","391","478410","0.0-6.0-1.192","MIGE","1","f","links","22","","","object","f","90","true"
"null","<div style=""font-size:60px;"">+</div>","null","html-keyboard-response","392","478813","0.0-6.0-0.193","MIGE","1","f","links","22","","fixation","","","",""
"1134","img/0_300.png","70","image-keyboard-response","393","479962","0.0-6.0-1.193","MIGE","1","f","links","22","","","object","f","0","true"
"null","<div style=""font-size:60px;"">+</div>","null","html-keyboard-response","394","480392","0.0-6.0-0.194","MIGE","1","f","links","22","","fixation","","","",""
"702","img/0_150.png","74","image-keyboard-response","395","481108","0.0-6.0-1.194","MIGE","1","f","links","22","","","object","j","0","true"
"null","<div style=""font-size:60px;"">+</div>","null","html-keyboard-response","396","481487","0.0-6.0-0.195","MIGE","1","f","links","22","","fixation","","","",""
"2152","img/60_330.png","74","image-keyboard-response","397","483651","0.0-6.0-1.195","MIGE","1","f","links","22","","","object","j","60","true"
"null","<div style=""font-size:60px;"">+</div>","null","html-keyboard-response","398","484128","0.0-6.0-0.196","MIGE","1","f","links","22","","fixation","","","",""
"1026","img/90_330.png","74","image-keyboard-response","399","485170","0.0-6.0-1.196","MIGE","1","f","links","22","","","object","j","90","true"
"null","<div style=""font-size:60px;"">+</div>","null","html-keyboard-response","400","485679","0.0-6.0-0.197","MIGE","1","f","links","22","","fixation","","","",""
"2414","img/120_180.png","70","image-keyboard-response","401","488106","0.0-6.0-1.197","MIGE","1","f","links","22","","","object","f","120","true"
"null","<div style=""font-size:60px;"">+</div>","null","html-keyboard-response","402","488539","0.0-6.0-0.198","MIGE","1","f","links","22","","fixation","","","",""
"1364","img/30_180.png","70","image-keyboard-response","403","489917","0.0-6.0-1.198","MIGE","1","f","links","22","","","object","f","30","true"
"null","<div style=""font-size:60px;"">+</div>","null","html-keyboard-response","404","490335","0.0-6.0-0.199","MIGE","1","f","links","22","","fixation","","","",""
"720","img/0_330.png","70","image-keyboard-response","405","491064","0.0-6.0-1.199","MIGE","1","f","links","22","","","object","f","0","true"
"null","<div style=""font-size:60px;"">+</div>","null","html-keyboard-response","406","491569","0.0-6.0-0.200","MIGE","1","f","links","22","","fixation","","","",""
"1630","img/30_60.png","74","image-keyboard-response","407","493215","0.0-6.0-1.200","MIGE","1","f","links","22","","","object","j","30","true"
"null","<div style=""font-size:60px;"">+</div>","null","html-keyboard-response","408","493525","0.0-6.0-0.201","MIGE","1","f","links","22","","fixation","","","",""
"2050","img/150_300.png","74","image-keyboard-response","409","495588","0.0-6.0-1.201","MIGE","1","f","links","22","","","object","j","150","true"
"null","<div style=""font-size:60px;"">+</div>","null","html-keyboard-response","410","496014","0.0-6.0-0.202","MIGE","1","f","links","22","","fixation","","","",""
"1484","img/30_270.png","70","image-keyboard-response","411","497512","0.0-6.0-1.202","MIGE","1","f","links","22","","","object","f","30","true"
"null","<div style=""font-size:60px;"">+</div>","null","html-keyboard-response","412","497967","0.0-6.0-0.203","MIGE","1","f","links","22","","fixation","","","",""
"1913","img/L30_180.png","74","image-keyboard-response","413","499897","0.0-6.0-1.203","MIGE","1","f","links","22","","","object","j","30","true"
"null","<div style=""font-size:60px;"">+</div>","null","html-keyboard-response","414","500280","0.0-6.0-0.204","MIGE","1","f","links","22","","fixation","","","",""
"1514","img/150_240.png","70","image-keyboard-response","415","501808","0.0-6.0-1.204","MIGE","1","f","links","22","","","object","j","150","false"
"null","<div style=""font-size:60px;"">+</div>","null","html-keyboard-response","416","502123","0.0-6.0-0.205","MIGE","1","f","links","22","","fixation","","","",""
"2069","img/L120_180.png","70","image-keyboard-response","417","504206","0.0-6.0-1.205","MIGE","1","f","links","22","","","object","j","120","false"
"null","<div style=""font-size:60px;"">+</div>","null","html-keyboard-response","418","504656","0.0-6.0-0.206","MIGE","1","f","links","22","","fixation","","","",""
"2143","img/60_210.png","70","image-keyboard-response","419","506813","0.0-6.0-1.206","MIGE","1","f","links","22","","","object","f","60","true"
"null","<div style=""font-size:60px;"">+</div>","null","html-keyboard-response","420","507268","0.0-6.0-0.207","MIGE","1","f","links","22","","fixation","","","",""
"1333","img/90_30.png","70","image-keyboard-response","421","508614","0.0-6.0-1.207","MIGE","1","f","links","22","","","object","f","90","true"
"17356","<p>Du hast in 87% der Versuche korrekt entschieden.</p><p>Deine durchschnittliche Reaktionszeit war  1582ms.</p><p>Dr&uuml;cke eine beliebige Taste, um die Session zu beenden. Vielen Dank!</p>","32","html-keyboard-response","422","525980","0.0-7.0","MIGE","1","f","links","22","","","","","",""
