"rt","stimulus","key_press","trial_type","trial_index","time_elapsed","internal_node_id","subject","session","sex","handedness","age","responses","test_part","condition","correct_response","angle","correct"
"3536","<p>Mental Rotation Experiment.</p> <p>Dr&uuml;cke eine beliebige Taste, um anzufangen.</p>","13","html-keyboard-response","0","3559","0.0-0.0","MIGE","1","f","links","22","","","","","",""
"13266","","","survey-text","1","16827","0.0-1.0","MIGE","1","f","links","22","{""Q0"":""MIGE""}","","","","",""
"2685","","","survey-text","2","19516","0.0-2.0","MIGE","1","f","links","22","{""Q0"":""1""}","","","","",""
"4363","","","survey-multi-choice","3","23883","0.0-3.0","MIGE","1","f","links","22","{""Q0"":""f"",""Q1"":""links""}","","","","",""
"2935","","","survey-text","4","26818","0.0-4.0","MIGE","1","f","links","22","{""Q0"":""22""}","","","","",""
"21879","<p> Stell dir vor, dass du vor einem runden Tisch stehst, auf dem sich ein blauer Ball am Tischrand befindet. Entlang des Tischrands ist jeweils ein verschieden langer Pfeil. Nun bewegst du dich entlang dieses Pfeils bis an seine Spitze. Wenn du am Ende des Pfeils angekommen bist, schau zur Tischmitte. </p> <img src='img/90_180.png'></img> <br> <p>Entscheide dann, ob der Ball von deiner neuen (vorgestellten) Position links oder rechts von dir liegt.</p> <p>Dr&uuml;cke die <strong>'f'</strong>-Taste f&uuml;r links, die <strong>'j'</strong>-Taste f&uuml;r rechts.</p> <br><p> Das Bild wird jeweils 1 Sekunde lang pr&auml;sentiert. Du hast 3 Sekunden Zeit eine Entscheidung zu treffen.</p>","32","html-keyboard-response","5","48707","0.0-5.0","MIGE","1","f","links","22","","","","","",""
"null","<div style=""font-size:60px;"">+</div>","null","html-keyboard-response","6","50156","0.0-6.0-0.0","MIGE","1","f","links","22","","fixation","","","",""
"1494","img/90_300.png","70","image-keyboard-response","7","51671","0.0-6.0-1.0","MIGE","1","f","links","22","","","self","f","90","true"
"null","<div style=""font-size:60px;"">+</div>","null","html-keyboard-response","8","52175","0.0-6.0-0.1","MIGE","1","f","links","22","","fixation","","","",""
"1575","img/L150_180.png","74","image-keyboard-response","9","53766","0.0-6.0-1.1","MIGE","1","f","links","22","","","self","f","150","false"
"null","<div style=""font-size:60px;"">+</div>","null","html-keyboard-response","10","54262","0.0-6.0-0.2","MIGE","1","f","links","22","","fixation","","","",""
"1978","img/150_300.png","70","image-keyboard-response","11","56260","0.0-6.0-1.2","MIGE","1","f","links","22","","","self","j","150","false"
"null","<div style=""font-size:60px;"">+</div>","null","html-keyboard-response","12","56793","0.0-6.0-0.3","MIGE","1","f","links","22","","fixation","","","",""
"1747","img/150_120.png","70","image-keyboard-response","13","58559","0.0-6.0-1.3","MIGE","1","f","links","22","","","self","f","150","true"
"null","<div style=""font-size:60px;"">+</div>","null","html-keyboard-response","14","59074","0.0-6.0-0.4","MIGE","1","f","links","22","","fixation","","","",""
"2176","img/120_30.png","74","image-keyboard-response","15","61269","0.0-6.0-1.4","MIGE","1","f","links","22","","","self","j","120","true"
"null","<div style=""font-size:60px;"">+</div>","null","html-keyboard-response","16","61772","0.0-6.0-0.5","MIGE","1","f","links","22","","fixation","","","",""
"2593","img/120_180.png","74","image-keyboard-response","17","64385","0.0-6.0-1.5","MIGE","1","f","links","22","","","self","j","120","true"
"null","<div style=""font-size:60px;"">+</div>","null","html-keyboard-response","18","64805","0.0-6.0-0.6","MIGE","1","f","links","22","","fixation","","","",""
"1562","img/90_240.png","74","image-keyboard-response","19","66386","0.0-6.0-1.6","MIGE","1","f","links","22","","","self","j","90","true"
"null","<div style=""font-size:60px;"">+</div>","null","html-keyboard-response","20","66891","0.0-6.0-0.7","MIGE","1","f","links","22","","fixation","","","",""
"2087","img/30_180.png","74","image-keyboard-response","21","68997","0.0-6.0-1.7","MIGE","1","f","links","22","","","self","j","30","true"
"null","<div style=""font-size:60px;"">+</div>","null","html-keyboard-response","22","69515","0.0-6.0-0.8","MIGE","1","f","links","22","","fixation","","","",""
"2014","img/120_270.png","70","image-keyboard-response","23","71550","0.0-6.0-1.8","MIGE","1","f","links","22","","","self","j","120","false"
"null","<div style=""font-size:60px;"">+</div>","null","html-keyboard-response","24","72017","0.0-6.0-0.9","MIGE","1","f","links","22","","fixation","","","",""
"1475","img/120_210.png","74","image-keyboard-response","25","73497","0.0-6.0-1.9","MIGE","1","f","links","22","","","self","j","120","true"
"null","<div style=""font-size:60px;"">+</div>","null","html-keyboard-response","26","73815","0.0-6.0-0.10","MIGE","1","f","links","22","","fixation","","","",""
"2207","img/90_60.png","70","image-keyboard-response","27","76039","0.0-6.0-1.10","MIGE","1","f","links","22","","","self","j","90","false"
"null","<div style=""font-size:60px;"">+</div>","null","html-keyboard-response","28","76408","0.0-6.0-0.11","MIGE","1","f","links","22","","fixation","","","",""
"2314","img/60_30.png","74","image-keyboard-response","29","78740","0.0-6.0-1.11","MIGE","1","f","links","22","","","self","j","60","true"
"null","<div style=""font-size:60px;"">+</div>","null","html-keyboard-response","30","79160","0.0-6.0-0.12","MIGE","1","f","links","22","","fixation","","","",""
"2426","img/150_240.png","74","image-keyboard-response","31","81608","0.0-6.0-1.12","MIGE","1","f","links","22","","","self","j","150","true"
"null","<div style=""font-size:60px;"">+</div>","null","html-keyboard-response","32","81988","0.0-6.0-0.13","MIGE","1","f","links","22","","fixation","","","",""
"930","img/0_150.png","74","image-keyboard-response","33","82935","0.0-6.0-1.13","MIGE","1","f","links","22","","","self","j","0","true"
"null","<div style=""font-size:60px;"">+</div>","null","html-keyboard-response","34","83253","0.0-6.0-0.14","MIGE","1","f","links","22","","fixation","","","",""
"1484","img/30_60.png","74","image-keyboard-response","35","84748","0.0-6.0-1.14","MIGE","1","f","links","22","","","self","j","30","true"
"null","<div style=""font-size:60px;"">+</div>","null","html-keyboard-response","36","85204","0.0-6.0-0.15","MIGE","1","f","links","22","","fixation","","","",""
"1201","img/120_150.png","70","image-keyboard-response","37","86424","0.0-6.0-1.15","MIGE","1","f","links","22","","","self","f","120","true"
"null","<div style=""font-size:60px;"">+</div>","null","html-keyboard-response","38","86943","0.0-6.0-0.16","MIGE","1","f","links","22","","fixation","","","",""
"785","img/0_300.png","70","image-keyboard-response","39","87751","0.0-6.0-1.16","MIGE","1","f","links","22","","","self","f","0","true"
"null","<div style=""font-size:60px;"">+</div>","null","html-keyboard-response","40","88169","0.0-6.0-0.17","MIGE","1","f","links","22","","fixation","","","",""
"739","img/0_270.png","70","image-keyboard-response","41","88931","0.0-6.0-1.17","MIGE","1","f","links","22","","","self","f","0","true"
"null","<div style=""font-size:60px;"">+</div>","null","html-keyboard-response","42","89442","0.0-6.0-0.18","MIGE","1","f","links","22","","fixation","","","",""
"889","img/0_210.png","70","image-keyboard-response","43","90350","0.0-6.0-1.18","MIGE","1","f","links","22","","","self","f","0","true"
"null","<div style=""font-size:60px;"">+</div>","null","html-keyboard-response","44","90865","0.0-6.0-0.19","MIGE","1","f","links","22","","fixation","","","",""
"1290","img/30_120.png","74","image-keyboard-response","45","92173","0.0-6.0-1.19","MIGE","1","f","links","22","","","self","j","30","true"
"null","<div style=""font-size:60px;"">+</div>","null","html-keyboard-response","46","92638","0.0-6.0-0.20","MIGE","1","f","links","22","","fixation","","","",""
"2025","img/150_90.png","70","image-keyboard-response","47","94682","0.0-6.0-1.20","MIGE","1","f","links","22","","","self","f","150","true"
"null","<div style=""font-size:60px;"">+</div>","null","html-keyboard-response","48","95147","0.0-6.0-0.21","MIGE","1","f","links","22","","fixation","","","",""
"2001","img/90_210.png","74","image-keyboard-response","49","97168","0.0-6.0-1.21","MIGE","1","f","links","22","","","self","j","90","true"
"null","<div style=""font-size:60px;"">+</div>","null","html-keyboard-response","50","97624","0.0-6.0-0.22","MIGE","1","f","links","22","","fixation","","","",""
"null","img/90_120.png","null","image-keyboard-response","51","100669","0.0-6.0-1.22","MIGE","1","f","links","22","","","self","f","90","false"
"null","<div style=""font-size:60px;"">+</div>","null","html-keyboard-response","52","101183","0.0-6.0-0.23","MIGE","1","f","links","22","","fixation","","","",""
"1567","img/150_60.png","74","image-keyboard-response","53","102770","0.0-6.0-1.23","MIGE","1","f","links","22","","","self","f","150","false"
"null","<div style=""font-size:60px;"">+</div>","null","html-keyboard-response","54","103203","0.0-6.0-0.24","MIGE","1","f","links","22","","fixation","","","",""
"1494","img/L30_180.png","70","image-keyboard-response","55","104716","0.0-6.0-1.24","MIGE","1","f","links","22","","","self","f","30","true"
"null","<div style=""font-size:60px;"">+</div>","null","html-keyboard-response","56","105170","0.0-6.0-0.25","MIGE","1","f","links","22","","fixation","","","",""
"2450","img/30_90.png","70","image-keyboard-response","57","107641","0.0-6.0-1.25","MIGE","1","f","links","22","","","self","j","30","false"
"null","<div style=""font-size:60px;"">+</div>","null","html-keyboard-response","58","107952","0.0-6.0-0.26","MIGE","1","f","links","22","","fixation","","","",""
"1021","img/L90_180.png","70","image-keyboard-response","59","108991","0.0-6.0-1.26","MIGE","1","f","links","22","","","self","f","90","true"
"null","<div style=""font-size:60px;"">+</div>","null","html-keyboard-response","60","109411","0.0-6.0-0.27","MIGE","1","f","links","22","","fixation","","","",""
"2758","img/60_270.png","74","image-keyboard-response","61","112187","0.0-6.0-1.27","MIGE","1","f","links","22","","","self","f","60","false"
"null","<div style=""font-size:60px;"">+</div>","null","html-keyboard-response","62","112490","0.0-6.0-0.28","MIGE","1","f","links","22","","fixation","","","",""
"2289","img/150_270.png","74","image-keyboard-response","63","114796","0.0-6.0-1.28","MIGE","1","f","links","22","","","self","j","150","true"
"null","<div style=""font-size:60px;"">+</div>","null","html-keyboard-response","64","115255","0.0-6.0-0.29","MIGE","1","f","links","22","","fixation","","","",""
"2017","img/90_180.png","74","image-keyboard-response","65","117285","0.0-6.0-1.29","MIGE","1","f","links","22","","","self","j","90","true"
"null","<div style=""font-size:60px;"">+</div>","null","html-keyboard-response","66","117585","0.0-6.0-0.30","MIGE","1","f","links","22","","fixation","","","",""
"2041","img/60_180.png","74","image-keyboard-response","67","119645","0.0-6.0-1.30","MIGE","1","f","links","22","","","self","j","60","true"
"null","<div style=""font-size:60px;"">+</div>","null","html-keyboard-response","68","120008","0.0-6.0-0.31","MIGE","1","f","links","22","","fixation","","","",""
"1035","img/0_60.png","74","image-keyboard-response","69","121062","0.0-6.0-1.31","MIGE","1","f","links","22","","","self","j","0","true"
"null","<div style=""font-size:60px;"">+</div>","null","html-keyboard-response","70","121415","0.0-6.0-0.32","MIGE","1","f","links","22","","fixation","","","",""
"1775","img/L120_180.png","70","image-keyboard-response","71","123209","0.0-6.0-1.32","MIGE","1","f","links","22","","","self","f","120","true"
"null","<div style=""font-size:60px;"">+</div>","null","html-keyboard-response","72","123680","0.0-6.0-0.33","MIGE","1","f","links","22","","fixation","","","",""
"1234","img/150_180.png","74","image-keyboard-response","73","124920","0.0-6.0-1.33","MIGE","1","f","links","22","","","self","j","150","true"
"null","<div style=""font-size:60px;"">+</div>","null","html-keyboard-response","74","125429","0.0-6.0-0.34","MIGE","1","f","links","22","","fixation","","","",""
"1108","img/0_120.png","74","image-keyboard-response","75","126554","0.0-6.0-1.34","MIGE","1","f","links","22","","","self","j","0","true"
"null","<div style=""font-size:60px;"">+</div>","null","html-keyboard-response","76","126915","0.0-6.0-0.35","MIGE","1","f","links","22","","fixation","","","",""
"1788","img/90_150.png","70","image-keyboard-response","77","128724","0.0-6.0-1.35","MIGE","1","f","links","22","","","self","f","90","true"
"null","<div style=""font-size:60px;"">+</div>","null","html-keyboard-response","78","129229","0.0-6.0-0.36","MIGE","1","f","links","22","","fixation","","","",""
"748","img/0_30.png","74","image-keyboard-response","79","129995","0.0-6.0-1.36","MIGE","1","f","links","22","","","self","j","0","true"
"null","<div style=""font-size:60px;"">+</div>","null","html-keyboard-response","80","130510","0.0-6.0-0.37","MIGE","1","f","links","22","","fixation","","","",""
"789","img/0_240.png","70","image-keyboard-response","81","131321","0.0-6.0-1.37","MIGE","1","f","links","22","","","self","f","0","true"
"null","<div style=""font-size:60px;"">+</div>","null","html-keyboard-response","82","131853","0.0-6.0-0.38","MIGE","1","f","links","22","","fixation","","","",""
"2679","img/90_330.png","74","image-keyboard-response","83","134552","0.0-6.0-1.38","MIGE","1","f","links","22","","","self","f","90","false"
"null","<div style=""font-size:60px;"">+</div>","null","html-keyboard-response","84","134867","0.0-6.0-0.39","MIGE","1","f","links","22","","fixation","","","",""
"1693","img/60_210.png","74","image-keyboard-response","85","136588","0.0-6.0-1.39","MIGE","1","f","links","22","","","self","j","60","true"
"null","<div style=""font-size:60px;"">+</div>","null","html-keyboard-response","86","137104","0.0-6.0-0.40","MIGE","1","f","links","22","","fixation","","","",""
"2784","img/30_240.png","74","image-keyboard-response","87","139907","0.0-6.0-1.40","MIGE","1","f","links","22","","","self","f","30","false"
"null","<div style=""font-size:60px;"">+</div>","null","html-keyboard-response","88","140269","0.0-6.0-0.41","MIGE","1","f","links","22","","fixation","","","",""
"731","img/0_330.png","70","image-keyboard-response","89","141021","0.0-6.0-1.41","MIGE","1","f","links","22","","","self","f","0","true"
"null","<div style=""font-size:60px;"">+</div>","null","html-keyboard-response","90","141489","0.0-6.0-0.42","MIGE","1","f","links","22","","fixation","","","",""
"1954","img/60_90.png","74","image-keyboard-response","91","143463","0.0-6.0-1.42","MIGE","1","f","links","22","","","self","j","60","true"
"null","<div style=""font-size:60px;"">+</div>","null","html-keyboard-response","92","143940","0.0-6.0-0.43","MIGE","1","f","links","22","","fixation","","","",""
"1968","img/60_330.png","74","image-keyboard-response","93","145926","0.0-6.0-1.43","MIGE","1","f","links","22","","","self","f","60","false"
"null","<div style=""font-size:60px;"">+</div>","null","html-keyboard-response","94","146348","0.0-6.0-0.44","MIGE","1","f","links","22","","fixation","","","",""
"2021","img/120_90.png","70","image-keyboard-response","95","148390","0.0-6.0-1.44","MIGE","1","f","links","22","","","self","f","120","true"
"null","<div style=""font-size:60px;"">+</div>","null","html-keyboard-response","96","148900","0.0-6.0-0.45","MIGE","1","f","links","22","","fixation","","","",""
"2034","img/120_330.png","74","image-keyboard-response","97","150954","0.0-6.0-1.45","MIGE","1","f","links","22","","","self","f","120","false"
"null","<div style=""font-size:60px;"">+</div>","null","html-keyboard-response","98","151316","0.0-6.0-0.46","MIGE","1","f","links","22","","fixation","","","",""
"1663","img/60_150.png","70","image-keyboard-response","99","153002","0.0-6.0-1.46","MIGE","1","f","links","22","","","self","f","60","true"
"null","<div style=""font-size:60px;"">+</div>","null","html-keyboard-response","100","153426","0.0-6.0-0.47","MIGE","1","f","links","22","","fixation","","","",""
"2123","img/90_30.png","74","image-keyboard-response","101","155568","0.0-6.0-1.47","MIGE","1","f","links","22","","","self","j","90","true"
"null","<div style=""font-size:60px;"">+</div>","null","html-keyboard-response","102","156082","0.0-6.0-0.48","MIGE","1","f","links","22","","fixation","","","",""
"null","img/30_270.png","null","image-keyboard-response","103","159118","0.0-6.0-1.48","MIGE","1","f","links","22","","","self","f","30","false"
"null","<div style=""font-size:60px;"">+</div>","null","html-keyboard-response","104","159430","0.0-6.0-0.49","MIGE","1","f","links","22","","fixation","","","",""
"326","img/L60_180.png","74","image-keyboard-response","105","159775","0.0-6.0-1.49","MIGE","1","f","links","22","","","self","f","60","false"
"null","<div style=""font-size:60px;"">+</div>","null","html-keyboard-response","106","160149","0.0-6.0-0.50","MIGE","1","f","links","22","","fixation","","","",""
"1600","img/30_300.png","70","image-keyboard-response","107","161766","0.0-6.0-1.50","MIGE","1","f","links","22","","","self","f","30","true"
"null","<div style=""font-size:60px;"">+</div>","null","html-keyboard-response","108","162291","0.0-6.0-0.51","MIGE","1","f","links","22","","fixation","","","",""
"858","img/0_90.png","74","image-keyboard-response","109","163171","0.0-6.0-1.51","MIGE","1","f","links","22","","","self","j","0","true"
"null","<div style=""font-size:60px;"">+</div>","null","html-keyboard-response","110","163524","0.0-6.0-0.52","MIGE","1","f","links","22","","fixation","","","",""
"1597","img/60_330.png","70","image-keyboard-response","111","165130","0.0-6.0-1.52","MIGE","1","f","links","22","","","self","f","60","true"
"null","<div style=""font-size:60px;"">+</div>","null","html-keyboard-response","112","165461","0.0-6.0-0.53","MIGE","1","f","links","22","","fixation","","","",""
"2758","img/120_30.png","74","image-keyboard-response","113","168235","0.0-6.0-1.53","MIGE","1","f","links","22","","","self","j","120","true"
"null","<div style=""font-size:60px;"">+</div>","null","html-keyboard-response","114","168697","0.0-6.0-0.54","MIGE","1","f","links","22","","fixation","","","",""
"2127","img/L30_180.png","70","image-keyboard-response","115","170835","0.0-6.0-1.54","MIGE","1","f","links","22","","","self","f","30","true"
"null","<div style=""font-size:60px;"">+</div>","null","html-keyboard-response","116","171158","0.0-6.0-0.55","MIGE","1","f","links","22","","fixation","","","",""
"1070","img/0_90.png","74","image-keyboard-response","117","172240","0.0-6.0-1.55","MIGE","1","f","links","22","","","self","j","0","true"
"null","<div style=""font-size:60px;"">+</div>","null","html-keyboard-response","118","172753","0.0-6.0-0.56","MIGE","1","f","links","22","","fixation","","","",""
"2506","img/150_60.png","74","image-keyboard-response","119","175268","0.0-6.0-1.56","MIGE","1","f","links","22","","","self","f","150","false"
"null","<div style=""font-size:60px;"">+</div>","null","html-keyboard-response","120","175784","0.0-6.0-0.57","MIGE","1","f","links","22","","fixation","","","",""
"1494","img/120_150.png","70","image-keyboard-response","121","177290","0.0-6.0-1.57","MIGE","1","f","links","22","","","self","f","120","true"
"null","<div style=""font-size:60px;"">+</div>","null","html-keyboard-response","122","177706","0.0-6.0-0.58","MIGE","1","f","links","22","","fixation","","","",""
"1800","img/30_60.png","74","image-keyboard-response","123","179520","0.0-6.0-1.58","MIGE","1","f","links","22","","","self","j","30","true"
"null","<div style=""font-size:60px;"">+</div>","null","html-keyboard-response","124","179940","0.0-6.0-0.59","MIGE","1","f","links","22","","fixation","","","",""
"1523","img/L150_180.png","70","image-keyboard-response","125","181476","0.0-6.0-1.59","MIGE","1","f","links","22","","","self","f","150","true"
"null","<div style=""font-size:60px;"">+</div>","null","html-keyboard-response","126","181936","0.0-6.0-0.60","MIGE","1","f","links","22","","fixation","","","",""
"1722","img/L120_180.png","70","image-keyboard-response","127","183669","0.0-6.0-1.60","MIGE","1","f","links","22","","","self","f","120","true"
"null","<div style=""font-size:60px;"">+</div>","null","html-keyboard-response","128","184000","0.0-6.0-0.61","MIGE","1","f","links","22","","fixation","","","",""
"1809","img/60_210.png","74","image-keyboard-response","129","185818","0.0-6.0-1.61","MIGE","1","f","links","22","","","self","j","60","true"
"null","<div style=""font-size:60px;"">+</div>","null","html-keyboard-response","130","186234","0.0-6.0-0.62","MIGE","1","f","links","22","","fixation","","","",""
"1732","img/150_90.png","70","image-keyboard-response","131","187979","0.0-6.0-1.62","MIGE","1","f","links","22","","","self","f","150","true"
"null","<div style=""font-size:60px;"">+</div>","null","html-keyboard-response","132","188486","0.0-6.0-0.63","MIGE","1","f","links","22","","fixation","","","",""
"797","img/0_150.png","74","image-keyboard-response","133","189295","0.0-6.0-1.63","MIGE","1","f","links","22","","","self","j","0","true"
"null","<div style=""font-size:60px;"">+</div>","null","html-keyboard-response","134","189767","0.0-6.0-0.64","MIGE","1","f","links","22","","fixation","","","",""
"2090","img/90_300.png","74","image-keyboard-response","135","191871","0.0-6.0-1.64","MIGE","1","f","links","22","","","self","f","90","false"
"null","<div style=""font-size:60px;"">+</div>","null","html-keyboard-response","136","192251","0.0-6.0-0.65","MIGE","1","f","links","22","","fixation","","","",""
"1823","img/60_30.png","74","image-keyboard-response","137","194087","0.0-6.0-1.65","MIGE","1","f","links","22","","","self","j","60","true"
"null","<div style=""font-size:60px;"">+</div>","null","html-keyboard-response","138","194549","0.0-6.0-0.66","MIGE","1","f","links","22","","fixation","","","",""
"2204","img/150_300.png","70","image-keyboard-response","139","196767","0.0-6.0-1.66","MIGE","1","f","links","22","","","self","j","150","false"
"null","<div style=""font-size:60px;"">+</div>","null","html-keyboard-response","140","197079","0.0-6.0-0.67","MIGE","1","f","links","22","","fixation","","","",""
"740","img/0_210.png","70","image-keyboard-response","141","197833","0.0-6.0-1.67","MIGE","1","f","links","22","","","self","f","0","true"
"null","<div style=""font-size:60px;"">+</div>","null","html-keyboard-response","142","198352","0.0-6.0-0.68","MIGE","1","f","links","22","","fixation","","","",""
"1103","img/0_120.png","74","image-keyboard-response","143","199465","0.0-6.0-1.68","MIGE","1","f","links","22","","","self","j","0","true"
"null","<div style=""font-size:60px;"">+</div>","null","html-keyboard-response","144","199783","0.0-6.0-0.69","MIGE","1","f","links","22","","fixation","","","",""
"2268","img/30_90.png","74","image-keyboard-response","145","202065","0.0-6.0-1.69","MIGE","1","f","links","22","","","self","j","30","true"
"null","<div style=""font-size:60px;"">+</div>","null","html-keyboard-response","146","202519","0.0-6.0-0.70","MIGE","1","f","links","22","","fixation","","","",""
"1848","img/90_60.png","70","image-keyboard-response","147","204372","0.0-6.0-1.70","MIGE","1","f","links","22","","","self","j","90","false"
"null","<div style=""font-size:60px;"">+</div>","null","html-keyboard-response","148","204840","0.0-6.0-0.71","MIGE","1","f","links","22","","fixation","","","",""
"1699","img/90_240.png","74","image-keyboard-response","149","206554","0.0-6.0-1.71","MIGE","1","f","links","22","","","self","j","90","true"
"null","<div style=""font-size:60px;"">+</div>","null","html-keyboard-response","150","206909","0.0-6.0-0.72","MIGE","1","f","links","22","","fixation","","","",""
"1261","img/120_210.png","74","image-keyboard-response","151","208184","0.0-6.0-1.72","MIGE","1","f","links","22","","","self","j","120","true"
"null","<div style=""font-size:60px;"">+</div>","null","html-keyboard-response","152","208634","0.0-6.0-0.73","MIGE","1","f","links","22","","fixation","","","",""
"1290","img/90_180.png","74","image-keyboard-response","153","209940","0.0-6.0-1.73","MIGE","1","f","links","22","","","self","j","90","true"
"null","<div style=""font-size:60px;"">+</div>","null","html-keyboard-response","154","210352","0.0-6.0-0.74","MIGE","1","f","links","22","","fixation","","","",""
"1976","img/60_90.png","70","image-keyboard-response","155","212335","0.0-6.0-1.74","MIGE","1","f","links","22","","","self","j","60","false"
"null","<div style=""font-size:60px;"">+</div>","null","html-keyboard-response","156","212708","0.0-6.0-0.75","MIGE","1","f","links","22","","fixation","","","",""
"1482","img/150_270.png","74","image-keyboard-response","157","214203","0.0-6.0-1.75","MIGE","1","f","links","22","","","self","j","150","true"
"null","<div style=""font-size:60px;"">+</div>","null","html-keyboard-response","158","214615","0.0-6.0-0.76","MIGE","1","f","links","22","","fixation","","","",""
"1558","img/90_30.png","70","image-keyboard-response","159","216182","0.0-6.0-1.76","MIGE","1","f","links","22","","","self","j","90","false"
"null","<div style=""font-size:60px;"">+</div>","null","html-keyboard-response","160","216490","0.0-6.0-0.77","MIGE","1","f","links","22","","fixation","","","",""
"1277","img/150_120.png","74","image-keyboard-response","161","217780","0.0-6.0-1.77","MIGE","1","f","links","22","","","self","f","150","false"
"null","<div style=""font-size:60px;"">+</div>","null","html-keyboard-response","162","218286","0.0-6.0-0.78","MIGE","1","f","links","22","","fixation","","","",""
"null","img/30_120.png","null","image-keyboard-response","163","221303","0.0-6.0-1.78","MIGE","1","f","links","22","","","self","j","30","false"
"null","<div style=""font-size:60px;"">+</div>","null","html-keyboard-response","164","221714","0.0-6.0-0.79","MIGE","1","f","links","22","","fixation","","","",""
"1621","img/90_150.png","70","image-keyboard-response","165","223348","0.0-6.0-1.79","MIGE","1","f","links","22","","","self","f","90","true"
"null","<div style=""font-size:60px;"">+</div>","null","html-keyboard-response","166","223667","0.0-6.0-0.80","MIGE","1","f","links","22","","fixation","","","",""
"1333","img/60_180.png","74","image-keyboard-response","167","225013","0.0-6.0-1.80","MIGE","1","f","links","22","","","self","j","60","true"
"null","<div style=""font-size:60px;"">+</div>","null","html-keyboard-response","168","225494","0.0-6.0-0.81","MIGE","1","f","links","22","","fixation","","","",""
"811","img/0_270.png","70","image-keyboard-response","169","226320","0.0-6.0-1.81","MIGE","1","f","links","22","","","self","f","0","true"
"null","<div style=""font-size:60px;"">+</div>","null","html-keyboard-response","170","226682","0.0-6.0-0.82","MIGE","1","f","links","22","","fixation","","","",""
"1007","img/150_180.png","74","image-keyboard-response","171","227702","0.0-6.0-1.82","MIGE","1","f","links","22","","","self","j","150","true"
"null","<div style=""font-size:60px;"">+</div>","null","html-keyboard-response","172","228057","0.0-6.0-0.83","MIGE","1","f","links","22","","fixation","","","",""
"702","img/0_240.png","70","image-keyboard-response","173","228772","0.0-6.0-1.83","MIGE","1","f","links","22","","","self","f","0","true"
"null","<div style=""font-size:60px;"">+</div>","null","html-keyboard-response","174","229230","0.0-6.0-0.84","MIGE","1","f","links","22","","fixation","","","",""
"1073","img/L60_180.png","70","image-keyboard-response","175","230312","0.0-6.0-1.84","MIGE","1","f","links","22","","","self","f","60","true"
"null","<div style=""font-size:60px;"">+</div>","null","html-keyboard-response","176","230839","0.0-6.0-0.85","MIGE","1","f","links","22","","fixation","","","",""
"1023","img/30_180.png","74","image-keyboard-response","177","231878","0.0-6.0-1.85","MIGE","1","f","links","22","","","self","j","30","true"
"null","<div style=""font-size:60px;"">+</div>","null","html-keyboard-response","178","232230","0.0-6.0-0.86","MIGE","1","f","links","22","","fixation","","","",""
"778","img/0_30.png","74","image-keyboard-response","179","233026","0.0-6.0-1.86","MIGE","1","f","links","22","","","self","j","0","true"
"null","<div style=""font-size:60px;"">+</div>","null","html-keyboard-response","180","233385","0.0-6.0-0.87","MIGE","1","f","links","22","","fixation","","","",""
"1765","img/120_270.png","74","image-keyboard-response","181","235162","0.0-6.0-1.87","MIGE","1","f","links","22","","","self","j","120","true"
"null","<div style=""font-size:60px;"">+</div>","null","html-keyboard-response","182","235480","0.0-6.0-0.88","MIGE","1","f","links","22","","fixation","","","",""
"1496","img/120_330.png","70","image-keyboard-response","183","236984","0.0-6.0-1.88","MIGE","1","f","links","22","","","self","f","120","true"
"null","<div style=""font-size:60px;"">+</div>","null","html-keyboard-response","184","237403","0.0-6.0-0.89","MIGE","1","f","links","22","","fixation","","","",""
"710","img/0_300.png","70","image-keyboard-response","185","238121","0.0-6.0-1.89","MIGE","1","f","links","22","","","self","f","0","true"
"null","<div style=""font-size:60px;"">+</div>","null","html-keyboard-response","186","238585","0.0-6.0-0.90","MIGE","1","f","links","22","","fixation","","","",""
"1952","img/30_270.png","70","image-keyboard-response","187","240550","0.0-6.0-1.90","MIGE","1","f","links","22","","","self","f","30","true"
"null","<div style=""font-size:60px;"">+</div>","null","html-keyboard-response","188","241054","0.0-6.0-0.91","MIGE","1","f","links","22","","fixation","","","",""
"1372","img/150_240.png","74","image-keyboard-response","189","242439","0.0-6.0-1.91","MIGE","1","f","links","22","","","self","j","150","true"
"null","<div style=""font-size:60px;"">+</div>","null","html-keyboard-response","190","242749","0.0-6.0-0.92","MIGE","1","f","links","22","","fixation","","","",""
"785","img/0_60.png","74","image-keyboard-response","191","243542","0.0-6.0-1.92","MIGE","1","f","links","22","","","self","j","0","true"
"null","<div style=""font-size:60px;"">+</div>","null","html-keyboard-response","192","243874","0.0-6.0-0.93","MIGE","1","f","links","22","","fixation","","","",""
"2740","img/90_330.png","70","image-keyboard-response","193","246627","0.0-6.0-1.93","MIGE","1","f","links","22","","","self","f","90","true"
"null","<div style=""font-size:60px;"">+</div>","null","html-keyboard-response","194","247030","0.0-6.0-0.94","MIGE","1","f","links","22","","fixation","","","",""
"1496","img/90_120.png","70","image-keyboard-response","195","248538","0.0-6.0-1.94","MIGE","1","f","links","22","","","self","f","90","true"
"null","<div style=""font-size:60px;"">+</div>","null","html-keyboard-response","196","248998","0.0-6.0-0.95","MIGE","1","f","links","22","","fixation","","","",""
"1346","img/90_210.png","74","image-keyboard-response","197","250360","0.0-6.0-1.95","MIGE","1","f","links","22","","","self","j","90","true"
"null","<div style=""font-size:60px;"">+</div>","null","html-keyboard-response","198","250732","0.0-6.0-0.96","MIGE","1","f","links","22","","fixation","","","",""
"1337","img/30_300.png","74","image-keyboard-response","199","252082","0.0-6.0-1.96","MIGE","1","f","links","22","","","self","f","30","false"
"null","<div style=""font-size:60px;"">+</div>","null","html-keyboard-response","200","252452","0.0-6.0-0.97","MIGE","1","f","links","22","","fixation","","","",""
"null","img/30_240.png","null","image-keyboard-response","201","255469","0.0-6.0-1.97","MIGE","1","f","links","22","","","self","f","30","false"
"null","<div style=""font-size:60px;"">+</div>","null","html-keyboard-response","202","255797","0.0-6.0-0.98","MIGE","1","f","links","22","","fixation","","","",""
"823","img/L90_180.png","70","image-keyboard-response","203","256636","0.0-6.0-1.98","MIGE","1","f","links","22","","","self","f","90","true"
"null","<div style=""font-size:60px;"">+</div>","null","html-keyboard-response","204","257047","0.0-6.0-0.99","MIGE","1","f","links","22","","fixation","","","",""
"883","img/120_180.png","74","image-keyboard-response","205","257944","0.0-6.0-1.99","MIGE","1","f","links","22","","","self","j","120","true"
"null","<div style=""font-size:60px;"">+</div>","null","html-keyboard-response","206","258359","0.0-6.0-0.100","MIGE","1","f","links","22","","fixation","","","",""
"1485","img/120_90.png","70","image-keyboard-response","207","259857","0.0-6.0-1.100","MIGE","1","f","links","22","","","self","f","120","true"
"null","<div style=""font-size:60px;"">+</div>","null","html-keyboard-response","208","260329","0.0-6.0-0.101","MIGE","1","f","links","22","","fixation","","","",""
"null","img/60_150.png","null","image-keyboard-response","209","263348","0.0-6.0-1.101","MIGE","1","f","links","22","","","self","f","60","false"
"null","<div style=""font-size:60px;"">+</div>","null","html-keyboard-response","210","263879","0.0-6.0-0.102","MIGE","1","f","links","22","","fixation","","","",""
"654","img/0_330.png","70","image-keyboard-response","211","264547","0.0-6.0-1.102","MIGE","1","f","links","22","","","self","f","0","true"
"null","<div style=""font-size:60px;"">+</div>","null","html-keyboard-response","212","264879","0.0-6.0-0.103","MIGE","1","f","links","22","","fixation","","","",""
"null","img/60_270.png","null","image-keyboard-response","213","267909","0.0-6.0-1.103","MIGE","1","f","links","22","","","self","f","60","false"
"null","<div style=""font-size:60px;"">+</div>","null","html-keyboard-response","214","268331","0.0-6.0-0.104","MIGE","1","f","links","22","","fixation","","","",""
"1344","img/150_300.png","74","image-keyboard-response","215","269689","0.0-6.0-1.104","MIGE","1","f","links","22","","","self","j","150","true"
"null","<div style=""font-size:60px;"">+</div>","null","html-keyboard-response","216","270045","0.0-6.0-0.105","MIGE","1","f","links","22","","fixation","","","",""
"1666","img/30_90.png","74","image-keyboard-response","217","271725","0.0-6.0-1.105","MIGE","1","f","links","22","","","self","j","30","true"
"null","<div style=""font-size:60px;"">+</div>","null","html-keyboard-response","218","272052","0.0-6.0-0.106","MIGE","1","f","links","22","","fixation","","","",""
"null","img/30_240.png","null","image-keyboard-response","219","275083","0.0-6.0-1.106","MIGE","1","f","links","22","","","self","f","30","false"
"null","<div style=""font-size:60px;"">+</div>","null","html-keyboard-response","220","275411","0.0-6.0-0.107","MIGE","1","f","links","22","","fixation","","","",""
"787","img/0_270.png","70","image-keyboard-response","221","276203","0.0-6.0-1.107","MIGE","1","f","links","22","","","self","f","0","true"
"null","<div style=""font-size:60px;"">+</div>","null","html-keyboard-response","222","276724","0.0-6.0-0.108","MIGE","1","f","links","22","","fixation","","","",""
"1336","img/150_180.png","74","image-keyboard-response","223","278069","0.0-6.0-1.108","MIGE","1","f","links","22","","","self","j","150","true"
"null","<div style=""font-size:60px;"">+</div>","null","html-keyboard-response","224","278379","0.0-6.0-0.109","MIGE","1","f","links","22","","fixation","","","",""
"1311","img/90_150.png","70","image-keyboard-response","225","279701","0.0-6.0-1.109","MIGE","1","f","links","22","","","self","f","90","true"
"null","<div style=""font-size:60px;"">+</div>","null","html-keyboard-response","226","280021","0.0-6.0-0.110","MIGE","1","f","links","22","","fixation","","","",""
"1226","img/90_180.png","74","image-keyboard-response","227","281256","0.0-6.0-1.110","MIGE","1","f","links","22","","","self","j","90","true"
"null","<div style=""font-size:60px;"">+</div>","null","html-keyboard-response","228","281724","0.0-6.0-0.111","MIGE","1","f","links","22","","fixation","","","",""
"866","img/0_150.png","74","image-keyboard-response","229","282603","0.0-6.0-1.111","MIGE","1","f","links","22","","","self","j","0","true"
"null","<div style=""font-size:60px;"">+</div>","null","html-keyboard-response","230","283131","0.0-6.0-0.112","MIGE","1","f","links","22","","fixation","","","",""
"762","img/0_90.png","74","image-keyboard-response","231","283909","0.0-6.0-1.112","MIGE","1","f","links","22","","","self","j","0","true"
"null","<div style=""font-size:60px;"">+</div>","null","html-keyboard-response","232","284424","0.0-6.0-0.113","MIGE","1","f","links","22","","fixation","","","",""
"1747","img/120_270.png","74","image-keyboard-response","233","286182","0.0-6.0-1.113","MIGE","1","f","links","22","","","self","j","120","true"
"null","<div style=""font-size:60px;"">+</div>","null","html-keyboard-response","234","286504","0.0-6.0-0.114","MIGE","1","f","links","22","","fixation","","","",""
"null","img/150_240.png","null","image-keyboard-response","235","289537","0.0-6.0-1.114","MIGE","1","f","links","22","","","self","j","150","false"
"null","<div style=""font-size:60px;"">+</div>","null","html-keyboard-response","236","290018","0.0-6.0-0.115","MIGE","1","f","links","22","","fixation","","","",""
"630","img/0_330.png","70","image-keyboard-response","237","290659","0.0-6.0-1.115","MIGE","1","f","links","22","","","self","f","0","true"
"null","<div style=""font-size:60px;"">+</div>","null","html-keyboard-response","238","291035","0.0-6.0-0.116","MIGE","1","f","links","22","","fixation","","","",""
"2213","img/60_150.png","70","image-keyboard-response","239","293259","0.0-6.0-1.116","MIGE","1","f","links","22","","","self","f","60","true"
"null","<div style=""font-size:60px;"">+</div>","null","html-keyboard-response","240","293624","0.0-6.0-0.117","MIGE","1","f","links","22","","fixation","","","",""
"1679","img/30_60.png","74","image-keyboard-response","241","295317","0.0-6.0-1.117","MIGE","1","f","links","22","","","self","j","30","true"
"null","<div style=""font-size:60px;"">+</div>","null","html-keyboard-response","242","295671","0.0-6.0-0.118","MIGE","1","f","links","22","","fixation","","","",""
"817","img/0_30.png","74","image-keyboard-response","243","296497","0.0-6.0-1.118","MIGE","1","f","links","22","","","self","j","0","true"
"null","<div style=""font-size:60px;"">+</div>","null","html-keyboard-response","244","296913","0.0-6.0-0.119","MIGE","1","f","links","22","","fixation","","","",""
"1251","img/L60_180.png","70","image-keyboard-response","245","298174","0.0-6.0-1.119","MIGE","1","f","links","22","","","self","f","60","true"
"null","<div style=""font-size:60px;"">+</div>","null","html-keyboard-response","246","298679","0.0-6.0-0.120","MIGE","1","f","links","22","","fixation","","","",""
"1000","img/60_30.png","74","image-keyboard-response","247","299692","0.0-6.0-1.120","MIGE","1","f","links","22","","","self","j","60","true"
"null","<div style=""font-size:60px;"">+</div>","null","html-keyboard-response","248","299996","0.0-6.0-0.121","MIGE","1","f","links","22","","fixation","","","",""
"1351","img/60_180.png","74","image-keyboard-response","249","301357","0.0-6.0-1.121","MIGE","1","f","links","22","","","self","j","60","true"
"null","<div style=""font-size:60px;"">+</div>","null","html-keyboard-response","250","301667","0.0-6.0-0.122","MIGE","1","f","links","22","","fixation","","","",""
"1278","img/120_180.png","74","image-keyboard-response","251","302956","0.0-6.0-1.122","MIGE","1","f","links","22","","","self","j","120","true"
"null","<div style=""font-size:60px;"">+</div>","null","html-keyboard-response","252","303433","0.0-6.0-0.123","MIGE","1","f","links","22","","fixation","","","",""
"1267","img/0_300.png","70","image-keyboard-response","253","304710","0.0-6.0-1.123","MIGE","1","f","links","22","","","self","f","0","true"
"null","<div style=""font-size:60px;"">+</div>","null","html-keyboard-response","254","305026","0.0-6.0-0.124","MIGE","1","f","links","22","","fixation","","","",""
"1572","img/90_240.png","74","image-keyboard-response","255","306611","0.0-6.0-1.124","MIGE","1","f","links","22","","","self","j","90","true"
"null","<div style=""font-size:60px;"">+</div>","null","html-keyboard-response","256","307088","0.0-6.0-0.125","MIGE","1","f","links","22","","fixation","","","",""
"2438","img/120_30.png","70","image-keyboard-response","257","309537","0.0-6.0-1.125","MIGE","1","f","links","22","","","self","j","120","false"
"null","<div style=""font-size:60px;"">+</div>","null","html-keyboard-response","258","310041","0.0-6.0-0.126","MIGE","1","f","links","22","","fixation","","","",""
"1657","img/90_330.png","70","image-keyboard-response","259","311708","0.0-6.0-1.126","MIGE","1","f","links","22","","","self","f","90","true"
"null","<div style=""font-size:60px;"">+</div>","null","html-keyboard-response","260","312229","0.0-6.0-0.127","MIGE","1","f","links","22","","fixation","","","",""
"2305","img/120_90.png","70","image-keyboard-response","261","314545","0.0-6.0-1.127","MIGE","1","f","links","22","","","self","f","120","true"
"null","<div style=""font-size:60px;"">+</div>","null","html-keyboard-response","262","314962","0.0-6.0-0.128","MIGE","1","f","links","22","","fixation","","","",""
"2220","img/30_300.png","70","image-keyboard-response","263","317188","0.0-6.0-1.128","MIGE","1","f","links","22","","","self","f","30","true"
"null","<div style=""font-size:60px;"">+</div>","null","html-keyboard-response","264","317559","0.0-6.0-0.129","MIGE","1","f","links","22","","fixation","","","",""
"1147","img/30_180.png","74","image-keyboard-response","265","318716","0.0-6.0-1.129","MIGE","1","f","links","22","","","self","j","30","true"
"null","<div style=""font-size:60px;"">+</div>","null","html-keyboard-response","266","319222","0.0-6.0-0.130","MIGE","1","f","links","22","","fixation","","","",""
"1710","img/90_300.png","70","image-keyboard-response","267","320944","0.0-6.0-1.130","MIGE","1","f","links","22","","","self","f","90","true"
"null","<div style=""font-size:60px;"">+</div>","null","html-keyboard-response","268","321409","0.0-6.0-0.131","MIGE","1","f","links","22","","fixation","","","",""
"2648","img/120_210.png","74","image-keyboard-response","269","324071","0.0-6.0-1.131","MIGE","1","f","links","22","","","self","j","120","true"
"null","<div style=""font-size:60px;"">+</div>","null","html-keyboard-response","270","324601","0.0-6.0-0.132","MIGE","1","f","links","22","","fixation","","","",""
"null","img/L150_180.png","null","image-keyboard-response","271","327615","0.0-6.0-1.132","MIGE","1","f","links","22","","","self","f","150","false"
"null","<div style=""font-size:60px;"">+</div>","null","html-keyboard-response","272","327988","0.0-6.0-0.133","MIGE","1","f","links","22","","fixation","","","",""
"3","img/90_60.png","74","image-keyboard-response","273","328005","0.0-6.0-1.133","MIGE","1","f","links","22","","","self","j","90","true"
"null","<div style=""font-size:60px;"">+</div>","null","html-keyboard-response","274","328333","0.0-6.0-0.134","MIGE","1","f","links","22","","fixation","","","",""
"799","img/0_120.png","74","image-keyboard-response","275","329145","0.0-6.0-1.134","MIGE","1","f","links","22","","","self","j","0","true"
"null","<div style=""font-size:60px;"">+</div>","null","html-keyboard-response","276","329660","0.0-6.0-0.135","MIGE","1","f","links","22","","fixation","","","",""
"1497","img/L120_180.png","70","image-keyboard-response","277","331171","0.0-6.0-1.135","MIGE","1","f","links","22","","","self","f","120","true"
"null","<div style=""font-size:60px;"">+</div>","null","html-keyboard-response","278","331632","0.0-6.0-0.136","MIGE","1","f","links","22","","fixation","","","",""
"null","img/60_270.png","null","image-keyboard-response","279","334645","0.0-6.0-1.136","MIGE","1","f","links","22","","","self","f","60","false"
"null","<div style=""font-size:60px;"">+</div>","null","html-keyboard-response","280","335161","0.0-6.0-0.137","MIGE","1","f","links","22","","fixation","","","",""
"1566","img/150_60.png","74","image-keyboard-response","281","336741","0.0-6.0-1.137","MIGE","1","f","links","22","","","self","f","150","false"
"null","<div style=""font-size:60px;"">+</div>","null","html-keyboard-response","282","337100","0.0-6.0-0.138","MIGE","1","f","links","22","","fixation","","","",""
"2901","img/150_270.png","74","image-keyboard-response","283","340014","0.0-6.0-1.138","MIGE","1","f","links","22","","","self","j","150","true"
"null","<div style=""font-size:60px;"">+</div>","null","html-keyboard-response","284","340318","0.0-6.0-0.139","MIGE","1","f","links","22","","fixation","","","",""
"1955","img/L30_180.png","70","image-keyboard-response","285","342286","0.0-6.0-1.139","MIGE","1","f","links","22","","","self","f","30","true"
"null","<div style=""font-size:60px;"">+</div>","null","html-keyboard-response","286","342599","0.0-6.0-0.140","MIGE","1","f","links","22","","fixation","","","",""
"null","img/120_330.png","null","image-keyboard-response","287","345632","0.0-6.0-1.140","MIGE","1","f","links","22","","","self","f","120","false"
"null","<div style=""font-size:60px;"">+</div>","null","html-keyboard-response","288","346006","0.0-6.0-0.141","MIGE","1","f","links","22","","fixation","","","",""
"308","img/90_210.png","74","image-keyboard-response","289","346325","0.0-6.0-1.141","MIGE","1","f","links","22","","","self","j","90","true"
"null","<div style=""font-size:60px;"">+</div>","null","html-keyboard-response","290","346649","0.0-6.0-0.142","MIGE","1","f","links","22","","fixation","","","",""
"null","img/90_120.png","null","image-keyboard-response","291","349680","0.0-6.0-1.142","MIGE","1","f","links","22","","","self","f","90","false"
"null","<div style=""font-size:60px;"">+</div>","null","html-keyboard-response","292","350101","0.0-6.0-0.143","MIGE","1","f","links","22","","fixation","","","",""
"null","img/30_120.png","null","image-keyboard-response","293","353126","0.0-6.0-1.143","MIGE","1","f","links","22","","","self","j","30","false"
"null","<div style=""font-size:60px;"">+</div>","null","html-keyboard-response","294","353536","0.0-6.0-0.144","MIGE","1","f","links","22","","fixation","","","",""
"108","img/0_240.png","74","image-keyboard-response","295","353650","0.0-6.0-1.144","MIGE","1","f","links","22","","","self","f","0","false"
"null","<div style=""font-size:60px;"">+</div>","null","html-keyboard-response","296","354015","0.0-6.0-0.145","MIGE","1","f","links","22","","fixation","","","",""
"null","img/30_270.png","null","image-keyboard-response","297","357048","0.0-6.0-1.145","MIGE","1","f","links","22","","","self","f","30","false"
"null","<div style=""font-size:60px;"">+</div>","null","html-keyboard-response","298","357377","0.0-6.0-0.146","MIGE","1","f","links","22","","fixation","","","",""
"2163","img/150_90.png","74","image-keyboard-response","299","359555","0.0-6.0-1.146","MIGE","1","f","links","22","","","self","f","150","false"
"null","<div style=""font-size:60px;"">+</div>","null","html-keyboard-response","300","359987","0.0-6.0-0.147","MIGE","1","f","links","22","","fixation","","","",""
"2165","img/60_210.png","74","image-keyboard-response","301","362165","0.0-6.0-1.147","MIGE","1","f","links","22","","","self","j","60","true"
"null","<div style=""font-size:60px;"">+</div>","null","html-keyboard-response","302","362595","0.0-6.0-0.148","MIGE","1","f","links","22","","fixation","","","",""
"null","img/90_30.png","null","image-keyboard-response","303","365612","0.0-6.0-1.148","MIGE","1","f","links","22","","","self","j","90","false"
"null","<div style=""font-size:60px;"">+</div>","null","html-keyboard-response","304","365926","0.0-6.0-0.149","MIGE","1","f","links","22","","fixation","","","",""
"320","img/60_90.png","74","image-keyboard-response","305","366260","0.0-6.0-1.149","MIGE","1","f","links","22","","","self","j","60","true"
"null","<div style=""font-size:60px;"">+</div>","null","html-keyboard-response","306","366675","0.0-6.0-0.150","MIGE","1","f","links","22","","fixation","","","",""
"864","img/0_210.png","70","image-keyboard-response","307","367552","0.0-6.0-1.150","MIGE","1","f","links","22","","","self","f","0","true"
"null","<div style=""font-size:60px;"">+</div>","null","html-keyboard-response","308","367956","0.0-6.0-0.151","MIGE","1","f","links","22","","fixation","","","",""
"2924","img/120_150.png","70","image-keyboard-response","309","370896","0.0-6.0-1.151","MIGE","1","f","links","22","","","self","f","120","true"
"null","<div style=""font-size:60px;"">+</div>","null","html-keyboard-response","310","371346","0.0-6.0-0.152","MIGE","1","f","links","22","","fixation","","","",""
"null","img/60_330.png","null","image-keyboard-response","311","374372","0.0-6.0-1.152","MIGE","1","f","links","22","","","self","f","60","false"
"null","<div style=""font-size:60px;"">+</div>","null","html-keyboard-response","312","374731","0.0-6.0-0.153","MIGE","1","f","links","22","","fixation","","","",""
"2407","img/150_120.png","70","image-keyboard-response","313","377151","0.0-6.0-1.153","MIGE","1","f","links","22","","","self","f","150","true"
"null","<div style=""font-size:60px;"">+</div>","null","html-keyboard-response","314","377621","0.0-6.0-0.154","MIGE","1","f","links","22","","fixation","","","",""
"2396","img/L90_180.png","70","image-keyboard-response","315","380031","0.0-6.0-1.154","MIGE","1","f","links","22","","","self","f","90","true"
"null","<div style=""font-size:60px;"">+</div>","null","html-keyboard-response","316","380559","0.0-6.0-0.155","MIGE","1","f","links","22","","fixation","","","",""
"1095","img/0_60.png","74","image-keyboard-response","317","381662","0.0-6.0-1.155","MIGE","1","f","links","22","","","self","j","0","true"
"null","<div style=""font-size:60px;"">+</div>","null","html-keyboard-response","318","382091","0.0-6.0-0.156","MIGE","1","f","links","22","","fixation","","","",""
"2621","img/120_150.png","74","image-keyboard-response","319","384723","0.0-6.0-1.156","MIGE","1","f","links","22","","","self","f","120","false"
"null","<div style=""font-size:60px;"">+</div>","null","html-keyboard-response","320","385077","0.0-6.0-0.157","MIGE","1","f","links","22","","fixation","","","",""
"2775","img/60_90.png","74","image-keyboard-response","321","387862","0.0-6.0-1.157","MIGE","1","f","links","22","","","self","j","60","true"
"null","<div style=""font-size:60px;"">+</div>","null","html-keyboard-response","322","388314","0.0-6.0-0.158","MIGE","1","f","links","22","","fixation","","","",""
"2542","img/150_120.png","70","image-keyboard-response","323","390866","0.0-6.0-1.158","MIGE","1","f","links","22","","","self","f","150","true"
"null","<div style=""font-size:60px;"">+</div>","null","html-keyboard-response","324","391221","0.0-6.0-0.159","MIGE","1","f","links","22","","fixation","","","",""
"2421","img/30_300.png","70","image-keyboard-response","325","393654","0.0-6.0-1.159","MIGE","1","f","links","22","","","self","f","30","true"
"null","<div style=""font-size:60px;"">+</div>","null","html-keyboard-response","326","394057","0.0-6.0-0.160","MIGE","1","f","links","22","","fixation","","","",""
"null","img/150_60.png","null","image-keyboard-response","327","397082","0.0-6.0-1.160","MIGE","1","f","links","22","","","self","f","150","false"
"null","<div style=""font-size:60px;"">+</div>","null","html-keyboard-response","328","397394","0.0-6.0-0.161","MIGE","1","f","links","22","","fixation","","","",""
"2696","img/L30_180.png","70","image-keyboard-response","329","400100","0.0-6.0-1.161","MIGE","1","f","links","22","","","self","f","30","true"
"null","<div style=""font-size:60px;"">+</div>","null","html-keyboard-response","330","400612","0.0-6.0-0.162","MIGE","1","f","links","22","","fixation","","","",""
"null","img/120_90.png","null","image-keyboard-response","331","403645","0.0-6.0-1.162","MIGE","1","f","links","22","","","self","f","120","false"
"null","<div style=""font-size:60px;"">+</div>","null","html-keyboard-response","332","403957","0.0-6.0-0.163","MIGE","1","f","links","22","","fixation","","","",""
"1783","img/120_30.png","74","image-keyboard-response","333","405749","0.0-6.0-1.163","MIGE","1","f","links","22","","","self","j","120","true"
"null","<div style=""font-size:60px;"">+</div>","null","html-keyboard-response","334","406222","0.0-6.0-0.164","MIGE","1","f","links","22","","fixation","","","",""
"1933","img/90_60.png","74","image-keyboard-response","335","408168","0.0-6.0-1.164","MIGE","1","f","links","22","","","self","j","90","true"
"null","<div style=""font-size:60px;"">+</div>","null","html-keyboard-response","336","408529","0.0-6.0-0.165","MIGE","1","f","links","22","","fixation","","","",""
"null","img/150_240.png","null","image-keyboard-response","337","411563","0.0-6.0-1.165","MIGE","1","f","links","22","","","self","j","150","false"
"null","<div style=""font-size:60px;"">+</div>","null","html-keyboard-response","338","412091","0.0-6.0-0.166","MIGE","1","f","links","22","","fixation","","","",""
"2632","img/60_270.png","74","image-keyboard-response","339","414737","0.0-6.0-1.166","MIGE","1","f","links","22","","","self","f","60","false"
"null","<div style=""font-size:60px;"">+</div>","null","html-keyboard-response","340","415210","0.0-6.0-0.167","MIGE","1","f","links","22","","fixation","","","",""
"876","img/0_120.png","74","image-keyboard-response","341","416099","0.0-6.0-1.167","MIGE","1","f","links","22","","","self","j","0","true"
"null","<div style=""font-size:60px;"">+</div>","null","html-keyboard-response","342","416430","0.0-6.0-0.168","MIGE","1","f","links","22","","fixation","","","",""
"1368","img/60_30.png","74","image-keyboard-response","343","417809","0.0-6.0-1.168","MIGE","1","f","links","22","","","self","j","60","true"
"null","<div style=""font-size:60px;"">+</div>","null","html-keyboard-response","344","418225","0.0-6.0-0.169","MIGE","1","f","links","22","","fixation","","","",""
"2067","img/150_300.png","74","image-keyboard-response","345","420307","0.0-6.0-1.169","MIGE","1","f","links","22","","","self","j","150","true"
"null","<div style=""font-size:60px;"">+</div>","null","html-keyboard-response","346","420788","0.0-6.0-0.170","MIGE","1","f","links","22","","fixation","","","",""
"1923","img/90_180.png","74","image-keyboard-response","347","422725","0.0-6.0-1.170","MIGE","1","f","links","22","","","self","j","90","true"
"null","<div style=""font-size:60px;"">+</div>","null","html-keyboard-response","348","423095","0.0-6.0-0.171","MIGE","1","f","links","22","","fixation","","","",""
"1664","img/120_270.png","74","image-keyboard-response","349","424774","0.0-6.0-1.171","MIGE","1","f","links","22","","","self","j","120","true"
"null","<div style=""font-size:60px;"">+</div>","null","html-keyboard-response","350","425127","0.0-6.0-0.172","MIGE","1","f","links","22","","fixation","","","",""
"null","img/90_330.png","null","image-keyboard-response","351","428174","0.0-6.0-1.172","MIGE","1","f","links","22","","","self","f","90","false"
"null","<div style=""font-size:60px;"">+</div>","null","html-keyboard-response","352","428581","0.0-6.0-0.173","MIGE","1","f","links","22","","fixation","","","",""
"1557","img/30_120.png","74","image-keyboard-response","353","430149","0.0-6.0-1.173","MIGE","1","f","links","22","","","self","j","30","true"
"null","<div style=""font-size:60px;"">+</div>","null","html-keyboard-response","354","430662","0.0-6.0-0.174","MIGE","1","f","links","22","","fixation","","","",""
"2773","img/60_180.png","74","image-keyboard-response","355","433447","0.0-6.0-1.174","MIGE","1","f","links","22","","","self","j","60","true"
"null","<div style=""font-size:60px;"">+</div>","null","html-keyboard-response","356","433767","0.0-6.0-0.175","MIGE","1","f","links","22","","fixation","","","",""
"null","img/150_270.png","null","image-keyboard-response","357","436800","0.0-6.0-1.175","MIGE","1","f","links","22","","","self","j","150","false"
"null","<div style=""font-size:60px;"">+</div>","null","html-keyboard-response","358","437113","0.0-6.0-0.176","MIGE","1","f","links","22","","fixation","","","",""
"null","img/120_330.png","null","image-keyboard-response","359","440143","0.0-6.0-1.176","MIGE","1","f","links","22","","","self","f","120","false"
"null","<div style=""font-size:60px;"">+</div>","null","html-keyboard-response","360","440597","0.0-6.0-0.177","MIGE","1","f","links","22","","fixation","","","",""
"2461","img/90_210.png","74","image-keyboard-response","361","443066","0.0-6.0-1.177","MIGE","1","f","links","22","","","self","j","90","true"
"null","<div style=""font-size:60px;"">+</div>","null","html-keyboard-response","362","443581","0.0-6.0-0.178","MIGE","1","f","links","22","","fixation","","","",""
"1801","img/60_210.png","74","image-keyboard-response","363","445394","0.0-6.0-1.178","MIGE","1","f","links","22","","","self","j","60","true"
"null","<div style=""font-size:60px;"">+</div>","null","html-keyboard-response","364","445862","0.0-6.0-0.179","MIGE","1","f","links","22","","fixation","","","",""
"2634","img/90_30.png","70","image-keyboard-response","365","448508","0.0-6.0-1.179","MIGE","1","f","links","22","","","self","j","90","false"
"null","<div style=""font-size:60px;"">+</div>","null","html-keyboard-response","366","449010","0.0-6.0-0.180","MIGE","1","f","links","22","","fixation","","","",""
"1448","img/30_270.png","70","image-keyboard-response","367","450468","0.0-6.0-1.180","MIGE","1","f","links","22","","","self","f","30","true"
"null","<div style=""font-size:60px;"">+</div>","null","html-keyboard-response","368","450837","0.0-6.0-0.181","MIGE","1","f","links","22","","fixation","","","",""
"1711","img/L120_180.png","70","image-keyboard-response","369","452560","0.0-6.0-1.181","MIGE","1","f","links","22","","","self","f","120","true"
"null","<div style=""font-size:60px;"">+</div>","null","html-keyboard-response","370","452988","0.0-6.0-0.182","MIGE","1","f","links","22","","fixation","","","",""
"978","img/0_210.png","70","image-keyboard-response","371","453978","0.0-6.0-1.182","MIGE","1","f","links","22","","","self","f","0","true"
"null","<div style=""font-size:60px;"">+</div>","null","html-keyboard-response","372","454288","0.0-6.0-0.183","MIGE","1","f","links","22","","fixation","","","",""
"1766","img/90_300.png","70","image-keyboard-response","373","456070","0.0-6.0-1.183","MIGE","1","f","links","22","","","self","f","90","true"
"null","<div style=""font-size:60px;"">+</div>","null","html-keyboard-response","374","456538","0.0-6.0-0.184","MIGE","1","f","links","22","","fixation","","","",""
"2232","img/150_90.png","74","image-keyboard-response","375","458781","0.0-6.0-1.184","MIGE","1","f","links","22","","","self","f","150","false"
"null","<div style=""font-size:60px;"">+</div>","null","html-keyboard-response","376","459299","0.0-6.0-0.185","MIGE","1","f","links","22","","fixation","","","",""
"795","img/0_270.png","70","image-keyboard-response","377","460108","0.0-6.0-1.185","MIGE","1","f","links","22","","","self","f","0","true"
"null","<div style=""font-size:60px;"">+</div>","null","html-keyboard-response","378","460537","0.0-6.0-0.186","MIGE","1","f","links","22","","fixation","","","",""
"1325","img/30_180.png","74","image-keyboard-response","379","461875","0.0-6.0-1.186","MIGE","1","f","links","22","","","self","j","30","true"
"null","<div style=""font-size:60px;"">+</div>","null","html-keyboard-response","380","462350","0.0-6.0-0.187","MIGE","1","f","links","22","","fixation","","","",""
"1878","img/30_240.png","70","image-keyboard-response","381","464243","0.0-6.0-1.187","MIGE","1","f","links","22","","","self","f","30","true"
"null","<div style=""font-size:60px;"">+</div>","null","html-keyboard-response","382","464755","0.0-6.0-0.188","MIGE","1","f","links","22","","fixation","","","",""
"2819","img/150_180.png","74","image-keyboard-response","383","467589","0.0-6.0-1.188","MIGE","1","f","links","22","","","self","j","150","true"
"null","<div style=""font-size:60px;"">+</div>","null","html-keyboard-response","384","467959","0.0-6.0-0.189","MIGE","1","f","links","22","","fixation","","","",""
"2474","img/90_150.png","70","image-keyboard-response","385","470448","0.0-6.0-1.189","MIGE","1","f","links","22","","","self","f","90","true"
"null","<div style=""font-size:60px;"">+</div>","null","html-keyboard-response","386","470803","0.0-6.0-0.190","MIGE","1","f","links","22","","fixation","","","",""
"null","img/L150_180.png","null","image-keyboard-response","387","473837","0.0-6.0-1.190","MIGE","1","f","links","22","","","self","f","150","false"
"null","<div style=""font-size:60px;"">+</div>","null","html-keyboard-response","388","474368","0.0-6.0-0.191","MIGE","1","f","links","22","","fixation","","","",""
"745","img/0_30.png","74","image-keyboard-response","389","475129","0.0-6.0-1.191","MIGE","1","f","links","22","","","self","j","0","true"
"null","<div style=""font-size:60px;"">+</div>","null","html-keyboard-response","390","475447","0.0-6.0-0.192","MIGE","1","f","links","22","","fixation","","","",""
"812","img/0_150.png","74","image-keyboard-response","391","476277","0.0-6.0-1.192","MIGE","1","f","links","22","","","self","j","0","true"
"null","<div style=""font-size:60px;"">+</div>","null","html-keyboard-response","392","476806","0.0-6.0-0.193","MIGE","1","f","links","22","","fixation","","","",""
"1413","img/30_60.png","74","image-keyboard-response","393","478233","0.0-6.0-1.193","MIGE","1","f","links","22","","","self","j","30","true"
"null","<div style=""font-size:60px;"">+</div>","null","html-keyboard-response","394","478745","0.0-6.0-0.194","MIGE","1","f","links","22","","fixation","","","",""
"904","img/0_240.png","70","image-keyboard-response","395","479662","0.0-6.0-1.194","MIGE","1","f","links","22","","","self","f","0","true"
"null","<div style=""font-size:60px;"">+</div>","null","html-keyboard-response","396","480192","0.0-6.0-0.195","MIGE","1","f","links","22","","fixation","","","",""
"1648","img/120_210.png","74","image-keyboard-response","397","481855","0.0-6.0-1.195","MIGE","1","f","links","22","","","self","j","120","true"
"null","<div style=""font-size:60px;"">+</div>","null","html-keyboard-response","398","482161","0.0-6.0-0.196","MIGE","1","f","links","22","","fixation","","","",""
"1606","img/L90_180.png","70","image-keyboard-response","399","483779","0.0-6.0-1.196","MIGE","1","f","links","22","","","self","f","90","true"
"null","<div style=""font-size:60px;"">+</div>","null","html-keyboard-response","400","484100","0.0-6.0-0.197","MIGE","1","f","links","22","","fixation","","","",""
"1376","img/L60_180.png","70","image-keyboard-response","401","485489","0.0-6.0-1.197","MIGE","1","f","links","22","","","self","f","60","true"
"null","<div style=""font-size:60px;"">+</div>","null","html-keyboard-response","402","485993","0.0-6.0-0.198","MIGE","1","f","links","22","","fixation","","","",""
"2745","img/90_120.png","70","image-keyboard-response","403","488753","0.0-6.0-1.198","MIGE","1","f","links","22","","","self","f","90","true"
"null","<div style=""font-size:60px;"">+</div>","null","html-keyboard-response","404","489225","0.0-6.0-0.199","MIGE","1","f","links","22","","fixation","","","",""
"628","img/0_300.png","70","image-keyboard-response","405","489866","0.0-6.0-1.199","MIGE","1","f","links","22","","","self","f","0","true"
"null","<div style=""font-size:60px;"">+</div>","null","html-keyboard-response","406","490178","0.0-6.0-0.200","MIGE","1","f","links","22","","fixation","","","",""
"601","img/0_60.png","74","image-keyboard-response","407","490788","0.0-6.0-1.200","MIGE","1","f","links","22","","","self","j","0","true"
"null","<div style=""font-size:60px;"">+</div>","null","html-keyboard-response","408","491116","0.0-6.0-0.201","MIGE","1","f","links","22","","fixation","","","",""
"1301","img/90_240.png","74","image-keyboard-response","409","492430","0.0-6.0-1.201","MIGE","1","f","links","22","","","self","j","90","true"
"null","<div style=""font-size:60px;"">+</div>","null","html-keyboard-response","410","492757","0.0-6.0-0.202","MIGE","1","f","links","22","","fixation","","","",""
"2217","img/60_330.png","70","image-keyboard-response","411","494983","0.0-6.0-1.202","MIGE","1","f","links","22","","","self","f","60","true"
"null","<div style=""font-size:60px;"">+</div>","null","html-keyboard-response","412","495412","0.0-6.0-0.203","MIGE","1","f","links","22","","fixation","","","",""
"820","img/0_90.png","74","image-keyboard-response","413","496244","0.0-6.0-1.203","MIGE","1","f","links","22","","","self","j","0","true"
"null","<div style=""font-size:60px;"">+</div>","null","html-keyboard-response","414","496755","0.0-6.0-0.204","MIGE","1","f","links","22","","fixation","","","",""
"2805","img/120_180.png","74","image-keyboard-response","415","499576","0.0-6.0-1.204","MIGE","1","f","links","22","","","self","j","120","true"
"null","<div style=""font-size:60px;"">+</div>","null","html-keyboard-response","416","500036","0.0-6.0-0.205","MIGE","1","f","links","22","","fixation","","","",""
"1685","img/30_90.png","74","image-keyboard-response","417","501736","0.0-6.0-1.205","MIGE","1","f","links","22","","","self","j","30","true"
"null","<div style=""font-size:60px;"">+</div>","null","html-keyboard-response","418","502240","0.0-6.0-0.206","MIGE","1","f","links","22","","fixation","","","",""
"2103","img/60_150.png","70","image-keyboard-response","419","504356","0.0-6.0-1.206","MIGE","1","f","links","22","","","self","f","60","true"
"null","<div style=""font-size:60px;"">+</div>","null","html-keyboard-response","420","504679","0.0-6.0-0.207","MIGE","1","f","links","22","","fixation","","","",""
"833","img/0_330.png","70","image-keyboard-response","421","505526","0.0-6.0-1.207","MIGE","1","f","links","22","","","self","f","0","true"
"7316","<p>Du hast in 73% der Versuche korrekt entschieden.</p><p>Deine durchschnittliche Reaktionszeit war  1533ms.</p><p>Dr&uuml;cke eine beliebige Taste, um die Session zu beenden. Vielen Dank!</p>","32","html-keyboard-response","422","512849","0.0-7.0","MIGE","1","f","links","22","","","","","",""
