"rt","stimulus","key_press","trial_type","trial_index","time_elapsed","internal_node_id","subject","session","sex","handedness","age","responses","test_part","condition","correct_response","angle","correct"
"16049","<p>Mental Rotation Experiment.</p> <p>Dr&uuml;cke eine beliebige Taste, um anzufangen.</p>","13","html-keyboard-response","0","16085","0.0-0.0","MIGE","2","f","links","22","","","","","",""
"196546","","","survey-text","1","212632","0.0-1.0","MIGE","2","f","links","22","{""Q0"":""MIGE""}","","","","",""
"3528","","","survey-text","2","216164","0.0-2.0","MIGE","2","f","links","22","{""Q0"":""2""}","","","","",""
"2612","","","survey-multi-choice","3","218782","0.0-3.0","MIGE","2","f","links","22","{""Q0"":""f"",""Q1"":""links""}","","","","",""
"4056","","","survey-text","4","222840","0.0-4.0","MIGE","2","f","links","22","{""Q0"":""22""}","","","","",""
"63286","<p> Stell dir vor, dass du vor einem runden Tisch stehst, auf dem sich ein blauer Ball am Tischrand befindet. Entlang des Tischrands ist jeweils ein verschieden langer Pfeil. Nun bewegst du dich entlang dieses Pfeils bis an seine Spitze. Wenn du am Ende des Pfeils angekommen bist, schau zur Tischmitte. </p> <img src='img/90_180.png'></img> <br> <p>Entscheide dann, ob der Ball von deiner neuen (vorgestellten) Position links oder rechts von dir liegt.</p> <p>Dr&uuml;cke die <strong>'f'</strong>-Taste f&uuml;r links, die <strong>'j'</strong>-Taste f&uuml;r rechts.</p> <br><p> Das Bild wird jeweils 1 Sekunde lang pr&auml;sentiert. Du hast 3 Sekunden Zeit eine Entscheidung zu treffen.</p>","32","html-keyboard-response","5","286137","0.0-5.0","MIGE","2","f","links","22","","","","","",""
"null","<div style=""font-size:60px;"">+</div>","null","html-keyboard-response","6","287601","0.0-6.0-0.0","MIGE","2","f","links","22","","fixation","","","",""
"null","img/L30_180.png","null","image-keyboard-response","7","290628","0.0-6.0-1.0","MIGE","2","f","links","22","","","self","f","30","false"
"null","<div style=""font-size:60px;"">+</div>","null","html-keyboard-response","8","291082","0.0-6.0-0.1","MIGE","2","f","links","22","","fixation","","","",""
"1425","img/60_210.png","74","image-keyboard-response","9","292527","0.0-6.0-1.1","MIGE","2","f","links","22","","","self","j","60","true"
"null","<div style=""font-size:60px;"">+</div>","null","html-keyboard-response","10","292883","0.0-6.0-0.2","MIGE","2","f","links","22","","fixation","","","",""
"2229","img/30_300.png","70","image-keyboard-response","11","295131","0.0-6.0-1.2","MIGE","2","f","links","22","","","self","f","30","true"
"null","<div style=""font-size:60px;"">+</div>","null","html-keyboard-response","12","295494","0.0-6.0-0.3","MIGE","2","f","links","22","","fixation","","","",""
"2061","img/90_60.png","74","image-keyboard-response","13","297573","0.0-6.0-1.3","MIGE","2","f","links","22","","","self","j","90","true"
"null","<div style=""font-size:60px;"">+</div>","null","html-keyboard-response","14","298083","0.0-6.0-0.4","MIGE","2","f","links","22","","fixation","","","",""
"707","img/0_30.png","74","image-keyboard-response","15","298810","0.0-6.0-1.4","MIGE","2","f","links","22","","","self","j","0","true"
"null","<div style=""font-size:60px;"">+</div>","null","html-keyboard-response","16","299165","0.0-6.0-0.5","MIGE","2","f","links","22","","fixation","","","",""
"1744","img/90_30.png","74","image-keyboard-response","17","300926","0.0-6.0-1.5","MIGE","2","f","links","22","","","self","j","90","true"
"null","<div style=""font-size:60px;"">+</div>","null","html-keyboard-response","18","301230","0.0-6.0-0.6","MIGE","2","f","links","22","","fixation","","","",""
"1737","img/150_180.png","74","image-keyboard-response","19","302984","0.0-6.0-1.6","MIGE","2","f","links","22","","","self","j","150","true"
"null","<div style=""font-size:60px;"">+</div>","null","html-keyboard-response","20","303403","0.0-6.0-0.7","MIGE","2","f","links","22","","fixation","","","",""
"2423","img/150_120.png","70","image-keyboard-response","21","305844","0.0-6.0-1.7","MIGE","2","f","links","22","","","self","f","150","true"
"null","<div style=""font-size:60px;"">+</div>","null","html-keyboard-response","22","306293","0.0-6.0-0.8","MIGE","2","f","links","22","","fixation","","","",""
"1714","img/30_60.png","74","image-keyboard-response","23","308025","0.0-6.0-1.8","MIGE","2","f","links","22","","","self","j","30","true"
"null","<div style=""font-size:60px;"">+</div>","null","html-keyboard-response","24","308544","0.0-6.0-0.9","MIGE","2","f","links","22","","fixation","","","",""
"735","img/0_90.png","74","image-keyboard-response","25","309295","0.0-6.0-1.9","MIGE","2","f","links","22","","","self","j","0","true"
"null","<div style=""font-size:60px;"">+</div>","null","html-keyboard-response","26","309700","0.0-6.0-0.10","MIGE","2","f","links","22","","fixation","","","",""
"1984","img/30_120.png","74","image-keyboard-response","27","311702","0.0-6.0-1.10","MIGE","2","f","links","22","","","self","j","30","true"
"null","<div style=""font-size:60px;"">+</div>","null","html-keyboard-response","28","312112","0.0-6.0-0.11","MIGE","2","f","links","22","","fixation","","","",""
"1613","img/90_300.png","70","image-keyboard-response","29","313741","0.0-6.0-1.11","MIGE","2","f","links","22","","","self","f","90","true"
"null","<div style=""font-size:60px;"">+</div>","null","html-keyboard-response","30","314105","0.0-6.0-0.12","MIGE","2","f","links","22","","fixation","","","",""
"1606","img/L60_180.png","70","image-keyboard-response","31","315731","0.0-6.0-1.12","MIGE","2","f","links","22","","","self","f","60","true"
"null","<div style=""font-size:60px;"">+</div>","null","html-keyboard-response","32","316204","0.0-6.0-0.13","MIGE","2","f","links","22","","fixation","","","",""
"1810","img/60_270.png","70","image-keyboard-response","33","318038","0.0-6.0-1.13","MIGE","2","f","links","22","","","self","f","60","true"
"null","<div style=""font-size:60px;"">+</div>","null","html-keyboard-response","34","318516","0.0-6.0-0.14","MIGE","2","f","links","22","","fixation","","","",""
"2299","img/150_300.png","74","image-keyboard-response","35","320839","0.0-6.0-1.14","MIGE","2","f","links","22","","","self","j","150","true"
"null","<div style=""font-size:60px;"">+</div>","null","html-keyboard-response","36","321194","0.0-6.0-0.15","MIGE","2","f","links","22","","fixation","","","",""
"1458","img/150_270.png","74","image-keyboard-response","37","322670","0.0-6.0-1.15","MIGE","2","f","links","22","","","self","j","150","true"
"null","<div style=""font-size:60px;"">+</div>","null","html-keyboard-response","38","323147","0.0-6.0-0.16","MIGE","2","f","links","22","","fixation","","","",""
"1798","img/L120_180.png","70","image-keyboard-response","39","324967","0.0-6.0-1.16","MIGE","2","f","links","22","","","self","f","120","true"
"null","<div style=""font-size:60px;"">+</div>","null","html-keyboard-response","40","325428","0.0-6.0-0.17","MIGE","2","f","links","22","","fixation","","","",""
"1884","img/90_150.png","70","image-keyboard-response","41","327330","0.0-6.0-1.17","MIGE","2","f","links","22","","","self","f","90","true"
"null","<div style=""font-size:60px;"">+</div>","null","html-keyboard-response","42","327646","0.0-6.0-0.18","MIGE","2","f","links","22","","fixation","","","",""
"1477","img/120_180.png","74","image-keyboard-response","43","329140","0.0-6.0-1.18","MIGE","2","f","links","22","","","self","j","120","true"
"null","<div style=""font-size:60px;"">+</div>","null","html-keyboard-response","44","329442","0.0-6.0-0.19","MIGE","2","f","links","22","","fixation","","","",""
"831","img/0_330.png","70","image-keyboard-response","45","330290","0.0-6.0-1.19","MIGE","2","f","links","22","","","self","f","0","true"
"null","<div style=""font-size:60px;"">+</div>","null","html-keyboard-response","46","330802","0.0-6.0-0.20","MIGE","2","f","links","22","","fixation","","","",""
"1729","img/150_90.png","70","image-keyboard-response","47","332550","0.0-6.0-1.20","MIGE","2","f","links","22","","","self","f","150","true"
"null","<div style=""font-size:60px;"">+</div>","null","html-keyboard-response","48","333009","0.0-6.0-0.21","MIGE","2","f","links","22","","fixation","","","",""
"1603","img/60_90.png","74","image-keyboard-response","49","334620","0.0-6.0-1.21","MIGE","2","f","links","22","","","self","j","60","true"
"null","<div style=""font-size:60px;"">+</div>","null","html-keyboard-response","50","335146","0.0-6.0-0.22","MIGE","2","f","links","22","","fixation","","","",""
"1603","img/60_330.png","70","image-keyboard-response","51","336769","0.0-6.0-1.22","MIGE","2","f","links","22","","","self","f","60","true"
"null","<div style=""font-size:60px;"">+</div>","null","html-keyboard-response","52","337281","0.0-6.0-0.23","MIGE","2","f","links","22","","fixation","","","",""
"1101","img/60_150.png","70","image-keyboard-response","53","338399","0.0-6.0-1.23","MIGE","2","f","links","22","","","self","f","60","true"
"null","<div style=""font-size:60px;"">+</div>","null","html-keyboard-response","54","338882","0.0-6.0-0.24","MIGE","2","f","links","22","","fixation","","","",""
"809","img/0_150.png","74","image-keyboard-response","55","339706","0.0-6.0-1.24","MIGE","2","f","links","22","","","self","j","0","true"
"null","<div style=""font-size:60px;"">+</div>","null","html-keyboard-response","56","340165","0.0-6.0-0.25","MIGE","2","f","links","22","","fixation","","","",""
"1714","img/30_240.png","74","image-keyboard-response","57","341897","0.0-6.0-1.25","MIGE","2","f","links","22","","","self","f","30","false"
"null","<div style=""font-size:60px;"">+</div>","null","html-keyboard-response","58","342257","0.0-6.0-0.26","MIGE","2","f","links","22","","fixation","","","",""
"724","img/0_60.png","74","image-keyboard-response","59","343000","0.0-6.0-1.26","MIGE","2","f","links","22","","","self","j","0","true"
"null","<div style=""font-size:60px;"">+</div>","null","html-keyboard-response","60","343429","0.0-6.0-0.27","MIGE","2","f","links","22","","fixation","","","",""
"1140","img/120_270.png","74","image-keyboard-response","61","344588","0.0-6.0-1.27","MIGE","2","f","links","22","","","self","j","120","true"
"null","<div style=""font-size:60px;"">+</div>","null","html-keyboard-response","62","345039","0.0-6.0-0.28","MIGE","2","f","links","22","","fixation","","","",""
"1657","img/90_120.png","70","image-keyboard-response","63","346748","0.0-6.0-1.28","MIGE","2","f","links","22","","","self","f","90","true"
"null","<div style=""font-size:60px;"">+</div>","null","html-keyboard-response","64","347230","0.0-6.0-0.29","MIGE","2","f","links","22","","fixation","","","",""
"1007","img/30_90.png","74","image-keyboard-response","65","348255","0.0-6.0-1.29","MIGE","2","f","links","22","","","self","j","30","true"
"null","<div style=""font-size:60px;"">+</div>","null","html-keyboard-response","66","348671","0.0-6.0-0.30","MIGE","2","f","links","22","","fixation","","","",""
"1500","img/90_210.png","74","image-keyboard-response","67","350191","0.0-6.0-1.30","MIGE","2","f","links","22","","","self","j","90","true"
"null","<div style=""font-size:60px;"">+</div>","null","html-keyboard-response","68","350668","0.0-6.0-0.31","MIGE","2","f","links","22","","fixation","","","",""
"1937","img/120_30.png","70","image-keyboard-response","69","352622","0.0-6.0-1.31","MIGE","2","f","links","22","","","self","j","120","false"
"null","<div style=""font-size:60px;"">+</div>","null","html-keyboard-response","70","353163","0.0-6.0-0.32","MIGE","2","f","links","22","","fixation","","","",""
"2018","img/90_330.png","70","image-keyboard-response","71","355196","0.0-6.0-1.32","MIGE","2","f","links","22","","","self","f","90","true"
"null","<div style=""font-size:60px;"">+</div>","null","html-keyboard-response","72","355567","0.0-6.0-0.33","MIGE","2","f","links","22","","fixation","","","",""
"2043","img/120_150.png","70","image-keyboard-response","73","357628","0.0-6.0-1.33","MIGE","2","f","links","22","","","self","f","120","true"
"null","<div style=""font-size:60px;"">+</div>","null","html-keyboard-response","74","358146","0.0-6.0-0.34","MIGE","2","f","links","22","","fixation","","","",""
"1407","img/30_180.png","74","image-keyboard-response","75","359572","0.0-6.0-1.34","MIGE","2","f","links","22","","","self","j","30","true"
"null","<div style=""font-size:60px;"">+</div>","null","html-keyboard-response","76","360039","0.0-6.0-0.35","MIGE","2","f","links","22","","fixation","","","",""
"1304","img/60_30.png","74","image-keyboard-response","77","361360","0.0-6.0-1.35","MIGE","2","f","links","22","","","self","j","60","true"
"null","<div style=""font-size:60px;"">+</div>","null","html-keyboard-response","78","361677","0.0-6.0-0.36","MIGE","2","f","links","22","","fixation","","","",""
"1555","img/90_240.png","74","image-keyboard-response","79","363251","0.0-6.0-1.36","MIGE","2","f","links","22","","","self","j","90","true"
"null","<div style=""font-size:60px;"">+</div>","null","html-keyboard-response","80","363710","0.0-6.0-0.37","MIGE","2","f","links","22","","fixation","","","",""
"2255","img/120_330.png","70","image-keyboard-response","81","365986","0.0-6.0-1.37","MIGE","2","f","links","22","","","self","f","120","true"
"null","<div style=""font-size:60px;"">+</div>","null","html-keyboard-response","82","366443","0.0-6.0-0.38","MIGE","2","f","links","22","","fixation","","","",""
"748","img/0_210.png","70","image-keyboard-response","83","367211","0.0-6.0-1.38","MIGE","2","f","links","22","","","self","f","0","true"
"null","<div style=""font-size:60px;"">+</div>","null","html-keyboard-response","84","367724","0.0-6.0-0.39","MIGE","2","f","links","22","","fixation","","","",""
"1331","img/90_180.png","74","image-keyboard-response","85","369068","0.0-6.0-1.39","MIGE","2","f","links","22","","","self","j","90","true"
"null","<div style=""font-size:60px;"">+</div>","null","html-keyboard-response","86","369445","0.0-6.0-0.40","MIGE","2","f","links","22","","fixation","","","",""
"673","img/0_120.png","74","image-keyboard-response","87","370137","0.0-6.0-1.40","MIGE","2","f","links","22","","","self","j","0","true"
"null","<div style=""font-size:60px;"">+</div>","null","html-keyboard-response","88","370492","0.0-6.0-0.41","MIGE","2","f","links","22","","fixation","","","",""
"1617","img/120_210.png","74","image-keyboard-response","89","372129","0.0-6.0-1.41","MIGE","2","f","links","22","","","self","j","120","true"
"null","<div style=""font-size:60px;"">+</div>","null","html-keyboard-response","90","372585","0.0-6.0-0.42","MIGE","2","f","links","22","","fixation","","","",""
"1549","img/150_60.png","70","image-keyboard-response","91","374152","0.0-6.0-1.42","MIGE","2","f","links","22","","","self","f","150","true"
"null","<div style=""font-size:60px;"">+</div>","null","html-keyboard-response","92","374664","0.0-6.0-0.43","MIGE","2","f","links","22","","fixation","","","",""
"1337","img/150_240.png","74","image-keyboard-response","93","376020","0.0-6.0-1.43","MIGE","2","f","links","22","","","self","j","150","true"
"null","<div style=""font-size:60px;"">+</div>","null","html-keyboard-response","94","376398","0.0-6.0-0.44","MIGE","2","f","links","22","","fixation","","","",""
"1182","img/0_270.png","70","image-keyboard-response","95","377597","0.0-6.0-1.44","MIGE","2","f","links","22","","","self","f","0","true"
"null","<div style=""font-size:60px;"">+</div>","null","html-keyboard-response","96","377960","0.0-6.0-0.45","MIGE","2","f","links","22","","fixation","","","",""
"1823","img/L150_180.png","70","image-keyboard-response","97","379801","0.0-6.0-1.45","MIGE","2","f","links","22","","","self","f","150","true"
"null","<div style=""font-size:60px;"">+</div>","null","html-keyboard-response","98","380274","0.0-6.0-0.46","MIGE","2","f","links","22","","fixation","","","",""
"1613","img/30_270.png","70","image-keyboard-response","99","381905","0.0-6.0-1.46","MIGE","2","f","links","22","","","self","f","30","true"
"null","<div style=""font-size:60px;"">+</div>","null","html-keyboard-response","100","382321","0.0-6.0-0.47","MIGE","2","f","links","22","","fixation","","","",""
"653","img/0_300.png","70","image-keyboard-response","101","382996","0.0-6.0-1.47","MIGE","2","f","links","22","","","self","f","0","true"
"null","<div style=""font-size:60px;"">+</div>","null","html-keyboard-response","102","383408","0.0-6.0-0.48","MIGE","2","f","links","22","","fixation","","","",""
"1434","img/60_180.png","74","image-keyboard-response","103","384865","0.0-6.0-1.48","MIGE","2","f","links","22","","","self","j","60","true"
"null","<div style=""font-size:60px;"">+</div>","null","html-keyboard-response","104","385386","0.0-6.0-0.49","MIGE","2","f","links","22","","fixation","","","",""
"830","img/0_240.png","70","image-keyboard-response","105","386235","0.0-6.0-1.49","MIGE","2","f","links","22","","","self","f","0","true"
"null","<div style=""font-size:60px;"">+</div>","null","html-keyboard-response","106","386590","0.0-6.0-0.50","MIGE","2","f","links","22","","fixation","","","",""
"1654","img/120_90.png","70","image-keyboard-response","107","388260","0.0-6.0-1.50","MIGE","2","f","links","22","","","self","f","120","true"
"null","<div style=""font-size:60px;"">+</div>","null","html-keyboard-response","108","388785","0.0-6.0-0.51","MIGE","2","f","links","22","","fixation","","","",""
"1315","img/L90_180.png","70","image-keyboard-response","109","390117","0.0-6.0-1.51","MIGE","2","f","links","22","","","self","f","90","true"
"null","<div style=""font-size:60px;"">+</div>","null","html-keyboard-response","110","390472","0.0-6.0-0.52","MIGE","2","f","links","22","","fixation","","","",""
"1521","img/150_270.png","74","image-keyboard-response","111","392008","0.0-6.0-1.52","MIGE","2","f","links","22","","","self","j","150","true"
"null","<div style=""font-size:60px;"">+</div>","null","html-keyboard-response","112","392472","0.0-6.0-0.53","MIGE","2","f","links","22","","fixation","","","",""
"1724","img/30_300.png","70","image-keyboard-response","113","394200","0.0-6.0-1.53","MIGE","2","f","links","22","","","self","f","30","true"
"null","<div style=""font-size:60px;"">+</div>","null","html-keyboard-response","114","394706","0.0-6.0-0.54","MIGE","2","f","links","22","","fixation","","","",""
"1381","img/90_300.png","70","image-keyboard-response","115","396100","0.0-6.0-1.54","MIGE","2","f","links","22","","","self","f","90","true"
"null","<div style=""font-size:60px;"">+</div>","null","html-keyboard-response","116","396518","0.0-6.0-0.55","MIGE","2","f","links","22","","fixation","","","",""
"1688","img/90_150.png","70","image-keyboard-response","117","398217","0.0-6.0-1.55","MIGE","2","f","links","22","","","self","f","90","true"
"null","<div style=""font-size:60px;"">+</div>","null","html-keyboard-response","118","398536","0.0-6.0-0.56","MIGE","2","f","links","22","","fixation","","","",""
"1582","img/120_180.png","74","image-keyboard-response","119","400129","0.0-6.0-1.56","MIGE","2","f","links","22","","","self","j","120","true"
"null","<div style=""font-size:60px;"">+</div>","null","html-keyboard-response","120","400661","0.0-6.0-0.57","MIGE","2","f","links","22","","fixation","","","",""
"1968","img/L150_180.png","70","image-keyboard-response","121","402638","0.0-6.0-1.57","MIGE","2","f","links","22","","","self","f","150","true"
"null","<div style=""font-size:60px;"">+</div>","null","html-keyboard-response","122","403098","0.0-6.0-0.58","MIGE","2","f","links","22","","fixation","","","",""
"2118","img/120_330.png","70","image-keyboard-response","123","405226","0.0-6.0-1.58","MIGE","2","f","links","22","","","self","f","120","true"
"null","<div style=""font-size:60px;"">+</div>","null","html-keyboard-response","124","405645","0.0-6.0-0.59","MIGE","2","f","links","22","","fixation","","","",""
"2000","img/L90_180.png","70","image-keyboard-response","125","407655","0.0-6.0-1.59","MIGE","2","f","links","22","","","self","f","90","true"
"null","<div style=""font-size:60px;"">+</div>","null","html-keyboard-response","126","408022","0.0-6.0-0.60","MIGE","2","f","links","22","","fixation","","","",""
"1412","img/60_90.png","74","image-keyboard-response","127","409446","0.0-6.0-1.60","MIGE","2","f","links","22","","","self","j","60","true"
"null","<div style=""font-size:60px;"">+</div>","null","html-keyboard-response","128","409965","0.0-6.0-0.61","MIGE","2","f","links","22","","fixation","","","",""
"678","img/0_60.png","74","image-keyboard-response","129","410650","0.0-6.0-1.61","MIGE","2","f","links","22","","","self","j","0","true"
"null","<div style=""font-size:60px;"">+</div>","null","html-keyboard-response","130","411169","0.0-6.0-0.62","MIGE","2","f","links","22","","fixation","","","",""
"1710","img/30_270.png","70","image-keyboard-response","131","412888","0.0-6.0-1.62","MIGE","2","f","links","22","","","self","f","30","true"
"null","<div style=""font-size:60px;"">+</div>","null","html-keyboard-response","132","413342","0.0-6.0-0.63","MIGE","2","f","links","22","","fixation","","","",""
"1515","img/90_330.png","70","image-keyboard-response","133","414867","0.0-6.0-1.63","MIGE","2","f","links","22","","","self","f","90","true"
"null","<div style=""font-size:60px;"">+</div>","null","html-keyboard-response","134","415390","0.0-6.0-0.64","MIGE","2","f","links","22","","fixation","","","",""
"762","img/0_210.png","70","image-keyboard-response","135","416161","0.0-6.0-1.64","MIGE","2","f","links","22","","","self","f","0","true"
"null","<div style=""font-size:60px;"">+</div>","null","html-keyboard-response","136","416640","0.0-6.0-0.65","MIGE","2","f","links","22","","fixation","","","",""
"2459","img/150_90.png","70","image-keyboard-response","137","419109","0.0-6.0-1.65","MIGE","2","f","links","22","","","self","f","150","true"
"null","<div style=""font-size:60px;"">+</div>","null","html-keyboard-response","138","419414","0.0-6.0-0.66","MIGE","2","f","links","22","","fixation","","","",""
"738","img/0_330.png","70","image-keyboard-response","139","420165","0.0-6.0-1.66","MIGE","2","f","links","22","","","self","f","0","true"
"null","<div style=""font-size:60px;"">+</div>","null","html-keyboard-response","140","420538","0.0-6.0-0.67","MIGE","2","f","links","22","","fixation","","","",""
"1160","img/90_210.png","74","image-keyboard-response","141","421707","0.0-6.0-1.67","MIGE","2","f","links","22","","","self","j","90","true"
"null","<div style=""font-size:60px;"">+</div>","null","html-keyboard-response","142","422226","0.0-6.0-0.68","MIGE","2","f","links","22","","fixation","","","",""
"1932","img/150_300.png","74","image-keyboard-response","143","424172","0.0-6.0-1.68","MIGE","2","f","links","22","","","self","j","150","true"
"null","<div style=""font-size:60px;"">+</div>","null","html-keyboard-response","144","424601","0.0-6.0-0.69","MIGE","2","f","links","22","","fixation","","","",""
"1336","img/60_210.png","74","image-keyboard-response","145","425948","0.0-6.0-1.69","MIGE","2","f","links","22","","","self","j","60","true"
"null","<div style=""font-size:60px;"">+</div>","null","html-keyboard-response","146","426459","0.0-6.0-0.70","MIGE","2","f","links","22","","fixation","","","",""
"797","img/0_270.png","70","image-keyboard-response","147","427265","0.0-6.0-1.70","MIGE","2","f","links","22","","","self","f","0","true"
"null","<div style=""font-size:60px;"">+</div>","null","html-keyboard-response","148","427788","0.0-6.0-0.71","MIGE","2","f","links","22","","fixation","","","",""
"1567","img/60_330.png","70","image-keyboard-response","149","429368","0.0-6.0-1.71","MIGE","2","f","links","22","","","self","f","60","true"
"null","<div style=""font-size:60px;"">+</div>","null","html-keyboard-response","150","429883","0.0-6.0-0.72","MIGE","2","f","links","22","","fixation","","","",""
"1485","img/120_270.png","74","image-keyboard-response","151","431382","0.0-6.0-1.72","MIGE","2","f","links","22","","","self","j","120","true"
"null","<div style=""font-size:60px;"">+</div>","null","html-keyboard-response","152","431740","0.0-6.0-0.73","MIGE","2","f","links","22","","fixation","","","",""
"1485","img/90_120.png","70","image-keyboard-response","153","433238","0.0-6.0-1.73","MIGE","2","f","links","22","","","self","f","90","true"
"null","<div style=""font-size:60px;"">+</div>","null","html-keyboard-response","154","433554","0.0-6.0-0.74","MIGE","2","f","links","22","","fixation","","","",""
"1393","img/30_120.png","74","image-keyboard-response","155","434960","0.0-6.0-1.74","MIGE","2","f","links","22","","","self","j","30","true"
"null","<div style=""font-size:60px;"">+</div>","null","html-keyboard-response","156","435371","0.0-6.0-0.75","MIGE","2","f","links","22","","fixation","","","",""
"1408","img/150_120.png","70","image-keyboard-response","157","436795","0.0-6.0-1.75","MIGE","2","f","links","22","","","self","f","150","true"
"null","<div style=""font-size:60px;"">+</div>","null","html-keyboard-response","158","437101","0.0-6.0-0.76","MIGE","2","f","links","22","","fixation","","","",""
"794","img/0_150.png","74","image-keyboard-response","159","437908","0.0-6.0-1.76","MIGE","2","f","links","22","","","self","j","0","true"
"null","<div style=""font-size:60px;"">+</div>","null","html-keyboard-response","160","438212","0.0-6.0-0.77","MIGE","2","f","links","22","","fixation","","","",""
"1381","img/150_180.png","74","image-keyboard-response","161","439606","0.0-6.0-1.77","MIGE","2","f","links","22","","","self","j","150","true"
"null","<div style=""font-size:60px;"">+</div>","null","html-keyboard-response","162","439961","0.0-6.0-0.78","MIGE","2","f","links","22","","fixation","","","",""
"1274","img/90_30.png","74","image-keyboard-response","163","441248","0.0-6.0-1.78","MIGE","2","f","links","22","","","self","j","90","true"
"null","<div style=""font-size:60px;"">+</div>","null","html-keyboard-response","164","441706","0.0-6.0-0.79","MIGE","2","f","links","22","","fixation","","","",""
"1555","img/L30_180.png","70","image-keyboard-response","165","443274","0.0-6.0-1.79","MIGE","2","f","links","22","","","self","f","30","true"
"null","<div style=""font-size:60px;"">+</div>","null","html-keyboard-response","166","443744","0.0-6.0-0.80","MIGE","2","f","links","22","","fixation","","","",""
"1632","img/90_60.png","74","image-keyboard-response","167","445390","0.0-6.0-1.80","MIGE","2","f","links","22","","","self","j","90","true"
"null","<div style=""font-size:60px;"">+</div>","null","html-keyboard-response","168","445805","0.0-6.0-0.81","MIGE","2","f","links","22","","fixation","","","",""
"1521","img/150_240.png","74","image-keyboard-response","169","447337","0.0-6.0-1.81","MIGE","2","f","links","22","","","self","j","150","true"
"null","<div style=""font-size:60px;"">+</div>","null","html-keyboard-response","170","447641","0.0-6.0-0.82","MIGE","2","f","links","22","","fixation","","","",""
"840","img/0_90.png","74","image-keyboard-response","171","448494","0.0-6.0-1.82","MIGE","2","f","links","22","","","self","j","0","true"
"null","<div style=""font-size:60px;"">+</div>","null","html-keyboard-response","172","448860","0.0-6.0-0.83","MIGE","2","f","links","22","","fixation","","","",""
"1827","img/120_30.png","74","image-keyboard-response","173","450700","0.0-6.0-1.83","MIGE","2","f","links","22","","","self","j","120","true"
"null","<div style=""font-size:60px;"">+</div>","null","html-keyboard-response","174","451204","0.0-6.0-0.84","MIGE","2","f","links","22","","fixation","","","",""
"734","img/0_300.png","70","image-keyboard-response","175","451948","0.0-6.0-1.84","MIGE","2","f","links","22","","","self","f","0","true"
"null","<div style=""font-size:60px;"">+</div>","null","html-keyboard-response","176","452268","0.0-6.0-0.85","MIGE","2","f","links","22","","fixation","","","",""
"1681","img/60_30.png","74","image-keyboard-response","177","453962","0.0-6.0-1.85","MIGE","2","f","links","22","","","self","j","60","true"
"null","<div style=""font-size:60px;"">+</div>","null","html-keyboard-response","178","454488","0.0-6.0-0.86","MIGE","2","f","links","22","","fixation","","","",""
"837","img/0_240.png","70","image-keyboard-response","179","455334","0.0-6.0-1.86","MIGE","2","f","links","22","","","self","f","0","true"
"null","<div style=""font-size:60px;"">+</div>","null","html-keyboard-response","180","455736","0.0-6.0-0.87","MIGE","2","f","links","22","","fixation","","","",""
"1540","img/L120_180.png","70","image-keyboard-response","181","457291","0.0-6.0-1.87","MIGE","2","f","links","22","","","self","f","120","true"
"null","<div style=""font-size:60px;"">+</div>","null","html-keyboard-response","182","457706","0.0-6.0-0.88","MIGE","2","f","links","22","","fixation","","","",""
"2082","img/120_210.png","74","image-keyboard-response","183","459801","0.0-6.0-1.88","MIGE","2","f","links","22","","","self","j","120","true"
"null","<div style=""font-size:60px;"">+</div>","null","html-keyboard-response","184","460111","0.0-6.0-0.89","MIGE","2","f","links","22","","fixation","","","",""
"1429","img/60_270.png","70","image-keyboard-response","185","461555","0.0-6.0-1.89","MIGE","2","f","links","22","","","self","f","60","true"
"null","<div style=""font-size:60px;"">+</div>","null","html-keyboard-response","186","462082","0.0-6.0-0.90","MIGE","2","f","links","22","","fixation","","","",""
"788","img/0_30.png","74","image-keyboard-response","187","462883","0.0-6.0-1.90","MIGE","2","f","links","22","","","self","j","0","true"
"null","<div style=""font-size:60px;"">+</div>","null","html-keyboard-response","188","463291","0.0-6.0-0.91","MIGE","2","f","links","22","","fixation","","","",""
"1594","img/60_180.png","74","image-keyboard-response","189","464896","0.0-6.0-1.91","MIGE","2","f","links","22","","","self","j","60","true"
"null","<div style=""font-size:60px;"">+</div>","null","html-keyboard-response","190","465273","0.0-6.0-0.92","MIGE","2","f","links","22","","fixation","","","",""
"1996","img/90_180.png","74","image-keyboard-response","191","467282","0.0-6.0-1.92","MIGE","2","f","links","22","","","self","j","90","true"
"null","<div style=""font-size:60px;"">+</div>","null","html-keyboard-response","192","467710","0.0-6.0-0.93","MIGE","2","f","links","22","","fixation","","","",""
"1528","img/L60_180.png","70","image-keyboard-response","193","469251","0.0-6.0-1.93","MIGE","2","f","links","22","","","self","f","60","true"
"null","<div style=""font-size:60px;"">+</div>","null","html-keyboard-response","194","469554","0.0-6.0-0.94","MIGE","2","f","links","22","","fixation","","","",""
"2129","img/120_90.png","70","image-keyboard-response","195","471693","0.0-6.0-1.94","MIGE","2","f","links","22","","","self","f","120","true"
"null","<div style=""font-size:60px;"">+</div>","null","html-keyboard-response","196","472053","0.0-6.0-0.95","MIGE","2","f","links","22","","fixation","","","",""
"2112","img/120_150.png","70","image-keyboard-response","197","474178","0.0-6.0-1.95","MIGE","2","f","links","22","","","self","f","120","true"
"null","<div style=""font-size:60px;"">+</div>","null","html-keyboard-response","198","474694","0.0-6.0-0.96","MIGE","2","f","links","22","","fixation","","","",""
"1685","img/90_240.png","74","image-keyboard-response","199","476394","0.0-6.0-1.96","MIGE","2","f","links","22","","","self","j","90","true"
"null","<div style=""font-size:60px;"">+</div>","null","html-keyboard-response","200","476819","0.0-6.0-0.97","MIGE","2","f","links","22","","fixation","","","",""
"1384","img/30_90.png","74","image-keyboard-response","201","478216","0.0-6.0-1.97","MIGE","2","f","links","22","","","self","j","30","true"
"null","<div style=""font-size:60px;"">+</div>","null","html-keyboard-response","202","478743","0.0-6.0-0.98","MIGE","2","f","links","22","","fixation","","","",""
"1104","img/30_60.png","74","image-keyboard-response","203","479860","0.0-6.0-1.98","MIGE","2","f","links","22","","","self","j","30","true"
"null","<div style=""font-size:60px;"">+</div>","null","html-keyboard-response","204","480273","0.0-6.0-0.99","MIGE","2","f","links","22","","fixation","","","",""
"1350","img/60_150.png","70","image-keyboard-response","205","481637","0.0-6.0-1.99","MIGE","2","f","links","22","","","self","f","60","true"
"null","<div style=""font-size:60px;"">+</div>","null","html-keyboard-response","206","482103","0.0-6.0-0.100","MIGE","2","f","links","22","","fixation","","","",""
"1974","img/150_60.png","74","image-keyboard-response","207","484090","0.0-6.0-1.100","MIGE","2","f","links","22","","","self","f","150","false"
"null","<div style=""font-size:60px;"">+</div>","null","html-keyboard-response","208","484493","0.0-6.0-0.101","MIGE","2","f","links","22","","fixation","","","",""
"741","img/0_120.png","74","image-keyboard-response","209","485248","0.0-6.0-1.101","MIGE","2","f","links","22","","","self","j","0","true"
"null","<div style=""font-size:60px;"">+</div>","null","html-keyboard-response","210","485555","0.0-6.0-0.102","MIGE","2","f","links","22","","fixation","","","",""
"1423","img/30_180.png","74","image-keyboard-response","211","486995","0.0-6.0-1.102","MIGE","2","f","links","22","","","self","j","30","true"
"null","<div style=""font-size:60px;"">+</div>","null","html-keyboard-response","212","487462","0.0-6.0-0.103","MIGE","2","f","links","22","","fixation","","","",""
"1588","img/30_240.png","74","image-keyboard-response","213","489061","0.0-6.0-1.103","MIGE","2","f","links","22","","","self","f","30","false"
"null","<div style=""font-size:60px;"">+</div>","null","html-keyboard-response","214","489416","0.0-6.0-0.104","MIGE","2","f","links","22","","fixation","","","",""
"1762","img/150_60.png","74","image-keyboard-response","215","491187","0.0-6.0-1.104","MIGE","2","f","links","22","","","self","f","150","false"
"null","<div style=""font-size:60px;"">+</div>","null","html-keyboard-response","216","491636","0.0-6.0-0.105","MIGE","2","f","links","22","","fixation","","","",""
"1940","img/30_120.png","74","image-keyboard-response","217","493585","0.0-6.0-1.105","MIGE","2","f","links","22","","","self","j","30","true"
"null","<div style=""font-size:60px;"">+</div>","null","html-keyboard-response","218","493900","0.0-6.0-0.106","MIGE","2","f","links","22","","fixation","","","",""
"1650","img/90_300.png","70","image-keyboard-response","219","495564","0.0-6.0-1.106","MIGE","2","f","links","22","","","self","f","90","true"
"null","<div style=""font-size:60px;"">+</div>","null","html-keyboard-response","220","495869","0.0-6.0-0.107","MIGE","2","f","links","22","","fixation","","","",""
"1385","img/L30_180.png","70","image-keyboard-response","221","497264","0.0-6.0-1.107","MIGE","2","f","links","22","","","self","f","30","true"
"null","<div style=""font-size:60px;"">+</div>","null","html-keyboard-response","222","497723","0.0-6.0-0.108","MIGE","2","f","links","22","","fixation","","","",""
"2163","img/150_300.png","74","image-keyboard-response","223","499896","0.0-6.0-1.108","MIGE","2","f","links","22","","","self","j","150","true"
"null","<div style=""font-size:60px;"">+</div>","null","html-keyboard-response","224","500425","0.0-6.0-0.109","MIGE","2","f","links","22","","fixation","","","",""
"1688","img/30_240.png","74","image-keyboard-response","225","502125","0.0-6.0-1.109","MIGE","2","f","links","22","","","self","f","30","false"
"null","<div style=""font-size:60px;"">+</div>","null","html-keyboard-response","226","502598","0.0-6.0-0.110","MIGE","2","f","links","22","","fixation","","","",""
"2733","img/120_90.png","70","image-keyboard-response","227","505342","0.0-6.0-1.110","MIGE","2","f","links","22","","","self","f","120","true"
"null","<div style=""font-size:60px;"">+</div>","null","html-keyboard-response","228","505858","0.0-6.0-0.111","MIGE","2","f","links","22","","fixation","","","",""
"1826","img/90_30.png","74","image-keyboard-response","229","507693","0.0-6.0-1.111","MIGE","2","f","links","22","","","self","j","90","true"
"null","<div style=""font-size:60px;"">+</div>","null","html-keyboard-response","230","508098","0.0-6.0-0.112","MIGE","2","f","links","22","","fixation","","","",""
"1261","img/60_180.png","74","image-keyboard-response","231","509368","0.0-6.0-1.112","MIGE","2","f","links","22","","","self","j","60","true"
"null","<div style=""font-size:60px;"">+</div>","null","html-keyboard-response","232","509689","0.0-6.0-0.113","MIGE","2","f","links","22","","fixation","","","",""
"1317","img/L90_180.png","70","image-keyboard-response","233","511022","0.0-6.0-1.113","MIGE","2","f","links","22","","","self","f","90","true"
"null","<div style=""font-size:60px;"">+</div>","null","html-keyboard-response","234","511485","0.0-6.0-0.114","MIGE","2","f","links","22","","fixation","","","",""
"1114","img/30_180.png","74","image-keyboard-response","235","512609","0.0-6.0-1.114","MIGE","2","f","links","22","","","self","j","30","true"
"null","<div style=""font-size:60px;"">+</div>","null","html-keyboard-response","236","512925","0.0-6.0-0.115","MIGE","2","f","links","22","","fixation","","","",""
"1289","img/90_150.png","70","image-keyboard-response","237","514230","0.0-6.0-1.115","MIGE","2","f","links","22","","","self","f","90","true"
"null","<div style=""font-size:60px;"">+</div>","null","html-keyboard-response","238","514731","0.0-6.0-0.116","MIGE","2","f","links","22","","fixation","","","",""
"1705","img/150_180.png","74","image-keyboard-response","239","516446","0.0-6.0-1.116","MIGE","2","f","links","22","","","self","j","150","true"
"null","<div style=""font-size:60px;"">+</div>","null","html-keyboard-response","240","516806","0.0-6.0-0.117","MIGE","2","f","links","22","","fixation","","","",""
"1994","img/30_90.png","74","image-keyboard-response","241","518808","0.0-6.0-1.117","MIGE","2","f","links","22","","","self","j","30","true"
"null","<div style=""font-size:60px;"">+</div>","null","html-keyboard-response","242","519283","0.0-6.0-0.118","MIGE","2","f","links","22","","fixation","","","",""
"1275","img/30_60.png","74","image-keyboard-response","243","520563","0.0-6.0-1.118","MIGE","2","f","links","22","","","self","j","30","true"
"null","<div style=""font-size:60px;"">+</div>","null","html-keyboard-response","244","521069","0.0-6.0-0.119","MIGE","2","f","links","22","","fixation","","","",""
"2354","img/120_30.png","70","image-keyboard-response","245","523432","0.0-6.0-1.119","MIGE","2","f","links","22","","","self","j","120","false"
"null","<div style=""font-size:60px;"">+</div>","null","html-keyboard-response","246","523909","0.0-6.0-0.120","MIGE","2","f","links","22","","fixation","","","",""
"1493","img/120_210.png","74","image-keyboard-response","247","525411","0.0-6.0-1.120","MIGE","2","f","links","22","","","self","j","120","true"
"null","<div style=""font-size:60px;"">+</div>","null","html-keyboard-response","248","525922","0.0-6.0-0.121","MIGE","2","f","links","22","","fixation","","","",""
"1516","img/90_240.png","74","image-keyboard-response","249","527447","0.0-6.0-1.121","MIGE","2","f","links","22","","","self","j","90","true"
"null","<div style=""font-size:60px;"">+</div>","null","html-keyboard-response","250","527814","0.0-6.0-0.122","MIGE","2","f","links","22","","fixation","","","",""
"845","img/0_330.png","70","image-keyboard-response","251","528675","0.0-6.0-1.122","MIGE","2","f","links","22","","","self","f","0","true"
"null","<div style=""font-size:60px;"">+</div>","null","html-keyboard-response","252","529099","0.0-6.0-0.123","MIGE","2","f","links","22","","fixation","","","",""
"1928","img/L120_180.png","70","image-keyboard-response","253","531036","0.0-6.0-1.123","MIGE","2","f","links","22","","","self","f","120","true"
"null","<div style=""font-size:60px;"">+</div>","null","html-keyboard-response","254","531390","0.0-6.0-0.124","MIGE","2","f","links","22","","fixation","","","",""
"2056","img/120_150.png","70","image-keyboard-response","255","533456","0.0-6.0-1.124","MIGE","2","f","links","22","","","self","f","120","true"
"null","<div style=""font-size:60px;"">+</div>","null","html-keyboard-response","256","533910","0.0-6.0-0.125","MIGE","2","f","links","22","","fixation","","","",""
"2095","img/30_270.png","70","image-keyboard-response","257","536021","0.0-6.0-1.125","MIGE","2","f","links","22","","","self","f","30","true"
"null","<div style=""font-size:60px;"">+</div>","null","html-keyboard-response","258","536329","0.0-6.0-0.126","MIGE","2","f","links","22","","fixation","","","",""
"879","img/0_30.png","74","image-keyboard-response","259","537213","0.0-6.0-1.126","MIGE","2","f","links","22","","","self","j","0","true"
"null","<div style=""font-size:60px;"">+</div>","null","html-keyboard-response","260","537518","0.0-6.0-0.127","MIGE","2","f","links","22","","fixation","","","",""
"853","img/0_210.png","70","image-keyboard-response","261","538384","0.0-6.0-1.127","MIGE","2","f","links","22","","","self","f","0","true"
"null","<div style=""font-size:60px;"">+</div>","null","html-keyboard-response","262","538912","0.0-6.0-0.128","MIGE","2","f","links","22","","fixation","","","",""
"810","img/0_240.png","70","image-keyboard-response","263","539733","0.0-6.0-1.128","MIGE","2","f","links","22","","","self","f","0","true"
"null","<div style=""font-size:60px;"">+</div>","null","html-keyboard-response","264","540083","0.0-6.0-0.129","MIGE","2","f","links","22","","fixation","","","",""
"1738","img/120_270.png","74","image-keyboard-response","265","541837","0.0-6.0-1.129","MIGE","2","f","links","22","","","self","j","120","true"
"null","<div style=""font-size:60px;"">+</div>","null","html-keyboard-response","266","542347","0.0-6.0-0.130","MIGE","2","f","links","22","","fixation","","","",""
"1669","img/150_90.png","74","image-keyboard-response","267","544020","0.0-6.0-1.130","MIGE","2","f","links","22","","","self","f","150","false"
"null","<div style=""font-size:60px;"">+</div>","null","html-keyboard-response","268","544334","0.0-6.0-0.131","MIGE","2","f","links","22","","fixation","","","",""
"1370","img/L60_180.png","70","image-keyboard-response","269","545719","0.0-6.0-1.131","MIGE","2","f","links","22","","","self","f","60","true"
"null","<div style=""font-size:60px;"">+</div>","null","html-keyboard-response","270","546130","0.0-6.0-0.132","MIGE","2","f","links","22","","fixation","","","",""
"1317","img/90_210.png","74","image-keyboard-response","271","547462","0.0-6.0-1.132","MIGE","2","f","links","22","","","self","j","90","true"
"null","<div style=""font-size:60px;"">+</div>","null","html-keyboard-response","272","547912","0.0-6.0-0.133","MIGE","2","f","links","22","","fixation","","","",""
"807","img/0_270.png","70","image-keyboard-response","273","548732","0.0-6.0-1.133","MIGE","2","f","links","22","","","self","f","0","true"
"null","<div style=""font-size:60px;"">+</div>","null","html-keyboard-response","274","549161","0.0-6.0-0.134","MIGE","2","f","links","22","","fixation","","","",""
"1699","img/60_270.png","70","image-keyboard-response","275","550871","0.0-6.0-1.134","MIGE","2","f","links","22","","","self","f","60","true"
"null","<div style=""font-size:60px;"">+</div>","null","html-keyboard-response","276","551334","0.0-6.0-0.135","MIGE","2","f","links","22","","fixation","","","",""
"1626","img/150_270.png","74","image-keyboard-response","277","552964","0.0-6.0-1.135","MIGE","2","f","links","22","","","self","j","150","true"
"null","<div style=""font-size:60px;"">+</div>","null","html-keyboard-response","278","553380","0.0-6.0-0.136","MIGE","2","f","links","22","","fixation","","","",""
"1361","img/60_30.png","74","image-keyboard-response","279","554750","0.0-6.0-1.136","MIGE","2","f","links","22","","","self","j","60","true"
"null","<div style=""font-size:60px;"">+</div>","null","html-keyboard-response","280","555070","0.0-6.0-0.137","MIGE","2","f","links","22","","fixation","","","",""
"1368","img/150_240.png","74","image-keyboard-response","281","556451","0.0-6.0-1.137","MIGE","2","f","links","22","","","self","j","150","true"
"null","<div style=""font-size:60px;"">+</div>","null","html-keyboard-response","282","556930","0.0-6.0-0.138","MIGE","2","f","links","22","","fixation","","","",""
"636","img/0_120.png","74","image-keyboard-response","283","557575","0.0-6.0-1.138","MIGE","2","f","links","22","","","self","j","0","true"
"null","<div style=""font-size:60px;"">+</div>","null","html-keyboard-response","284","558087","0.0-6.0-0.139","MIGE","2","f","links","22","","fixation","","","",""
"780","img/0_300.png","70","image-keyboard-response","285","558880","0.0-6.0-1.139","MIGE","2","f","links","22","","","self","f","0","true"
"null","<div style=""font-size:60px;"">+</div>","null","html-keyboard-response","286","559195","0.0-6.0-0.140","MIGE","2","f","links","22","","fixation","","","",""
"1316","img/60_210.png","74","image-keyboard-response","287","560524","0.0-6.0-1.140","MIGE","2","f","links","22","","","self","j","60","true"
"null","<div style=""font-size:60px;"">+</div>","null","html-keyboard-response","288","561053","0.0-6.0-0.141","MIGE","2","f","links","22","","fixation","","","",""
"1953","img/90_60.png","74","image-keyboard-response","289","563022","0.0-6.0-1.141","MIGE","2","f","links","22","","","self","j","90","true"
"null","<div style=""font-size:60px;"">+</div>","null","html-keyboard-response","290","563490","0.0-6.0-0.142","MIGE","2","f","links","22","","fixation","","","",""
"673","img/0_90.png","74","image-keyboard-response","291","564179","0.0-6.0-1.142","MIGE","2","f","links","22","","","self","j","0","true"
"null","<div style=""font-size:60px;"">+</div>","null","html-keyboard-response","292","564510","0.0-6.0-0.143","MIGE","2","f","links","22","","fixation","","","",""
"1536","img/90_330.png","70","image-keyboard-response","293","566059","0.0-6.0-1.143","MIGE","2","f","links","22","","","self","f","90","true"
"null","<div style=""font-size:60px;"">+</div>","null","html-keyboard-response","294","566368","0.0-6.0-0.144","MIGE","2","f","links","22","","fixation","","","",""
"1541","img/150_120.png","74","image-keyboard-response","295","567914","0.0-6.0-1.144","MIGE","2","f","links","22","","","self","f","150","false"
"null","<div style=""font-size:60px;"">+</div>","null","html-keyboard-response","296","568231","0.0-6.0-0.145","MIGE","2","f","links","22","","fixation","","","",""
"704","img/0_150.png","74","image-keyboard-response","297","568952","0.0-6.0-1.145","MIGE","2","f","links","22","","","self","j","0","true"
"null","<div style=""font-size:60px;"">+</div>","null","html-keyboard-response","298","569420","0.0-6.0-0.146","MIGE","2","f","links","22","","fixation","","","",""
"2364","img/120_330.png","74","image-keyboard-response","299","571797","0.0-6.0-1.146","MIGE","2","f","links","22","","","self","f","120","false"
"null","<div style=""font-size:60px;"">+</div>","null","html-keyboard-response","300","572308","0.0-6.0-0.147","MIGE","2","f","links","22","","fixation","","","",""
"1754","img/90_120.png","70","image-keyboard-response","301","574079","0.0-6.0-1.147","MIGE","2","f","links","22","","","self","f","90","true"
"null","<div style=""font-size:60px;"">+</div>","null","html-keyboard-response","302","574408","0.0-6.0-0.148","MIGE","2","f","links","22","","fixation","","","",""
"1872","img/L150_180.png","74","image-keyboard-response","303","576286","0.0-6.0-1.148","MIGE","2","f","links","22","","","self","f","150","false"
"null","<div style=""font-size:60px;"">+</div>","null","html-keyboard-response","304","576645","0.0-6.0-0.149","MIGE","2","f","links","22","","fixation","","","",""
"1319","img/60_150.png","70","image-keyboard-response","305","577973","0.0-6.0-1.149","MIGE","2","f","links","22","","","self","f","60","true"
"null","<div style=""font-size:60px;"">+</div>","null","html-keyboard-response","306","578333","0.0-6.0-0.150","MIGE","2","f","links","22","","fixation","","","",""
"786","img/0_60.png","74","image-keyboard-response","307","579134","0.0-6.0-1.150","MIGE","2","f","links","22","","","self","j","0","true"
"null","<div style=""font-size:60px;"">+</div>","null","html-keyboard-response","308","579599","0.0-6.0-0.151","MIGE","2","f","links","22","","fixation","","","",""
"1532","img/120_180.png","74","image-keyboard-response","309","581146","0.0-6.0-1.151","MIGE","2","f","links","22","","","self","j","120","true"
"null","<div style=""font-size:60px;"">+</div>","null","html-keyboard-response","310","581567","0.0-6.0-0.152","MIGE","2","f","links","22","","fixation","","","",""
"1399","img/30_300.png","70","image-keyboard-response","311","582979","0.0-6.0-1.152","MIGE","2","f","links","22","","","self","f","30","true"
"null","<div style=""font-size:60px;"">+</div>","null","html-keyboard-response","312","583286","0.0-6.0-0.153","MIGE","2","f","links","22","","fixation","","","",""
"1917","img/90_180.png","74","image-keyboard-response","313","585217","0.0-6.0-1.153","MIGE","2","f","links","22","","","self","j","90","true"
"null","<div style=""font-size:60px;"">+</div>","null","html-keyboard-response","314","585740","0.0-6.0-0.154","MIGE","2","f","links","22","","fixation","","","",""
"1545","img/60_90.png","74","image-keyboard-response","315","587299","0.0-6.0-1.154","MIGE","2","f","links","22","","","self","j","60","true"
"null","<div style=""font-size:60px;"">+</div>","null","html-keyboard-response","316","587818","0.0-6.0-0.155","MIGE","2","f","links","22","","fixation","","","",""
"1143","img/60_330.png","70","image-keyboard-response","317","588975","0.0-6.0-1.155","MIGE","2","f","links","22","","","self","f","60","true"
"null","<div style=""font-size:60px;"">+</div>","null","html-keyboard-response","318","589429","0.0-6.0-0.156","MIGE","2","f","links","22","","fixation","","","",""
"987","img/60_30.png","74","image-keyboard-response","319","590429","0.0-6.0-1.156","MIGE","2","f","links","22","","","self","j","60","true"
"null","<div style=""font-size:60px;"">+</div>","null","html-keyboard-response","320","590880","0.0-6.0-0.157","MIGE","2","f","links","22","","fixation","","","",""
"1707","img/150_270.png","74","image-keyboard-response","321","592598","0.0-6.0-1.157","MIGE","2","f","links","22","","","self","j","150","true"
"null","<div style=""font-size:60px;"">+</div>","null","html-keyboard-response","322","593100","0.0-6.0-0.158","MIGE","2","f","links","22","","fixation","","","",""
"1308","img/60_330.png","70","image-keyboard-response","323","594417","0.0-6.0-1.158","MIGE","2","f","links","22","","","self","f","60","true"
"null","<div style=""font-size:60px;"">+</div>","null","html-keyboard-response","324","594944","0.0-6.0-0.159","MIGE","2","f","links","22","","fixation","","","",""
"1290","img/30_300.png","70","image-keyboard-response","325","596243","0.0-6.0-1.159","MIGE","2","f","links","22","","","self","f","30","true"
"null","<div style=""font-size:60px;"">+</div>","null","html-keyboard-response","326","596557","0.0-6.0-0.160","MIGE","2","f","links","22","","fixation","","","",""
"2139","img/120_180.png","74","image-keyboard-response","327","598706","0.0-6.0-1.160","MIGE","2","f","links","22","","","self","j","120","true"
"null","<div style=""font-size:60px;"">+</div>","null","html-keyboard-response","328","599178","0.0-6.0-0.161","MIGE","2","f","links","22","","fixation","","","",""
"1419","img/90_300.png","70","image-keyboard-response","329","600606","0.0-6.0-1.161","MIGE","2","f","links","22","","","self","f","90","true"
"null","<div style=""font-size:60px;"">+</div>","null","html-keyboard-response","330","600974","0.0-6.0-0.162","MIGE","2","f","links","22","","fixation","","","",""
"1311","img/150_240.png","74","image-keyboard-response","331","602295","0.0-6.0-1.162","MIGE","2","f","links","22","","","self","j","150","true"
"null","<div style=""font-size:60px;"">+</div>","null","html-keyboard-response","332","602662","0.0-6.0-0.163","MIGE","2","f","links","22","","fixation","","","",""
"862","img/0_300.png","70","image-keyboard-response","333","603534","0.0-6.0-1.163","MIGE","2","f","links","22","","","self","f","0","true"
"null","<div style=""font-size:60px;"">+</div>","null","html-keyboard-response","334","604048","0.0-6.0-0.164","MIGE","2","f","links","22","","fixation","","","",""
"2273","img/150_60.png","70","image-keyboard-response","335","606334","0.0-6.0-1.164","MIGE","2","f","links","22","","","self","f","150","true"
"null","<div style=""font-size:60px;"">+</div>","null","html-keyboard-response","336","606688","0.0-6.0-0.165","MIGE","2","f","links","22","","fixation","","","",""
"1797","img/90_210.png","74","image-keyboard-response","337","608494","0.0-6.0-1.165","MIGE","2","f","links","22","","","self","j","90","true"
"null","<div style=""font-size:60px;"">+</div>","null","html-keyboard-response","338","608961","0.0-6.0-0.166","MIGE","2","f","links","22","","fixation","","","",""
"2719","img/120_270.png","74","image-keyboard-response","339","611689","0.0-6.0-1.166","MIGE","2","f","links","22","","","self","j","120","true"
"null","<div style=""font-size:60px;"">+</div>","null","html-keyboard-response","340","612006","0.0-6.0-0.167","MIGE","2","f","links","22","","fixation","","","",""
"728","img/0_150.png","74","image-keyboard-response","341","612746","0.0-6.0-1.167","MIGE","2","f","links","22","","","self","j","0","true"
"null","<div style=""font-size:60px;"">+</div>","null","html-keyboard-response","342","613053","0.0-6.0-0.168","MIGE","2","f","links","22","","fixation","","","",""
"1335","img/60_210.png","74","image-keyboard-response","343","614401","0.0-6.0-1.168","MIGE","2","f","links","22","","","self","j","60","true"
"null","<div style=""font-size:60px;"">+</div>","null","html-keyboard-response","344","614914","0.0-6.0-0.169","MIGE","2","f","links","22","","fixation","","","",""
"1037","img/30_180.png","74","image-keyboard-response","345","615965","0.0-6.0-1.169","MIGE","2","f","links","22","","","self","j","30","true"
"null","<div style=""font-size:60px;"">+</div>","null","html-keyboard-response","346","616381","0.0-6.0-0.170","MIGE","2","f","links","22","","fixation","","","",""
"1459","img/30_120.png","70","image-keyboard-response","347","617854","0.0-6.0-1.170","MIGE","2","f","links","22","","","self","j","30","false"
"null","<div style=""font-size:60px;"">+</div>","null","html-keyboard-response","348","618163","0.0-6.0-0.171","MIGE","2","f","links","22","","fixation","","","",""
"1510","img/60_270.png","74","image-keyboard-response","349","619689","0.0-6.0-1.171","MIGE","2","f","links","22","","","self","f","60","false"
"null","<div style=""font-size:60px;"">+</div>","null","html-keyboard-response","350","620195","0.0-6.0-0.172","MIGE","2","f","links","22","","fixation","","","",""
"1482","img/60_180.png","74","image-keyboard-response","351","621691","0.0-6.0-1.172","MIGE","2","f","links","22","","","self","j","60","true"
"null","<div style=""font-size:60px;"">+</div>","null","html-keyboard-response","352","622023","0.0-6.0-0.173","MIGE","2","f","links","22","","fixation","","","",""
"1486","img/L60_180.png","70","image-keyboard-response","353","623525","0.0-6.0-1.173","MIGE","2","f","links","22","","","self","f","60","true"
"null","<div style=""font-size:60px;"">+</div>","null","html-keyboard-response","354","623883","0.0-6.0-0.174","MIGE","2","f","links","22","","fixation","","","",""
"1541","img/L30_180.png","70","image-keyboard-response","355","625437","0.0-6.0-1.174","MIGE","2","f","links","22","","","self","f","30","true"
"null","<div style=""font-size:60px;"">+</div>","null","html-keyboard-response","356","625741","0.0-6.0-0.175","MIGE","2","f","links","22","","fixation","","","",""
"1940","img/L90_180.png","70","image-keyboard-response","357","627698","0.0-6.0-1.175","MIGE","2","f","links","22","","","self","f","90","true"
"null","<div style=""font-size:60px;"">+</div>","null","html-keyboard-response","358","627999","0.0-6.0-0.176","MIGE","2","f","links","22","","fixation","","","",""
"2465","img/120_90.png","74","image-keyboard-response","359","630477","0.0-6.0-1.176","MIGE","2","f","links","22","","","self","f","120","false"
"null","<div style=""font-size:60px;"">+</div>","null","html-keyboard-response","360","630793","0.0-6.0-0.177","MIGE","2","f","links","22","","fixation","","","",""
"964","img/0_330.png","70","image-keyboard-response","361","631771","0.0-6.0-1.177","MIGE","2","f","links","22","","","self","f","0","true"
"null","<div style=""font-size:60px;"">+</div>","null","html-keyboard-response","362","632263","0.0-6.0-0.178","MIGE","2","f","links","22","","fixation","","","",""
"1347","img/60_150.png","70","image-keyboard-response","363","633624","0.0-6.0-1.178","MIGE","2","f","links","22","","","self","f","60","true"
"null","<div style=""font-size:60px;"">+</div>","null","html-keyboard-response","364","634153","0.0-6.0-0.179","MIGE","2","f","links","22","","fixation","","","",""
"2340","img/150_90.png","70","image-keyboard-response","365","636508","0.0-6.0-1.179","MIGE","2","f","links","22","","","self","f","150","true"
"null","<div style=""font-size:60px;"">+</div>","null","html-keyboard-response","366","637025","0.0-6.0-0.180","MIGE","2","f","links","22","","fixation","","","",""
"742","img/0_240.png","70","image-keyboard-response","367","637778","0.0-6.0-1.180","MIGE","2","f","links","22","","","self","f","0","true"
"null","<div style=""font-size:60px;"">+</div>","null","html-keyboard-response","368","638134","0.0-6.0-0.181","MIGE","2","f","links","22","","fixation","","","",""
"918","img/0_90.png","74","image-keyboard-response","369","639061","0.0-6.0-1.181","MIGE","2","f","links","22","","","self","j","0","true"
"null","<div style=""font-size:60px;"">+</div>","null","html-keyboard-response","370","639512","0.0-6.0-0.182","MIGE","2","f","links","22","","fixation","","","",""
"1231","img/90_240.png","74","image-keyboard-response","371","640759","0.0-6.0-1.182","MIGE","2","f","links","22","","","self","j","90","true"
"null","<div style=""font-size:60px;"">+</div>","null","html-keyboard-response","372","641138","0.0-6.0-0.183","MIGE","2","f","links","22","","fixation","","","",""
"1802","img/150_300.png","74","image-keyboard-response","373","642953","0.0-6.0-1.183","MIGE","2","f","links","22","","","self","j","150","true"
"null","<div style=""font-size:60px;"">+</div>","null","html-keyboard-response","374","643403","0.0-6.0-0.184","MIGE","2","f","links","22","","fixation","","","",""
"1688","img/60_90.png","74","image-keyboard-response","375","645100","0.0-6.0-1.184","MIGE","2","f","links","22","","","self","j","60","true"
"null","<div style=""font-size:60px;"">+</div>","null","html-keyboard-response","376","645575","0.0-6.0-0.185","MIGE","2","f","links","22","","fixation","","","",""
"1807","img/L120_180.png","74","image-keyboard-response","377","647398","0.0-6.0-1.185","MIGE","2","f","links","22","","","self","f","120","false"
"null","<div style=""font-size:60px;"">+</div>","null","html-keyboard-response","378","647700","0.0-6.0-0.186","MIGE","2","f","links","22","","fixation","","","",""
"719","img/0_270.png","70","image-keyboard-response","379","648432","0.0-6.0-1.186","MIGE","2","f","links","22","","","self","f","0","true"
"null","<div style=""font-size:60px;"">+</div>","null","html-keyboard-response","380","648749","0.0-6.0-0.187","MIGE","2","f","links","22","","fixation","","","",""
"1654","img/90_120.png","70","image-keyboard-response","381","650412","0.0-6.0-1.187","MIGE","2","f","links","22","","","self","f","90","true"
"null","<div style=""font-size:60px;"">+</div>","null","html-keyboard-response","382","650780","0.0-6.0-0.188","MIGE","2","f","links","22","","fixation","","","",""
"null","img/90_30.png","null","image-keyboard-response","383","653796","0.0-6.0-1.188","MIGE","2","f","links","22","","","self","j","90","false"
"null","<div style=""font-size:60px;"">+</div>","null","html-keyboard-response","384","654155","0.0-6.0-0.189","MIGE","2","f","links","22","","fixation","","","",""
"632","img/0_120.png","74","image-keyboard-response","385","654800","0.0-6.0-1.189","MIGE","2","f","links","22","","","self","j","0","true"
"null","<div style=""font-size:60px;"">+</div>","null","html-keyboard-response","386","655264","0.0-6.0-0.190","MIGE","2","f","links","22","","fixation","","","",""
"706","img/0_60.png","74","image-keyboard-response","387","655982","0.0-6.0-1.190","MIGE","2","f","links","22","","","self","j","0","true"
"null","<div style=""font-size:60px;"">+</div>","null","html-keyboard-response","388","656404","0.0-6.0-0.191","MIGE","2","f","links","22","","fixation","","","",""
"null","img/150_180.png","null","image-keyboard-response","389","659438","0.0-6.0-1.191","MIGE","2","f","links","22","","","self","j","150","false"
"null","<div style=""font-size:60px;"">+</div>","null","html-keyboard-response","390","659814","0.0-6.0-0.192","MIGE","2","f","links","22","","fixation","","","",""
"1453","img/30_240.png","74","image-keyboard-response","391","661280","0.0-6.0-1.192","MIGE","2","f","links","22","","","self","f","30","false"
"null","<div style=""font-size:60px;"">+</div>","null","html-keyboard-response","392","661588","0.0-6.0-0.193","MIGE","2","f","links","22","","fixation","","","",""
"1492","img/0_210.png","70","image-keyboard-response","393","663091","0.0-6.0-1.193","MIGE","2","f","links","22","","","self","f","0","true"
"null","<div style=""font-size:60px;"">+</div>","null","html-keyboard-response","394","663518","0.0-6.0-0.194","MIGE","2","f","links","22","","fixation","","","",""
"1979","img/150_120.png","70","image-keyboard-response","395","665511","0.0-6.0-1.194","MIGE","2","f","links","22","","","self","f","150","true"
"null","<div style=""font-size:60px;"">+</div>","null","html-keyboard-response","396","665876","0.0-6.0-0.195","MIGE","2","f","links","22","","fixation","","","",""
"1576","img/120_210.png","74","image-keyboard-response","397","667468","0.0-6.0-1.195","MIGE","2","f","links","22","","","self","j","120","true"
"null","<div style=""font-size:60px;"">+</div>","null","html-keyboard-response","398","667831","0.0-6.0-0.196","MIGE","2","f","links","22","","fixation","","","",""
"1820","img/90_180.png","74","image-keyboard-response","399","669662","0.0-6.0-1.196","MIGE","2","f","links","22","","","self","j","90","true"
"null","<div style=""font-size:60px;"">+</div>","null","html-keyboard-response","400","670174","0.0-6.0-0.197","MIGE","2","f","links","22","","fixation","","","",""
"1339","img/90_150.png","70","image-keyboard-response","401","671529","0.0-6.0-1.197","MIGE","2","f","links","22","","","self","f","90","true"
"null","<div style=""font-size:60px;"">+</div>","null","html-keyboard-response","402","671987","0.0-6.0-0.198","MIGE","2","f","links","22","","fixation","","","",""
"2448","img/120_150.png","70","image-keyboard-response","403","674443","0.0-6.0-1.198","MIGE","2","f","links","22","","","self","f","120","true"
"null","<div style=""font-size:60px;"">+</div>","null","html-keyboard-response","404","674910","0.0-6.0-0.199","MIGE","2","f","links","22","","fixation","","","",""
"2939","img/90_60.png","74","image-keyboard-response","405","677862","0.0-6.0-1.199","MIGE","2","f","links","22","","","self","j","90","true"
"null","<div style=""font-size:60px;"">+</div>","null","html-keyboard-response","406","678380","0.0-6.0-0.200","MIGE","2","f","links","22","","fixation","","","",""
"1347","img/30_60.png","74","image-keyboard-response","407","679741","0.0-6.0-1.200","MIGE","2","f","links","22","","","self","j","30","true"
"null","<div style=""font-size:60px;"">+</div>","null","html-keyboard-response","408","680051","0.0-6.0-0.201","MIGE","2","f","links","22","","fixation","","","",""
"1770","img/90_330.png","70","image-keyboard-response","409","681835","0.0-6.0-1.201","MIGE","2","f","links","22","","","self","f","90","true"
"null","<div style=""font-size:60px;"">+</div>","null","html-keyboard-response","410","682300","0.0-6.0-0.202","MIGE","2","f","links","22","","fixation","","","",""
"699","img/0_30.png","74","image-keyboard-response","411","683016","0.0-6.0-1.202","MIGE","2","f","links","22","","","self","j","0","true"
"null","<div style=""font-size:60px;"">+</div>","null","html-keyboard-response","412","683333","0.0-6.0-0.203","MIGE","2","f","links","22","","fixation","","","",""
"1290","img/30_90.png","74","image-keyboard-response","413","684636","0.0-6.0-1.203","MIGE","2","f","links","22","","","self","j","30","true"
"null","<div style=""font-size:60px;"">+</div>","null","html-keyboard-response","414","684944","0.0-6.0-0.204","MIGE","2","f","links","22","","fixation","","","",""
"2580","img/120_330.png","74","image-keyboard-response","415","687538","0.0-6.0-1.204","MIGE","2","f","links","22","","","self","f","120","false"
"null","<div style=""font-size:60px;"">+</div>","null","html-keyboard-response","416","688022","0.0-6.0-0.205","MIGE","2","f","links","22","","fixation","","","",""
"null","img/L150_180.png","null","image-keyboard-response","417","691052","0.0-6.0-1.205","MIGE","2","f","links","22","","","self","f","150","false"
"null","<div style=""font-size:60px;"">+</div>","null","html-keyboard-response","418","691473","0.0-6.0-0.206","MIGE","2","f","links","22","","fixation","","","",""
"1283","img/30_270.png","70","image-keyboard-response","419","692769","0.0-6.0-1.206","MIGE","2","f","links","22","","","self","f","30","true"
"null","<div style=""font-size:60px;"">+</div>","null","html-keyboard-response","420","693270","0.0-6.0-0.207","MIGE","2","f","links","22","","fixation","","","",""
"null","img/120_30.png","null","image-keyboard-response","421","696300","0.0-6.0-1.207","MIGE","2","f","links","22","","","self","j","120","false"
"234","<p>Du hast in 87% der Versuche korrekt entschieden.</p><p>Deine durchschnittliche Reaktionszeit war  1462ms.</p><p>Dr&uuml;cke eine beliebige Taste, um die Session zu beenden. Vielen Dank!</p>","70","html-keyboard-response","422","696537","0.0-7.0","MIGE","2","f","links","22","","","","","",""
