"rt","stimulus","key_press","trial_type","trial_index","time_elapsed","internal_node_id","subject","session","sex","handedness","age","responses","test_part","condition","correct_response","angle","correct"
"1801","<p>Mental Rotation Experiment.</p> <p>Dr&uuml;cke eine beliebige Taste, um anzufangen.</p>","13","html-keyboard-response","0","1834","0.0-0.0","MIGE","4","f","links","22","","","","","",""
"14190","","","survey-text","1","16027","0.0-1.0","MIGE","4","f","links","22","{""Q0"":""MIGE""}","","","","",""
"52362","","","survey-text","2","68390","0.0-2.0","MIGE","4","f","links","22","{""Q0"":""4""}","","","","",""
"31412","","","survey-multi-choice","3","99813","0.0-3.0","MIGE","4","f","links","22","{""Q0"":""f"",""Q1"":""links""}","","","","",""
"2387","","","survey-text","4","102202","0.0-4.0","MIGE","4","f","links","22","{""Q0"":""22""}","","","","",""
"29130","<p> Stell dir vor, dass du vor einem runden Tisch stehst, auf dem sich ein blauer Ball am Tischrand befindet. Entlang des Tischrands ist jeweils ein verschieden langer Pfeil. Nun bewegst du dich entlang dieses Pfeils bis an seine Spitze. Wenn du am Ende des Pfeils angekommen bist, schau zur Tischmitte. </p> <img src='img/90_180.png'></img> <br> <p>Entscheide dann, ob der Ball von deiner neuen (vorgestellten) Position links oder rechts von dir liegt.</p> <p>Dr&uuml;cke die <strong>'f'</strong>-Taste f&uuml;r links, die <strong>'j'</strong>-Taste f&uuml;r rechts.</p> <br><p> Das Bild wird jeweils 1 Sekunde lang pr&auml;sentiert. Du hast 3 Sekunden Zeit eine Entscheidung zu treffen.</p>","32","html-keyboard-response","5","131341","0.0-5.0","MIGE","4","f","links","22","","","","","",""
"null","<div style=""font-size:60px;"">+</div>","null","html-keyboard-response","6","132680","0.0-6.0-0.0","MIGE","4","f","links","22","","fixation","","","",""
"1720","img/120_30.png","74","image-keyboard-response","7","134422","0.0-6.0-1.0","MIGE","4","f","links","22","","","self","j","120","true"
"null","<div style=""font-size:60px;"">+</div>","null","html-keyboard-response","8","134946","0.0-6.0-0.1","MIGE","4","f","links","22","","fixation","","","",""
"1186","img/90_240.png","74","image-keyboard-response","9","136152","0.0-6.0-1.1","MIGE","4","f","links","22","","","self","j","90","true"
"null","<div style=""font-size:60px;"">+</div>","null","html-keyboard-response","10","136478","0.0-6.0-0.2","MIGE","4","f","links","22","","fixation","","","",""
"684","img/0_60.png","74","image-keyboard-response","11","137188","0.0-6.0-1.2","MIGE","4","f","links","22","","","self","j","0","true"
"null","<div style=""font-size:60px;"">+</div>","null","html-keyboard-response","12","137492","0.0-6.0-0.3","MIGE","4","f","links","22","","fixation","","","",""
"1053","img/30_60.png","74","image-keyboard-response","13","138563","0.0-6.0-1.3","MIGE","4","f","links","22","","","self","j","30","true"
"null","<div style=""font-size:60px;"">+</div>","null","html-keyboard-response","14","138992","0.0-6.0-0.4","MIGE","4","f","links","22","","fixation","","","",""
"1016","img/30_90.png","74","image-keyboard-response","15","140025","0.0-6.0-1.4","MIGE","4","f","links","22","","","self","j","30","true"
"null","<div style=""font-size:60px;"">+</div>","null","html-keyboard-response","16","140476","0.0-6.0-0.5","MIGE","4","f","links","22","","fixation","","","",""
"688","img/0_210.png","70","image-keyboard-response","17","141171","0.0-6.0-1.5","MIGE","4","f","links","22","","","self","f","0","true"
"null","<div style=""font-size:60px;"">+</div>","null","html-keyboard-response","18","141587","0.0-6.0-0.6","MIGE","4","f","links","22","","fixation","","","",""
"692","img/0_120.png","74","image-keyboard-response","19","142297","0.0-6.0-1.6","MIGE","4","f","links","22","","","self","j","0","true"
"null","<div style=""font-size:60px;"">+</div>","null","html-keyboard-response","20","142604","0.0-6.0-0.7","MIGE","4","f","links","22","","fixation","","","",""
"1354","img/30_240.png","74","image-keyboard-response","21","143974","0.0-6.0-1.7","MIGE","4","f","links","22","","","self","f","30","false"
"null","<div style=""font-size:60px;"">+</div>","null","html-keyboard-response","22","144398","0.0-6.0-0.8","MIGE","4","f","links","22","","fixation","","","",""
"929","img/L90_180.png","70","image-keyboard-response","23","145346","0.0-6.0-1.8","MIGE","4","f","links","22","","","self","f","90","true"
"null","<div style=""font-size:60px;"">+</div>","null","html-keyboard-response","24","145726","0.0-6.0-0.9","MIGE","4","f","links","22","","fixation","","","",""
"1763","img/120_330.png","70","image-keyboard-response","25","147507","0.0-6.0-1.9","MIGE","4","f","links","22","","","self","f","120","true"
"null","<div style=""font-size:60px;"">+</div>","null","html-keyboard-response","26","148039","0.0-6.0-0.10","MIGE","4","f","links","22","","fixation","","","",""
"1047","img/30_120.png","74","image-keyboard-response","27","149104","0.0-6.0-1.10","MIGE","4","f","links","22","","","self","j","30","true"
"null","<div style=""font-size:60px;"">+</div>","null","html-keyboard-response","28","149414","0.0-6.0-0.11","MIGE","4","f","links","22","","fixation","","","",""
"751","img/0_330.png","70","image-keyboard-response","29","150184","0.0-6.0-1.11","MIGE","4","f","links","22","","","self","f","0","true"
"null","<div style=""font-size:60px;"">+</div>","null","html-keyboard-response","30","150507","0.0-6.0-0.12","MIGE","4","f","links","22","","fixation","","","",""
"761","img/L30_180.png","70","image-keyboard-response","31","151286","0.0-6.0-1.12","MIGE","4","f","links","22","","","self","f","30","true"
"null","<div style=""font-size:60px;"">+</div>","null","html-keyboard-response","32","151696","0.0-6.0-0.13","MIGE","4","f","links","22","","fixation","","","",""
"1126","img/120_150.png","70","image-keyboard-response","33","152839","0.0-6.0-1.13","MIGE","4","f","links","22","","","self","f","120","true"
"null","<div style=""font-size:60px;"">+</div>","null","html-keyboard-response","34","153353","0.0-6.0-0.14","MIGE","4","f","links","22","","fixation","","","",""
"1240","img/90_60.png","74","image-keyboard-response","35","154615","0.0-6.0-1.14","MIGE","4","f","links","22","","","self","j","90","true"
"null","<div style=""font-size:60px;"">+</div>","null","html-keyboard-response","36","155133","0.0-6.0-0.15","MIGE","4","f","links","22","","fixation","","","",""
"1017","img/60_90.png","74","image-keyboard-response","37","156168","0.0-6.0-1.15","MIGE","4","f","links","22","","","self","j","60","true"
"null","<div style=""font-size:60px;"">+</div>","null","html-keyboard-response","38","156683","0.0-6.0-0.16","MIGE","4","f","links","22","","fixation","","","",""
"953","img/30_180.png","74","image-keyboard-response","39","157654","0.0-6.0-1.16","MIGE","4","f","links","22","","","self","j","30","true"
"null","<div style=""font-size:60px;"">+</div>","null","html-keyboard-response","40","158072","0.0-6.0-0.17","MIGE","4","f","links","22","","fixation","","","",""
"733","img/0_300.png","70","image-keyboard-response","41","158823","0.0-6.0-1.17","MIGE","4","f","links","22","","","self","f","0","true"
"null","<div style=""font-size:60px;"">+</div>","null","html-keyboard-response","42","159290","0.0-6.0-0.18","MIGE","4","f","links","22","","fixation","","","",""
"1181","img/120_270.png","74","image-keyboard-response","43","160489","0.0-6.0-1.18","MIGE","4","f","links","22","","","self","j","120","true"
"null","<div style=""font-size:60px;"">+</div>","null","html-keyboard-response","44","160791","0.0-6.0-0.19","MIGE","4","f","links","22","","fixation","","","",""
"2133","img/90_300.png","70","image-keyboard-response","45","162942","0.0-6.0-1.19","MIGE","4","f","links","22","","","self","f","90","true"
"null","<div style=""font-size:60px;"">+</div>","null","html-keyboard-response","46","163353","0.0-6.0-0.20","MIGE","4","f","links","22","","fixation","","","",""
"1213","img/150_120.png","70","image-keyboard-response","47","164584","0.0-6.0-1.20","MIGE","4","f","links","22","","","self","f","150","true"
"null","<div style=""font-size:60px;"">+</div>","null","html-keyboard-response","48","165057","0.0-6.0-0.21","MIGE","4","f","links","22","","fixation","","","",""
"1288","img/150_270.png","74","image-keyboard-response","49","166362","0.0-6.0-1.21","MIGE","4","f","links","22","","","self","j","150","true"
"null","<div style=""font-size:60px;"">+</div>","null","html-keyboard-response","50","166792","0.0-6.0-0.22","MIGE","4","f","links","22","","fixation","","","",""
"1025","img/30_270.png","70","image-keyboard-response","51","167836","0.0-6.0-1.22","MIGE","4","f","links","22","","","self","f","30","true"
"null","<div style=""font-size:60px;"">+</div>","null","html-keyboard-response","52","168355","0.0-6.0-0.23","MIGE","4","f","links","22","","fixation","","","",""
"992","img/30_300.png","70","image-keyboard-response","53","169366","0.0-6.0-1.23","MIGE","4","f","links","22","","","self","f","30","true"
"null","<div style=""font-size:60px;"">+</div>","null","html-keyboard-response","54","169792","0.0-6.0-0.24","MIGE","4","f","links","22","","fixation","","","",""
"1320","img/L150_180.png","74","image-keyboard-response","55","171130","0.0-6.0-1.24","MIGE","4","f","links","22","","","self","f","150","false"
"null","<div style=""font-size:60px;"">+</div>","null","html-keyboard-response","56","171559","0.0-6.0-0.25","MIGE","4","f","links","22","","fixation","","","",""
"706","img/0_30.png","74","image-keyboard-response","57","172280","0.0-6.0-1.25","MIGE","4","f","links","22","","","self","j","0","true"
"null","<div style=""font-size:60px;"">+</div>","null","html-keyboard-response","58","172697","0.0-6.0-0.26","MIGE","4","f","links","22","","fixation","","","",""
"1261","img/90_210.png","74","image-keyboard-response","59","173976","0.0-6.0-1.26","MIGE","4","f","links","22","","","self","j","90","true"
"null","<div style=""font-size:60px;"">+</div>","null","html-keyboard-response","60","174398","0.0-6.0-0.27","MIGE","4","f","links","22","","fixation","","","",""
"913","img/150_240.png","74","image-keyboard-response","61","175316","0.0-6.0-1.27","MIGE","4","f","links","22","","","self","j","150","true"
"null","<div style=""font-size:60px;"">+</div>","null","html-keyboard-response","62","175775","0.0-6.0-0.28","MIGE","4","f","links","22","","fixation","","","",""
"1266","img/120_90.png","70","image-keyboard-response","63","177060","0.0-6.0-1.28","MIGE","4","f","links","22","","","self","f","120","true"
"null","<div style=""font-size:60px;"">+</div>","null","html-keyboard-response","64","177489","0.0-6.0-0.29","MIGE","4","f","links","22","","fixation","","","",""
"788","img/60_180.png","74","image-keyboard-response","65","178297","0.0-6.0-1.29","MIGE","4","f","links","22","","","self","j","60","true"
"null","<div style=""font-size:60px;"">+</div>","null","html-keyboard-response","66","178615","0.0-6.0-0.30","MIGE","4","f","links","22","","fixation","","","",""
"954","img/90_180.png","74","image-keyboard-response","67","179578","0.0-6.0-1.30","MIGE","4","f","links","22","","","self","j","90","true"
"null","<div style=""font-size:60px;"">+</div>","null","html-keyboard-response","68","179943","0.0-6.0-0.31","MIGE","4","f","links","22","","fixation","","","",""
"2005","img/90_30.png","74","image-keyboard-response","69","181966","0.0-6.0-1.31","MIGE","4","f","links","22","","","self","j","90","true"
"null","<div style=""font-size:60px;"">+</div>","null","html-keyboard-response","70","182388","0.0-6.0-0.32","MIGE","4","f","links","22","","fixation","","","",""
"1989","img/150_180.png","74","image-keyboard-response","71","184396","0.0-6.0-1.32","MIGE","4","f","links","22","","","self","j","150","true"
"null","<div style=""font-size:60px;"">+</div>","null","html-keyboard-response","72","184914","0.0-6.0-0.33","MIGE","4","f","links","22","","fixation","","","",""
"836","img/90_120.png","70","image-keyboard-response","73","185767","0.0-6.0-1.33","MIGE","4","f","links","22","","","self","f","90","true"
"null","<div style=""font-size:60px;"">+</div>","null","html-keyboard-response","74","186085","0.0-6.0-0.34","MIGE","4","f","links","22","","fixation","","","",""
"1106","img/60_270.png","70","image-keyboard-response","75","187210","0.0-6.0-1.34","MIGE","4","f","links","22","","","self","f","60","true"
"null","<div style=""font-size:60px;"">+</div>","null","html-keyboard-response","76","187539","0.0-6.0-0.35","MIGE","4","f","links","22","","fixation","","","",""
"955","img/L60_180.png","70","image-keyboard-response","77","188511","0.0-6.0-1.35","MIGE","4","f","links","22","","","self","f","60","true"
"null","<div style=""font-size:60px;"">+</div>","null","html-keyboard-response","78","188820","0.0-6.0-0.36","MIGE","4","f","links","22","","fixation","","","",""
"1049","img/60_30.png","74","image-keyboard-response","79","189886","0.0-6.0-1.36","MIGE","4","f","links","22","","","self","j","60","true"
"null","<div style=""font-size:60px;"">+</div>","null","html-keyboard-response","80","190256","0.0-6.0-0.37","MIGE","4","f","links","22","","fixation","","","",""
"903","img/0_90.png","74","image-keyboard-response","81","191178","0.0-6.0-1.37","MIGE","4","f","links","22","","","self","j","0","true"
"null","<div style=""font-size:60px;"">+</div>","null","html-keyboard-response","82","191600","0.0-6.0-0.38","MIGE","4","f","links","22","","fixation","","","",""
"866","img/60_330.png","70","image-keyboard-response","83","192484","0.0-6.0-1.38","MIGE","4","f","links","22","","","self","f","60","true"
"null","<div style=""font-size:60px;"">+</div>","null","html-keyboard-response","84","192898","0.0-6.0-0.39","MIGE","4","f","links","22","","fixation","","","",""
"1133","img/60_210.png","74","image-keyboard-response","85","194048","0.0-6.0-1.39","MIGE","4","f","links","22","","","self","j","60","true"
"null","<div style=""font-size:60px;"">+</div>","null","html-keyboard-response","86","194553","0.0-6.0-0.40","MIGE","4","f","links","22","","fixation","","","",""
"792","img/90_150.png","70","image-keyboard-response","87","195364","0.0-6.0-1.40","MIGE","4","f","links","22","","","self","f","90","true"
"null","<div style=""font-size:60px;"">+</div>","null","html-keyboard-response","88","195820","0.0-6.0-0.41","MIGE","4","f","links","22","","fixation","","","",""
"1361","img/120_180.png","74","image-keyboard-response","89","197198","0.0-6.0-1.41","MIGE","4","f","links","22","","","self","j","120","true"
"null","<div style=""font-size:60px;"">+</div>","null","html-keyboard-response","90","197509","0.0-6.0-0.42","MIGE","4","f","links","22","","fixation","","","",""
"1541","img/150_60.png","70","image-keyboard-response","91","199067","0.0-6.0-1.42","MIGE","4","f","links","22","","","self","f","150","true"
"null","<div style=""font-size:60px;"">+</div>","null","html-keyboard-response","92","199431","0.0-6.0-0.43","MIGE","4","f","links","22","","fixation","","","",""
"945","img/150_90.png","70","image-keyboard-response","93","200393","0.0-6.0-1.43","MIGE","4","f","links","22","","","self","f","150","true"
"null","<div style=""font-size:60px;"">+</div>","null","html-keyboard-response","94","200805","0.0-6.0-0.44","MIGE","4","f","links","22","","fixation","","","",""
"798","img/0_240.png","70","image-keyboard-response","95","201621","0.0-6.0-1.44","MIGE","4","f","links","22","","","self","f","0","true"
"null","<div style=""font-size:60px;"">+</div>","null","html-keyboard-response","96","201992","0.0-6.0-0.45","MIGE","4","f","links","22","","fixation","","","",""
"1041","img/L120_180.png","70","image-keyboard-response","97","203059","0.0-6.0-1.45","MIGE","4","f","links","22","","","self","f","120","true"
"null","<div style=""font-size:60px;"">+</div>","null","html-keyboard-response","98","203493","0.0-6.0-0.46","MIGE","4","f","links","22","","fixation","","","",""
"796","img/120_210.png","74","image-keyboard-response","99","204307","0.0-6.0-1.46","MIGE","4","f","links","22","","","self","j","120","true"
"null","<div style=""font-size:60px;"">+</div>","null","html-keyboard-response","100","204727","0.0-6.0-0.47","MIGE","4","f","links","22","","fixation","","","",""
"2048","img/90_330.png","70","image-keyboard-response","101","206793","0.0-6.0-1.47","MIGE","4","f","links","22","","","self","f","90","true"
"null","<div style=""font-size:60px;"">+</div>","null","html-keyboard-response","102","207305","0.0-6.0-0.48","MIGE","4","f","links","22","","fixation","","","",""
"2051","img/150_300.png","74","image-keyboard-response","103","209371","0.0-6.0-1.48","MIGE","4","f","links","22","","","self","j","150","true"
"null","<div style=""font-size:60px;"">+</div>","null","html-keyboard-response","104","209780","0.0-6.0-0.49","MIGE","4","f","links","22","","fixation","","","",""
"743","img/0_150.png","74","image-keyboard-response","105","210541","0.0-6.0-1.49","MIGE","4","f","links","22","","","self","j","0","true"
"null","<div style=""font-size:60px;"">+</div>","null","html-keyboard-response","106","211003","0.0-6.0-0.50","MIGE","4","f","links","22","","fixation","","","",""
"758","img/0_270.png","70","image-keyboard-response","107","211779","0.0-6.0-1.50","MIGE","4","f","links","22","","","self","f","0","true"
"null","<div style=""font-size:60px;"">+</div>","null","html-keyboard-response","108","212251","0.0-6.0-0.51","MIGE","4","f","links","22","","fixation","","","",""
"924","img/60_150.png","70","image-keyboard-response","109","213195","0.0-6.0-1.51","MIGE","4","f","links","22","","","self","f","60","true"
"null","<div style=""font-size:60px;"">+</div>","null","html-keyboard-response","110","213563","0.0-6.0-0.52","MIGE","4","f","links","22","","fixation","","","",""
"1007","img/L60_180.png","70","image-keyboard-response","111","214580","0.0-6.0-1.52","MIGE","4","f","links","22","","","self","f","60","true"
"null","<div style=""font-size:60px;"">+</div>","null","html-keyboard-response","112","215039","0.0-6.0-0.53","MIGE","4","f","links","22","","fixation","","","",""
"1115","img/150_270.png","74","image-keyboard-response","113","216165","0.0-6.0-1.53","MIGE","4","f","links","22","","","self","j","150","true"
"null","<div style=""font-size:60px;"">+</div>","null","html-keyboard-response","114","216643","0.0-6.0-0.54","MIGE","4","f","links","22","","fixation","","","",""
"1392","img/150_90.png","70","image-keyboard-response","115","218044","0.0-6.0-1.54","MIGE","4","f","links","22","","","self","f","150","true"
"null","<div style=""font-size:60px;"">+</div>","null","html-keyboard-response","116","218423","0.0-6.0-0.55","MIGE","4","f","links","22","","fixation","","","",""
"654","img/0_210.png","70","image-keyboard-response","117","219091","0.0-6.0-1.55","MIGE","4","f","links","22","","","self","f","0","true"
"null","<div style=""font-size:60px;"">+</div>","null","html-keyboard-response","118","219407","0.0-6.0-0.56","MIGE","4","f","links","22","","fixation","","","",""
"1182","img/L150_180.png","70","image-keyboard-response","119","220598","0.0-6.0-1.56","MIGE","4","f","links","22","","","self","f","150","true"
"null","<div style=""font-size:60px;"">+</div>","null","html-keyboard-response","120","221109","0.0-6.0-0.57","MIGE","4","f","links","22","","fixation","","","",""
"636","img/0_90.png","74","image-keyboard-response","121","221757","0.0-6.0-1.57","MIGE","4","f","links","22","","","self","j","0","true"
"null","<div style=""font-size:60px;"">+</div>","null","html-keyboard-response","122","222173","0.0-6.0-0.58","MIGE","4","f","links","22","","fixation","","","",""
"1068","img/30_120.png","74","image-keyboard-response","123","223254","0.0-6.0-1.58","MIGE","4","f","links","22","","","self","j","30","true"
"null","<div style=""font-size:60px;"">+</div>","null","html-keyboard-response","124","223783","0.0-6.0-0.59","MIGE","4","f","links","22","","fixation","","","",""
"607","img/0_270.png","70","image-keyboard-response","125","224401","0.0-6.0-1.59","MIGE","4","f","links","22","","","self","f","0","true"
"null","<div style=""font-size:60px;"">+</div>","null","html-keyboard-response","126","224814","0.0-6.0-0.60","MIGE","4","f","links","22","","fixation","","","",""
"1168","img/90_60.png","74","image-keyboard-response","127","225999","0.0-6.0-1.60","MIGE","4","f","links","22","","","self","j","90","true"
"null","<div style=""font-size:60px;"">+</div>","null","html-keyboard-response","128","226362","0.0-6.0-0.61","MIGE","4","f","links","22","","fixation","","","",""
"747","img/0_300.png","70","image-keyboard-response","129","227124","0.0-6.0-1.61","MIGE","4","f","links","22","","","self","f","0","true"
"null","<div style=""font-size:60px;"">+</div>","null","html-keyboard-response","130","227596","0.0-6.0-0.62","MIGE","4","f","links","22","","fixation","","","",""
"1364","img/L120_180.png","70","image-keyboard-response","131","228970","0.0-6.0-1.62","MIGE","4","f","links","22","","","self","f","120","true"
"null","<div style=""font-size:60px;"">+</div>","null","html-keyboard-response","132","229299","0.0-6.0-0.63","MIGE","4","f","links","22","","fixation","","","",""
"790","img/60_150.png","70","image-keyboard-response","133","230094","0.0-6.0-1.63","MIGE","4","f","links","22","","","self","f","60","true"
"null","<div style=""font-size:60px;"">+</div>","null","html-keyboard-response","134","230502","0.0-6.0-0.64","MIGE","4","f","links","22","","fixation","","","",""
"615","img/0_120.png","74","image-keyboard-response","135","231130","0.0-6.0-1.64","MIGE","4","f","links","22","","","self","j","0","true"
"null","<div style=""font-size:60px;"">+</div>","null","html-keyboard-response","136","231549","0.0-6.0-0.65","MIGE","4","f","links","22","","fixation","","","",""
"917","img/60_210.png","74","image-keyboard-response","137","232478","0.0-6.0-1.65","MIGE","4","f","links","22","","","self","j","60","true"
"null","<div style=""font-size:60px;"">+</div>","null","html-keyboard-response","138","232783","0.0-6.0-0.66","MIGE","4","f","links","22","","fixation","","","",""
"777","img/0_150.png","74","image-keyboard-response","139","233570","0.0-6.0-1.66","MIGE","4","f","links","22","","","self","j","0","true"
"null","<div style=""font-size:60px;"">+</div>","null","html-keyboard-response","140","233924","0.0-6.0-0.67","MIGE","4","f","links","22","","fixation","","","",""
"1457","img/150_60.png","70","image-keyboard-response","141","235392","0.0-6.0-1.67","MIGE","4","f","links","22","","","self","f","150","true"
"null","<div style=""font-size:60px;"">+</div>","null","html-keyboard-response","142","235761","0.0-6.0-0.68","MIGE","4","f","links","22","","fixation","","","",""
"1002","img/60_90.png","74","image-keyboard-response","143","236777","0.0-6.0-1.68","MIGE","4","f","links","22","","","self","j","60","true"
"null","<div style=""font-size:60px;"">+</div>","null","html-keyboard-response","144","237145","0.0-6.0-0.69","MIGE","4","f","links","22","","fixation","","","",""
"958","img/60_270.png","70","image-keyboard-response","145","238113","0.0-6.0-1.69","MIGE","4","f","links","22","","","self","f","60","true"
"null","<div style=""font-size:60px;"">+</div>","null","html-keyboard-response","146","238498","0.0-6.0-0.70","MIGE","4","f","links","22","","fixation","","","",""
"985","img/L90_180.png","70","image-keyboard-response","147","239498","0.0-6.0-1.70","MIGE","4","f","links","22","","","self","f","90","true"
"null","<div style=""font-size:60px;"">+</div>","null","html-keyboard-response","148","239818","0.0-6.0-0.71","MIGE","4","f","links","22","","fixation","","","",""
"1246","img/150_300.png","74","image-keyboard-response","149","241073","0.0-6.0-1.71","MIGE","4","f","links","22","","","self","j","150","true"
"null","<div style=""font-size:60px;"">+</div>","null","html-keyboard-response","150","241528","0.0-6.0-0.72","MIGE","4","f","links","22","","fixation","","","",""
"null","img/30_240.png","null","image-keyboard-response","151","244558","0.0-6.0-1.72","MIGE","4","f","links","22","","","self","f","30","false"
"null","<div style=""font-size:60px;"">+</div>","null","html-keyboard-response","152","245029","0.0-6.0-0.73","MIGE","4","f","links","22","","fixation","","","",""
"784","img/60_330.png","70","image-keyboard-response","153","245822","0.0-6.0-1.73","MIGE","4","f","links","22","","","self","f","60","true"
"null","<div style=""font-size:60px;"">+</div>","null","html-keyboard-response","154","246295","0.0-6.0-0.74","MIGE","4","f","links","22","","fixation","","","",""
"873","img/120_150.png","70","image-keyboard-response","155","247182","0.0-6.0-1.74","MIGE","4","f","links","22","","","self","f","120","true"
"null","<div style=""font-size:60px;"">+</div>","null","html-keyboard-response","156","247553","0.0-6.0-0.75","MIGE","4","f","links","22","","fixation","","","",""
"1091","img/150_240.png","74","image-keyboard-response","157","248657","0.0-6.0-1.75","MIGE","4","f","links","22","","","self","j","150","true"
"null","<div style=""font-size:60px;"">+</div>","null","html-keyboard-response","158","249172","0.0-6.0-0.76","MIGE","4","f","links","22","","fixation","","","",""
"1553","img/120_30.png","74","image-keyboard-response","159","250738","0.0-6.0-1.76","MIGE","4","f","links","22","","","self","j","120","true"
"null","<div style=""font-size:60px;"">+</div>","null","html-keyboard-response","160","251152","0.0-6.0-0.77","MIGE","4","f","links","22","","fixation","","","",""
"662","img/0_330.png","70","image-keyboard-response","161","251827","0.0-6.0-1.77","MIGE","4","f","links","22","","","self","f","0","true"
"null","<div style=""font-size:60px;"">+</div>","null","html-keyboard-response","162","252340","0.0-6.0-0.78","MIGE","4","f","links","22","","fixation","","","",""
"1153","img/90_240.png","74","image-keyboard-response","163","253506","0.0-6.0-1.78","MIGE","4","f","links","22","","","self","j","90","true"
"null","<div style=""font-size:60px;"">+</div>","null","html-keyboard-response","164","253961","0.0-6.0-0.79","MIGE","4","f","links","22","","fixation","","","",""
"1048","img/120_90.png","70","image-keyboard-response","165","255024","0.0-6.0-1.79","MIGE","4","f","links","22","","","self","f","120","true"
"null","<div style=""font-size:60px;"">+</div>","null","html-keyboard-response","166","255528","0.0-6.0-0.80","MIGE","4","f","links","22","","fixation","","","",""
"707","img/0_30.png","74","image-keyboard-response","167","256251","0.0-6.0-1.80","MIGE","4","f","links","22","","","self","j","0","true"
"null","<div style=""font-size:60px;"">+</div>","null","html-keyboard-response","168","256702","0.0-6.0-0.81","MIGE","4","f","links","22","","fixation","","","",""
"941","img/120_270.png","74","image-keyboard-response","169","257656","0.0-6.0-1.81","MIGE","4","f","links","22","","","self","j","120","true"
"null","<div style=""font-size:60px;"">+</div>","null","html-keyboard-response","170","257969","0.0-6.0-0.82","MIGE","4","f","links","22","","fixation","","","",""
"898","img/30_300.png","70","image-keyboard-response","171","258872","0.0-6.0-1.82","MIGE","4","f","links","22","","","self","f","30","true"
"null","<div style=""font-size:60px;"">+</div>","null","html-keyboard-response","172","259282","0.0-6.0-0.83","MIGE","4","f","links","22","","fixation","","","",""
"1232","img/90_330.png","70","image-keyboard-response","173","260526","0.0-6.0-1.83","MIGE","4","f","links","22","","","self","f","90","true"
"null","<div style=""font-size:60px;"">+</div>","null","html-keyboard-response","174","261047","0.0-6.0-0.84","MIGE","4","f","links","22","","fixation","","","",""
"896","img/30_60.png","74","image-keyboard-response","175","261955","0.0-6.0-1.84","MIGE","4","f","links","22","","","self","j","30","true"
"null","<div style=""font-size:60px;"">+</div>","null","html-keyboard-response","176","262328","0.0-6.0-0.85","MIGE","4","f","links","22","","fixation","","","",""
"703","img/0_60.png","74","image-keyboard-response","177","263046","0.0-6.0-1.85","MIGE","4","f","links","22","","","self","j","0","true"
"null","<div style=""font-size:60px;"">+</div>","null","html-keyboard-response","178","263500","0.0-6.0-0.86","MIGE","4","f","links","22","","fixation","","","",""
"1377","img/120_330.png","70","image-keyboard-response","179","264891","0.0-6.0-1.86","MIGE","4","f","links","22","","","self","f","120","true"
"null","<div style=""font-size:60px;"">+</div>","null","html-keyboard-response","180","265203","0.0-6.0-0.87","MIGE","4","f","links","22","","fixation","","","",""
"945","img/90_150.png","70","image-keyboard-response","181","266162","0.0-6.0-1.87","MIGE","4","f","links","22","","","self","f","90","true"
"null","<div style=""font-size:60px;"">+</div>","null","html-keyboard-response","182","266565","0.0-6.0-0.88","MIGE","4","f","links","22","","fixation","","","",""
"816","img/30_180.png","74","image-keyboard-response","183","267388","0.0-6.0-1.88","MIGE","4","f","links","22","","","self","j","30","true"
"null","<div style=""font-size:60px;"">+</div>","null","html-keyboard-response","184","267767","0.0-6.0-0.89","MIGE","4","f","links","22","","fixation","","","",""
"912","img/60_30.png","74","image-keyboard-response","185","268693","0.0-6.0-1.89","MIGE","4","f","links","22","","","self","j","60","true"
"null","<div style=""font-size:60px;"">+</div>","null","html-keyboard-response","186","269160","0.0-6.0-0.90","MIGE","4","f","links","22","","fixation","","","",""
"1220","img/90_30.png","74","image-keyboard-response","187","270392","0.0-6.0-1.90","MIGE","4","f","links","22","","","self","j","90","true"
"null","<div style=""font-size:60px;"">+</div>","null","html-keyboard-response","188","270847","0.0-6.0-0.91","MIGE","4","f","links","22","","fixation","","","",""
"1421","img/150_120.png","70","image-keyboard-response","189","272282","0.0-6.0-1.91","MIGE","4","f","links","22","","","self","f","150","true"
"null","<div style=""font-size:60px;"">+</div>","null","html-keyboard-response","190","272658","0.0-6.0-0.92","MIGE","4","f","links","22","","fixation","","","",""
"1271","img/90_180.png","74","image-keyboard-response","191","273947","0.0-6.0-1.92","MIGE","4","f","links","22","","","self","j","90","true"
"null","<div style=""font-size:60px;"">+</div>","null","html-keyboard-response","192","274327","0.0-6.0-0.93","MIGE","4","f","links","22","","fixation","","","",""
"1117","img/90_210.png","74","image-keyboard-response","193","275455","0.0-6.0-1.93","MIGE","4","f","links","22","","","self","j","90","true"
"null","<div style=""font-size:60px;"">+</div>","null","html-keyboard-response","194","275914","0.0-6.0-0.94","MIGE","4","f","links","22","","fixation","","","",""
"684","img/60_180.png","74","image-keyboard-response","195","276613","0.0-6.0-1.94","MIGE","4","f","links","22","","","self","j","60","true"
"null","<div style=""font-size:60px;"">+</div>","null","html-keyboard-response","196","276926","0.0-6.0-0.95","MIGE","4","f","links","22","","fixation","","","",""
"720","img/L30_180.png","70","image-keyboard-response","197","277660","0.0-6.0-1.95","MIGE","4","f","links","22","","","self","f","30","true"
"null","<div style=""font-size:60px;"">+</div>","null","html-keyboard-response","198","278067","0.0-6.0-0.96","MIGE","4","f","links","22","","fixation","","","",""
"908","img/150_180.png","74","image-keyboard-response","199","278986","0.0-6.0-1.96","MIGE","4","f","links","22","","","self","j","150","true"
"null","<div style=""font-size:60px;"">+</div>","null","html-keyboard-response","200","279290","0.0-6.0-0.97","MIGE","4","f","links","22","","fixation","","","",""
"842","img/30_90.png","74","image-keyboard-response","201","280146","0.0-6.0-1.97","MIGE","4","f","links","22","","","self","j","30","true"
"null","<div style=""font-size:60px;"">+</div>","null","html-keyboard-response","202","280476","0.0-6.0-0.98","MIGE","4","f","links","22","","fixation","","","",""
"1125","img/90_120.png","70","image-keyboard-response","203","281608","0.0-6.0-1.98","MIGE","4","f","links","22","","","self","f","90","true"
"null","<div style=""font-size:60px;"">+</div>","null","html-keyboard-response","204","281989","0.0-6.0-0.99","MIGE","4","f","links","22","","fixation","","","",""
"1924","img/90_300.png","70","image-keyboard-response","205","283926","0.0-6.0-1.99","MIGE","4","f","links","22","","","self","f","90","true"
"null","<div style=""font-size:60px;"">+</div>","null","html-keyboard-response","206","284349","0.0-6.0-0.100","MIGE","4","f","links","22","","fixation","","","",""
"1229","img/120_210.png","74","image-keyboard-response","207","285589","0.0-6.0-1.100","MIGE","4","f","links","22","","","self","j","120","true"
"null","<div style=""font-size:60px;"">+</div>","null","html-keyboard-response","208","285957","0.0-6.0-0.101","MIGE","4","f","links","22","","fixation","","","",""
"1082","img/30_270.png","70","image-keyboard-response","209","287052","0.0-6.0-1.101","MIGE","4","f","links","22","","","self","f","30","true"
"null","<div style=""font-size:60px;"">+</div>","null","html-keyboard-response","210","287458","0.0-6.0-0.102","MIGE","4","f","links","22","","fixation","","","",""
"1550","img/120_180.png","74","image-keyboard-response","211","289022","0.0-6.0-1.102","MIGE","4","f","links","22","","","self","j","120","true"
"null","<div style=""font-size:60px;"">+</div>","null","html-keyboard-response","212","289349","0.0-6.0-0.103","MIGE","4","f","links","22","","fixation","","","",""
"606","img/0_240.png","70","image-keyboard-response","213","289966","0.0-6.0-1.103","MIGE","4","f","links","22","","","self","f","0","true"
"null","<div style=""font-size:60px;"">+</div>","null","html-keyboard-response","214","290286","0.0-6.0-0.104","MIGE","4","f","links","22","","fixation","","","",""
"1370","img/90_30.png","74","image-keyboard-response","215","291665","0.0-6.0-1.104","MIGE","4","f","links","22","","","self","j","90","true"
"null","<div style=""font-size:60px;"">+</div>","null","html-keyboard-response","216","291991","0.0-6.0-0.105","MIGE","4","f","links","22","","fixation","","","",""
"847","img/90_240.png","74","image-keyboard-response","217","292847","0.0-6.0-1.105","MIGE","4","f","links","22","","","self","j","90","true"
"null","<div style=""font-size:60px;"">+</div>","null","html-keyboard-response","218","293319","0.0-6.0-0.106","MIGE","4","f","links","22","","fixation","","","",""
"1181","img/150_180.png","74","image-keyboard-response","219","294510","0.0-6.0-1.106","MIGE","4","f","links","22","","","self","j","150","true"
"null","<div style=""font-size:60px;"">+</div>","null","html-keyboard-response","220","294911","0.0-6.0-0.107","MIGE","4","f","links","22","","fixation","","","",""
"1463","img/L150_180.png","70","image-keyboard-response","221","296379","0.0-6.0-1.107","MIGE","4","f","links","22","","","self","f","150","true"
"null","<div style=""font-size:60px;"">+</div>","null","html-keyboard-response","222","296740","0.0-6.0-0.108","MIGE","4","f","links","22","","fixation","","","",""
"739","img/0_270.png","70","image-keyboard-response","223","297494","0.0-6.0-1.108","MIGE","4","f","links","22","","","self","f","0","true"
"null","<div style=""font-size:60px;"">+</div>","null","html-keyboard-response","224","298008","0.0-6.0-0.109","MIGE","4","f","links","22","","fixation","","","",""
"1328","img/150_270.png","74","image-keyboard-response","225","299350","0.0-6.0-1.109","MIGE","4","f","links","22","","","self","j","150","true"
"null","<div style=""font-size:60px;"">+</div>","null","html-keyboard-response","226","299723","0.0-6.0-0.110","MIGE","4","f","links","22","","fixation","","","",""
"1271","img/30_270.png","70","image-keyboard-response","227","301004","0.0-6.0-1.110","MIGE","4","f","links","22","","","self","f","30","true"
"null","<div style=""font-size:60px;"">+</div>","null","html-keyboard-response","228","301510","0.0-6.0-0.111","MIGE","4","f","links","22","","fixation","","","",""
"602","img/0_120.png","74","image-keyboard-response","229","302117","0.0-6.0-1.111","MIGE","4","f","links","22","","","self","j","0","true"
"null","<div style=""font-size:60px;"">+</div>","null","html-keyboard-response","230","302585","0.0-6.0-0.112","MIGE","4","f","links","22","","fixation","","","",""
"816","img/90_210.png","74","image-keyboard-response","231","303411","0.0-6.0-1.112","MIGE","4","f","links","22","","","self","j","90","true"
"null","<div style=""font-size:60px;"">+</div>","null","html-keyboard-response","232","303866","0.0-6.0-0.113","MIGE","4","f","links","22","","fixation","","","",""
"1545","img/30_240.png","74","image-keyboard-response","233","305425","0.0-6.0-1.113","MIGE","4","f","links","22","","","self","f","30","false"
"null","<div style=""font-size:60px;"">+</div>","null","html-keyboard-response","234","305740","0.0-6.0-0.114","MIGE","4","f","links","22","","fixation","","","",""
"1051","img/60_30.png","74","image-keyboard-response","235","306796","0.0-6.0-1.114","MIGE","4","f","links","22","","","self","j","60","true"
"null","<div style=""font-size:60px;"">+</div>","null","html-keyboard-response","236","307111","0.0-6.0-0.115","MIGE","4","f","links","22","","fixation","","","",""
"842","img/60_210.png","74","image-keyboard-response","237","307969","0.0-6.0-1.115","MIGE","4","f","links","22","","","self","j","60","true"
"null","<div style=""font-size:60px;"">+</div>","null","html-keyboard-response","238","308329","0.0-6.0-0.116","MIGE","4","f","links","22","","fixation","","","",""
"673","img/0_30.png","74","image-keyboard-response","239","309013","0.0-6.0-1.116","MIGE","4","f","links","22","","","self","j","0","true"
"null","<div style=""font-size:60px;"">+</div>","null","html-keyboard-response","240","309438","0.0-6.0-0.117","MIGE","4","f","links","22","","fixation","","","",""
"1183","img/120_150.png","70","image-keyboard-response","241","310634","0.0-6.0-1.117","MIGE","4","f","links","22","","","self","f","120","true"
"null","<div style=""font-size:60px;"">+</div>","null","html-keyboard-response","242","311151","0.0-6.0-0.118","MIGE","4","f","links","22","","fixation","","","",""
"908","img/L120_180.png","70","image-keyboard-response","243","312074","0.0-6.0-1.118","MIGE","4","f","links","22","","","self","f","120","true"
"null","<div style=""font-size:60px;"">+</div>","null","html-keyboard-response","244","312398","0.0-6.0-0.119","MIGE","4","f","links","22","","fixation","","","",""
"1446","img/30_60.png","74","image-keyboard-response","245","313853","0.0-6.0-1.119","MIGE","4","f","links","22","","","self","j","30","true"
"null","<div style=""font-size:60px;"">+</div>","null","html-keyboard-response","246","314256","0.0-6.0-0.120","MIGE","4","f","links","22","","fixation","","","",""
"639","img/0_90.png","74","image-keyboard-response","247","314908","0.0-6.0-1.120","MIGE","4","f","links","22","","","self","j","0","true"
"null","<div style=""font-size:60px;"">+</div>","null","html-keyboard-response","248","315412","0.0-6.0-0.121","MIGE","4","f","links","22","","fixation","","","",""
"1003","img/60_150.png","70","image-keyboard-response","249","316428","0.0-6.0-1.121","MIGE","4","f","links","22","","","self","f","60","true"
"null","<div style=""font-size:60px;"">+</div>","null","html-keyboard-response","250","316938","0.0-6.0-0.122","MIGE","4","f","links","22","","fixation","","","",""
"1099","img/120_180.png","74","image-keyboard-response","251","318047","0.0-6.0-1.122","MIGE","4","f","links","22","","","self","j","120","true"
"null","<div style=""font-size:60px;"">+</div>","null","html-keyboard-response","252","318427","0.0-6.0-0.123","MIGE","4","f","links","22","","fixation","","","",""
"797","img/L30_180.png","70","image-keyboard-response","253","319230","0.0-6.0-1.123","MIGE","4","f","links","22","","","self","f","30","true"
"null","<div style=""font-size:60px;"">+</div>","null","html-keyboard-response","254","319537","0.0-6.0-0.124","MIGE","4","f","links","22","","fixation","","","",""
"1676","img/60_330.png","70","image-keyboard-response","255","321219","0.0-6.0-1.124","MIGE","4","f","links","22","","","self","f","60","true"
"null","<div style=""font-size:60px;"">+</div>","null","html-keyboard-response","256","321727","0.0-6.0-0.125","MIGE","4","f","links","22","","fixation","","","",""
"1304","img/150_240.png","74","image-keyboard-response","257","323043","0.0-6.0-1.125","MIGE","4","f","links","22","","","self","j","150","true"
"null","<div style=""font-size:60px;"">+</div>","null","html-keyboard-response","258","323399","0.0-6.0-0.126","MIGE","4","f","links","22","","fixation","","","",""
"1026","img/L90_180.png","70","image-keyboard-response","259","324438","0.0-6.0-1.126","MIGE","4","f","links","22","","","self","f","90","true"
"null","<div style=""font-size:60px;"">+</div>","null","html-keyboard-response","260","324820","0.0-6.0-0.127","MIGE","4","f","links","22","","fixation","","","",""
"1493","img/60_270.png","70","image-keyboard-response","261","326328","0.0-6.0-1.127","MIGE","4","f","links","22","","","self","f","60","true"
"null","<div style=""font-size:60px;"">+</div>","null","html-keyboard-response","262","326846","0.0-6.0-0.128","MIGE","4","f","links","22","","fixation","","","",""
"695","img/0_60.png","74","image-keyboard-response","263","327554","0.0-6.0-1.128","MIGE","4","f","links","22","","","self","j","0","true"
"null","<div style=""font-size:60px;"">+</div>","null","html-keyboard-response","264","327866","0.0-6.0-0.129","MIGE","4","f","links","22","","fixation","","","",""
"1619","img/90_330.png","70","image-keyboard-response","265","329500","0.0-6.0-1.129","MIGE","4","f","links","22","","","self","f","90","true"
"null","<div style=""font-size:60px;"">+</div>","null","html-keyboard-response","266","329805","0.0-6.0-0.130","MIGE","4","f","links","22","","fixation","","","",""
"761","img/0_330.png","70","image-keyboard-response","267","330580","0.0-6.0-1.130","MIGE","4","f","links","22","","","self","f","0","true"
"null","<div style=""font-size:60px;"">+</div>","null","html-keyboard-response","268","330960","0.0-6.0-0.131","MIGE","4","f","links","22","","fixation","","","",""
"1343","img/150_120.png","70","image-keyboard-response","269","332312","0.0-6.0-1.131","MIGE","4","f","links","22","","","self","f","150","true"
"null","<div style=""font-size:60px;"">+</div>","null","html-keyboard-response","270","332741","0.0-6.0-0.132","MIGE","4","f","links","22","","fixation","","","",""
"1290","img/60_180.png","74","image-keyboard-response","271","334044","0.0-6.0-1.132","MIGE","4","f","links","22","","","self","j","60","true"
"null","<div style=""font-size:60px;"">+</div>","null","html-keyboard-response","272","334459","0.0-6.0-0.133","MIGE","4","f","links","22","","fixation","","","",""
"955","img/30_180.png","74","image-keyboard-response","273","335429","0.0-6.0-1.133","MIGE","4","f","links","22","","","self","j","30","true"
"null","<div style=""font-size:60px;"">+</div>","null","html-keyboard-response","274","335754","0.0-6.0-0.134","MIGE","4","f","links","22","","fixation","","","",""
"1652","img/150_90.png","70","image-keyboard-response","275","337420","0.0-6.0-1.134","MIGE","4","f","links","22","","","self","f","150","true"
"null","<div style=""font-size:60px;"">+</div>","null","html-keyboard-response","276","337883","0.0-6.0-0.135","MIGE","4","f","links","22","","fixation","","","",""
"1008","img/150_60.png","70","image-keyboard-response","277","338905","0.0-6.0-1.135","MIGE","4","f","links","22","","","self","f","150","true"
"null","<div style=""font-size:60px;"">+</div>","null","html-keyboard-response","278","339407","0.0-6.0-0.136","MIGE","4","f","links","22","","fixation","","","",""
"1005","img/90_150.png","70","image-keyboard-response","279","340425","0.0-6.0-1.136","MIGE","4","f","links","22","","","self","f","90","true"
"null","<div style=""font-size:60px;"">+</div>","null","html-keyboard-response","280","340907","0.0-6.0-0.137","MIGE","4","f","links","22","","fixation","","","",""
"966","img/90_180.png","74","image-keyboard-response","281","341886","0.0-6.0-1.137","MIGE","4","f","links","22","","","self","j","90","true"
"null","<div style=""font-size:60px;"">+</div>","null","html-keyboard-response","282","342344","0.0-6.0-0.138","MIGE","4","f","links","22","","fixation","","","",""
"1847","img/90_60.png","74","image-keyboard-response","283","344204","0.0-6.0-1.138","MIGE","4","f","links","22","","","self","j","90","true"
"null","<div style=""font-size:60px;"">+</div>","null","html-keyboard-response","284","344515","0.0-6.0-0.139","MIGE","4","f","links","22","","fixation","","","",""
"610","img/0_300.png","70","image-keyboard-response","285","345138","0.0-6.0-1.139","MIGE","4","f","links","22","","","self","f","0","true"
"null","<div style=""font-size:60px;"">+</div>","null","html-keyboard-response","286","345548","0.0-6.0-0.140","MIGE","4","f","links","22","","fixation","","","",""
"1692","img/30_120.png","74","image-keyboard-response","287","347254","0.0-6.0-1.140","MIGE","4","f","links","22","","","self","j","30","true"
"null","<div style=""font-size:60px;"">+</div>","null","html-keyboard-response","288","347563","0.0-6.0-0.141","MIGE","4","f","links","22","","fixation","","","",""
"1424","img/90_300.png","70","image-keyboard-response","289","348996","0.0-6.0-1.141","MIGE","4","f","links","22","","","self","f","90","true"
"null","<div style=""font-size:60px;"">+</div>","null","html-keyboard-response","290","349315","0.0-6.0-0.142","MIGE","4","f","links","22","","fixation","","","",""
"1920","img/150_300.png","70","image-keyboard-response","291","351247","0.0-6.0-1.142","MIGE","4","f","links","22","","","self","j","150","false"
"null","<div style=""font-size:60px;"">+</div>","null","html-keyboard-response","292","351704","0.0-6.0-0.143","MIGE","4","f","links","22","","fixation","","","",""
"1720","img/120_210.png","74","image-keyboard-response","293","353429","0.0-6.0-1.143","MIGE","4","f","links","22","","","self","j","120","true"
"null","<div style=""font-size:60px;"">+</div>","null","html-keyboard-response","294","353938","0.0-6.0-0.144","MIGE","4","f","links","22","","fixation","","","",""
"2029","img/60_90.png","74","image-keyboard-response","295","355972","0.0-6.0-1.144","MIGE","4","f","links","22","","","self","j","60","true"
"null","<div style=""font-size:60px;"">+</div>","null","html-keyboard-response","296","356377","0.0-6.0-0.145","MIGE","4","f","links","22","","fixation","","","",""
"683","img/0_210.png","70","image-keyboard-response","297","357074","0.0-6.0-1.145","MIGE","4","f","links","22","","","self","f","0","true"
"null","<div style=""font-size:60px;"">+</div>","null","html-keyboard-response","298","357550","0.0-6.0-0.146","MIGE","4","f","links","22","","fixation","","","",""
"817","img/0_150.png","74","image-keyboard-response","299","358380","0.0-6.0-1.146","MIGE","4","f","links","22","","","self","j","0","true"
"null","<div style=""font-size:60px;"">+</div>","null","html-keyboard-response","300","358753","0.0-6.0-0.147","MIGE","4","f","links","22","","fixation","","","",""
"1252","img/30_300.png","70","image-keyboard-response","301","360022","0.0-6.0-1.147","MIGE","4","f","links","22","","","self","f","30","true"
"null","<div style=""font-size:60px;"">+</div>","null","html-keyboard-response","302","360488","0.0-6.0-0.148","MIGE","4","f","links","22","","fixation","","","",""
"2120","img/120_30.png","74","image-keyboard-response","303","362622","0.0-6.0-1.148","MIGE","4","f","links","22","","","self","j","120","true"
"null","<div style=""font-size:60px;"">+</div>","null","html-keyboard-response","304","363035","0.0-6.0-0.149","MIGE","4","f","links","22","","fixation","","","",""
"1227","img/30_90.png","74","image-keyboard-response","305","364275","0.0-6.0-1.149","MIGE","4","f","links","22","","","self","j","30","true"
"null","<div style=""font-size:60px;"">+</div>","null","html-keyboard-response","306","364706","0.0-6.0-0.150","MIGE","4","f","links","22","","fixation","","","",""
"1544","img/90_120.png","70","image-keyboard-response","307","366258","0.0-6.0-1.150","MIGE","4","f","links","22","","","self","f","90","true"
"null","<div style=""font-size:60px;"">+</div>","null","html-keyboard-response","308","366775","0.0-6.0-0.151","MIGE","4","f","links","22","","fixation","","","",""
"1657","img/120_270.png","74","image-keyboard-response","309","368437","0.0-6.0-1.151","MIGE","4","f","links","22","","","self","j","120","true"
"null","<div style=""font-size:60px;"">+</div>","null","html-keyboard-response","310","368849","0.0-6.0-0.152","MIGE","4","f","links","22","","fixation","","","",""
"947","img/L60_180.png","70","image-keyboard-response","311","369809","0.0-6.0-1.152","MIGE","4","f","links","22","","","self","f","60","true"
"null","<div style=""font-size:60px;"">+</div>","null","html-keyboard-response","312","370286","0.0-6.0-0.153","MIGE","4","f","links","22","","fixation","","","",""
"703","img/0_240.png","70","image-keyboard-response","313","371002","0.0-6.0-1.153","MIGE","4","f","links","22","","","self","f","0","true"
"null","<div style=""font-size:60px;"">+</div>","null","html-keyboard-response","314","371513","0.0-6.0-0.154","MIGE","4","f","links","22","","fixation","","","",""
"1082","img/120_90.png","70","image-keyboard-response","315","372610","0.0-6.0-1.154","MIGE","4","f","links","22","","","self","f","120","true"
"null","<div style=""font-size:60px;"">+</div>","null","html-keyboard-response","316","373122","0.0-6.0-0.155","MIGE","4","f","links","22","","fixation","","","",""
"2747","img/120_330.png","70","image-keyboard-response","317","375885","0.0-6.0-1.155","MIGE","4","f","links","22","","","self","f","120","true"
"null","<div style=""font-size:60px;"">+</div>","null","html-keyboard-response","318","376399","0.0-6.0-0.156","MIGE","4","f","links","22","","fixation","","","",""
"1800","img/30_240.png","74","image-keyboard-response","319","378214","0.0-6.0-1.156","MIGE","4","f","links","22","","","self","f","30","false"
"null","<div style=""font-size:60px;"">+</div>","null","html-keyboard-response","320","378741","0.0-6.0-0.157","MIGE","4","f","links","22","","fixation","","","",""
"null","img/60_270.png","null","image-keyboard-response","321","381773","0.0-6.0-1.157","MIGE","4","f","links","22","","","self","f","60","false"
"null","<div style=""font-size:60px;"">+</div>","null","html-keyboard-response","322","382100","0.0-6.0-0.158","MIGE","4","f","links","22","","fixation","","","",""
"2097","img/90_60.png","74","image-keyboard-response","323","384210","0.0-6.0-1.158","MIGE","4","f","links","22","","","self","j","90","true"
"null","<div style=""font-size:60px;"">+</div>","null","html-keyboard-response","324","384585","0.0-6.0-0.159","MIGE","4","f","links","22","","fixation","","","",""
"1594","img/90_180.png","74","image-keyboard-response","325","386189","0.0-6.0-1.159","MIGE","4","f","links","22","","","self","j","90","true"
"null","<div style=""font-size:60px;"">+</div>","null","html-keyboard-response","326","386617","0.0-6.0-0.160","MIGE","4","f","links","22","","fixation","","","",""
"2578","img/150_240.png","74","image-keyboard-response","327","389204","0.0-6.0-1.160","MIGE","4","f","links","22","","","self","j","150","true"
"null","<div style=""font-size:60px;"">+</div>","null","html-keyboard-response","328","389571","0.0-6.0-0.161","MIGE","4","f","links","22","","fixation","","","",""
"1840","img/60_150.png","70","image-keyboard-response","329","391420","0.0-6.0-1.161","MIGE","4","f","links","22","","","self","f","60","true"
"null","<div style=""font-size:60px;"">+</div>","null","html-keyboard-response","330","391788","0.0-6.0-0.162","MIGE","4","f","links","22","","fixation","","","",""
"1230","img/30_120.png","74","image-keyboard-response","331","393029","0.0-6.0-1.162","MIGE","4","f","links","22","","","self","j","30","true"
"null","<div style=""font-size:60px;"">+</div>","null","html-keyboard-response","332","393334","0.0-6.0-0.163","MIGE","4","f","links","22","","fixation","","","",""
"1125","img/30_90.png","74","image-keyboard-response","333","394471","0.0-6.0-1.163","MIGE","4","f","links","22","","","self","j","30","true"
"null","<div style=""font-size:60px;"">+</div>","null","html-keyboard-response","334","394771","0.0-6.0-0.164","MIGE","4","f","links","22","","fixation","","","",""
"1348","img/60_180.png","74","image-keyboard-response","335","396135","0.0-6.0-1.164","MIGE","4","f","links","22","","","self","j","60","true"
"null","<div style=""font-size:60px;"">+</div>","null","html-keyboard-response","336","396601","0.0-6.0-0.165","MIGE","4","f","links","22","","fixation","","","",""
"null","img/120_180.png","null","image-keyboard-response","337","399632","0.0-6.0-1.165","MIGE","4","f","links","22","","","self","j","120","false"
"null","<div style=""font-size:60px;"">+</div>","null","html-keyboard-response","338","399991","0.0-6.0-0.166","MIGE","4","f","links","22","","fixation","","","",""
"533","img/0_150.png","74","image-keyboard-response","339","400533","0.0-6.0-1.166","MIGE","4","f","links","22","","","self","j","0","true"
"null","<div style=""font-size:60px;"">+</div>","null","html-keyboard-response","340","400960","0.0-6.0-0.167","MIGE","4","f","links","22","","fixation","","","",""
"1911","img/90_210.png","74","image-keyboard-response","341","402886","0.0-6.0-1.167","MIGE","4","f","links","22","","","self","j","90","true"
"null","<div style=""font-size:60px;"">+</div>","null","html-keyboard-response","342","403210","0.0-6.0-0.168","MIGE","4","f","links","22","","fixation","","","",""
"1105","img/L90_180.png","70","image-keyboard-response","343","404324","0.0-6.0-1.168","MIGE","4","f","links","22","","","self","f","90","true"
"null","<div style=""font-size:60px;"">+</div>","null","html-keyboard-response","344","404679","0.0-6.0-0.169","MIGE","4","f","links","22","","fixation","","","",""
"2493","img/120_330.png","74","image-keyboard-response","345","407182","0.0-6.0-1.169","MIGE","4","f","links","22","","","self","f","120","false"
"null","<div style=""font-size:60px;"">+</div>","null","html-keyboard-response","346","407693","0.0-6.0-0.170","MIGE","4","f","links","22","","fixation","","","",""
"849","img/30_60.png","74","image-keyboard-response","347","408554","0.0-6.0-1.170","MIGE","4","f","links","22","","","self","j","30","true"
"null","<div style=""font-size:60px;"">+</div>","null","html-keyboard-response","348","409020","0.0-6.0-0.171","MIGE","4","f","links","22","","fixation","","","",""
"639","img/0_210.png","70","image-keyboard-response","349","409670","0.0-6.0-1.171","MIGE","4","f","links","22","","","self","f","0","true"
"null","<div style=""font-size:60px;"">+</div>","null","html-keyboard-response","350","410005","0.0-6.0-0.172","MIGE","4","f","links","22","","fixation","","","",""
"1394","img/150_120.png","70","image-keyboard-response","351","411412","0.0-6.0-1.172","MIGE","4","f","links","22","","","self","f","150","true"
"null","<div style=""font-size:60px;"">+</div>","null","html-keyboard-response","352","411927","0.0-6.0-0.173","MIGE","4","f","links","22","","fixation","","","",""
"1790","img/120_30.png","74","image-keyboard-response","353","413731","0.0-6.0-1.173","MIGE","4","f","links","22","","","self","j","120","true"
"null","<div style=""font-size:60px;"">+</div>","null","html-keyboard-response","354","414238","0.0-6.0-0.174","MIGE","4","f","links","22","","fixation","","","",""
"1805","img/150_270.png","74","image-keyboard-response","355","416059","0.0-6.0-1.174","MIGE","4","f","links","22","","","self","j","150","true"
"null","<div style=""font-size:60px;"">+</div>","null","html-keyboard-response","356","416571","0.0-6.0-0.175","MIGE","4","f","links","22","","fixation","","","",""
"1534","img/120_150.png","70","image-keyboard-response","357","418117","0.0-6.0-1.175","MIGE","4","f","links","22","","","self","f","120","true"
"null","<div style=""font-size:60px;"">+</div>","null","html-keyboard-response","358","418632","0.0-6.0-0.176","MIGE","4","f","links","22","","fixation","","","",""
"2757","img/90_300.png","70","image-keyboard-response","359","421403","0.0-6.0-1.176","MIGE","4","f","links","22","","","self","f","90","true"
"null","<div style=""font-size:60px;"">+</div>","null","html-keyboard-response","360","421710","0.0-6.0-0.177","MIGE","4","f","links","22","","fixation","","","",""
"null","img/120_210.png","null","image-keyboard-response","361","424725","0.0-6.0-1.177","MIGE","4","f","links","22","","","self","j","120","false"
"null","<div style=""font-size:60px;"">+</div>","null","html-keyboard-response","362","425242","0.0-6.0-0.178","MIGE","4","f","links","22","","fixation","","","",""
"1078","img/90_150.png","70","image-keyboard-response","363","426329","0.0-6.0-1.178","MIGE","4","f","links","22","","","self","f","90","true"
"null","<div style=""font-size:60px;"">+</div>","null","html-keyboard-response","364","426739","0.0-6.0-0.179","MIGE","4","f","links","22","","fixation","","","",""
"1240","img/L60_180.png","70","image-keyboard-response","365","427985","0.0-6.0-1.179","MIGE","4","f","links","22","","","self","f","60","true"
"null","<div style=""font-size:60px;"">+</div>","null","html-keyboard-response","366","428396","0.0-6.0-0.180","MIGE","4","f","links","22","","fixation","","","",""
"1352","img/60_330.png","70","image-keyboard-response","367","429761","0.0-6.0-1.180","MIGE","4","f","links","22","","","self","f","60","true"
"null","<div style=""font-size:60px;"">+</div>","null","html-keyboard-response","368","430176","0.0-6.0-0.181","MIGE","4","f","links","22","","fixation","","","",""
"709","img/0_60.png","74","image-keyboard-response","369","430898","0.0-6.0-1.181","MIGE","4","f","links","22","","","self","j","0","true"
"null","<div style=""font-size:60px;"">+</div>","null","html-keyboard-response","370","431223","0.0-6.0-0.182","MIGE","4","f","links","22","","fixation","","","",""
"808","img/0_270.png","70","image-keyboard-response","371","432044","0.0-6.0-1.182","MIGE","4","f","links","22","","","self","f","0","true"
"null","<div style=""font-size:60px;"">+</div>","null","html-keyboard-response","372","432559","0.0-6.0-0.183","MIGE","4","f","links","22","","fixation","","","",""
"1509","img/L150_180.png","70","image-keyboard-response","373","434081","0.0-6.0-1.183","MIGE","4","f","links","22","","","self","f","150","true"
"null","<div style=""font-size:60px;"">+</div>","null","html-keyboard-response","374","434394","0.0-6.0-0.184","MIGE","4","f","links","22","","fixation","","","",""
"1710","img/30_270.png","70","image-keyboard-response","375","436117","0.0-6.0-1.184","MIGE","4","f","links","22","","","self","f","30","true"
"null","<div style=""font-size:60px;"">+</div>","null","html-keyboard-response","376","436648","0.0-6.0-0.185","MIGE","4","f","links","22","","fixation","","","",""
"1433","img/150_300.png","74","image-keyboard-response","377","438091","0.0-6.0-1.185","MIGE","4","f","links","22","","","self","j","150","true"
"null","<div style=""font-size:60px;"">+</div>","null","html-keyboard-response","378","438494","0.0-6.0-0.186","MIGE","4","f","links","22","","fixation","","","",""
"1045","img/90_120.png","70","image-keyboard-response","379","439550","0.0-6.0-1.186","MIGE","4","f","links","22","","","self","f","90","true"
"null","<div style=""font-size:60px;"">+</div>","null","html-keyboard-response","380","440073","0.0-6.0-0.187","MIGE","4","f","links","22","","fixation","","","",""
"654","img/0_30.png","74","image-keyboard-response","381","440743","0.0-6.0-1.187","MIGE","4","f","links","22","","","self","j","0","true"
"null","<div style=""font-size:60px;"">+</div>","null","html-keyboard-response","382","441260","0.0-6.0-0.188","MIGE","4","f","links","22","","fixation","","","",""
"1549","img/L120_180.png","70","image-keyboard-response","383","442823","0.0-6.0-1.188","MIGE","4","f","links","22","","","self","f","120","true"
"null","<div style=""font-size:60px;"">+</div>","null","html-keyboard-response","384","443229","0.0-6.0-0.189","MIGE","4","f","links","22","","fixation","","","",""
"764","img/60_90.png","74","image-keyboard-response","385","444005","0.0-6.0-1.189","MIGE","4","f","links","22","","","self","j","60","true"
"null","<div style=""font-size:60px;"">+</div>","null","html-keyboard-response","386","444510","0.0-6.0-0.190","MIGE","4","f","links","22","","fixation","","","",""
"606","img/0_90.png","74","image-keyboard-response","387","445130","0.0-6.0-1.190","MIGE","4","f","links","22","","","self","j","0","true"
"null","<div style=""font-size:60px;"">+</div>","null","html-keyboard-response","388","445604","0.0-6.0-0.191","MIGE","4","f","links","22","","fixation","","","",""
"1233","img/150_180.png","74","image-keyboard-response","389","446848","0.0-6.0-1.191","MIGE","4","f","links","22","","","self","j","150","true"
"null","<div style=""font-size:60px;"">+</div>","null","html-keyboard-response","390","447152","0.0-6.0-0.192","MIGE","4","f","links","22","","fixation","","","",""
"672","img/0_120.png","74","image-keyboard-response","391","447839","0.0-6.0-1.192","MIGE","4","f","links","22","","","self","j","0","true"
"null","<div style=""font-size:60px;"">+</div>","null","html-keyboard-response","392","448268","0.0-6.0-0.193","MIGE","4","f","links","22","","fixation","","","",""
"2057","img/150_60.png","70","image-keyboard-response","393","450338","0.0-6.0-1.193","MIGE","4","f","links","22","","","self","f","150","true"
"null","<div style=""font-size:60px;"">+</div>","null","html-keyboard-response","394","450799","0.0-6.0-0.194","MIGE","4","f","links","22","","fixation","","","",""
"795","img/30_180.png","74","image-keyboard-response","395","451609","0.0-6.0-1.194","MIGE","4","f","links","22","","","self","j","30","true"
"null","<div style=""font-size:60px;"">+</div>","null","html-keyboard-response","396","451922","0.0-6.0-0.195","MIGE","4","f","links","22","","fixation","","","",""
"1041","img/60_30.png","74","image-keyboard-response","397","452981","0.0-6.0-1.195","MIGE","4","f","links","22","","","self","j","60","true"
"null","<div style=""font-size:60px;"">+</div>","null","html-keyboard-response","398","453501","0.0-6.0-0.196","MIGE","4","f","links","22","","fixation","","","",""
"1641","img/120_90.png","70","image-keyboard-response","399","455154","0.0-6.0-1.196","MIGE","4","f","links","22","","","self","f","120","true"
"null","<div style=""font-size:60px;"">+</div>","null","html-keyboard-response","400","455673","0.0-6.0-0.197","MIGE","4","f","links","22","","fixation","","","",""
"704","img/0_330.png","70","image-keyboard-response","401","456390","0.0-6.0-1.197","MIGE","4","f","links","22","","","self","f","0","true"
"null","<div style=""font-size:60px;"">+</div>","null","html-keyboard-response","402","456814","0.0-6.0-0.198","MIGE","4","f","links","22","","fixation","","","",""
"1291","img/30_300.png","70","image-keyboard-response","403","458124","0.0-6.0-1.198","MIGE","4","f","links","22","","","self","f","30","true"
"null","<div style=""font-size:60px;"">+</div>","null","html-keyboard-response","404","458543","0.0-6.0-0.199","MIGE","4","f","links","22","","fixation","","","",""
"1356","img/60_210.png","74","image-keyboard-response","405","459912","0.0-6.0-1.199","MIGE","4","f","links","22","","","self","j","60","true"
"null","<div style=""font-size:60px;"">+</div>","null","html-keyboard-response","406","460340","0.0-6.0-0.200","MIGE","4","f","links","22","","fixation","","","",""
"1349","img/90_240.png","74","image-keyboard-response","407","461702","0.0-6.0-1.200","MIGE","4","f","links","22","","","self","j","90","true"
"null","<div style=""font-size:60px;"">+</div>","null","html-keyboard-response","408","462012","0.0-6.0-0.201","MIGE","4","f","links","22","","fixation","","","",""
"736","img/0_240.png","70","image-keyboard-response","409","462758","0.0-6.0-1.201","MIGE","4","f","links","22","","","self","f","0","true"
"null","<div style=""font-size:60px;"">+</div>","null","html-keyboard-response","410","463090","0.0-6.0-0.202","MIGE","4","f","links","22","","fixation","","","",""
"1014","img/90_330.png","70","image-keyboard-response","411","464117","0.0-6.0-1.202","MIGE","4","f","links","22","","","self","f","90","true"
"null","<div style=""font-size:60px;"">+</div>","null","html-keyboard-response","412","464480","0.0-6.0-0.203","MIGE","4","f","links","22","","fixation","","","",""
"1516","img/150_90.png","70","image-keyboard-response","413","466009","0.0-6.0-1.203","MIGE","4","f","links","22","","","self","f","150","true"
"null","<div style=""font-size:60px;"">+</div>","null","html-keyboard-response","414","466327","0.0-6.0-0.204","MIGE","4","f","links","22","","fixation","","","",""
"1750","img/L30_180.png","70","image-keyboard-response","415","468091","0.0-6.0-1.204","MIGE","4","f","links","22","","","self","f","30","true"
"null","<div style=""font-size:60px;"">+</div>","null","html-keyboard-response","416","468451","0.0-6.0-0.205","MIGE","4","f","links","22","","fixation","","","",""
"1646","img/120_270.png","74","image-keyboard-response","417","470115","0.0-6.0-1.205","MIGE","4","f","links","22","","","self","j","120","true"
"null","<div style=""font-size:60px;"">+</div>","null","html-keyboard-response","418","470589","0.0-6.0-0.206","MIGE","4","f","links","22","","fixation","","","",""
"1828","img/90_30.png","74","image-keyboard-response","419","472432","0.0-6.0-1.206","MIGE","4","f","links","22","","","self","j","90","true"
"null","<div style=""font-size:60px;"">+</div>","null","html-keyboard-response","420","472840","0.0-6.0-0.207","MIGE","4","f","links","22","","fixation","","","",""
"826","img/0_300.png","70","image-keyboard-response","421","473671","0.0-6.0-1.207","MIGE","4","f","links","22","","","self","f","0","true"
"77801","<p>Du hast in 93% der Versuche korrekt entschieden.</p><p>Deine durchschnittliche Reaktionszeit war  1161ms.</p><p>Dr&uuml;cke eine beliebige Taste, um die Session zu beenden. Vielen Dank!</p>","32","html-keyboard-response","422","551481","0.0-7.0","MIGE","4","f","links","22","","","","","",""
