"rt","stimulus","key_press","trial_type","trial_index","time_elapsed","internal_node_id","subject","session","sex","handedness","age","responses","test_part","condition","correct_response","angle","correct"
"10491","<p>Mental Rotation Experiment.</p> <p>Dr&uuml;cke eine beliebige Taste, um anzufangen.</p>","13","html-keyboard-response","0","10512","0.0-0.0","MIGE","3","f","links","22","","","","","",""
"2869","","","survey-text","1","13383","0.0-1.0","MIGE","3","f","links","22","{""Q0"":""MIGE""}","","","","",""
"5300","","","survey-text","2","18683","0.0-2.0","MIGE","3","f","links","22","{""Q0"":""3""}","","","","",""
"3630","","","survey-multi-choice","3","22319","0.0-3.0","MIGE","3","f","links","22","{""Q0"":""f"",""Q1"":""links""}","","","","",""
"31764","","","survey-text","4","54086","0.0-4.0","MIGE","3","f","links","22","{""Q0"":""22""}","","","","",""
"25309","<p> Stell dir vor, dass du vor einem runden Tisch stehst, auf dem sich ein blauer Ball am Tischrand befindet. Entlang des Tischrands ist jeweils ein verschieden langer Pfeil. Nun bewegst du dich entlang dieses Pfeils bis an seine Spitze. Wenn du am Ende des Pfeils angekommen bist, schau zur Tischmitte. </p> <img src='img/90_180.png'></img> <br> <p>Entscheide dann, ob der Ball von deiner neuen (vorgestellten) Position links oder rechts von dir liegt.</p> <p>Dr&uuml;cke die <strong>'f'</strong>-Taste f&uuml;r links, die <strong>'j'</strong>-Taste f&uuml;r rechts.</p> <br><p> Das Bild wird jeweils 1 Sekunde lang pr&auml;sentiert. Du hast 3 Sekunden Zeit eine Entscheidung zu treffen.</p>","74","html-keyboard-response","5","79411","0.0-5.0","MIGE","3","f","links","22","","","","","",""
"null","<div style=""font-size:60px;"">+</div>","null","html-keyboard-response","6","80933","0.0-6.0-0.0","MIGE","3","f","links","22","","fixation","","","",""
"1485","img/0_240.png","70","image-keyboard-response","7","82438","0.0-6.0-1.0","MIGE","3","f","links","22","","","self","f","0","true"
"null","<div style=""font-size:60px;"">+</div>","null","html-keyboard-response","8","82891","0.0-6.0-0.1","MIGE","3","f","links","22","","fixation","","","",""
"1339","img/30_90.png","74","image-keyboard-response","9","84247","0.0-6.0-1.1","MIGE","3","f","links","22","","","self","j","30","true"
"null","<div style=""font-size:60px;"">+</div>","null","html-keyboard-response","10","84609","0.0-6.0-0.2","MIGE","3","f","links","22","","fixation","","","",""
"1330","img/60_30.png","74","image-keyboard-response","11","85959","0.0-6.0-1.2","MIGE","3","f","links","22","","","self","j","60","true"
"null","<div style=""font-size:60px;"">+</div>","null","html-keyboard-response","12","86418","0.0-6.0-0.3","MIGE","3","f","links","22","","fixation","","","",""
"1930","img/150_240.png","74","image-keyboard-response","13","88371","0.0-6.0-1.3","MIGE","3","f","links","22","","","self","j","150","true"
"null","<div style=""font-size:60px;"">+</div>","null","html-keyboard-response","14","88835","0.0-6.0-0.4","MIGE","3","f","links","22","","fixation","","","",""
"1143","img/120_150.png","70","image-keyboard-response","15","89986","0.0-6.0-1.4","MIGE","3","f","links","22","","","self","f","120","true"
"null","<div style=""font-size:60px;"">+</div>","null","html-keyboard-response","16","90435","0.0-6.0-0.5","MIGE","3","f","links","22","","fixation","","","",""
"973","img/60_210.png","74","image-keyboard-response","17","91415","0.0-6.0-1.5","MIGE","3","f","links","22","","","self","j","60","true"
"null","<div style=""font-size:60px;"">+</div>","null","html-keyboard-response","18","91779","0.0-6.0-0.6","MIGE","3","f","links","22","","fixation","","","",""
"912","img/0_120.png","74","image-keyboard-response","19","92708","0.0-6.0-1.6","MIGE","3","f","links","22","","","self","j","0","true"
"null","<div style=""font-size:60px;"">+</div>","null","html-keyboard-response","20","93232","0.0-6.0-0.7","MIGE","3","f","links","22","","fixation","","","",""
"742","img/0_60.png","74","image-keyboard-response","21","93991","0.0-6.0-1.7","MIGE","3","f","links","22","","","self","j","0","true"
"null","<div style=""font-size:60px;"">+</div>","null","html-keyboard-response","22","94310","0.0-6.0-0.8","MIGE","3","f","links","22","","fixation","","","",""
"1428","img/0_300.png","70","image-keyboard-response","23","95757","0.0-6.0-1.8","MIGE","3","f","links","22","","","self","f","0","true"
"null","<div style=""font-size:60px;"">+</div>","null","html-keyboard-response","24","96186","0.0-6.0-0.9","MIGE","3","f","links","22","","fixation","","","",""
"692","img/0_210.png","70","image-keyboard-response","25","96894","0.0-6.0-1.9","MIGE","3","f","links","22","","","self","f","0","true"
"null","<div style=""font-size:60px;"">+</div>","null","html-keyboard-response","26","97200","0.0-6.0-0.10","MIGE","3","f","links","22","","fixation","","","",""
"1237","img/30_180.png","74","image-keyboard-response","27","98454","0.0-6.0-1.10","MIGE","3","f","links","22","","","self","j","30","true"
"null","<div style=""font-size:60px;"">+</div>","null","html-keyboard-response","28","98857","0.0-6.0-0.11","MIGE","3","f","links","22","","fixation","","","",""
"1013","img/60_150.png","70","image-keyboard-response","29","99887","0.0-6.0-1.11","MIGE","3","f","links","22","","","self","f","60","true"
"null","<div style=""font-size:60px;"">+</div>","null","html-keyboard-response","30","100311","0.0-6.0-0.12","MIGE","3","f","links","22","","fixation","","","",""
"1130","img/60_330.png","70","image-keyboard-response","31","101458","0.0-6.0-1.12","MIGE","3","f","links","22","","","self","f","60","true"
"null","<div style=""font-size:60px;"">+</div>","null","html-keyboard-response","32","101780","0.0-6.0-0.13","MIGE","3","f","links","22","","fixation","","","",""
"1926","img/120_330.png","70","image-keyboard-response","33","103722","0.0-6.0-1.13","MIGE","3","f","links","22","","","self","f","120","true"
"null","<div style=""font-size:60px;"">+</div>","null","html-keyboard-response","34","104186","0.0-6.0-0.14","MIGE","3","f","links","22","","fixation","","","",""
"1078","img/60_90.png","74","image-keyboard-response","35","105286","0.0-6.0-1.14","MIGE","3","f","links","22","","","self","j","60","true"
"null","<div style=""font-size:60px;"">+</div>","null","html-keyboard-response","36","105812","0.0-6.0-0.15","MIGE","3","f","links","22","","fixation","","","",""
"1358","img/150_120.png","70","image-keyboard-response","37","107187","0.0-6.0-1.15","MIGE","3","f","links","22","","","self","f","150","true"
"null","<div style=""font-size:60px;"">+</div>","null","html-keyboard-response","38","107717","0.0-6.0-0.16","MIGE","3","f","links","22","","fixation","","","",""
"1211","img/90_150.png","70","image-keyboard-response","39","108942","0.0-6.0-1.16","MIGE","3","f","links","22","","","self","f","90","true"
"null","<div style=""font-size:60px;"">+</div>","null","html-keyboard-response","40","109370","0.0-6.0-0.17","MIGE","3","f","links","22","","fixation","","","",""
"1694","img/90_330.png","70","image-keyboard-response","41","111080","0.0-6.0-1.17","MIGE","3","f","links","22","","","self","f","90","true"
"null","<div style=""font-size:60px;"">+</div>","null","html-keyboard-response","42","111589","0.0-6.0-0.18","MIGE","3","f","links","22","","fixation","","","",""
"2222","img/L150_180.png","70","image-keyboard-response","43","113830","0.0-6.0-1.18","MIGE","3","f","links","22","","","self","f","150","true"
"null","<div style=""font-size:60px;"">+</div>","null","html-keyboard-response","44","114247","0.0-6.0-0.19","MIGE","3","f","links","22","","fixation","","","",""
"1068","img/L30_180.png","70","image-keyboard-response","45","115333","0.0-6.0-1.19","MIGE","3","f","links","22","","","self","f","30","true"
"null","<div style=""font-size:60px;"">+</div>","null","html-keyboard-response","46","115653","0.0-6.0-0.20","MIGE","3","f","links","22","","fixation","","","",""
"1269","img/90_120.png","70","image-keyboard-response","47","116939","0.0-6.0-1.20","MIGE","3","f","links","22","","","self","f","90","true"
"null","<div style=""font-size:60px;"">+</div>","null","html-keyboard-response","48","117418","0.0-6.0-0.21","MIGE","3","f","links","22","","fixation","","","",""
"1459","img/30_300.png","70","image-keyboard-response","49","118896","0.0-6.0-1.21","MIGE","3","f","links","22","","","self","f","30","true"
"null","<div style=""font-size:60px;"">+</div>","null","html-keyboard-response","50","119307","0.0-6.0-0.22","MIGE","3","f","links","22","","fixation","","","",""
"1210","img/90_180.png","74","image-keyboard-response","51","120528","0.0-6.0-1.22","MIGE","3","f","links","22","","","self","j","90","true"
"null","<div style=""font-size:60px;"">+</div>","null","html-keyboard-response","52","120903","0.0-6.0-0.23","MIGE","3","f","links","22","","fixation","","","",""
"1724","img/30_240.png","70","image-keyboard-response","53","122645","0.0-6.0-1.23","MIGE","3","f","links","22","","","self","f","30","true"
"null","<div style=""font-size:60px;"">+</div>","null","html-keyboard-response","54","123160","0.0-6.0-0.24","MIGE","3","f","links","22","","fixation","","","",""
"589","img/0_270.png","70","image-keyboard-response","55","123767","0.0-6.0-1.24","MIGE","3","f","links","22","","","self","f","0","true"
"null","<div style=""font-size:60px;"">+</div>","null","html-keyboard-response","56","124082","0.0-6.0-0.25","MIGE","3","f","links","22","","fixation","","","",""
"1479","img/90_240.png","74","image-keyboard-response","57","125579","0.0-6.0-1.25","MIGE","3","f","links","22","","","self","j","90","true"
"null","<div style=""font-size:60px;"">+</div>","null","html-keyboard-response","58","125982","0.0-6.0-0.26","MIGE","3","f","links","22","","fixation","","","",""
"1360","img/30_120.png","74","image-keyboard-response","59","127359","0.0-6.0-1.26","MIGE","3","f","links","22","","","self","j","30","true"
"null","<div style=""font-size:60px;"">+</div>","null","html-keyboard-response","60","127686","0.0-6.0-0.27","MIGE","3","f","links","22","","fixation","","","",""
"657","img/0_330.png","70","image-keyboard-response","61","128359","0.0-6.0-1.27","MIGE","3","f","links","22","","","self","f","0","true"
"null","<div style=""font-size:60px;"">+</div>","null","html-keyboard-response","62","128888","0.0-6.0-0.28","MIGE","3","f","links","22","","fixation","","","",""
"1268","img/90_300.png","70","image-keyboard-response","63","130173","0.0-6.0-1.28","MIGE","3","f","links","22","","","self","f","90","true"
"null","<div style=""font-size:60px;"">+</div>","null","html-keyboard-response","64","130528","0.0-6.0-0.29","MIGE","3","f","links","22","","fixation","","","",""
"1550","img/120_90.png","70","image-keyboard-response","65","132095","0.0-6.0-1.29","MIGE","3","f","links","22","","","self","f","120","true"
"null","<div style=""font-size:60px;"">+</div>","null","html-keyboard-response","66","132623","0.0-6.0-0.30","MIGE","3","f","links","22","","fixation","","","",""
"1367","img/30_270.png","70","image-keyboard-response","67","134008","0.0-6.0-1.30","MIGE","3","f","links","22","","","self","f","30","true"
"null","<div style=""font-size:60px;"">+</div>","null","html-keyboard-response","68","134325","0.0-6.0-0.31","MIGE","3","f","links","22","","fixation","","","",""
"731","img/0_90.png","74","image-keyboard-response","69","135074","0.0-6.0-1.31","MIGE","3","f","links","22","","","self","j","0","true"
"null","<div style=""font-size:60px;"">+</div>","null","html-keyboard-response","70","135578","0.0-6.0-0.32","MIGE","3","f","links","22","","fixation","","","",""
"1575","img/90_30.png","74","image-keyboard-response","71","137169","0.0-6.0-1.32","MIGE","3","f","links","22","","","self","j","90","true"
"null","<div style=""font-size:60px;"">+</div>","null","html-keyboard-response","72","137578","0.0-6.0-0.33","MIGE","3","f","links","22","","fixation","","","",""
"1327","img/150_270.png","74","image-keyboard-response","73","138924","0.0-6.0-1.33","MIGE","3","f","links","22","","","self","j","150","true"
"null","<div style=""font-size:60px;"">+</div>","null","html-keyboard-response","74","139341","0.0-6.0-0.34","MIGE","3","f","links","22","","fixation","","","",""
"1376","img/120_30.png","74","image-keyboard-response","75","140735","0.0-6.0-1.34","MIGE","3","f","links","22","","","self","j","120","true"
"null","<div style=""font-size:60px;"">+</div>","null","html-keyboard-response","76","141044","0.0-6.0-0.35","MIGE","3","f","links","22","","fixation","","","",""
"649","img/0_150.png","74","image-keyboard-response","77","141712","0.0-6.0-1.35","MIGE","3","f","links","22","","","self","j","0","true"
"null","<div style=""font-size:60px;"">+</div>","null","html-keyboard-response","78","142191","0.0-6.0-0.36","MIGE","3","f","links","22","","fixation","","","",""
"2260","img/120_210.png","74","image-keyboard-response","79","144467","0.0-6.0-1.36","MIGE","3","f","links","22","","","self","j","120","true"
"null","<div style=""font-size:60px;"">+</div>","null","html-keyboard-response","80","144917","0.0-6.0-0.37","MIGE","3","f","links","22","","fixation","","","",""
"658","img/0_30.png","74","image-keyboard-response","81","145596","0.0-6.0-1.37","MIGE","3","f","links","22","","","self","j","0","true"
"null","<div style=""font-size:60px;"">+</div>","null","html-keyboard-response","82","145948","0.0-6.0-0.38","MIGE","3","f","links","22","","fixation","","","",""
"1395","img/60_270.png","70","image-keyboard-response","83","147360","0.0-6.0-1.38","MIGE","3","f","links","22","","","self","f","60","true"
"null","<div style=""font-size:60px;"">+</div>","null","html-keyboard-response","84","147666","0.0-6.0-0.39","MIGE","3","f","links","22","","fixation","","","",""
"1520","img/150_300.png","74","image-keyboard-response","85","149193","0.0-6.0-1.39","MIGE","3","f","links","22","","","self","j","150","true"
"null","<div style=""font-size:60px;"">+</div>","null","html-keyboard-response","86","149653","0.0-6.0-0.40","MIGE","3","f","links","22","","fixation","","","",""
"829","img/60_180.png","74","image-keyboard-response","87","150498","0.0-6.0-1.40","MIGE","3","f","links","22","","","self","j","60","true"
"null","<div style=""font-size:60px;"">+</div>","null","html-keyboard-response","88","150965","0.0-6.0-0.41","MIGE","3","f","links","22","","fixation","","","",""
"1385","img/150_90.png","70","image-keyboard-response","89","152367","0.0-6.0-1.41","MIGE","3","f","links","22","","","self","f","150","true"
"null","<div style=""font-size:60px;"">+</div>","null","html-keyboard-response","90","152887","0.0-6.0-0.42","MIGE","3","f","links","22","","fixation","","","",""
"1116","img/L90_180.png","70","image-keyboard-response","91","154021","0.0-6.0-1.42","MIGE","3","f","links","22","","","self","f","90","true"
"null","<div style=""font-size:60px;"">+</div>","null","html-keyboard-response","92","154435","0.0-6.0-0.43","MIGE","3","f","links","22","","fixation","","","",""
"1033","img/30_60.png","74","image-keyboard-response","93","155484","0.0-6.0-1.43","MIGE","3","f","links","22","","","self","j","30","true"
"null","<div style=""font-size:60px;"">+</div>","null","html-keyboard-response","94","156008","0.0-6.0-0.44","MIGE","3","f","links","22","","fixation","","","",""
"1686","img/L120_180.png","70","image-keyboard-response","95","157713","0.0-6.0-1.44","MIGE","3","f","links","22","","","self","f","120","true"
"null","<div style=""font-size:60px;"">+</div>","null","html-keyboard-response","96","158041","0.0-6.0-0.45","MIGE","3","f","links","22","","fixation","","","",""
"1339","img/90_210.png","74","image-keyboard-response","97","159399","0.0-6.0-1.45","MIGE","3","f","links","22","","","self","j","90","true"
"null","<div style=""font-size:60px;"">+</div>","null","html-keyboard-response","98","159917","0.0-6.0-0.46","MIGE","3","f","links","22","","fixation","","","",""
"1399","img/150_60.png","70","image-keyboard-response","99","161334","0.0-6.0-1.46","MIGE","3","f","links","22","","","self","f","150","true"
"null","<div style=""font-size:60px;"">+</div>","null","html-keyboard-response","100","161792","0.0-6.0-0.47","MIGE","3","f","links","22","","fixation","","","",""
"1345","img/120_180.png","74","image-keyboard-response","101","163155","0.0-6.0-1.47","MIGE","3","f","links","22","","","self","j","120","true"
"null","<div style=""font-size:60px;"">+</div>","null","html-keyboard-response","102","163526","0.0-6.0-0.48","MIGE","3","f","links","22","","fixation","","","",""
"1444","img/90_60.png","74","image-keyboard-response","103","164978","0.0-6.0-1.48","MIGE","3","f","links","22","","","self","j","90","true"
"null","<div style=""font-size:60px;"">+</div>","null","html-keyboard-response","104","165402","0.0-6.0-0.49","MIGE","3","f","links","22","","fixation","","","",""
"955","img/L60_180.png","70","image-keyboard-response","105","166373","0.0-6.0-1.49","MIGE","3","f","links","22","","","self","f","60","true"
"null","<div style=""font-size:60px;"">+</div>","null","html-keyboard-response","106","166886","0.0-6.0-0.50","MIGE","3","f","links","22","","fixation","","","",""
"1215","img/120_270.png","74","image-keyboard-response","107","168119","0.0-6.0-1.50","MIGE","3","f","links","22","","","self","j","120","true"
"null","<div style=""font-size:60px;"">+</div>","null","html-keyboard-response","108","168432","0.0-6.0-0.51","MIGE","3","f","links","22","","fixation","","","",""
"1423","img/150_180.png","74","image-keyboard-response","109","169873","0.0-6.0-1.51","MIGE","3","f","links","22","","","self","j","150","true"
"null","<div style=""font-size:60px;"">+</div>","null","html-keyboard-response","110","170293","0.0-6.0-0.52","MIGE","3","f","links","22","","fixation","","","",""
"701","img/0_60.png","74","image-keyboard-response","111","171009","0.0-6.0-1.52","MIGE","3","f","links","22","","","self","j","0","true"
"null","<div style=""font-size:60px;"">+</div>","null","html-keyboard-response","112","171511","0.0-6.0-0.53","MIGE","3","f","links","22","","fixation","","","",""
"733","img/0_150.png","74","image-keyboard-response","113","172259","0.0-6.0-1.53","MIGE","3","f","links","22","","","self","j","0","true"
"null","<div style=""font-size:60px;"">+</div>","null","html-keyboard-response","114","172669","0.0-6.0-0.54","MIGE","3","f","links","22","","fixation","","","",""
"973","img/60_30.png","74","image-keyboard-response","115","173653","0.0-6.0-1.54","MIGE","3","f","links","22","","","self","j","60","true"
"null","<div style=""font-size:60px;"">+</div>","null","html-keyboard-response","116","174056","0.0-6.0-0.55","MIGE","3","f","links","22","","fixation","","","",""
"775","img/0_300.png","70","image-keyboard-response","117","174844","0.0-6.0-1.55","MIGE","3","f","links","22","","","self","f","0","true"
"null","<div style=""font-size:60px;"">+</div>","null","html-keyboard-response","118","175246","0.0-6.0-0.56","MIGE","3","f","links","22","","fixation","","","",""
"2531","img/150_180.png","74","image-keyboard-response","119","177786","0.0-6.0-1.56","MIGE","3","f","links","22","","","self","j","150","true"
"null","<div style=""font-size:60px;"">+</div>","null","html-keyboard-response","120","178156","0.0-6.0-0.57","MIGE","3","f","links","22","","fixation","","","",""
"827","img/60_210.png","74","image-keyboard-response","121","178996","0.0-6.0-1.57","MIGE","3","f","links","22","","","self","j","60","true"
"null","<div style=""font-size:60px;"">+</div>","null","html-keyboard-response","122","179406","0.0-6.0-0.58","MIGE","3","f","links","22","","fixation","","","",""
"1088","img/L60_180.png","70","image-keyboard-response","123","180503","0.0-6.0-1.58","MIGE","3","f","links","22","","","self","f","60","true"
"null","<div style=""font-size:60px;"">+</div>","null","html-keyboard-response","124","180813","0.0-6.0-0.59","MIGE","3","f","links","22","","fixation","","","",""
"1167","img/30_270.png","70","image-keyboard-response","125","181989","0.0-6.0-1.59","MIGE","3","f","links","22","","","self","f","30","true"
"null","<div style=""font-size:60px;"">+</div>","null","html-keyboard-response","126","182454","0.0-6.0-0.60","MIGE","3","f","links","22","","fixation","","","",""
"887","img/30_120.png","74","image-keyboard-response","127","183350","0.0-6.0-1.60","MIGE","3","f","links","22","","","self","j","30","true"
"null","<div style=""font-size:60px;"">+</div>","null","html-keyboard-response","128","183673","0.0-6.0-0.61","MIGE","3","f","links","22","","fixation","","","",""
"713","img/0_330.png","70","image-keyboard-response","129","184397","0.0-6.0-1.61","MIGE","3","f","links","22","","","self","f","0","true"
"null","<div style=""font-size:60px;"">+</div>","null","html-keyboard-response","130","184829","0.0-6.0-0.62","MIGE","3","f","links","22","","fixation","","","",""
"1469","img/120_180.png","74","image-keyboard-response","131","186310","0.0-6.0-1.62","MIGE","3","f","links","22","","","self","j","120","true"
"null","<div style=""font-size:60px;"">+</div>","null","html-keyboard-response","132","186673","0.0-6.0-0.63","MIGE","3","f","links","22","","fixation","","","",""
"1864","img/150_240.png","74","image-keyboard-response","133","188549","0.0-6.0-1.63","MIGE","3","f","links","22","","","self","j","150","true"
"null","<div style=""font-size:60px;"">+</div>","null","html-keyboard-response","134","189059","0.0-6.0-0.64","MIGE","3","f","links","22","","fixation","","","",""
"2611","img/120_30.png","70","image-keyboard-response","135","191679","0.0-6.0-1.64","MIGE","3","f","links","22","","","self","j","120","false"
"null","<div style=""font-size:60px;"">+</div>","null","html-keyboard-response","136","191987","0.0-6.0-0.65","MIGE","3","f","links","22","","fixation","","","",""
"1417","img/120_150.png","70","image-keyboard-response","137","193418","0.0-6.0-1.65","MIGE","3","f","links","22","","","self","f","120","true"
"null","<div style=""font-size:60px;"">+</div>","null","html-keyboard-response","138","193784","0.0-6.0-0.66","MIGE","3","f","links","22","","fixation","","","",""
"1427","img/150_90.png","70","image-keyboard-response","139","195220","0.0-6.0-1.66","MIGE","3","f","links","22","","","self","f","150","true"
"null","<div style=""font-size:60px;"">+</div>","null","html-keyboard-response","140","195528","0.0-6.0-0.67","MIGE","3","f","links","22","","fixation","","","",""
"1375","img/150_120.png","70","image-keyboard-response","141","196918","0.0-6.0-1.67","MIGE","3","f","links","22","","","self","f","150","true"
"null","<div style=""font-size:60px;"">+</div>","null","html-keyboard-response","142","197450","0.0-6.0-0.68","MIGE","3","f","links","22","","fixation","","","",""
"683","img/0_270.png","70","image-keyboard-response","143","198145","0.0-6.0-1.68","MIGE","3","f","links","22","","","self","f","0","true"
"null","<div style=""font-size:60px;"">+</div>","null","html-keyboard-response","144","198558","0.0-6.0-0.69","MIGE","3","f","links","22","","fixation","","","",""
"1282","img/L150_180.png","70","image-keyboard-response","145","199855","0.0-6.0-1.69","MIGE","3","f","links","22","","","self","f","150","true"
"null","<div style=""font-size:60px;"">+</div>","null","html-keyboard-response","146","200308","0.0-6.0-0.70","MIGE","3","f","links","22","","fixation","","","",""
"1023","img/120_210.png","74","image-keyboard-response","147","201341","0.0-6.0-1.70","MIGE","3","f","links","22","","","self","j","120","true"
"null","<div style=""font-size:60px;"">+</div>","null","html-keyboard-response","148","201652","0.0-6.0-0.71","MIGE","3","f","links","22","","fixation","","","",""
"1212","img/60_90.png","74","image-keyboard-response","149","202869","0.0-6.0-1.71","MIGE","3","f","links","22","","","self","j","60","true"
"null","<div style=""font-size:60px;"">+</div>","null","html-keyboard-response","150","203294","0.0-6.0-0.72","MIGE","3","f","links","22","","fixation","","","",""
"1671","img/60_180.png","74","image-keyboard-response","151","204973","0.0-6.0-1.72","MIGE","3","f","links","22","","","self","j","60","true"
"null","<div style=""font-size:60px;"">+</div>","null","html-keyboard-response","152","205295","0.0-6.0-0.73","MIGE","3","f","links","22","","fixation","","","",""
"1173","img/30_300.png","70","image-keyboard-response","153","206480","0.0-6.0-1.73","MIGE","3","f","links","22","","","self","f","30","true"
"null","<div style=""font-size:60px;"">+</div>","null","html-keyboard-response","154","206983","0.0-6.0-0.74","MIGE","3","f","links","22","","fixation","","","",""
"1020","img/30_60.png","74","image-keyboard-response","155","208012","0.0-6.0-1.74","MIGE","3","f","links","22","","","self","j","30","true"
"null","<div style=""font-size:60px;"">+</div>","null","html-keyboard-response","156","208514","0.0-6.0-0.75","MIGE","3","f","links","22","","fixation","","","",""
"590","img/0_240.png","70","image-keyboard-response","157","209112","0.0-6.0-1.75","MIGE","3","f","links","22","","","self","f","0","true"
"null","<div style=""font-size:60px;"">+</div>","null","html-keyboard-response","158","209420","0.0-6.0-0.76","MIGE","3","f","links","22","","fixation","","","",""
"894","img/60_330.png","74","image-keyboard-response","159","210327","0.0-6.0-1.76","MIGE","3","f","links","22","","","self","f","60","false"
"null","<div style=""font-size:60px;"">+</div>","null","html-keyboard-response","160","210843","0.0-6.0-0.77","MIGE","3","f","links","22","","fixation","","","",""
"1622","img/90_330.png","70","image-keyboard-response","161","212477","0.0-6.0-1.77","MIGE","3","f","links","22","","","self","f","90","true"
"null","<div style=""font-size:60px;"">+</div>","null","html-keyboard-response","162","212888","0.0-6.0-0.78","MIGE","3","f","links","22","","fixation","","","",""
"1400","img/L90_180.png","70","image-keyboard-response","163","214298","0.0-6.0-1.78","MIGE","3","f","links","22","","","self","f","90","true"
"null","<div style=""font-size:60px;"">+</div>","null","html-keyboard-response","164","214779","0.0-6.0-0.79","MIGE","3","f","links","22","","fixation","","","",""
"678","img/0_120.png","74","image-keyboard-response","165","215471","0.0-6.0-1.79","MIGE","3","f","links","22","","","self","j","0","true"
"null","<div style=""font-size:60px;"">+</div>","null","html-keyboard-response","166","215874","0.0-6.0-0.80","MIGE","3","f","links","22","","fixation","","","",""
"1215","img/L120_180.png","70","image-keyboard-response","167","217102","0.0-6.0-1.80","MIGE","3","f","links","22","","","self","f","120","true"
"null","<div style=""font-size:60px;"">+</div>","null","html-keyboard-response","168","217608","0.0-6.0-0.81","MIGE","3","f","links","22","","fixation","","","",""
"1177","img/120_270.png","74","image-keyboard-response","169","218790","0.0-6.0-1.81","MIGE","3","f","links","22","","","self","j","120","true"
"null","<div style=""font-size:60px;"">+</div>","null","html-keyboard-response","170","219108","0.0-6.0-0.82","MIGE","3","f","links","22","","fixation","","","",""
"714","img/0_90.png","74","image-keyboard-response","171","219836","0.0-6.0-1.82","MIGE","3","f","links","22","","","self","j","0","true"
"null","<div style=""font-size:60px;"">+</div>","null","html-keyboard-response","172","220342","0.0-6.0-0.83","MIGE","3","f","links","22","","fixation","","","",""
"1041","img/90_180.png","74","image-keyboard-response","173","221399","0.0-6.0-1.83","MIGE","3","f","links","22","","","self","j","90","true"
"null","<div style=""font-size:60px;"">+</div>","null","html-keyboard-response","174","221777","0.0-6.0-0.84","MIGE","3","f","links","22","","fixation","","","",""
"1117","img/90_240.png","74","image-keyboard-response","175","222907","0.0-6.0-1.84","MIGE","3","f","links","22","","","self","j","90","true"
"null","<div style=""font-size:60px;"">+</div>","null","html-keyboard-response","176","223212","0.0-6.0-0.85","MIGE","3","f","links","22","","fixation","","","",""
"1329","img/90_120.png","70","image-keyboard-response","177","224549","0.0-6.0-1.85","MIGE","3","f","links","22","","","self","f","90","true"
"null","<div style=""font-size:60px;"">+</div>","null","html-keyboard-response","178","224978","0.0-6.0-0.86","MIGE","3","f","links","22","","fixation","","","",""
"1076","img/30_180.png","74","image-keyboard-response","179","226067","0.0-6.0-1.86","MIGE","3","f","links","22","","","self","j","30","true"
"null","<div style=""font-size:60px;"">+</div>","null","html-keyboard-response","180","226368","0.0-6.0-0.87","MIGE","3","f","links","22","","fixation","","","",""
"950","img/60_150.png","70","image-keyboard-response","181","227336","0.0-6.0-1.87","MIGE","3","f","links","22","","","self","f","60","true"
"null","<div style=""font-size:60px;"">+</div>","null","html-keyboard-response","182","227744","0.0-6.0-0.88","MIGE","3","f","links","22","","fixation","","","",""
"1099","img/90_150.png","70","image-keyboard-response","183","228856","0.0-6.0-1.88","MIGE","3","f","links","22","","","self","f","90","true"
"null","<div style=""font-size:60px;"">+</div>","null","html-keyboard-response","184","229165","0.0-6.0-0.89","MIGE","3","f","links","22","","fixation","","","",""
"1809","img/90_60.png","70","image-keyboard-response","185","230983","0.0-6.0-1.89","MIGE","3","f","links","22","","","self","j","90","false"
"null","<div style=""font-size:60px;"">+</div>","null","html-keyboard-response","186","231294","0.0-6.0-0.90","MIGE","3","f","links","22","","fixation","","","",""
"2730","img/90_300.png","70","image-keyboard-response","187","234038","0.0-6.0-1.90","MIGE","3","f","links","22","","","self","f","90","true"
"null","<div style=""font-size:60px;"">+</div>","null","html-keyboard-response","188","234502","0.0-6.0-0.91","MIGE","3","f","links","22","","fixation","","","",""
"1090","img/30_90.png","74","image-keyboard-response","189","235605","0.0-6.0-1.91","MIGE","3","f","links","22","","","self","j","30","true"
"null","<div style=""font-size:60px;"">+</div>","null","html-keyboard-response","190","235965","0.0-6.0-0.92","MIGE","3","f","links","22","","fixation","","","",""
"1700","img/150_60.png","70","image-keyboard-response","191","237679","0.0-6.0-1.92","MIGE","3","f","links","22","","","self","f","150","true"
"null","<div style=""font-size:60px;"">+</div>","null","html-keyboard-response","192","237986","0.0-6.0-0.93","MIGE","3","f","links","22","","fixation","","","",""
"1309","img/120_90.png","70","image-keyboard-response","193","239308","0.0-6.0-1.93","MIGE","3","f","links","22","","","self","f","120","true"
"null","<div style=""font-size:60px;"">+</div>","null","html-keyboard-response","194","239671","0.0-6.0-0.94","MIGE","3","f","links","22","","fixation","","","",""
"781","img/0_30.png","74","image-keyboard-response","195","240457","0.0-6.0-1.94","MIGE","3","f","links","22","","","self","j","0","true"
"null","<div style=""font-size:60px;"">+</div>","null","html-keyboard-response","196","240813","0.0-6.0-0.95","MIGE","3","f","links","22","","fixation","","","",""
"2347","img/30_240.png","74","image-keyboard-response","197","243173","0.0-6.0-1.95","MIGE","3","f","links","22","","","self","f","30","false"
"null","<div style=""font-size:60px;"">+</div>","null","html-keyboard-response","198","243481","0.0-6.0-0.96","MIGE","3","f","links","22","","fixation","","","",""
"956","img/0_210.png","70","image-keyboard-response","199","244450","0.0-6.0-1.96","MIGE","3","f","links","22","","","self","f","0","true"
"null","<div style=""font-size:60px;"">+</div>","null","html-keyboard-response","200","244857","0.0-6.0-0.97","MIGE","3","f","links","22","","fixation","","","",""
"1818","img/90_30.png","74","image-keyboard-response","201","246688","0.0-6.0-1.97","MIGE","3","f","links","22","","","self","j","90","true"
"null","<div style=""font-size:60px;"">+</div>","null","html-keyboard-response","202","247111","0.0-6.0-0.98","MIGE","3","f","links","22","","fixation","","","",""
"1295","img/150_270.png","74","image-keyboard-response","203","248422","0.0-6.0-1.98","MIGE","3","f","links","22","","","self","j","150","true"
"null","<div style=""font-size:60px;"">+</div>","null","html-keyboard-response","204","248939","0.0-6.0-0.99","MIGE","3","f","links","22","","fixation","","","",""
"1663","img/60_270.png","70","image-keyboard-response","205","250617","0.0-6.0-1.99","MIGE","3","f","links","22","","","self","f","60","true"
"null","<div style=""font-size:60px;"">+</div>","null","html-keyboard-response","206","250925","0.0-6.0-0.100","MIGE","3","f","links","22","","fixation","","","",""
"1385","img/90_210.png","74","image-keyboard-response","207","252324","0.0-6.0-1.100","MIGE","3","f","links","22","","","self","j","90","true"
"null","<div style=""font-size:60px;"">+</div>","null","html-keyboard-response","208","252784","0.0-6.0-0.101","MIGE","3","f","links","22","","fixation","","","",""
"1384","img/150_300.png","74","image-keyboard-response","209","254182","0.0-6.0-1.101","MIGE","3","f","links","22","","","self","j","150","true"
"null","<div style=""font-size:60px;"">+</div>","null","html-keyboard-response","210","254549","0.0-6.0-0.102","MIGE","3","f","links","22","","fixation","","","",""
"1091","img/L30_180.png","70","image-keyboard-response","211","255653","0.0-6.0-1.102","MIGE","3","f","links","22","","","self","f","30","true"
"null","<div style=""font-size:60px;"">+</div>","null","html-keyboard-response","212","256116","0.0-6.0-0.103","MIGE","3","f","links","22","","fixation","","","",""
"1551","img/120_330.png","74","image-keyboard-response","213","257680","0.0-6.0-1.103","MIGE","3","f","links","22","","","self","f","120","false"
"null","<div style=""font-size:60px;"">+</div>","null","html-keyboard-response","214","257990","0.0-6.0-0.104","MIGE","3","f","links","22","","fixation","","","",""
"940","img/30_60.png","74","image-keyboard-response","215","258940","0.0-6.0-1.104","MIGE","3","f","links","22","","","self","j","30","true"
"null","<div style=""font-size:60px;"">+</div>","null","html-keyboard-response","216","259255","0.0-6.0-0.105","MIGE","3","f","links","22","","fixation","","","",""
"1043","img/30_270.png","70","image-keyboard-response","217","260312","0.0-6.0-1.105","MIGE","3","f","links","22","","","self","f","30","true"
"null","<div style=""font-size:60px;"">+</div>","null","html-keyboard-response","218","260835","0.0-6.0-0.106","MIGE","3","f","links","22","","fixation","","","",""
"1043","img/150_300.png","74","image-keyboard-response","219","261888","0.0-6.0-1.106","MIGE","3","f","links","22","","","self","j","150","true"
"null","<div style=""font-size:60px;"">+</div>","null","html-keyboard-response","220","262398","0.0-6.0-0.107","MIGE","3","f","links","22","","fixation","","","",""
"1056","img/30_240.png","70","image-keyboard-response","221","263463","0.0-6.0-1.107","MIGE","3","f","links","22","","","self","f","30","true"
"null","<div style=""font-size:60px;"">+</div>","null","html-keyboard-response","222","263773","0.0-6.0-0.108","MIGE","3","f","links","22","","fixation","","","",""
"1108","img/60_90.png","74","image-keyboard-response","223","264891","0.0-6.0-1.108","MIGE","3","f","links","22","","","self","j","60","true"
"null","<div style=""font-size:60px;"">+</div>","null","html-keyboard-response","224","265350","0.0-6.0-0.109","MIGE","3","f","links","22","","fixation","","","",""
"811","img/60_180.png","74","image-keyboard-response","225","266174","0.0-6.0-1.109","MIGE","3","f","links","22","","","self","j","60","true"
"null","<div style=""font-size:60px;"">+</div>","null","html-keyboard-response","226","266537","0.0-6.0-0.110","MIGE","3","f","links","22","","fixation","","","",""
"1424","img/120_90.png","70","image-keyboard-response","227","267973","0.0-6.0-1.110","MIGE","3","f","links","22","","","self","f","120","true"
"null","<div style=""font-size:60px;"">+</div>","null","html-keyboard-response","228","268476","0.0-6.0-0.111","MIGE","3","f","links","22","","fixation","","","",""
"1164","img/30_300.png","70","image-keyboard-response","229","269649","0.0-6.0-1.111","MIGE","3","f","links","22","","","self","f","30","true"
"null","<div style=""font-size:60px;"">+</div>","null","html-keyboard-response","230","270016","0.0-6.0-0.112","MIGE","3","f","links","22","","fixation","","","",""
"1705","img/L120_180.png","70","image-keyboard-response","231","271732","0.0-6.0-1.112","MIGE","3","f","links","22","","","self","f","120","true"
"null","<div style=""font-size:60px;"">+</div>","null","html-keyboard-response","232","272039","0.0-6.0-0.113","MIGE","3","f","links","22","","fixation","","","",""
"849","img/30_120.png","74","image-keyboard-response","233","272901","0.0-6.0-1.113","MIGE","3","f","links","22","","","self","j","30","true"
"null","<div style=""font-size:60px;"">+</div>","null","html-keyboard-response","234","273258","0.0-6.0-0.114","MIGE","3","f","links","22","","fixation","","","",""
"940","img/60_150.png","70","image-keyboard-response","235","274207","0.0-6.0-1.114","MIGE","3","f","links","22","","","self","f","60","true"
"null","<div style=""font-size:60px;"">+</div>","null","html-keyboard-response","236","274585","0.0-6.0-0.115","MIGE","3","f","links","22","","fixation","","","",""
"1209","img/60_330.png","70","image-keyboard-response","237","275804","0.0-6.0-1.115","MIGE","3","f","links","22","","","self","f","60","true"
"null","<div style=""font-size:60px;"">+</div>","null","html-keyboard-response","238","276117","0.0-6.0-0.116","MIGE","3","f","links","22","","fixation","","","",""
"1599","img/150_120.png","70","image-keyboard-response","239","277730","0.0-6.0-1.116","MIGE","3","f","links","22","","","self","f","150","true"
"null","<div style=""font-size:60px;"">+</div>","null","html-keyboard-response","240","278102","0.0-6.0-0.117","MIGE","3","f","links","22","","fixation","","","",""
"1315","img/90_120.png","70","image-keyboard-response","241","279427","0.0-6.0-1.117","MIGE","3","f","links","22","","","self","f","90","true"
"null","<div style=""font-size:60px;"">+</div>","null","html-keyboard-response","242","279851","0.0-6.0-0.118","MIGE","3","f","links","22","","fixation","","","",""
"2610","img/120_330.png","74","image-keyboard-response","243","282471","0.0-6.0-1.118","MIGE","3","f","links","22","","","self","f","120","false"
"null","<div style=""font-size:60px;"">+</div>","null","html-keyboard-response","244","282934","0.0-6.0-0.119","MIGE","3","f","links","22","","fixation","","","",""
"641","img/0_150.png","74","image-keyboard-response","245","283589","0.0-6.0-1.119","MIGE","3","f","links","22","","","self","j","0","true"
"null","<div style=""font-size:60px;"">+</div>","null","html-keyboard-response","246","284106","0.0-6.0-0.120","MIGE","3","f","links","22","","fixation","","","",""
"1417","img/90_240.png","74","image-keyboard-response","247","285535","0.0-6.0-1.120","MIGE","3","f","links","22","","","self","j","90","true"
"null","<div style=""font-size:60px;"">+</div>","null","html-keyboard-response","248","286057","0.0-6.0-0.121","MIGE","3","f","links","22","","fixation","","","",""
"1401","img/150_270.png","74","image-keyboard-response","249","287468","0.0-6.0-1.121","MIGE","3","f","links","22","","","self","j","150","true"
"null","<div style=""font-size:60px;"">+</div>","null","html-keyboard-response","250","287979","0.0-6.0-0.122","MIGE","3","f","links","22","","fixation","","","",""
"1897","img/150_180.png","74","image-keyboard-response","251","289891","0.0-6.0-1.122","MIGE","3","f","links","22","","","self","j","150","true"
"null","<div style=""font-size:60px;"">+</div>","null","html-keyboard-response","252","290214","0.0-6.0-0.123","MIGE","3","f","links","22","","fixation","","","",""
"663","img/0_60.png","74","image-keyboard-response","253","290890","0.0-6.0-1.123","MIGE","3","f","links","22","","","self","j","0","true"
"null","<div style=""font-size:60px;"">+</div>","null","html-keyboard-response","254","291354","0.0-6.0-0.124","MIGE","3","f","links","22","","fixation","","","",""
"2497","img/90_60.png","70","image-keyboard-response","255","293861","0.0-6.0-1.124","MIGE","3","f","links","22","","","self","j","90","false"
"null","<div style=""font-size:60px;"">+</div>","null","html-keyboard-response","256","294385","0.0-6.0-0.125","MIGE","3","f","links","22","","fixation","","","",""
"1828","img/90_300.png","70","image-keyboard-response","257","296224","0.0-6.0-1.125","MIGE","3","f","links","22","","","self","f","90","true"
"null","<div style=""font-size:60px;"">+</div>","null","html-keyboard-response","258","296635","0.0-6.0-0.126","MIGE","3","f","links","22","","fixation","","","",""
"1750","img/90_210.png","74","image-keyboard-response","259","298394","0.0-6.0-1.126","MIGE","3","f","links","22","","","self","j","90","true"
"null","<div style=""font-size:60px;"">+</div>","null","html-keyboard-response","260","298900","0.0-6.0-0.127","MIGE","3","f","links","22","","fixation","","","",""
"744","img/0_90.png","74","image-keyboard-response","261","299654","0.0-6.0-1.127","MIGE","3","f","links","22","","","self","j","0","true"
"null","<div style=""font-size:60px;"">+</div>","null","html-keyboard-response","262","300073","0.0-6.0-0.128","MIGE","3","f","links","22","","fixation","","","",""
"1582","img/150_60.png","70","image-keyboard-response","263","301667","0.0-6.0-1.128","MIGE","3","f","links","22","","","self","f","150","true"
"null","<div style=""font-size:60px;"">+</div>","null","html-keyboard-response","264","301981","0.0-6.0-0.129","MIGE","3","f","links","22","","fixation","","","",""
"833","img/0_300.png","70","image-keyboard-response","265","302827","0.0-6.0-1.129","MIGE","3","f","links","22","","","self","f","0","true"
"null","<div style=""font-size:60px;"">+</div>","null","html-keyboard-response","266","303294","0.0-6.0-0.130","MIGE","3","f","links","22","","fixation","","","",""
"1073","img/L90_180.png","70","image-keyboard-response","267","304380","0.0-6.0-1.130","MIGE","3","f","links","22","","","self","f","90","true"
"null","<div style=""font-size:60px;"">+</div>","null","html-keyboard-response","268","304843","0.0-6.0-0.131","MIGE","3","f","links","22","","fixation","","","",""
"1617","img/150_90.png","70","image-keyboard-response","269","306472","0.0-6.0-1.131","MIGE","3","f","links","22","","","self","f","150","true"
"null","<div style=""font-size:60px;"">+</div>","null","html-keyboard-response","270","306825","0.0-6.0-0.132","MIGE","3","f","links","22","","fixation","","","",""
"1827","img/150_240.png","74","image-keyboard-response","271","308666","0.0-6.0-1.132","MIGE","3","f","links","22","","","self","j","150","true"
"null","<div style=""font-size:60px;"">+</div>","null","html-keyboard-response","272","308981","0.0-6.0-0.133","MIGE","3","f","links","22","","fixation","","","",""
"1402","img/120_210.png","74","image-keyboard-response","273","310398","0.0-6.0-1.133","MIGE","3","f","links","22","","","self","j","120","true"
"null","<div style=""font-size:60px;"">+</div>","null","html-keyboard-response","274","310761","0.0-6.0-0.134","MIGE","3","f","links","22","","fixation","","","",""
"770","img/0_30.png","74","image-keyboard-response","275","311536","0.0-6.0-1.134","MIGE","3","f","links","22","","","self","j","0","true"
"null","<div style=""font-size:60px;"">+</div>","null","html-keyboard-response","276","312043","0.0-6.0-0.135","MIGE","3","f","links","22","","fixation","","","",""
"1762","img/L150_180.png","70","image-keyboard-response","277","313819","0.0-6.0-1.135","MIGE","3","f","links","22","","","self","f","150","true"
"null","<div style=""font-size:60px;"">+</div>","null","html-keyboard-response","278","314230","0.0-6.0-0.136","MIGE","3","f","links","22","","fixation","","","",""
"666","img/0_120.png","74","image-keyboard-response","279","314909","0.0-6.0-1.136","MIGE","3","f","links","22","","","self","j","0","true"
"null","<div style=""font-size:60px;"">+</div>","null","html-keyboard-response","280","315325","0.0-6.0-0.137","MIGE","3","f","links","22","","fixation","","","",""
"935","img/30_180.png","70","image-keyboard-response","281","316272","0.0-6.0-1.137","MIGE","3","f","links","22","","","self","j","30","false"
"null","<div style=""font-size:60px;"">+</div>","null","html-keyboard-response","282","316779","0.0-6.0-0.138","MIGE","3","f","links","22","","fixation","","","",""
"1885","img/L30_180.png","70","image-keyboard-response","283","318673","0.0-6.0-1.138","MIGE","3","f","links","22","","","self","f","30","true"
"null","<div style=""font-size:60px;"">+</div>","null","html-keyboard-response","284","319138","0.0-6.0-0.139","MIGE","3","f","links","22","","fixation","","","",""
"2549","img/90_30.png","74","image-keyboard-response","285","321696","0.0-6.0-1.139","MIGE","3","f","links","22","","","self","j","90","true"
"null","<div style=""font-size:60px;"">+</div>","null","html-keyboard-response","286","322051","0.0-6.0-0.140","MIGE","3","f","links","22","","fixation","","","",""
"2334","img/120_180.png","74","image-keyboard-response","287","324398","0.0-6.0-1.140","MIGE","3","f","links","22","","","self","j","120","true"
"null","<div style=""font-size:60px;"">+</div>","null","html-keyboard-response","288","324909","0.0-6.0-0.141","MIGE","3","f","links","22","","fixation","","","",""
"889","img/0_210.png","70","image-keyboard-response","289","325810","0.0-6.0-1.141","MIGE","3","f","links","22","","","self","f","0","true"
"null","<div style=""font-size:60px;"">+</div>","null","html-keyboard-response","290","326268","0.0-6.0-0.142","MIGE","3","f","links","22","","fixation","","","",""
"1357","img/30_90.png","74","image-keyboard-response","291","327635","0.0-6.0-1.142","MIGE","3","f","links","22","","","self","j","30","true"
"null","<div style=""font-size:60px;"">+</div>","null","html-keyboard-response","292","328143","0.0-6.0-0.143","MIGE","3","f","links","22","","fixation","","","",""
"1549","img/90_180.png","74","image-keyboard-response","293","329705","0.0-6.0-1.143","MIGE","3","f","links","22","","","self","j","90","true"
"null","<div style=""font-size:60px;"">+</div>","null","html-keyboard-response","294","330017","0.0-6.0-0.144","MIGE","3","f","links","22","","fixation","","","",""
"1405","img/120_270.png","74","image-keyboard-response","295","331436","0.0-6.0-1.144","MIGE","3","f","links","22","","","self","j","120","true"
"null","<div style=""font-size:60px;"">+</div>","null","html-keyboard-response","296","331848","0.0-6.0-0.145","MIGE","3","f","links","22","","fixation","","","",""
"1007","img/L60_180.png","70","image-keyboard-response","297","332864","0.0-6.0-1.145","MIGE","3","f","links","22","","","self","f","60","true"
"null","<div style=""font-size:60px;"">+</div>","null","html-keyboard-response","298","333318","0.0-6.0-0.146","MIGE","3","f","links","22","","fixation","","","",""
"2407","img/90_330.png","70","image-keyboard-response","299","335738","0.0-6.0-1.146","MIGE","3","f","links","22","","","self","f","90","true"
"null","<div style=""font-size:60px;"">+</div>","null","html-keyboard-response","300","336063","0.0-6.0-0.147","MIGE","3","f","links","22","","fixation","","","",""
"1291","img/60_270.png","70","image-keyboard-response","301","337366","0.0-6.0-1.147","MIGE","3","f","links","22","","","self","f","60","true"
"null","<div style=""font-size:60px;"">+</div>","null","html-keyboard-response","302","337718","0.0-6.0-0.148","MIGE","3","f","links","22","","fixation","","","",""
"2270","img/120_30.png","74","image-keyboard-response","303","340004","0.0-6.0-1.148","MIGE","3","f","links","22","","","self","j","120","true"
"null","<div style=""font-size:60px;"">+</div>","null","html-keyboard-response","304","340368","0.0-6.0-0.149","MIGE","3","f","links","22","","fixation","","","",""
"1098","img/60_30.png","74","image-keyboard-response","305","341483","0.0-6.0-1.149","MIGE","3","f","links","22","","","self","j","60","true"
"null","<div style=""font-size:60px;"">+</div>","null","html-keyboard-response","306","341885","0.0-6.0-0.150","MIGE","3","f","links","22","","fixation","","","",""
"2049","img/120_150.png","70","image-keyboard-response","307","343947","0.0-6.0-1.150","MIGE","3","f","links","22","","","self","f","120","true"
"null","<div style=""font-size:60px;"">+</div>","null","html-keyboard-response","308","344464","0.0-6.0-0.151","MIGE","3","f","links","22","","fixation","","","",""
"734","img/0_240.png","70","image-keyboard-response","309","345206","0.0-6.0-1.151","MIGE","3","f","links","22","","","self","f","0","true"
"null","<div style=""font-size:60px;"">+</div>","null","html-keyboard-response","310","345572","0.0-6.0-0.152","MIGE","3","f","links","22","","fixation","","","",""
"1117","img/90_150.png","70","image-keyboard-response","311","346704","0.0-6.0-1.152","MIGE","3","f","links","22","","","self","f","90","true"
"null","<div style=""font-size:60px;"">+</div>","null","html-keyboard-response","312","347056","0.0-6.0-0.153","MIGE","3","f","links","22","","fixation","","","",""
"1207","img/60_210.png","74","image-keyboard-response","313","348276","0.0-6.0-1.153","MIGE","3","f","links","22","","","self","j","60","true"
"null","<div style=""font-size:60px;"">+</div>","null","html-keyboard-response","314","348602","0.0-6.0-0.154","MIGE","3","f","links","22","","fixation","","","",""
"719","img/0_330.png","70","image-keyboard-response","315","349336","0.0-6.0-1.154","MIGE","3","f","links","22","","","self","f","0","true"
"null","<div style=""font-size:60px;"">+</div>","null","html-keyboard-response","316","349744","0.0-6.0-0.155","MIGE","3","f","links","22","","fixation","","","",""
"636","img/0_270.png","70","image-keyboard-response","317","350393","0.0-6.0-1.155","MIGE","3","f","links","22","","","self","f","0","true"
"null","<div style=""font-size:60px;"">+</div>","null","html-keyboard-response","318","350853","0.0-6.0-0.156","MIGE","3","f","links","22","","fixation","","","",""
"1317","img/30_120.png","70","image-keyboard-response","319","352181","0.0-6.0-1.156","MIGE","3","f","links","22","","","self","j","30","false"
"null","<div style=""font-size:60px;"">+</div>","null","html-keyboard-response","320","352700","0.0-6.0-0.157","MIGE","3","f","links","22","","fixation","","","",""
"2305","img/150_60.png","74","image-keyboard-response","321","355017","0.0-6.0-1.157","MIGE","3","f","links","22","","","self","f","150","false"
"null","<div style=""font-size:60px;"">+</div>","null","html-keyboard-response","322","355519","0.0-6.0-0.158","MIGE","3","f","links","22","","fixation","","","",""
"2364","img/90_300.png","70","image-keyboard-response","323","357896","0.0-6.0-1.158","MIGE","3","f","links","22","","","self","f","90","true"
"null","<div style=""font-size:60px;"">+</div>","null","html-keyboard-response","324","358207","0.0-6.0-0.159","MIGE","3","f","links","22","","fixation","","","",""
"1420","img/90_210.png","74","image-keyboard-response","325","359640","0.0-6.0-1.159","MIGE","3","f","links","22","","","self","j","90","true"
"null","<div style=""font-size:60px;"">+</div>","null","html-keyboard-response","326","360151","0.0-6.0-0.160","MIGE","3","f","links","22","","fixation","","","",""
"1150","img/L30_180.png","70","image-keyboard-response","327","361315","0.0-6.0-1.160","MIGE","3","f","links","22","","","self","f","30","true"
"null","<div style=""font-size:60px;"">+</div>","null","html-keyboard-response","328","361792","0.0-6.0-0.161","MIGE","3","f","links","22","","fixation","","","",""
"1329","img/150_270.png","74","image-keyboard-response","329","363128","0.0-6.0-1.161","MIGE","3","f","links","22","","","self","j","150","true"
"null","<div style=""font-size:60px;"">+</div>","null","html-keyboard-response","330","363494","0.0-6.0-0.162","MIGE","3","f","links","22","","fixation","","","",""
"2105","img/90_30.png","74","image-keyboard-response","331","365614","0.0-6.0-1.162","MIGE","3","f","links","22","","","self","j","90","true"
"null","<div style=""font-size:60px;"">+</div>","null","html-keyboard-response","332","366025","0.0-6.0-0.163","MIGE","3","f","links","22","","fixation","","","",""
"680","img/0_90.png","74","image-keyboard-response","333","366717","0.0-6.0-1.163","MIGE","3","f","links","22","","","self","j","0","true"
"null","<div style=""font-size:60px;"">+</div>","null","html-keyboard-response","334","367128","0.0-6.0-0.164","MIGE","3","f","links","22","","fixation","","","",""
"2321","img/120_90.png","70","image-keyboard-response","335","369462","0.0-6.0-1.164","MIGE","3","f","links","22","","","self","f","120","true"
"null","<div style=""font-size:60px;"">+</div>","null","html-keyboard-response","336","369830","0.0-6.0-0.165","MIGE","3","f","links","22","","fixation","","","",""
"1157","img/120_180.png","74","image-keyboard-response","337","370991","0.0-6.0-1.165","MIGE","3","f","links","22","","","self","j","120","true"
"null","<div style=""font-size:60px;"">+</div>","null","html-keyboard-response","338","371372","0.0-6.0-0.166","MIGE","3","f","links","22","","fixation","","","",""
"677","img/0_150.png","74","image-keyboard-response","339","372061","0.0-6.0-1.166","MIGE","3","f","links","22","","","self","j","0","true"
"null","<div style=""font-size:60px;"">+</div>","null","html-keyboard-response","340","372372","0.0-6.0-0.167","MIGE","3","f","links","22","","fixation","","","",""
"1194","img/150_300.png","74","image-keyboard-response","341","373579","0.0-6.0-1.167","MIGE","3","f","links","22","","","self","j","150","true"
"null","<div style=""font-size:60px;"">+</div>","null","html-keyboard-response","342","373903","0.0-6.0-0.168","MIGE","3","f","links","22","","fixation","","","",""
"945","img/60_150.png","70","image-keyboard-response","343","374861","0.0-6.0-1.168","MIGE","3","f","links","22","","","self","f","60","true"
"null","<div style=""font-size:60px;"">+</div>","null","html-keyboard-response","344","375340","0.0-6.0-0.169","MIGE","3","f","links","22","","fixation","","","",""
"1104","img/60_270.png","70","image-keyboard-response","345","376458","0.0-6.0-1.169","MIGE","3","f","links","22","","","self","f","60","true"
"null","<div style=""font-size:60px;"">+</div>","null","html-keyboard-response","346","376839","0.0-6.0-0.170","MIGE","3","f","links","22","","fixation","","","",""
"938","img/30_180.png","74","image-keyboard-response","347","377787","0.0-6.0-1.170","MIGE","3","f","links","22","","","self","j","30","true"
"null","<div style=""font-size:60px;"">+</div>","null","html-keyboard-response","348","378294","0.0-6.0-0.171","MIGE","3","f","links","22","","fixation","","","",""
"1204","img/120_210.png","74","image-keyboard-response","349","379509","0.0-6.0-1.171","MIGE","3","f","links","22","","","self","j","120","true"
"null","<div style=""font-size:60px;"">+</div>","null","html-keyboard-response","350","379825","0.0-6.0-0.172","MIGE","3","f","links","22","","fixation","","","",""
"1055","img/150_90.png","70","image-keyboard-response","351","380891","0.0-6.0-1.172","MIGE","3","f","links","22","","","self","f","150","true"
"null","<div style=""font-size:60px;"">+</div>","null","html-keyboard-response","352","381294","0.0-6.0-0.173","MIGE","3","f","links","22","","fixation","","","",""
"968","img/30_270.png","70","image-keyboard-response","353","382275","0.0-6.0-1.173","MIGE","3","f","links","22","","","self","f","30","true"
"null","<div style=""font-size:60px;"">+</div>","null","html-keyboard-response","354","382795","0.0-6.0-0.174","MIGE","3","f","links","22","","fixation","","","",""
"1515","img/90_120.png","70","image-keyboard-response","355","384324","0.0-6.0-1.174","MIGE","3","f","links","22","","","self","f","90","true"
"null","<div style=""font-size:60px;"">+</div>","null","html-keyboard-response","356","384701","0.0-6.0-0.175","MIGE","3","f","links","22","","fixation","","","",""
"1104","img/150_120.png","70","image-keyboard-response","357","385819","0.0-6.0-1.175","MIGE","3","f","links","22","","","self","f","150","true"
"null","<div style=""font-size:60px;"">+</div>","null","html-keyboard-response","358","386280","0.0-6.0-0.176","MIGE","3","f","links","22","","fixation","","","",""
"791","img/0_270.png","70","image-keyboard-response","359","387080","0.0-6.0-1.176","MIGE","3","f","links","22","","","self","f","0","true"
"null","<div style=""font-size:60px;"">+</div>","null","html-keyboard-response","360","387531","0.0-6.0-0.177","MIGE","3","f","links","22","","fixation","","","",""
"793","img/0_60.png","74","image-keyboard-response","361","388338","0.0-6.0-1.177","MIGE","3","f","links","22","","","self","j","0","true"
"null","<div style=""font-size:60px;"">+</div>","null","html-keyboard-response","362","388658","0.0-6.0-0.178","MIGE","3","f","links","22","","fixation","","","",""
"975","img/0_120.png","74","image-keyboard-response","363","389644","0.0-6.0-1.178","MIGE","3","f","links","22","","","self","j","0","true"
"null","<div style=""font-size:60px;"">+</div>","null","html-keyboard-response","364","390002","0.0-6.0-0.179","MIGE","3","f","links","22","","fixation","","","",""
"1045","img/L90_180.png","70","image-keyboard-response","365","391060","0.0-6.0-1.179","MIGE","3","f","links","22","","","self","f","90","true"
"null","<div style=""font-size:60px;"">+</div>","null","html-keyboard-response","366","391440","0.0-6.0-0.180","MIGE","3","f","links","22","","fixation","","","",""
"2060","img/120_330.png","74","image-keyboard-response","367","393511","0.0-6.0-1.180","MIGE","3","f","links","22","","","self","f","120","false"
"null","<div style=""font-size:60px;"">+</div>","null","html-keyboard-response","368","393922","0.0-6.0-0.181","MIGE","3","f","links","22","","fixation","","","",""
"1624","img/L150_180.png","70","image-keyboard-response","369","395550","0.0-6.0-1.181","MIGE","3","f","links","22","","","self","f","150","true"
"null","<div style=""font-size:60px;"">+</div>","null","html-keyboard-response","370","396018","0.0-6.0-0.182","MIGE","3","f","links","22","","fixation","","","",""
"1321","img/90_150.png","70","image-keyboard-response","371","397350","0.0-6.0-1.182","MIGE","3","f","links","22","","","self","f","90","true"
"null","<div style=""font-size:60px;"">+</div>","null","html-keyboard-response","372","397753","0.0-6.0-0.183","MIGE","3","f","links","22","","fixation","","","",""
"1191","img/30_300.png","74","image-keyboard-response","373","398957","0.0-6.0-1.183","MIGE","3","f","links","22","","","self","f","30","false"
"null","<div style=""font-size:60px;"">+</div>","null","html-keyboard-response","374","399463","0.0-6.0-0.184","MIGE","3","f","links","22","","fixation","","","",""
"1625","img/90_180.png","74","image-keyboard-response","375","401098","0.0-6.0-1.184","MIGE","3","f","links","22","","","self","j","90","true"
"null","<div style=""font-size:60px;"">+</div>","null","html-keyboard-response","376","401415","0.0-6.0-0.185","MIGE","3","f","links","22","","fixation","","","",""
"2216","img/60_30.png","74","image-keyboard-response","377","403640","0.0-6.0-1.185","MIGE","3","f","links","22","","","self","j","60","true"
"null","<div style=""font-size:60px;"">+</div>","null","html-keyboard-response","378","403946","0.0-6.0-0.186","MIGE","3","f","links","22","","fixation","","","",""
"1420","img/60_330.png","70","image-keyboard-response","379","405372","0.0-6.0-1.186","MIGE","3","f","links","22","","","self","f","60","true"
"null","<div style=""font-size:60px;"">+</div>","null","html-keyboard-response","380","405730","0.0-6.0-0.187","MIGE","3","f","links","22","","fixation","","","",""
"2388","img/120_270.png","74","image-keyboard-response","381","408128","0.0-6.0-1.187","MIGE","3","f","links","22","","","self","j","120","true"
"null","<div style=""font-size:60px;"">+</div>","null","html-keyboard-response","382","408557","0.0-6.0-0.188","MIGE","3","f","links","22","","fixation","","","",""
"2740","img/150_180.png","70","image-keyboard-response","383","411311","0.0-6.0-1.188","MIGE","3","f","links","22","","","self","j","150","false"
"null","<div style=""font-size:60px;"">+</div>","null","html-keyboard-response","384","411775","0.0-6.0-0.189","MIGE","3","f","links","22","","fixation","","","",""
"1414","img/30_90.png","74","image-keyboard-response","385","413202","0.0-6.0-1.189","MIGE","3","f","links","22","","","self","j","30","true"
"null","<div style=""font-size:60px;"">+</div>","null","html-keyboard-response","386","413619","0.0-6.0-0.190","MIGE","3","f","links","22","","fixation","","","",""
"1444","img/60_180.png","74","image-keyboard-response","387","415081","0.0-6.0-1.190","MIGE","3","f","links","22","","","self","j","60","true"
"null","<div style=""font-size:60px;"">+</div>","null","html-keyboard-response","388","415386","0.0-6.0-0.191","MIGE","3","f","links","22","","fixation","","","",""
"1671","img/30_240.png","74","image-keyboard-response","389","417072","0.0-6.0-1.191","MIGE","3","f","links","22","","","self","f","30","false"
"null","<div style=""font-size:60px;"">+</div>","null","html-keyboard-response","390","417433","0.0-6.0-0.192","MIGE","3","f","links","22","","fixation","","","",""
"962","img/0_300.png","70","image-keyboard-response","391","418411","0.0-6.0-1.192","MIGE","3","f","links","22","","","self","f","0","true"
"null","<div style=""font-size:60px;"">+</div>","null","html-keyboard-response","392","418777","0.0-6.0-0.193","MIGE","3","f","links","22","","fixation","","","",""
"1060","img/L60_180.png","70","image-keyboard-response","393","419851","0.0-6.0-1.193","MIGE","3","f","links","22","","","self","f","60","true"
"null","<div style=""font-size:60px;"">+</div>","null","html-keyboard-response","394","420324","0.0-6.0-0.194","MIGE","3","f","links","22","","fixation","","","",""
"1429","img/120_150.png","70","image-keyboard-response","395","421762","0.0-6.0-1.194","MIGE","3","f","links","22","","","self","f","120","true"
"null","<div style=""font-size:60px;"">+</div>","null","html-keyboard-response","396","422216","0.0-6.0-0.195","MIGE","3","f","links","22","","fixation","","","",""
"1074","img/L120_180.png","70","image-keyboard-response","397","423303","0.0-6.0-1.195","MIGE","3","f","links","22","","","self","f","120","true"
"null","<div style=""font-size:60px;"">+</div>","null","html-keyboard-response","398","423684","0.0-6.0-0.196","MIGE","3","f","links","22","","fixation","","","",""
"1566","img/90_60.png","74","image-keyboard-response","399","425263","0.0-6.0-1.196","MIGE","3","f","links","22","","","self","j","90","true"
"null","<div style=""font-size:60px;"">+</div>","null","html-keyboard-response","400","425575","0.0-6.0-0.197","MIGE","3","f","links","22","","fixation","","","",""
"1465","img/60_210.png","74","image-keyboard-response","401","427051","0.0-6.0-1.197","MIGE","3","f","links","22","","","self","j","60","true"
"null","<div style=""font-size:60px;"">+</div>","null","html-keyboard-response","402","427559","0.0-6.0-0.198","MIGE","3","f","links","22","","fixation","","","",""
"2065","img/90_330.png","70","image-keyboard-response","403","429639","0.0-6.0-1.198","MIGE","3","f","links","22","","","self","f","90","true"
"null","<div style=""font-size:60px;"">+</div>","null","html-keyboard-response","404","430012","0.0-6.0-0.199","MIGE","3","f","links","22","","fixation","","","",""
"951","img/0_210.png","70","image-keyboard-response","405","430976","0.0-6.0-1.199","MIGE","3","f","links","22","","","self","f","0","true"
"null","<div style=""font-size:60px;"">+</div>","null","html-keyboard-response","406","431389","0.0-6.0-0.200","MIGE","3","f","links","22","","fixation","","","",""
"757","img/0_30.png","74","image-keyboard-response","407","432160","0.0-6.0-1.200","MIGE","3","f","links","22","","","self","j","0","true"
"null","<div style=""font-size:60px;"">+</div>","null","html-keyboard-response","408","432514","0.0-6.0-0.201","MIGE","3","f","links","22","","fixation","","","",""
"1981","img/60_90.png","74","image-keyboard-response","409","434510","0.0-6.0-1.201","MIGE","3","f","links","22","","","self","j","60","true"
"null","<div style=""font-size:60px;"">+</div>","null","html-keyboard-response","410","434873","0.0-6.0-0.202","MIGE","3","f","links","22","","fixation","","","",""
"1480","img/30_60.png","74","image-keyboard-response","411","436367","0.0-6.0-1.202","MIGE","3","f","links","22","","","self","j","30","true"
"null","<div style=""font-size:60px;"">+</div>","null","html-keyboard-response","412","436826","0.0-6.0-0.203","MIGE","3","f","links","22","","fixation","","","",""
"1473","img/90_240.png","74","image-keyboard-response","413","438312","0.0-6.0-1.203","MIGE","3","f","links","22","","","self","j","90","true"
"null","<div style=""font-size:60px;"">+</div>","null","html-keyboard-response","414","438670","0.0-6.0-0.204","MIGE","3","f","links","22","","fixation","","","",""
"833","img/0_330.png","70","image-keyboard-response","415","439516","0.0-6.0-1.204","MIGE","3","f","links","22","","","self","f","0","true"
"null","<div style=""font-size:60px;"">+</div>","null","html-keyboard-response","416","439826","0.0-6.0-0.205","MIGE","3","f","links","22","","fixation","","","",""
"770","img/0_240.png","70","image-keyboard-response","417","440609","0.0-6.0-1.205","MIGE","3","f","links","22","","","self","f","0","true"
"null","<div style=""font-size:60px;"">+</div>","null","html-keyboard-response","418","441139","0.0-6.0-0.206","MIGE","3","f","links","22","","fixation","","","",""
"2189","img/120_30.png","74","image-keyboard-response","419","443341","0.0-6.0-1.206","MIGE","3","f","links","22","","","self","j","120","true"
"null","<div style=""font-size:60px;"">+</div>","null","html-keyboard-response","420","443860","0.0-6.0-0.207","MIGE","3","f","links","22","","fixation","","","",""
"1504","img/150_240.png","74","image-keyboard-response","421","445379","0.0-6.0-1.207","MIGE","3","f","links","22","","","self","j","150","true"
"19079","<p>Du hast in 91% der Versuche korrekt entschieden.</p><p>Deine durchschnittliche Reaktionszeit war  1289ms.</p><p>Dr&uuml;cke eine beliebige Taste, um die Session zu beenden. Vielen Dank!</p>","32","html-keyboard-response","422","464463","0.0-7.0","MIGE","3","f","links","22","","","","","",""
