"rt","stimulus","key_press","trial_type","trial_index","time_elapsed","internal_node_id","subject","session","sex","handedness","age","responses","test_part","condition","correct_response","angle","correct"
"4356","<p>Mental Rotation Experiment.</p> <p>Dr&uuml;cke eine beliebige Taste, um anzufangen.</p>","13","html-keyboard-response","0","4396","0.0-0.0","SOBA","2","f","rechts","21","","","","","",""
"4629","","","survey-text","1","9028","0.0-1.0","SOBA","2","f","rechts","21","{""Q0"":""SOBA""}","","","","",""
"2849","","","survey-text","2","11878","0.0-2.0","SOBA","2","f","rechts","21","{""Q0"":""2""}","","","","",""
"3169","","","survey-multi-choice","3","15051","0.0-3.0","SOBA","2","f","rechts","21","{""Q0"":""f"",""Q1"":""rechts""}","","","","",""
"3136","","","survey-text","4","18189","0.0-4.0","SOBA","2","f","rechts","21","{""Q0"":""21""}","","","","",""
"42030","<p>Stell dir vor, dass du vor einem runden Tisch stehst, auf dem sich ein blauer Ball am Tischrand befindet. Entlang des Tischrands ist jeweils ein verschieden langer Pfeil. Nun bleibst du an deinem Platz vor dem Tisch und rotierst den Tisch entlang des Pfeils (gleiche Richtung und Länge). </p> <img src='img/30_180.png'></img> <br><p> Nachdem du diese (vorgestellte) Rotation durchgef&uuml;hrt hast, schau in Richtung der Tischmitte, und entscheide dann, ob der Ball links oder rechts von dir liegt.</p> <p>Dr&uuml;cke die <strong>'f'</strong>-Taste f&uuml;r links, die <strong>'j'</strong>-Taste f&uuml;r rechts.</p><br><p> Das Bild wird jeweils 1 Sekunde lang pr&auml;sentiert. Du hast 3 Sekunden Zeit eine Entscheidung zu treffen.</p>","32","html-keyboard-response","5","60226","0.0-5.0","SOBA","2","f","rechts","21","","","","","",""
"null","<div style=""font-size:60px;"">+</div>","null","html-keyboard-response","6","61769","0.0-6.0-0.0","SOBA","2","f","rechts","21","","fixation","","","",""
"1149","img/120_330.png","74","image-keyboard-response","7","62940","0.0-6.0-1.0","SOBA","2","f","rechts","21","","","object","j","120","true"
"null","<div style=""font-size:60px;"">+</div>","null","html-keyboard-response","8","63365","0.0-6.0-0.1","SOBA","2","f","rechts","21","","fixation","","","",""
"968","img/0_300.png","70","image-keyboard-response","9","64351","0.0-6.0-1.1","SOBA","2","f","rechts","21","","","object","f","0","true"
"null","<div style=""font-size:60px;"">+</div>","null","html-keyboard-response","10","64686","0.0-6.0-0.2","SOBA","2","f","rechts","21","","fixation","","","",""
"1502","img/0_240.png","70","image-keyboard-response","11","66208","0.0-6.0-1.2","SOBA","2","f","rechts","21","","","object","f","0","true"
"null","<div style=""font-size:60px;"">+</div>","null","html-keyboard-response","12","66635","0.0-6.0-0.3","SOBA","2","f","rechts","21","","fixation","","","",""
"1372","img/150_270.png","74","image-keyboard-response","13","68018","0.0-6.0-1.3","SOBA","2","f","rechts","21","","","object","j","150","true"
"null","<div style=""font-size:60px;"">+</div>","null","html-keyboard-response","14","68482","0.0-6.0-0.4","SOBA","2","f","rechts","21","","fixation","","","",""
"1722","img/150_120.png","70","image-keyboard-response","15","70223","0.0-6.0-1.4","SOBA","2","f","rechts","21","","","object","f","150","true"
"null","<div style=""font-size:60px;"">+</div>","null","html-keyboard-response","16","70542","0.0-6.0-0.5","SOBA","2","f","rechts","21","","fixation","","","",""
"1578","img/L90_180.png","74","image-keyboard-response","17","72137","0.0-6.0-1.5","SOBA","2","f","rechts","21","","","object","j","90","true"
"null","<div style=""font-size:60px;"">+</div>","null","html-keyboard-response","18","72546","0.0-6.0-0.6","SOBA","2","f","rechts","21","","fixation","","","",""
"1417","img/90_30.png","70","image-keyboard-response","19","73981","0.0-6.0-1.6","SOBA","2","f","rechts","21","","","object","f","90","true"
"null","<div style=""font-size:60px;"">+</div>","null","html-keyboard-response","20","74396","0.0-6.0-0.7","SOBA","2","f","rechts","21","","fixation","","","",""
"2318","img/120_150.png","74","image-keyboard-response","21","76732","0.0-6.0-1.7","SOBA","2","f","rechts","21","","","object","j","120","true"
"null","<div style=""font-size:60px;"">+</div>","null","html-keyboard-response","22","77056","0.0-6.0-0.8","SOBA","2","f","rechts","21","","fixation","","","",""
"1462","img/L60_180.png","74","image-keyboard-response","23","78536","0.0-6.0-1.8","SOBA","2","f","rechts","21","","","object","j","60","true"
"null","<div style=""font-size:60px;"">+</div>","null","html-keyboard-response","24","78948","0.0-6.0-0.9","SOBA","2","f","rechts","21","","fixation","","","",""
"1309","img/30_180.png","70","image-keyboard-response","25","80270","0.0-6.0-1.9","SOBA","2","f","rechts","21","","","object","f","30","true"
"null","<div style=""font-size:60px;"">+</div>","null","html-keyboard-response","26","80579","0.0-6.0-0.10","SOBA","2","f","rechts","21","","fixation","","","",""
"1213","img/0_270.png","70","image-keyboard-response","27","81810","0.0-6.0-1.10","SOBA","2","f","rechts","21","","","object","f","0","true"
"null","<div style=""font-size:60px;"">+</div>","null","html-keyboard-response","28","82275","0.0-6.0-0.11","SOBA","2","f","rechts","21","","fixation","","","",""
"2089","img/120_180.png","70","image-keyboard-response","29","84383","0.0-6.0-1.11","SOBA","2","f","rechts","21","","","object","f","120","true"
"null","<div style=""font-size:60px;"">+</div>","null","html-keyboard-response","30","84757","0.0-6.0-0.12","SOBA","2","f","rechts","21","","fixation","","","",""
"2296","img/30_300.png","70","image-keyboard-response","31","87072","0.0-6.0-1.12","SOBA","2","f","rechts","21","","","object","f","30","true"
"null","<div style=""font-size:60px;"">+</div>","null","html-keyboard-response","32","87427","0.0-6.0-0.13","SOBA","2","f","rechts","21","","fixation","","","",""
"1800","img/120_30.png","70","image-keyboard-response","33","89245","0.0-6.0-1.13","SOBA","2","f","rechts","21","","","object","f","120","true"
"null","<div style=""font-size:60px;"">+</div>","null","html-keyboard-response","34","89665","0.0-6.0-0.14","SOBA","2","f","rechts","21","","fixation","","","",""
"1621","img/60_180.png","70","image-keyboard-response","35","91306","0.0-6.0-1.14","SOBA","2","f","rechts","21","","","object","f","60","true"
"null","<div style=""font-size:60px;"">+</div>","null","html-keyboard-response","36","91772","0.0-6.0-0.15","SOBA","2","f","rechts","21","","fixation","","","",""
"1191","img/0_210.png","70","image-keyboard-response","37","92982","0.0-6.0-1.15","SOBA","2","f","rechts","21","","","object","f","0","true"
"null","<div style=""font-size:60px;"">+</div>","null","html-keyboard-response","38","93396","0.0-6.0-0.16","SOBA","2","f","rechts","21","","fixation","","","",""
"1591","img/90_300.png","74","image-keyboard-response","39","94995","0.0-6.0-1.16","SOBA","2","f","rechts","21","","","object","j","90","true"
"null","<div style=""font-size:60px;"">+</div>","null","html-keyboard-response","40","95311","0.0-6.0-0.17","SOBA","2","f","rechts","21","","fixation","","","",""
"1612","img/30_60.png","74","image-keyboard-response","41","96943","0.0-6.0-1.17","SOBA","2","f","rechts","21","","","object","j","30","true"
"null","<div style=""font-size:60px;"">+</div>","null","html-keyboard-response","42","97415","0.0-6.0-0.18","SOBA","2","f","rechts","21","","fixation","","","",""
"1569","img/30_120.png","74","image-keyboard-response","43","99002","0.0-6.0-1.18","SOBA","2","f","rechts","21","","","object","j","30","true"
"null","<div style=""font-size:60px;"">+</div>","null","html-keyboard-response","44","99511","0.0-6.0-0.19","SOBA","2","f","rechts","21","","fixation","","","",""
"1780","img/120_210.png","70","image-keyboard-response","45","101309","0.0-6.0-1.19","SOBA","2","f","rechts","21","","","object","f","120","true"
"null","<div style=""font-size:60px;"">+</div>","null","html-keyboard-response","46","101676","0.0-6.0-0.20","SOBA","2","f","rechts","21","","fixation","","","",""
"2391","img/60_150.png","74","image-keyboard-response","47","104086","0.0-6.0-1.20","SOBA","2","f","rechts","21","","","object","j","60","true"
"null","<div style=""font-size:60px;"">+</div>","null","html-keyboard-response","48","104488","0.0-6.0-0.21","SOBA","2","f","rechts","21","","fixation","","","",""
"2092","img/60_90.png","74","image-keyboard-response","49","106597","0.0-6.0-1.21","SOBA","2","f","rechts","21","","","object","j","60","true"
"null","<div style=""font-size:60px;"">+</div>","null","html-keyboard-response","50","106969","0.0-6.0-0.22","SOBA","2","f","rechts","21","","fixation","","","",""
"2165","img/90_120.png","74","image-keyboard-response","51","109153","0.0-6.0-1.22","SOBA","2","f","rechts","21","","","object","j","90","true"
"null","<div style=""font-size:60px;"">+</div>","null","html-keyboard-response","52","109479","0.0-6.0-0.23","SOBA","2","f","rechts","21","","fixation","","","",""
"1757","img/90_150.png","74","image-keyboard-response","53","111254","0.0-6.0-1.23","SOBA","2","f","rechts","21","","","object","j","90","true"
"null","<div style=""font-size:60px;"">+</div>","null","html-keyboard-response","54","111719","0.0-6.0-0.24","SOBA","2","f","rechts","21","","fixation","","","",""
"2571","img/150_240.png","74","image-keyboard-response","55","114306","0.0-6.0-1.24","SOBA","2","f","rechts","21","","","object","j","150","true"
"null","<div style=""font-size:60px;"">+</div>","null","html-keyboard-response","56","114677","0.0-6.0-0.25","SOBA","2","f","rechts","21","","fixation","","","",""
"1690","img/120_90.png","70","image-keyboard-response","57","116384","0.0-6.0-1.25","SOBA","2","f","rechts","21","","","object","f","120","true"
"null","<div style=""font-size:60px;"">+</div>","null","html-keyboard-response","58","116908","0.0-6.0-0.26","SOBA","2","f","rechts","21","","fixation","","","",""
"1358","img/L30_180.png","74","image-keyboard-response","59","118284","0.0-6.0-1.26","SOBA","2","f","rechts","21","","","object","j","30","true"
"null","<div style=""font-size:60px;"">+</div>","null","html-keyboard-response","60","118791","0.0-6.0-0.27","SOBA","2","f","rechts","21","","fixation","","","",""
"1108","img/0_120.png","74","image-keyboard-response","61","119915","0.0-6.0-1.27","SOBA","2","f","rechts","21","","","object","j","0","true"
"null","<div style=""font-size:60px;"">+</div>","null","html-keyboard-response","62","120389","0.0-6.0-0.28","SOBA","2","f","rechts","21","","fixation","","","",""
"1589","img/90_330.png","74","image-keyboard-response","63","121996","0.0-6.0-1.28","SOBA","2","f","rechts","21","","","object","j","90","true"
"null","<div style=""font-size:60px;"">+</div>","null","html-keyboard-response","64","122351","0.0-6.0-0.29","SOBA","2","f","rechts","21","","fixation","","","",""
"2415","img/120_270.png","74","image-keyboard-response","65","124783","0.0-6.0-1.29","SOBA","2","f","rechts","21","","","object","j","120","true"
"null","<div style=""font-size:60px;"">+</div>","null","html-keyboard-response","66","125142","0.0-6.0-0.30","SOBA","2","f","rechts","21","","fixation","","","",""
"1618","img/60_330.png","74","image-keyboard-response","67","126779","0.0-6.0-1.30","SOBA","2","f","rechts","21","","","object","j","60","true"
"null","<div style=""font-size:60px;"">+</div>","null","html-keyboard-response","68","127110","0.0-6.0-0.31","SOBA","2","f","rechts","21","","fixation","","","",""
"2682","img/30_240.png","70","image-keyboard-response","69","129809","0.0-6.0-1.31","SOBA","2","f","rechts","21","","","object","f","30","true"
"null","<div style=""font-size:60px;"">+</div>","null","html-keyboard-response","70","130268","0.0-6.0-0.32","SOBA","2","f","rechts","21","","fixation","","","",""
"1533","img/30_270.png","70","image-keyboard-response","71","131820","0.0-6.0-1.32","SOBA","2","f","rechts","21","","","object","f","30","true"
"null","<div style=""font-size:60px;"">+</div>","null","html-keyboard-response","72","132180","0.0-6.0-0.33","SOBA","2","f","rechts","21","","fixation","","","",""
"1603","img/60_270.png","70","image-keyboard-response","73","133800","0.0-6.0-1.33","SOBA","2","f","rechts","21","","","object","f","60","true"
"null","<div style=""font-size:60px;"">+</div>","null","html-keyboard-response","74","134131","0.0-6.0-0.34","SOBA","2","f","rechts","21","","fixation","","","",""
"2366","img/150_60.png","70","image-keyboard-response","75","136515","0.0-6.0-1.34","SOBA","2","f","rechts","21","","","object","f","150","true"
"null","<div style=""font-size:60px;"">+</div>","null","html-keyboard-response","76","136896","0.0-6.0-0.35","SOBA","2","f","rechts","21","","fixation","","","",""
"1744","img/L120_180.png","74","image-keyboard-response","77","138660","0.0-6.0-1.35","SOBA","2","f","rechts","21","","","object","j","120","true"
"null","<div style=""font-size:60px;"">+</div>","null","html-keyboard-response","78","139077","0.0-6.0-0.36","SOBA","2","f","rechts","21","","fixation","","","",""
"1105","img/0_90.png","74","image-keyboard-response","79","140200","0.0-6.0-1.36","SOBA","2","f","rechts","21","","","object","j","0","true"
"null","<div style=""font-size:60px;"">+</div>","null","html-keyboard-response","80","140617","0.0-6.0-0.37","SOBA","2","f","rechts","21","","fixation","","","",""
"1985","img/150_180.png","70","image-keyboard-response","81","142620","0.0-6.0-1.37","SOBA","2","f","rechts","21","","","object","f","150","true"
"null","<div style=""font-size:60px;"">+</div>","null","html-keyboard-response","82","142980","0.0-6.0-0.38","SOBA","2","f","rechts","21","","fixation","","","",""
"1880","img/L150_180.png","74","image-keyboard-response","83","144878","0.0-6.0-1.38","SOBA","2","f","rechts","21","","","object","j","150","true"
"null","<div style=""font-size:60px;"">+</div>","null","html-keyboard-response","84","145250","0.0-6.0-0.39","SOBA","2","f","rechts","21","","fixation","","","",""
"2092","img/60_210.png","70","image-keyboard-response","85","147360","0.0-6.0-1.39","SOBA","2","f","rechts","21","","","object","f","60","true"
"null","<div style=""font-size:60px;"">+</div>","null","html-keyboard-response","86","147776","0.0-6.0-0.40","SOBA","2","f","rechts","21","","fixation","","","",""
"1269","img/0_30.png","74","image-keyboard-response","87","149062","0.0-6.0-1.40","SOBA","2","f","rechts","21","","","object","j","0","true"
"null","<div style=""font-size:60px;"">+</div>","null","html-keyboard-response","88","149416","0.0-6.0-0.41","SOBA","2","f","rechts","21","","fixation","","","",""
"1500","img/150_90.png","70","image-keyboard-response","89","150934","0.0-6.0-1.41","SOBA","2","f","rechts","21","","","object","f","150","true"
"null","<div style=""font-size:60px;"">+</div>","null","html-keyboard-response","90","151449","0.0-6.0-0.42","SOBA","2","f","rechts","21","","fixation","","","",""
"1413","img/150_300.png","74","image-keyboard-response","91","152879","0.0-6.0-1.42","SOBA","2","f","rechts","21","","","object","j","150","true"
"null","<div style=""font-size:60px;"">+</div>","null","html-keyboard-response","92","153300","0.0-6.0-0.43","SOBA","2","f","rechts","21","","fixation","","","",""
"1132","img/0_60.png","74","image-keyboard-response","93","154452","0.0-6.0-1.43","SOBA","2","f","rechts","21","","","object","j","0","true"
"null","<div style=""font-size:60px;"">+</div>","null","html-keyboard-response","94","154764","0.0-6.0-0.44","SOBA","2","f","rechts","21","","fixation","","","",""
"1471","img/30_90.png","74","image-keyboard-response","95","156252","0.0-6.0-1.44","SOBA","2","f","rechts","21","","","object","j","30","true"
"null","<div style=""font-size:60px;"">+</div>","null","html-keyboard-response","96","156732","0.0-6.0-0.45","SOBA","2","f","rechts","21","","fixation","","","",""
"1404","img/90_60.png","70","image-keyboard-response","97","158155","0.0-6.0-1.45","SOBA","2","f","rechts","21","","","object","f","90","true"
"null","<div style=""font-size:60px;"">+</div>","null","html-keyboard-response","98","158536","0.0-6.0-0.46","SOBA","2","f","rechts","21","","fixation","","","",""
"1706","img/60_30.png","70","image-keyboard-response","99","160264","0.0-6.0-1.46","SOBA","2","f","rechts","21","","","object","f","60","true"
"null","<div style=""font-size:60px;"">+</div>","null","html-keyboard-response","100","160723","0.0-6.0-0.47","SOBA","2","f","rechts","21","","fixation","","","",""
"1892","img/90_210.png","70","image-keyboard-response","101","162634","0.0-6.0-1.47","SOBA","2","f","rechts","21","","","object","f","90","true"
"null","<div style=""font-size:60px;"">+</div>","null","html-keyboard-response","102","163155","0.0-6.0-0.48","SOBA","2","f","rechts","21","","fixation","","","",""
"1436","img/90_240.png","70","image-keyboard-response","103","164611","0.0-6.0-1.48","SOBA","2","f","rechts","21","","","object","f","90","true"
"null","<div style=""font-size:60px;"">+</div>","null","html-keyboard-response","104","164926","0.0-6.0-0.49","SOBA","2","f","rechts","21","","fixation","","","",""
"1156","img/0_150.png","74","image-keyboard-response","105","166099","0.0-6.0-1.49","SOBA","2","f","rechts","21","","","object","j","0","true"
"null","<div style=""font-size:60px;"">+</div>","null","html-keyboard-response","106","166466","0.0-6.0-0.50","SOBA","2","f","rechts","21","","fixation","","","",""
"1038","img/0_330.png","70","image-keyboard-response","107","167516","0.0-6.0-1.50","SOBA","2","f","rechts","21","","","object","f","0","true"
"null","<div style=""font-size:60px;"">+</div>","null","html-keyboard-response","108","167887","0.0-6.0-0.51","SOBA","2","f","rechts","21","","fixation","","","",""
"1578","img/90_180.png","70","image-keyboard-response","109","169483","0.0-6.0-1.51","SOBA","2","f","rechts","21","","","object","f","90","true"
"null","<div style=""font-size:60px;"">+</div>","null","html-keyboard-response","110","169902","0.0-6.0-0.52","SOBA","2","f","rechts","21","","fixation","","","",""
"1515","img/30_300.png","70","image-keyboard-response","111","171430","0.0-6.0-1.52","SOBA","2","f","rechts","21","","","object","f","30","true"
"null","<div style=""font-size:60px;"">+</div>","null","html-keyboard-response","112","171741","0.0-6.0-0.53","SOBA","2","f","rechts","21","","fixation","","","",""
"1760","img/0_90.png","74","image-keyboard-response","113","173513","0.0-6.0-1.53","SOBA","2","f","rechts","21","","","object","j","0","true"
"null","<div style=""font-size:60px;"">+</div>","null","html-keyboard-response","114","173828","0.0-6.0-0.54","SOBA","2","f","rechts","21","","fixation","","","",""
"1505","img/120_270.png","74","image-keyboard-response","115","175344","0.0-6.0-1.54","SOBA","2","f","rechts","21","","","object","j","120","true"
"null","<div style=""font-size:60px;"">+</div>","null","html-keyboard-response","116","175770","0.0-6.0-0.55","SOBA","2","f","rechts","21","","fixation","","","",""
"1391","img/120_180.png","70","image-keyboard-response","117","177168","0.0-6.0-1.55","SOBA","2","f","rechts","21","","","object","f","120","true"
"null","<div style=""font-size:60px;"">+</div>","null","html-keyboard-response","118","177687","0.0-6.0-0.56","SOBA","2","f","rechts","21","","fixation","","","",""
"1255","img/0_270.png","70","image-keyboard-response","119","178956","0.0-6.0-1.56","SOBA","2","f","rechts","21","","","object","f","0","true"
"null","<div style=""font-size:60px;"">+</div>","null","html-keyboard-response","120","179270","0.0-6.0-0.57","SOBA","2","f","rechts","21","","fixation","","","",""
"1395","img/60_180.png","74","image-keyboard-response","121","180678","0.0-6.0-1.57","SOBA","2","f","rechts","21","","","object","f","60","false"
"null","<div style=""font-size:60px;"">+</div>","null","html-keyboard-response","122","180987","0.0-6.0-0.58","SOBA","2","f","rechts","21","","fixation","","","",""
"1970","img/30_90.png","74","image-keyboard-response","123","182962","0.0-6.0-1.58","SOBA","2","f","rechts","21","","","object","j","30","true"
"null","<div style=""font-size:60px;"">+</div>","null","html-keyboard-response","124","183378","0.0-6.0-0.59","SOBA","2","f","rechts","21","","fixation","","","",""
"1685","img/0_210.png","70","image-keyboard-response","125","185076","0.0-6.0-1.59","SOBA","2","f","rechts","21","","","object","f","0","true"
"null","<div style=""font-size:60px;"">+</div>","null","html-keyboard-response","126","185579","0.0-6.0-0.60","SOBA","2","f","rechts","21","","fixation","","","",""
"1686","img/0_150.png","74","image-keyboard-response","127","187273","0.0-6.0-1.60","SOBA","2","f","rechts","21","","","object","j","0","true"
"null","<div style=""font-size:60px;"">+</div>","null","html-keyboard-response","128","187777","0.0-6.0-0.61","SOBA","2","f","rechts","21","","fixation","","","",""
"2378","img/90_120.png","74","image-keyboard-response","129","190170","0.0-6.0-1.61","SOBA","2","f","rechts","21","","","object","j","90","true"
"null","<div style=""font-size:60px;"">+</div>","null","html-keyboard-response","130","190492","0.0-6.0-0.62","SOBA","2","f","rechts","21","","fixation","","","",""
"1252","img/0_240.png","70","image-keyboard-response","131","191757","0.0-6.0-1.62","SOBA","2","f","rechts","21","","","object","f","0","true"
"null","<div style=""font-size:60px;"">+</div>","null","html-keyboard-response","132","192275","0.0-6.0-0.63","SOBA","2","f","rechts","21","","fixation","","","",""
"1923","img/L60_180.png","74","image-keyboard-response","133","194203","0.0-6.0-1.63","SOBA","2","f","rechts","21","","","object","j","60","true"
"null","<div style=""font-size:60px;"">+</div>","null","html-keyboard-response","134","194625","0.0-6.0-0.64","SOBA","2","f","rechts","21","","fixation","","","",""
"1589","img/90_30.png","70","image-keyboard-response","135","196226","0.0-6.0-1.64","SOBA","2","f","rechts","21","","","object","f","90","true"
"null","<div style=""font-size:60px;"">+</div>","null","html-keyboard-response","136","196738","0.0-6.0-0.65","SOBA","2","f","rechts","21","","fixation","","","",""
"1475","img/120_30.png","70","image-keyboard-response","137","198227","0.0-6.0-1.65","SOBA","2","f","rechts","21","","","object","f","120","true"
"null","<div style=""font-size:60px;"">+</div>","null","html-keyboard-response","138","198698","0.0-6.0-0.66","SOBA","2","f","rechts","21","","fixation","","","",""
"1709","img/120_90.png","70","image-keyboard-response","139","200419","0.0-6.0-1.66","SOBA","2","f","rechts","21","","","object","f","120","true"
"null","<div style=""font-size:60px;"">+</div>","null","html-keyboard-response","140","200895","0.0-6.0-0.67","SOBA","2","f","rechts","21","","fixation","","","",""
"1486","img/0_30.png","74","image-keyboard-response","141","202391","0.0-6.0-1.67","SOBA","2","f","rechts","21","","","object","j","0","true"
"null","<div style=""font-size:60px;"">+</div>","null","html-keyboard-response","142","202902","0.0-6.0-0.68","SOBA","2","f","rechts","21","","fixation","","","",""
"1862","img/120_210.png","70","image-keyboard-response","143","204778","0.0-6.0-1.68","SOBA","2","f","rechts","21","","","object","f","120","true"
"null","<div style=""font-size:60px;"">+</div>","null","html-keyboard-response","144","205233","0.0-6.0-0.69","SOBA","2","f","rechts","21","","fixation","","","",""
"1487","img/30_270.png","74","image-keyboard-response","145","206732","0.0-6.0-1.69","SOBA","2","f","rechts","21","","","object","f","30","false"
"null","<div style=""font-size:60px;"">+</div>","null","html-keyboard-response","146","207160","0.0-6.0-0.70","SOBA","2","f","rechts","21","","fixation","","","",""
"2907","img/150_300.png","74","image-keyboard-response","147","210076","0.0-6.0-1.70","SOBA","2","f","rechts","21","","","object","j","150","true"
"null","<div style=""font-size:60px;"">+</div>","null","html-keyboard-response","148","210435","0.0-6.0-0.71","SOBA","2","f","rechts","21","","fixation","","","",""
"1834","img/150_60.png","70","image-keyboard-response","149","212279","0.0-6.0-1.71","SOBA","2","f","rechts","21","","","object","f","150","true"
"null","<div style=""font-size:60px;"">+</div>","null","html-keyboard-response","150","212794","0.0-6.0-0.72","SOBA","2","f","rechts","21","","fixation","","","",""
"2321","img/120_150.png","74","image-keyboard-response","151","215129","0.0-6.0-1.72","SOBA","2","f","rechts","21","","","object","j","120","true"
"null","<div style=""font-size:60px;"">+</div>","null","html-keyboard-response","152","215446","0.0-6.0-0.73","SOBA","2","f","rechts","21","","fixation","","","",""
"1554","img/30_240.png","70","image-keyboard-response","153","217014","0.0-6.0-1.73","SOBA","2","f","rechts","21","","","object","f","30","true"
"null","<div style=""font-size:60px;"">+</div>","null","html-keyboard-response","154","217535","0.0-6.0-0.74","SOBA","2","f","rechts","21","","fixation","","","",""
"1649","img/90_330.png","74","image-keyboard-response","155","219199","0.0-6.0-1.74","SOBA","2","f","rechts","21","","","object","j","90","true"
"null","<div style=""font-size:60px;"">+</div>","null","html-keyboard-response","156","219506","0.0-6.0-0.75","SOBA","2","f","rechts","21","","fixation","","","",""
"1590","img/30_120.png","74","image-keyboard-response","157","221111","0.0-6.0-1.75","SOBA","2","f","rechts","21","","","object","j","30","true"
"null","<div style=""font-size:60px;"">+</div>","null","html-keyboard-response","158","221624","0.0-6.0-0.76","SOBA","2","f","rechts","21","","fixation","","","",""
"1553","img/150_270.png","74","image-keyboard-response","159","223190","0.0-6.0-1.76","SOBA","2","f","rechts","21","","","object","j","150","true"
"null","<div style=""font-size:60px;"">+</div>","null","html-keyboard-response","160","223496","0.0-6.0-0.77","SOBA","2","f","rechts","21","","fixation","","","",""
"1621","img/60_30.png","70","image-keyboard-response","161","225128","0.0-6.0-1.77","SOBA","2","f","rechts","21","","","object","f","60","true"
"null","<div style=""font-size:60px;"">+</div>","null","html-keyboard-response","162","225645","0.0-6.0-0.78","SOBA","2","f","rechts","21","","fixation","","","",""
"2578","img/60_90.png","74","image-keyboard-response","163","228236","0.0-6.0-1.78","SOBA","2","f","rechts","21","","","object","j","60","true"
"null","<div style=""font-size:60px;"">+</div>","null","html-keyboard-response","164","228702","0.0-6.0-0.79","SOBA","2","f","rechts","21","","fixation","","","",""
"1565","img/120_330.png","74","image-keyboard-response","165","230280","0.0-6.0-1.79","SOBA","2","f","rechts","21","","","object","j","120","true"
"null","<div style=""font-size:60px;"">+</div>","null","html-keyboard-response","166","230656","0.0-6.0-0.80","SOBA","2","f","rechts","21","","fixation","","","",""
"2044","img/90_210.png","70","image-keyboard-response","167","232710","0.0-6.0-1.80","SOBA","2","f","rechts","21","","","object","f","90","true"
"null","<div style=""font-size:60px;"">+</div>","null","html-keyboard-response","168","233131","0.0-6.0-0.81","SOBA","2","f","rechts","21","","fixation","","","",""
"1458","img/30_60.png","74","image-keyboard-response","169","234603","0.0-6.0-1.81","SOBA","2","f","rechts","21","","","object","j","30","true"
"null","<div style=""font-size:60px;"">+</div>","null","html-keyboard-response","170","235112","0.0-6.0-0.82","SOBA","2","f","rechts","21","","fixation","","","",""
"1882","img/L150_180.png","74","image-keyboard-response","171","237009","0.0-6.0-1.82","SOBA","2","f","rechts","21","","","object","j","150","true"
"null","<div style=""font-size:60px;"">+</div>","null","html-keyboard-response","172","237389","0.0-6.0-0.83","SOBA","2","f","rechts","21","","fixation","","","",""
"1663","img/150_90.png","70","image-keyboard-response","173","239066","0.0-6.0-1.83","SOBA","2","f","rechts","21","","","object","f","150","true"
"null","<div style=""font-size:60px;"">+</div>","null","html-keyboard-response","174","239422","0.0-6.0-0.84","SOBA","2","f","rechts","21","","fixation","","","",""
"1522","img/30_180.png","70","image-keyboard-response","175","240956","0.0-6.0-1.84","SOBA","2","f","rechts","21","","","object","f","30","true"
"null","<div style=""font-size:60px;"">+</div>","null","html-keyboard-response","176","241423","0.0-6.0-0.85","SOBA","2","f","rechts","21","","fixation","","","",""
"2573","img/90_240.png","70","image-keyboard-response","177","244006","0.0-6.0-1.85","SOBA","2","f","rechts","21","","","object","f","90","true"
"null","<div style=""font-size:60px;"">+</div>","null","html-keyboard-response","178","244522","0.0-6.0-0.86","SOBA","2","f","rechts","21","","fixation","","","",""
"1524","img/90_180.png","70","image-keyboard-response","179","246054","0.0-6.0-1.86","SOBA","2","f","rechts","21","","","object","f","90","true"
"null","<div style=""font-size:60px;"">+</div>","null","html-keyboard-response","180","246475","0.0-6.0-0.87","SOBA","2","f","rechts","21","","fixation","","","",""
"1669","img/60_150.png","74","image-keyboard-response","181","248158","0.0-6.0-1.87","SOBA","2","f","rechts","21","","","object","j","60","true"
"null","<div style=""font-size:60px;"">+</div>","null","html-keyboard-response","182","248463","0.0-6.0-0.88","SOBA","2","f","rechts","21","","fixation","","","",""
"1581","img/L90_180.png","74","image-keyboard-response","183","250058","0.0-6.0-1.88","SOBA","2","f","rechts","21","","","object","j","90","true"
"null","<div style=""font-size:60px;"">+</div>","null","html-keyboard-response","184","250515","0.0-6.0-0.89","SOBA","2","f","rechts","21","","fixation","","","",""
"1578","img/0_60.png","74","image-keyboard-response","185","252106","0.0-6.0-1.89","SOBA","2","f","rechts","21","","","object","j","0","true"
"null","<div style=""font-size:60px;"">+</div>","null","html-keyboard-response","186","252419","0.0-6.0-0.90","SOBA","2","f","rechts","21","","fixation","","","",""
"1729","img/90_150.png","74","image-keyboard-response","187","254162","0.0-6.0-1.90","SOBA","2","f","rechts","21","","","object","j","90","true"
"null","<div style=""font-size:60px;"">+</div>","null","html-keyboard-response","188","254642","0.0-6.0-0.91","SOBA","2","f","rechts","21","","fixation","","","",""
"1402","img/0_330.png","70","image-keyboard-response","189","256054","0.0-6.0-1.91","SOBA","2","f","rechts","21","","","object","f","0","true"
"null","<div style=""font-size:60px;"">+</div>","null","html-keyboard-response","190","256464","0.0-6.0-0.92","SOBA","2","f","rechts","21","","fixation","","","",""
"1389","img/60_330.png","74","image-keyboard-response","191","257866","0.0-6.0-1.92","SOBA","2","f","rechts","21","","","object","j","60","true"
"null","<div style=""font-size:60px;"">+</div>","null","html-keyboard-response","192","258388","0.0-6.0-0.93","SOBA","2","f","rechts","21","","fixation","","","",""
"1726","img/150_120.png","70","image-keyboard-response","193","260126","0.0-6.0-1.93","SOBA","2","f","rechts","21","","","object","f","150","true"
"null","<div style=""font-size:60px;"">+</div>","null","html-keyboard-response","194","260648","0.0-6.0-0.94","SOBA","2","f","rechts","21","","fixation","","","",""
"1400","img/L30_180.png","74","image-keyboard-response","195","262062","0.0-6.0-1.94","SOBA","2","f","rechts","21","","","object","j","30","true"
"null","<div style=""font-size:60px;"">+</div>","null","html-keyboard-response","196","262390","0.0-6.0-0.95","SOBA","2","f","rechts","21","","fixation","","","",""
"1593","img/90_300.png","74","image-keyboard-response","197","263997","0.0-6.0-1.95","SOBA","2","f","rechts","21","","","object","j","90","true"
"null","<div style=""font-size:60px;"">+</div>","null","html-keyboard-response","198","264310","0.0-6.0-0.96","SOBA","2","f","rechts","21","","fixation","","","",""
"1676","img/60_270.png","70","image-keyboard-response","199","265998","0.0-6.0-1.96","SOBA","2","f","rechts","21","","","object","f","60","true"
"null","<div style=""font-size:60px;"">+</div>","null","html-keyboard-response","200","266311","0.0-6.0-0.97","SOBA","2","f","rechts","21","","fixation","","","",""
"1978","img/60_210.png","70","image-keyboard-response","201","268295","0.0-6.0-1.97","SOBA","2","f","rechts","21","","","object","f","60","true"
"null","<div style=""font-size:60px;"">+</div>","null","html-keyboard-response","202","268755","0.0-6.0-0.98","SOBA","2","f","rechts","21","","fixation","","","",""
"2064","img/150_180.png","74","image-keyboard-response","203","270834","0.0-6.0-1.98","SOBA","2","f","rechts","21","","","object","f","150","false"
"null","<div style=""font-size:60px;"">+</div>","null","html-keyboard-response","204","271218","0.0-6.0-0.99","SOBA","2","f","rechts","21","","fixation","","","",""
"2237","img/L120_180.png","74","image-keyboard-response","205","273468","0.0-6.0-1.99","SOBA","2","f","rechts","21","","","object","j","120","true"
"null","<div style=""font-size:60px;"">+</div>","null","html-keyboard-response","206","273827","0.0-6.0-0.100","SOBA","2","f","rechts","21","","fixation","","","",""
"1622","img/0_300.png","70","image-keyboard-response","207","275463","0.0-6.0-1.100","SOBA","2","f","rechts","21","","","object","f","0","true"
"null","<div style=""font-size:60px;"">+</div>","null","html-keyboard-response","208","275975","0.0-6.0-0.101","SOBA","2","f","rechts","21","","fixation","","","",""
"1112","img/0_120.png","74","image-keyboard-response","209","277101","0.0-6.0-1.101","SOBA","2","f","rechts","21","","","object","j","0","true"
"null","<div style=""font-size:60px;"">+</div>","null","html-keyboard-response","210","277569","0.0-6.0-0.102","SOBA","2","f","rechts","21","","fixation","","","",""
"1413","img/90_60.png","70","image-keyboard-response","211","278995","0.0-6.0-1.102","SOBA","2","f","rechts","21","","","object","f","90","true"
"null","<div style=""font-size:60px;"">+</div>","null","html-keyboard-response","212","279305","0.0-6.0-0.103","SOBA","2","f","rechts","21","","fixation","","","",""
"2687","img/150_240.png","74","image-keyboard-response","213","282005","0.0-6.0-1.103","SOBA","2","f","rechts","21","","","object","j","150","true"
"null","<div style=""font-size:60px;"">+</div>","null","html-keyboard-response","214","282424","0.0-6.0-0.104","SOBA","2","f","rechts","21","","fixation","","","",""
"2599","img/90_120.png","74","image-keyboard-response","215","285036","0.0-6.0-1.104","SOBA","2","f","rechts","21","","","object","j","90","true"
"null","<div style=""font-size:60px;"">+</div>","null","html-keyboard-response","216","285407","0.0-6.0-0.105","SOBA","2","f","rechts","21","","fixation","","","",""
"2412","img/L150_180.png","74","image-keyboard-response","217","287829","0.0-6.0-1.105","SOBA","2","f","rechts","21","","","object","j","150","true"
"null","<div style=""font-size:60px;"">+</div>","null","html-keyboard-response","218","288296","0.0-6.0-0.106","SOBA","2","f","rechts","21","","fixation","","","",""
"2361","img/0_60.png","74","image-keyboard-response","219","290667","0.0-6.0-1.106","SOBA","2","f","rechts","21","","","object","j","0","true"
"null","<div style=""font-size:60px;"">+</div>","null","html-keyboard-response","220","291092","0.0-6.0-0.107","SOBA","2","f","rechts","21","","fixation","","","",""
"2533","img/120_30.png","70","image-keyboard-response","221","293639","0.0-6.0-1.107","SOBA","2","f","rechts","21","","","object","f","120","true"
"null","<div style=""font-size:60px;"">+</div>","null","html-keyboard-response","222","293954","0.0-6.0-0.108","SOBA","2","f","rechts","21","","fixation","","","",""
"1484","img/0_30.png","74","image-keyboard-response","223","295450","0.0-6.0-1.108","SOBA","2","f","rechts","21","","","object","j","0","true"
"null","<div style=""font-size:60px;"">+</div>","null","html-keyboard-response","224","295974","0.0-6.0-0.109","SOBA","2","f","rechts","21","","fixation","","","",""
"1815","img/0_270.png","70","image-keyboard-response","225","297802","0.0-6.0-1.109","SOBA","2","f","rechts","21","","","object","f","0","true"
"null","<div style=""font-size:60px;"">+</div>","null","html-keyboard-response","226","298181","0.0-6.0-0.110","SOBA","2","f","rechts","21","","fixation","","","",""
"2696","img/120_180.png","70","image-keyboard-response","227","300891","0.0-6.0-1.110","SOBA","2","f","rechts","21","","","object","f","120","true"
"null","<div style=""font-size:60px;"">+</div>","null","html-keyboard-response","228","301314","0.0-6.0-0.111","SOBA","2","f","rechts","21","","fixation","","","",""
"1653","img/120_330.png","74","image-keyboard-response","229","302977","0.0-6.0-1.111","SOBA","2","f","rechts","21","","","object","j","120","true"
"null","<div style=""font-size:60px;"">+</div>","null","html-keyboard-response","230","303332","0.0-6.0-0.112","SOBA","2","f","rechts","21","","fixation","","","",""
"1615","img/90_60.png","70","image-keyboard-response","231","304958","0.0-6.0-1.112","SOBA","2","f","rechts","21","","","object","f","90","true"
"null","<div style=""font-size:60px;"">+</div>","null","html-keyboard-response","232","305312","0.0-6.0-0.113","SOBA","2","f","rechts","21","","fixation","","","",""
"1782","img/150_60.png","70","image-keyboard-response","233","307107","0.0-6.0-1.113","SOBA","2","f","rechts","21","","","object","f","150","true"
"null","<div style=""font-size:60px;"">+</div>","null","html-keyboard-response","234","307619","0.0-6.0-0.114","SOBA","2","f","rechts","21","","fixation","","","",""
"1161","img/0_120.png","74","image-keyboard-response","235","308783","0.0-6.0-1.114","SOBA","2","f","rechts","21","","","object","j","0","true"
"null","<div style=""font-size:60px;"">+</div>","null","html-keyboard-response","236","309153","0.0-6.0-0.115","SOBA","2","f","rechts","21","","fixation","","","",""
"1397","img/60_90.png","74","image-keyboard-response","237","310561","0.0-6.0-1.115","SOBA","2","f","rechts","21","","","object","j","60","true"
"null","<div style=""font-size:60px;"">+</div>","null","html-keyboard-response","238","310929","0.0-6.0-0.116","SOBA","2","f","rechts","21","","fixation","","","",""
"1610","img/150_300.png","74","image-keyboard-response","239","312554","0.0-6.0-1.116","SOBA","2","f","rechts","21","","","object","j","150","true"
"null","<div style=""font-size:60px;"">+</div>","null","html-keyboard-response","240","312922","0.0-6.0-0.117","SOBA","2","f","rechts","21","","fixation","","","",""
"1742","img/L60_180.png","74","image-keyboard-response","241","314678","0.0-6.0-1.117","SOBA","2","f","rechts","21","","","object","j","60","true"
"null","<div style=""font-size:60px;"">+</div>","null","html-keyboard-response","242","314987","0.0-6.0-0.118","SOBA","2","f","rechts","21","","fixation","","","",""
"1877","img/150_120.png","70","image-keyboard-response","243","316873","0.0-6.0-1.118","SOBA","2","f","rechts","21","","","object","f","150","true"
"null","<div style=""font-size:60px;"">+</div>","null","html-keyboard-response","244","317279","0.0-6.0-0.119","SOBA","2","f","rechts","21","","fixation","","","",""
"1587","img/60_330.png","74","image-keyboard-response","245","318875","0.0-6.0-1.119","SOBA","2","f","rechts","21","","","object","j","60","true"
"null","<div style=""font-size:60px;"">+</div>","null","html-keyboard-response","246","319338","0.0-6.0-0.120","SOBA","2","f","rechts","21","","fixation","","","",""
"1613","img/60_30.png","70","image-keyboard-response","247","320964","0.0-6.0-1.120","SOBA","2","f","rechts","21","","","object","f","60","true"
"null","<div style=""font-size:60px;"">+</div>","null","html-keyboard-response","248","321439","0.0-6.0-0.121","SOBA","2","f","rechts","21","","fixation","","","",""
"1802","img/60_150.png","74","image-keyboard-response","249","323253","0.0-6.0-1.121","SOBA","2","f","rechts","21","","","object","j","60","true"
"null","<div style=""font-size:60px;"">+</div>","null","html-keyboard-response","250","323615","0.0-6.0-0.122","SOBA","2","f","rechts","21","","fixation","","","",""
"1736","img/90_210.png","74","image-keyboard-response","251","325365","0.0-6.0-1.122","SOBA","2","f","rechts","21","","","object","f","90","false"
"null","<div style=""font-size:60px;"">+</div>","null","html-keyboard-response","252","325686","0.0-6.0-0.123","SOBA","2","f","rechts","21","","fixation","","","",""
"2618","img/150_270.png","74","image-keyboard-response","253","328317","0.0-6.0-1.123","SOBA","2","f","rechts","21","","","object","j","150","true"
"null","<div style=""font-size:60px;"">+</div>","null","html-keyboard-response","254","328686","0.0-6.0-0.124","SOBA","2","f","rechts","21","","fixation","","","",""
"2435","img/150_240.png","74","image-keyboard-response","255","331131","0.0-6.0-1.124","SOBA","2","f","rechts","21","","","object","j","150","true"
"null","<div style=""font-size:60px;"">+</div>","null","html-keyboard-response","256","331611","0.0-6.0-0.125","SOBA","2","f","rechts","21","","fixation","","","",""
"2141","img/120_90.png","70","image-keyboard-response","257","333767","0.0-6.0-1.125","SOBA","2","f","rechts","21","","","object","f","120","true"
"null","<div style=""font-size:60px;"">+</div>","null","html-keyboard-response","258","334128","0.0-6.0-0.126","SOBA","2","f","rechts","21","","fixation","","","",""
"1692","img/60_210.png","70","image-keyboard-response","259","335830","0.0-6.0-1.126","SOBA","2","f","rechts","21","","","object","f","60","true"
"null","<div style=""font-size:60px;"">+</div>","null","html-keyboard-response","260","336195","0.0-6.0-0.127","SOBA","2","f","rechts","21","","fixation","","","",""
"2756","img/150_180.png","74","image-keyboard-response","261","338962","0.0-6.0-1.127","SOBA","2","f","rechts","21","","","object","f","150","false"
"null","<div style=""font-size:60px;"">+</div>","null","html-keyboard-response","262","339372","0.0-6.0-0.128","SOBA","2","f","rechts","21","","fixation","","","",""
"1700","img/30_180.png","70","image-keyboard-response","263","341083","0.0-6.0-1.128","SOBA","2","f","rechts","21","","","object","f","30","true"
"null","<div style=""font-size:60px;"">+</div>","null","html-keyboard-response","264","341446","0.0-6.0-0.129","SOBA","2","f","rechts","21","","fixation","","","",""
"1782","img/90_240.png","70","image-keyboard-response","265","343243","0.0-6.0-1.129","SOBA","2","f","rechts","21","","","object","f","90","true"
"null","<div style=""font-size:60px;"">+</div>","null","html-keyboard-response","266","343558","0.0-6.0-0.130","SOBA","2","f","rechts","21","","fixation","","","",""
"1565","img/0_300.png","70","image-keyboard-response","267","345132","0.0-6.0-1.130","SOBA","2","f","rechts","21","","","object","f","0","true"
"null","<div style=""font-size:60px;"">+</div>","null","html-keyboard-response","268","345536","0.0-6.0-0.131","SOBA","2","f","rechts","21","","fixation","","","",""
"1834","img/30_300.png","70","image-keyboard-response","269","347383","0.0-6.0-1.131","SOBA","2","f","rechts","21","","","object","f","30","true"
"null","<div style=""font-size:60px;"">+</div>","null","html-keyboard-response","270","347799","0.0-6.0-0.132","SOBA","2","f","rechts","21","","fixation","","","",""
"1785","img/30_240.png","70","image-keyboard-response","271","349589","0.0-6.0-1.132","SOBA","2","f","rechts","21","","","object","f","30","true"
"null","<div style=""font-size:60px;"">+</div>","null","html-keyboard-response","272","349918","0.0-6.0-0.133","SOBA","2","f","rechts","21","","fixation","","","",""
"2427","img/120_270.png","70","image-keyboard-response","273","352360","0.0-6.0-1.133","SOBA","2","f","rechts","21","","","object","j","120","false"
"null","<div style=""font-size:60px;"">+</div>","null","html-keyboard-response","274","352834","0.0-6.0-0.134","SOBA","2","f","rechts","21","","fixation","","","",""
"2099","img/90_30.png","70","image-keyboard-response","275","354947","0.0-6.0-1.134","SOBA","2","f","rechts","21","","","object","f","90","true"
"null","<div style=""font-size:60px;"">+</div>","null","html-keyboard-response","276","355268","0.0-6.0-0.135","SOBA","2","f","rechts","21","","fixation","","","",""
"1188","img/0_330.png","70","image-keyboard-response","277","356461","0.0-6.0-1.135","SOBA","2","f","rechts","21","","","object","f","0","true"
"null","<div style=""font-size:60px;"">+</div>","null","html-keyboard-response","278","356826","0.0-6.0-0.136","SOBA","2","f","rechts","21","","fixation","","","",""
"1848","img/30_60.png","74","image-keyboard-response","279","358688","0.0-6.0-1.136","SOBA","2","f","rechts","21","","","object","j","30","true"
"null","<div style=""font-size:60px;"">+</div>","null","html-keyboard-response","280","359046","0.0-6.0-0.137","SOBA","2","f","rechts","21","","fixation","","","",""
"1868","img/120_210.png","70","image-keyboard-response","281","360927","0.0-6.0-1.137","SOBA","2","f","rechts","21","","","object","f","120","true"
"null","<div style=""font-size:60px;"">+</div>","null","html-keyboard-response","282","361396","0.0-6.0-0.138","SOBA","2","f","rechts","21","","fixation","","","",""
"2560","img/150_90.png","70","image-keyboard-response","283","363971","0.0-6.0-1.138","SOBA","2","f","rechts","21","","","object","f","150","true"
"null","<div style=""font-size:60px;"">+</div>","null","html-keyboard-response","284","364273","0.0-6.0-0.139","SOBA","2","f","rechts","21","","fixation","","","",""
"1462","img/L90_180.png","74","image-keyboard-response","285","365740","0.0-6.0-1.139","SOBA","2","f","rechts","21","","","object","j","90","true"
"null","<div style=""font-size:60px;"">+</div>","null","html-keyboard-response","286","366255","0.0-6.0-0.140","SOBA","2","f","rechts","21","","fixation","","","",""
"1555","img/60_180.png","70","image-keyboard-response","287","367825","0.0-6.0-1.140","SOBA","2","f","rechts","21","","","object","f","60","true"
"null","<div style=""font-size:60px;"">+</div>","null","html-keyboard-response","288","368203","0.0-6.0-0.141","SOBA","2","f","rechts","21","","fixation","","","",""
"1885","img/L120_180.png","74","image-keyboard-response","289","370098","0.0-6.0-1.141","SOBA","2","f","rechts","21","","","object","j","120","true"
"null","<div style=""font-size:60px;"">+</div>","null","html-keyboard-response","290","370453","0.0-6.0-0.142","SOBA","2","f","rechts","21","","fixation","","","",""
"1539","img/90_150.png","74","image-keyboard-response","291","371998","0.0-6.0-1.142","SOBA","2","f","rechts","21","","","object","j","90","true"
"null","<div style=""font-size:60px;"">+</div>","null","html-keyboard-response","292","372370","0.0-6.0-0.143","SOBA","2","f","rechts","21","","fixation","","","",""
"935","img/0_90.png","74","image-keyboard-response","293","373314","0.0-6.0-1.143","SOBA","2","f","rechts","21","","","object","j","0","true"
"null","<div style=""font-size:60px;"">+</div>","null","html-keyboard-response","294","373639","0.0-6.0-0.144","SOBA","2","f","rechts","21","","fixation","","","",""
"954","img/0_210.png","70","image-keyboard-response","295","374607","0.0-6.0-1.144","SOBA","2","f","rechts","21","","","object","f","0","true"
"null","<div style=""font-size:60px;"">+</div>","null","html-keyboard-response","296","375121","0.0-6.0-0.145","SOBA","2","f","rechts","21","","fixation","","","",""
"1645","img/L30_180.png","74","image-keyboard-response","297","376780","0.0-6.0-1.145","SOBA","2","f","rechts","21","","","object","j","30","true"
"null","<div style=""font-size:60px;"">+</div>","null","html-keyboard-response","298","377139","0.0-6.0-0.146","SOBA","2","f","rechts","21","","fixation","","","",""
"1710","img/30_120.png","74","image-keyboard-response","299","378861","0.0-6.0-1.146","SOBA","2","f","rechts","21","","","object","j","30","true"
"null","<div style=""font-size:60px;"">+</div>","null","html-keyboard-response","300","379323","0.0-6.0-0.147","SOBA","2","f","rechts","21","","fixation","","","",""
"2038","img/90_180.png","70","image-keyboard-response","301","381375","0.0-6.0-1.147","SOBA","2","f","rechts","21","","","object","f","90","true"
"null","<div style=""font-size:60px;"">+</div>","null","html-keyboard-response","302","381900","0.0-6.0-0.148","SOBA","2","f","rechts","21","","fixation","","","",""
"2543","img/120_150.png","74","image-keyboard-response","303","384457","0.0-6.0-1.148","SOBA","2","f","rechts","21","","","object","j","120","true"
"null","<div style=""font-size:60px;"">+</div>","null","html-keyboard-response","304","384774","0.0-6.0-0.149","SOBA","2","f","rechts","21","","fixation","","","",""
"1087","img/0_240.png","70","image-keyboard-response","305","385869","0.0-6.0-1.149","SOBA","2","f","rechts","21","","","object","f","0","true"
"null","<div style=""font-size:60px;"">+</div>","null","html-keyboard-response","306","386245","0.0-6.0-0.150","SOBA","2","f","rechts","21","","fixation","","","",""
"1411","img/30_270.png","74","image-keyboard-response","307","387670","0.0-6.0-1.150","SOBA","2","f","rechts","21","","","object","f","30","false"
"null","<div style=""font-size:60px;"">+</div>","null","html-keyboard-response","308","388124","0.0-6.0-0.151","SOBA","2","f","rechts","21","","fixation","","","",""
"1627","img/90_300.png","74","image-keyboard-response","309","389763","0.0-6.0-1.151","SOBA","2","f","rechts","21","","","object","j","90","true"
"null","<div style=""font-size:60px;"">+</div>","null","html-keyboard-response","310","390192","0.0-6.0-0.152","SOBA","2","f","rechts","21","","fixation","","","",""
"1503","img/30_90.png","74","image-keyboard-response","311","391709","0.0-6.0-1.152","SOBA","2","f","rechts","21","","","object","j","30","true"
"null","<div style=""font-size:60px;"">+</div>","null","html-keyboard-response","312","392232","0.0-6.0-0.153","SOBA","2","f","rechts","21","","fixation","","","",""
"1410","img/90_330.png","74","image-keyboard-response","313","393655","0.0-6.0-1.153","SOBA","2","f","rechts","21","","","object","j","90","true"
"null","<div style=""font-size:60px;"">+</div>","null","html-keyboard-response","314","394179","0.0-6.0-0.154","SOBA","2","f","rechts","21","","fixation","","","",""
"965","img/0_150.png","74","image-keyboard-response","315","395149","0.0-6.0-1.154","SOBA","2","f","rechts","21","","","object","j","0","true"
"null","<div style=""font-size:60px;"">+</div>","null","html-keyboard-response","316","395459","0.0-6.0-0.155","SOBA","2","f","rechts","21","","fixation","","","",""
"1646","img/60_270.png","70","image-keyboard-response","317","397120","0.0-6.0-1.155","SOBA","2","f","rechts","21","","","object","f","60","true"
"null","<div style=""font-size:60px;"">+</div>","null","html-keyboard-response","318","397483","0.0-6.0-0.156","SOBA","2","f","rechts","21","","fixation","","","",""
"1761","img/60_150.png","74","image-keyboard-response","319","399257","0.0-6.0-1.156","SOBA","2","f","rechts","21","","","object","j","60","true"
"null","<div style=""font-size:60px;"">+</div>","null","html-keyboard-response","320","399711","0.0-6.0-0.157","SOBA","2","f","rechts","21","","fixation","","","",""
"1208","img/90_60.png","70","image-keyboard-response","321","400933","0.0-6.0-1.157","SOBA","2","f","rechts","21","","","object","f","90","true"
"null","<div style=""font-size:60px;"">+</div>","null","html-keyboard-response","322","401249","0.0-6.0-0.158","SOBA","2","f","rechts","21","","fixation","","","",""
"1352","img/120_150.png","74","image-keyboard-response","323","402610","0.0-6.0-1.158","SOBA","2","f","rechts","21","","","object","j","120","true"
"null","<div style=""font-size:60px;"">+</div>","null","html-keyboard-response","324","402963","0.0-6.0-0.159","SOBA","2","f","rechts","21","","fixation","","","",""
"999","img/30_90.png","70","image-keyboard-response","325","403971","0.0-6.0-1.159","SOBA","2","f","rechts","21","","","object","j","30","false"
"null","<div style=""font-size:60px;"">+</div>","null","html-keyboard-response","326","404436","0.0-6.0-0.160","SOBA","2","f","rechts","21","","fixation","","","",""
"1024","img/30_60.png","70","image-keyboard-response","327","405465","0.0-6.0-1.160","SOBA","2","f","rechts","21","","","object","j","30","false"
"null","<div style=""font-size:60px;"">+</div>","null","html-keyboard-response","328","405822","0.0-6.0-0.161","SOBA","2","f","rechts","21","","fixation","","","",""
"1916","img/120_180.png","74","image-keyboard-response","329","407752","0.0-6.0-1.161","SOBA","2","f","rechts","21","","","object","f","120","false"
"null","<div style=""font-size:60px;"">+</div>","null","html-keyboard-response","330","408166","0.0-6.0-0.162","SOBA","2","f","rechts","21","","fixation","","","",""
"1248","img/0_90.png","74","image-keyboard-response","331","409426","0.0-6.0-1.162","SOBA","2","f","rechts","21","","","object","j","0","true"
"null","<div style=""font-size:60px;"">+</div>","null","html-keyboard-response","332","409802","0.0-6.0-0.163","SOBA","2","f","rechts","21","","fixation","","","",""
"1169","img/0_330.png","70","image-keyboard-response","333","410981","0.0-6.0-1.163","SOBA","2","f","rechts","21","","","object","f","0","true"
"null","<div style=""font-size:60px;"">+</div>","null","html-keyboard-response","334","411503","0.0-6.0-0.164","SOBA","2","f","rechts","21","","fixation","","","",""
"840","img/0_300.png","70","image-keyboard-response","335","412352","0.0-6.0-1.164","SOBA","2","f","rechts","21","","","object","f","0","true"
"null","<div style=""font-size:60px;"">+</div>","null","html-keyboard-response","336","412669","0.0-6.0-0.165","SOBA","2","f","rechts","21","","fixation","","","",""
"951","img/0_150.png","74","image-keyboard-response","337","413623","0.0-6.0-1.165","SOBA","2","f","rechts","21","","","object","j","0","true"
"null","<div style=""font-size:60px;"">+</div>","null","html-keyboard-response","338","414095","0.0-6.0-0.166","SOBA","2","f","rechts","21","","fixation","","","",""
"1472","img/150_300.png","74","image-keyboard-response","339","415579","0.0-6.0-1.166","SOBA","2","f","rechts","21","","","object","j","150","true"
"null","<div style=""font-size:60px;"">+</div>","null","html-keyboard-response","340","415952","0.0-6.0-0.167","SOBA","2","f","rechts","21","","fixation","","","",""
"1367","img/60_330.png","74","image-keyboard-response","341","417325","0.0-6.0-1.167","SOBA","2","f","rechts","21","","","object","j","60","true"
"null","<div style=""font-size:60px;"">+</div>","null","html-keyboard-response","342","417735","0.0-6.0-0.168","SOBA","2","f","rechts","21","","fixation","","","",""
"925","img/0_210.png","70","image-keyboard-response","343","418664","0.0-6.0-1.168","SOBA","2","f","rechts","21","","","object","f","0","true"
"null","<div style=""font-size:60px;"">+</div>","null","html-keyboard-response","344","419091","0.0-6.0-0.169","SOBA","2","f","rechts","21","","fixation","","","",""
"1284","img/90_180.png","70","image-keyboard-response","345","420385","0.0-6.0-1.169","SOBA","2","f","rechts","21","","","object","f","90","true"
"null","<div style=""font-size:60px;"">+</div>","null","html-keyboard-response","346","420751","0.0-6.0-0.170","SOBA","2","f","rechts","21","","fixation","","","",""
"1639","img/90_120.png","74","image-keyboard-response","347","422399","0.0-6.0-1.170","SOBA","2","f","rechts","21","","","object","j","90","true"
"null","<div style=""font-size:60px;"">+</div>","null","html-keyboard-response","348","422713","0.0-6.0-0.171","SOBA","2","f","rechts","21","","fixation","","","",""
"1582","img/60_210.png","70","image-keyboard-response","349","424311","0.0-6.0-1.171","SOBA","2","f","rechts","21","","","object","f","60","true"
"null","<div style=""font-size:60px;"">+</div>","null","html-keyboard-response","350","424731","0.0-6.0-0.172","SOBA","2","f","rechts","21","","fixation","","","",""
"1460","img/90_30.png","70","image-keyboard-response","351","426202","0.0-6.0-1.172","SOBA","2","f","rechts","21","","","object","f","90","true"
"null","<div style=""font-size:60px;"">+</div>","null","html-keyboard-response","352","426570","0.0-6.0-0.173","SOBA","2","f","rechts","21","","fixation","","","",""
"1134","img/0_120.png","74","image-keyboard-response","353","427719","0.0-6.0-1.173","SOBA","2","f","rechts","21","","","object","j","0","true"
"null","<div style=""font-size:60px;"">+</div>","null","html-keyboard-response","354","428239","0.0-6.0-0.174","SOBA","2","f","rechts","21","","fixation","","","",""
"1061","img/L30_180.png","74","image-keyboard-response","355","429309","0.0-6.0-1.174","SOBA","2","f","rechts","21","","","object","j","30","true"
"null","<div style=""font-size:60px;"">+</div>","null","html-keyboard-response","356","429733","0.0-6.0-0.175","SOBA","2","f","rechts","21","","fixation","","","",""
"1381","img/90_210.png","70","image-keyboard-response","357","431128","0.0-6.0-1.175","SOBA","2","f","rechts","21","","","object","f","90","true"
"null","<div style=""font-size:60px;"">+</div>","null","html-keyboard-response","358","431646","0.0-6.0-0.176","SOBA","2","f","rechts","21","","fixation","","","",""
"1214","img/150_60.png","70","image-keyboard-response","359","432873","0.0-6.0-1.176","SOBA","2","f","rechts","21","","","object","f","150","true"
"null","<div style=""font-size:60px;"">+</div>","null","html-keyboard-response","360","433173","0.0-6.0-0.177","SOBA","2","f","rechts","21","","fixation","","","",""
"1415","img/30_270.png","74","image-keyboard-response","361","434594","0.0-6.0-1.177","SOBA","2","f","rechts","21","","","object","f","30","false"
"null","<div style=""font-size:60px;"">+</div>","null","html-keyboard-response","362","434966","0.0-6.0-0.178","SOBA","2","f","rechts","21","","fixation","","","",""
"1944","img/60_30.png","70","image-keyboard-response","363","436924","0.0-6.0-1.178","SOBA","2","f","rechts","21","","","object","f","60","true"
"null","<div style=""font-size:60px;"">+</div>","null","html-keyboard-response","364","437241","0.0-6.0-0.179","SOBA","2","f","rechts","21","","fixation","","","",""
"1423","img/30_240.png","70","image-keyboard-response","365","438678","0.0-6.0-1.179","SOBA","2","f","rechts","21","","","object","f","30","true"
"null","<div style=""font-size:60px;"">+</div>","null","html-keyboard-response","366","439050","0.0-6.0-0.180","SOBA","2","f","rechts","21","","fixation","","","",""
"2570","img/120_210.png","74","image-keyboard-response","367","441630","0.0-6.0-1.180","SOBA","2","f","rechts","21","","","object","f","120","false"
"null","<div style=""font-size:60px;"">+</div>","null","html-keyboard-response","368","441944","0.0-6.0-0.181","SOBA","2","f","rechts","21","","fixation","","","",""
"2594","img/L150_180.png","74","image-keyboard-response","369","444552","0.0-6.0-1.181","SOBA","2","f","rechts","21","","","object","j","150","true"
"null","<div style=""font-size:60px;"">+</div>","null","html-keyboard-response","370","444974","0.0-6.0-0.182","SOBA","2","f","rechts","21","","fixation","","","",""
"1446","img/L90_180.png","74","image-keyboard-response","371","446429","0.0-6.0-1.182","SOBA","2","f","rechts","21","","","object","j","90","true"
"null","<div style=""font-size:60px;"">+</div>","null","html-keyboard-response","372","446944","0.0-6.0-0.183","SOBA","2","f","rechts","21","","fixation","","","",""
"1621","img/30_300.png","70","image-keyboard-response","373","448578","0.0-6.0-1.183","SOBA","2","f","rechts","21","","","object","f","30","true"
"null","<div style=""font-size:60px;"">+</div>","null","html-keyboard-response","374","448992","0.0-6.0-0.184","SOBA","2","f","rechts","21","","fixation","","","",""
"1487","img/60_270.png","70","image-keyboard-response","375","450491","0.0-6.0-1.184","SOBA","2","f","rechts","21","","","object","f","60","true"
"null","<div style=""font-size:60px;"">+</div>","null","html-keyboard-response","376","451011","0.0-6.0-0.185","SOBA","2","f","rechts","21","","fixation","","","",""
"1514","img/120_270.png","74","image-keyboard-response","377","452539","0.0-6.0-1.185","SOBA","2","f","rechts","21","","","object","j","120","true"
"null","<div style=""font-size:60px;"">+</div>","null","html-keyboard-response","378","452856","0.0-6.0-0.186","SOBA","2","f","rechts","21","","fixation","","","",""
"1382","img/30_120.png","74","image-keyboard-response","379","454248","0.0-6.0-1.186","SOBA","2","f","rechts","21","","","object","j","30","true"
"null","<div style=""font-size:60px;"">+</div>","null","html-keyboard-response","380","454777","0.0-6.0-0.187","SOBA","2","f","rechts","21","","fixation","","","",""
"1393","img/120_30.png","70","image-keyboard-response","381","456182","0.0-6.0-1.187","SOBA","2","f","rechts","21","","","object","f","120","true"
"null","<div style=""font-size:60px;"">+</div>","null","html-keyboard-response","382","456695","0.0-6.0-0.188","SOBA","2","f","rechts","21","","fixation","","","",""
"2289","img/150_90.png","74","image-keyboard-response","383","458999","0.0-6.0-1.188","SOBA","2","f","rechts","21","","","object","f","150","false"
"null","<div style=""font-size:60px;"">+</div>","null","html-keyboard-response","384","459463","0.0-6.0-0.189","SOBA","2","f","rechts","21","","fixation","","","",""
"2122","img/150_180.png","70","image-keyboard-response","385","461599","0.0-6.0-1.189","SOBA","2","f","rechts","21","","","object","f","150","true"
"null","<div style=""font-size:60px;"">+</div>","null","html-keyboard-response","386","462122","0.0-6.0-0.190","SOBA","2","f","rechts","21","","fixation","","","",""
"2518","img/150_120.png","70","image-keyboard-response","387","464658","0.0-6.0-1.190","SOBA","2","f","rechts","21","","","object","f","150","true"
"null","<div style=""font-size:60px;"">+</div>","null","html-keyboard-response","388","465081","0.0-6.0-0.191","SOBA","2","f","rechts","21","","fixation","","","",""
"1529","img/60_180.png","70","image-keyboard-response","389","466623","0.0-6.0-1.191","SOBA","2","f","rechts","21","","","object","f","60","true"
"null","<div style=""font-size:60px;"">+</div>","null","html-keyboard-response","390","466934","0.0-6.0-0.192","SOBA","2","f","rechts","21","","fixation","","","",""
"1014","img/0_270.png","70","image-keyboard-response","391","467962","0.0-6.0-1.192","SOBA","2","f","rechts","21","","","object","f","0","true"
"null","<div style=""font-size:60px;"">+</div>","null","html-keyboard-response","392","468282","0.0-6.0-0.193","SOBA","2","f","rechts","21","","fixation","","","",""
"1669","img/60_90.png","74","image-keyboard-response","393","469965","0.0-6.0-1.193","SOBA","2","f","rechts","21","","","object","j","60","true"
"null","<div style=""font-size:60px;"">+</div>","null","html-keyboard-response","394","470389","0.0-6.0-0.194","SOBA","2","f","rechts","21","","fixation","","","",""
"1432","img/90_300.png","74","image-keyboard-response","395","471833","0.0-6.0-1.194","SOBA","2","f","rechts","21","","","object","j","90","true"
"null","<div style=""font-size:60px;"">+</div>","null","html-keyboard-response","396","472158","0.0-6.0-0.195","SOBA","2","f","rechts","21","","fixation","","","",""
"1053","img/0_60.png","74","image-keyboard-response","397","473228","0.0-6.0-1.195","SOBA","2","f","rechts","21","","","object","j","0","true"
"null","<div style=""font-size:60px;"">+</div>","null","html-keyboard-response","398","473755","0.0-6.0-0.196","SOBA","2","f","rechts","21","","fixation","","","",""
"1471","img/90_150.png","74","image-keyboard-response","399","475239","0.0-6.0-1.196","SOBA","2","f","rechts","21","","","object","j","90","true"
"null","<div style=""font-size:60px;"">+</div>","null","html-keyboard-response","400","475596","0.0-6.0-0.197","SOBA","2","f","rechts","21","","fixation","","","",""
"1385","img/30_180.png","70","image-keyboard-response","401","476994","0.0-6.0-1.197","SOBA","2","f","rechts","21","","","object","f","30","true"
"null","<div style=""font-size:60px;"">+</div>","null","html-keyboard-response","402","477467","0.0-6.0-0.198","SOBA","2","f","rechts","21","","fixation","","","",""
"1466","img/90_330.png","74","image-keyboard-response","403","478943","0.0-6.0-1.198","SOBA","2","f","rechts","21","","","object","j","90","true"
"null","<div style=""font-size:60px;"">+</div>","null","html-keyboard-response","404","479420","0.0-6.0-0.199","SOBA","2","f","rechts","21","","fixation","","","",""
"1601","img/90_240.png","70","image-keyboard-response","405","481035","0.0-6.0-1.199","SOBA","2","f","rechts","21","","","object","f","90","true"
"null","<div style=""font-size:60px;"">+</div>","null","html-keyboard-response","406","481512","0.0-6.0-0.200","SOBA","2","f","rechts","21","","fixation","","","",""
"1017","img/0_30.png","74","image-keyboard-response","407","482543","0.0-6.0-1.200","SOBA","2","f","rechts","21","","","object","j","0","true"
"null","<div style=""font-size:60px;"">+</div>","null","html-keyboard-response","408","482902","0.0-6.0-0.201","SOBA","2","f","rechts","21","","fixation","","","",""
"1076","img/120_330.png","74","image-keyboard-response","409","483995","0.0-6.0-1.201","SOBA","2","f","rechts","21","","","object","j","120","true"
"null","<div style=""font-size:60px;"">+</div>","null","html-keyboard-response","410","484406","0.0-6.0-0.202","SOBA","2","f","rechts","21","","fixation","","","",""
"832","img/0_240.png","70","image-keyboard-response","411","485251","0.0-6.0-1.202","SOBA","2","f","rechts","21","","","object","f","0","true"
"null","<div style=""font-size:60px;"">+</div>","null","html-keyboard-response","412","485656","0.0-6.0-0.203","SOBA","2","f","rechts","21","","fixation","","","",""
"1496","img/L60_180.png","74","image-keyboard-response","413","487166","0.0-6.0-1.203","SOBA","2","f","rechts","21","","","object","j","60","true"
"null","<div style=""font-size:60px;"">+</div>","null","html-keyboard-response","414","487581","0.0-6.0-0.204","SOBA","2","f","rechts","21","","fixation","","","",""
"2370","img/L120_180.png","74","image-keyboard-response","415","489960","0.0-6.0-1.204","SOBA","2","f","rechts","21","","","object","j","120","true"
"null","<div style=""font-size:60px;"">+</div>","null","html-keyboard-response","416","490348","0.0-6.0-0.205","SOBA","2","f","rechts","21","","fixation","","","",""
"1575","img/120_90.png","70","image-keyboard-response","417","491936","0.0-6.0-1.205","SOBA","2","f","rechts","21","","","object","f","120","true"
"null","<div style=""font-size:60px;"">+</div>","null","html-keyboard-response","418","492359","0.0-6.0-0.206","SOBA","2","f","rechts","21","","fixation","","","",""
"2337","img/150_240.png","70","image-keyboard-response","419","494710","0.0-6.0-1.206","SOBA","2","f","rechts","21","","","object","j","150","false"
"null","<div style=""font-size:60px;"">+</div>","null","html-keyboard-response","420","495021","0.0-6.0-0.207","SOBA","2","f","rechts","21","","fixation","","","",""
"1864","img/150_270.png","74","image-keyboard-response","421","496898","0.0-6.0-1.207","SOBA","2","f","rechts","21","","","object","j","150","true"
"12380","<p>Du hast in 91% der Versuche korrekt entschieden.</p><p>Deine durchschnittliche Reaktionszeit war  1660ms.</p><p>Dr&uuml;cke eine beliebige Taste, um die Session zu beenden. Vielen Dank!</p>","32","html-keyboard-response","422","509284","0.0-7.0","SOBA","2","f","rechts","21","","","","","",""
