"rt","stimulus","key_press","trial_type","trial_index","time_elapsed","internal_node_id","subject","session","sex","handedness","age","responses","test_part","condition","correct_response","angle","correct"
"3343","<p>Mental Rotation Experiment.</p> <p>Dr&uuml;cke eine beliebige Taste, um anzufangen.</p>","13","html-keyboard-response","0","3381","0.0-0.0","SOBA","1","f","rechts","21","","","","","",""
"15545","","","survey-text","1","18928","0.0-1.0","SOBA","1","f","rechts","21","{""Q0"":""SOBA""}","","","","",""
"23438","","","survey-text","2","42368","0.0-2.0","SOBA","1","f","rechts","21","{""Q0"":""1""}","","","","",""
"3550","","","survey-multi-choice","3","45923","0.0-3.0","SOBA","1","f","rechts","21","{""Q0"":""f"",""Q1"":""rechts""}","","","","",""
"3745","","","survey-text","4","49668","0.0-4.0","SOBA","1","f","rechts","21","{""Q0"":""21""}","","","","",""
"41433","<p>Stell dir vor, dass du vor einem runden Tisch stehst, auf dem sich ein blauer Ball am Tischrand befindet. Entlang des Tischrands ist jeweils ein verschieden langer Pfeil. Nun bleibst du an deinem Platz vor dem Tisch und rotierst den Tisch entlang des Pfeils (gleiche Richtung und Länge). </p> <img src='img/30_180.png'></img> <br><p> Nachdem du diese (vorgestellte) Rotation durchgef&uuml;hrt hast, schau in Richtung der Tischmitte, und entscheide dann, ob der Ball links oder rechts von dir liegt.</p> <p>Dr&uuml;cke die <strong>'f'</strong>-Taste f&uuml;r links, die <strong>'j'</strong>-Taste f&uuml;r rechts.</p><br><p> Das Bild wird jeweils 1 Sekunde lang pr&auml;sentiert. Du hast 3 Sekunden Zeit eine Entscheidung zu treffen.</p>","32","html-keyboard-response","5","91109","0.0-5.0","SOBA","1","f","rechts","21","","","","","",""
"null","<div style=""font-size:60px;"">+</div>","null","html-keyboard-response","6","92642","0.0-6.0-0.0","SOBA","1","f","rechts","21","","fixation","","","",""
"1525","img/0_240.png","70","image-keyboard-response","7","94188","0.0-6.0-1.0","SOBA","1","f","rechts","21","","","object","f","0","true"
"null","<div style=""font-size:60px;"">+</div>","null","html-keyboard-response","8","94644","0.0-6.0-0.1","SOBA","1","f","rechts","21","","fixation","","","",""
"1662","img/60_270.png","70","image-keyboard-response","9","96325","0.0-6.0-1.1","SOBA","1","f","rechts","21","","","object","f","60","true"
"null","<div style=""font-size:60px;"">+</div>","null","html-keyboard-response","10","96733","0.0-6.0-0.2","SOBA","1","f","rechts","21","","fixation","","","",""
"1409","img/90_180.png","70","image-keyboard-response","11","98159","0.0-6.0-1.2","SOBA","1","f","rechts","21","","","object","f","90","true"
"null","<div style=""font-size:60px;"">+</div>","null","html-keyboard-response","12","98572","0.0-6.0-0.3","SOBA","1","f","rechts","21","","fixation","","","",""
"1941","img/120_210.png","74","image-keyboard-response","13","100530","0.0-6.0-1.3","SOBA","1","f","rechts","21","","","object","f","120","false"
"null","<div style=""font-size:60px;"">+</div>","null","html-keyboard-response","14","101001","0.0-6.0-0.4","SOBA","1","f","rechts","21","","fixation","","","",""
"1607","img/120_30.png","70","image-keyboard-response","15","102625","0.0-6.0-1.4","SOBA","1","f","rechts","21","","","object","f","120","true"
"null","<div style=""font-size:60px;"">+</div>","null","html-keyboard-response","16","103043","0.0-6.0-0.5","SOBA","1","f","rechts","21","","fixation","","","",""
"1220","img/60_330.png","74","image-keyboard-response","17","104279","0.0-6.0-1.5","SOBA","1","f","rechts","21","","","object","j","60","true"
"null","<div style=""font-size:60px;"">+</div>","null","html-keyboard-response","18","104789","0.0-6.0-0.6","SOBA","1","f","rechts","21","","fixation","","","",""
"1317","img/90_330.png","74","image-keyboard-response","19","106125","0.0-6.0-1.6","SOBA","1","f","rechts","21","","","object","j","90","true"
"null","<div style=""font-size:60px;"">+</div>","null","html-keyboard-response","20","106589","0.0-6.0-0.7","SOBA","1","f","rechts","21","","fixation","","","",""
"1318","img/90_60.png","70","image-keyboard-response","21","107913","0.0-6.0-1.7","SOBA","1","f","rechts","21","","","object","f","90","true"
"null","<div style=""font-size:60px;"">+</div>","null","html-keyboard-response","22","108385","0.0-6.0-0.8","SOBA","1","f","rechts","21","","fixation","","","",""
"1131","img/30_90.png","74","image-keyboard-response","23","109534","0.0-6.0-1.8","SOBA","1","f","rechts","21","","","object","j","30","true"
"null","<div style=""font-size:60px;"">+</div>","null","html-keyboard-response","24","110051","0.0-6.0-0.9","SOBA","1","f","rechts","21","","fixation","","","",""
"1118","img/60_30.png","70","image-keyboard-response","25","111187","0.0-6.0-1.9","SOBA","1","f","rechts","21","","","object","f","60","true"
"null","<div style=""font-size:60px;"">+</div>","null","html-keyboard-response","26","111503","0.0-6.0-0.10","SOBA","1","f","rechts","21","","fixation","","","",""
"2112","img/120_180.png","70","image-keyboard-response","27","113633","0.0-6.0-1.10","SOBA","1","f","rechts","21","","","object","f","120","true"
"null","<div style=""font-size:60px;"">+</div>","null","html-keyboard-response","28","114090","0.0-6.0-0.11","SOBA","1","f","rechts","21","","fixation","","","",""
"2565","img/150_300.png","74","image-keyboard-response","29","116672","0.0-6.0-1.11","SOBA","1","f","rechts","21","","","object","j","150","true"
"null","<div style=""font-size:60px;"">+</div>","null","html-keyboard-response","30","117086","0.0-6.0-0.12","SOBA","1","f","rechts","21","","fixation","","","",""
"1732","img/150_90.png","70","image-keyboard-response","31","118837","0.0-6.0-1.12","SOBA","1","f","rechts","21","","","object","f","150","true"
"null","<div style=""font-size:60px;"">+</div>","null","html-keyboard-response","32","119311","0.0-6.0-0.13","SOBA","1","f","rechts","21","","fixation","","","",""
"1466","img/30_60.png","70","image-keyboard-response","33","120796","0.0-6.0-1.13","SOBA","1","f","rechts","21","","","object","j","30","false"
"null","<div style=""font-size:60px;"">+</div>","null","html-keyboard-response","34","121225","0.0-6.0-0.14","SOBA","1","f","rechts","21","","fixation","","","",""
"2318","img/0_150.png","74","image-keyboard-response","35","123564","0.0-6.0-1.14","SOBA","1","f","rechts","21","","","object","j","0","true"
"null","<div style=""font-size:60px;"">+</div>","null","html-keyboard-response","36","124023","0.0-6.0-0.15","SOBA","1","f","rechts","21","","fixation","","","",""
"1738","img/150_180.png","70","image-keyboard-response","37","125780","0.0-6.0-1.15","SOBA","1","f","rechts","21","","","object","f","150","true"
"null","<div style=""font-size:60px;"">+</div>","null","html-keyboard-response","38","126101","0.0-6.0-0.16","SOBA","1","f","rechts","21","","fixation","","","",""
"2010","img/L90_180.png","74","image-keyboard-response","39","128131","0.0-6.0-1.16","SOBA","1","f","rechts","21","","","object","j","90","true"
"null","<div style=""font-size:60px;"">+</div>","null","html-keyboard-response","40","128590","0.0-6.0-0.17","SOBA","1","f","rechts","21","","fixation","","","",""
"1650","img/90_30.png","70","image-keyboard-response","41","130257","0.0-6.0-1.17","SOBA","1","f","rechts","21","","","object","f","90","true"
"null","<div style=""font-size:60px;"">+</div>","null","html-keyboard-response","42","130681","0.0-6.0-0.18","SOBA","1","f","rechts","21","","fixation","","","",""
"1727","img/60_150.png","74","image-keyboard-response","43","132425","0.0-6.0-1.18","SOBA","1","f","rechts","21","","","object","j","60","true"
"null","<div style=""font-size:60px;"">+</div>","null","html-keyboard-response","44","132748","0.0-6.0-0.19","SOBA","1","f","rechts","21","","fixation","","","",""
"2436","img/30_270.png","70","image-keyboard-response","45","135200","0.0-6.0-1.19","SOBA","1","f","rechts","21","","","object","f","30","true"
"null","<div style=""font-size:60px;"">+</div>","null","html-keyboard-response","46","135716","0.0-6.0-0.20","SOBA","1","f","rechts","21","","fixation","","","",""
"2072","img/150_60.png","70","image-keyboard-response","47","137806","0.0-6.0-1.20","SOBA","1","f","rechts","21","","","object","f","150","true"
"null","<div style=""font-size:60px;"">+</div>","null","html-keyboard-response","48","138329","0.0-6.0-0.21","SOBA","1","f","rechts","21","","fixation","","","",""
"987","img/0_120.png","74","image-keyboard-response","49","139333","0.0-6.0-1.21","SOBA","1","f","rechts","21","","","object","j","0","true"
"null","<div style=""font-size:60px;"">+</div>","null","html-keyboard-response","50","139845","0.0-6.0-0.22","SOBA","1","f","rechts","21","","fixation","","","",""
"1182","img/0_90.png","74","image-keyboard-response","51","141047","0.0-6.0-1.22","SOBA","1","f","rechts","21","","","object","j","0","true"
"null","<div style=""font-size:60px;"">+</div>","null","html-keyboard-response","52","141417","0.0-6.0-0.23","SOBA","1","f","rechts","21","","fixation","","","",""
"2394","img/L30_180.png","74","image-keyboard-response","53","143828","0.0-6.0-1.23","SOBA","1","f","rechts","21","","","object","j","30","true"
"null","<div style=""font-size:60px;"">+</div>","null","html-keyboard-response","54","144346","0.0-6.0-0.24","SOBA","1","f","rechts","21","","fixation","","","",""
"2535","img/L150_180.png","70","image-keyboard-response","55","146900","0.0-6.0-1.24","SOBA","1","f","rechts","21","","","object","j","150","false"
"null","<div style=""font-size:60px;"">+</div>","null","html-keyboard-response","56","147320","0.0-6.0-0.25","SOBA","1","f","rechts","21","","fixation","","","",""
"2088","img/0_300.png","70","image-keyboard-response","57","149426","0.0-6.0-1.25","SOBA","1","f","rechts","21","","","object","f","0","true"
"null","<div style=""font-size:60px;"">+</div>","null","html-keyboard-response","58","149732","0.0-6.0-0.26","SOBA","1","f","rechts","21","","fixation","","","",""
"2321","img/120_270.png","74","image-keyboard-response","59","152070","0.0-6.0-1.26","SOBA","1","f","rechts","21","","","object","j","120","true"
"null","<div style=""font-size:60px;"">+</div>","null","html-keyboard-response","60","152576","0.0-6.0-0.27","SOBA","1","f","rechts","21","","fixation","","","",""
"2494","img/90_210.png","70","image-keyboard-response","61","155090","0.0-6.0-1.27","SOBA","1","f","rechts","21","","","object","f","90","true"
"null","<div style=""font-size:60px;"">+</div>","null","html-keyboard-response","62","155398","0.0-6.0-0.28","SOBA","1","f","rechts","21","","fixation","","","",""
"1489","img/60_90.png","74","image-keyboard-response","63","156906","0.0-6.0-1.28","SOBA","1","f","rechts","21","","","object","j","60","true"
"null","<div style=""font-size:60px;"">+</div>","null","html-keyboard-response","64","157274","0.0-6.0-0.29","SOBA","1","f","rechts","21","","fixation","","","",""
"1255","img/30_180.png","70","image-keyboard-response","65","158540","0.0-6.0-1.29","SOBA","1","f","rechts","21","","","object","f","30","true"
"null","<div style=""font-size:60px;"">+</div>","null","html-keyboard-response","66","158858","0.0-6.0-0.30","SOBA","1","f","rechts","21","","fixation","","","",""
"2506","img/0_30.png","74","image-keyboard-response","67","161385","0.0-6.0-1.30","SOBA","1","f","rechts","21","","","object","j","0","true"
"null","<div style=""font-size:60px;"">+</div>","null","html-keyboard-response","68","161846","0.0-6.0-0.31","SOBA","1","f","rechts","21","","fixation","","","",""
"1834","img/90_120.png","74","image-keyboard-response","69","163698","0.0-6.0-1.31","SOBA","1","f","rechts","21","","","object","j","90","true"
"null","<div style=""font-size:60px;"">+</div>","null","html-keyboard-response","70","164121","0.0-6.0-0.32","SOBA","1","f","rechts","21","","fixation","","","",""
"2350","img/60_180.png","70","image-keyboard-response","71","166490","0.0-6.0-1.32","SOBA","1","f","rechts","21","","","object","f","60","true"
"null","<div style=""font-size:60px;"">+</div>","null","html-keyboard-response","72","166844","0.0-6.0-0.33","SOBA","1","f","rechts","21","","fixation","","","",""
"1352","img/90_300.png","74","image-keyboard-response","73","168213","0.0-6.0-1.33","SOBA","1","f","rechts","21","","","object","j","90","true"
"null","<div style=""font-size:60px;"">+</div>","null","html-keyboard-response","74","168634","0.0-6.0-0.34","SOBA","1","f","rechts","21","","fixation","","","",""
"2368","img/150_270.png","74","image-keyboard-response","75","171019","0.0-6.0-1.34","SOBA","1","f","rechts","21","","","object","j","150","true"
"null","<div style=""font-size:60px;"">+</div>","null","html-keyboard-response","76","171447","0.0-6.0-0.35","SOBA","1","f","rechts","21","","fixation","","","",""
"2859","img/90_240.png","70","image-keyboard-response","77","174326","0.0-6.0-1.35","SOBA","1","f","rechts","21","","","object","f","90","true"
"null","<div style=""font-size:60px;"">+</div>","null","html-keyboard-response","78","174646","0.0-6.0-0.36","SOBA","1","f","rechts","21","","fixation","","","",""
"1177","img/0_330.png","70","image-keyboard-response","79","175828","0.0-6.0-1.36","SOBA","1","f","rechts","21","","","object","f","0","true"
"null","<div style=""font-size:60px;"">+</div>","null","html-keyboard-response","80","176196","0.0-6.0-0.37","SOBA","1","f","rechts","21","","fixation","","","",""
"null","img/30_240.png","null","image-keyboard-response","81","179231","0.0-6.0-1.37","SOBA","1","f","rechts","21","","","object","f","30","false"
"null","<div style=""font-size:60px;"">+</div>","null","html-keyboard-response","82","179636","0.0-6.0-0.38","SOBA","1","f","rechts","21","","fixation","","","",""
"2574","img/0_60.png","74","image-keyboard-response","83","182226","0.0-6.0-1.38","SOBA","1","f","rechts","21","","","object","j","0","true"
"null","<div style=""font-size:60px;"">+</div>","null","html-keyboard-response","84","182603","0.0-6.0-0.39","SOBA","1","f","rechts","21","","fixation","","","",""
"1535","img/L120_180.png","74","image-keyboard-response","85","184156","0.0-6.0-1.39","SOBA","1","f","rechts","21","","","object","j","120","true"
"null","<div style=""font-size:60px;"">+</div>","null","html-keyboard-response","86","184614","0.0-6.0-0.40","SOBA","1","f","rechts","21","","fixation","","","",""
"1548","img/150_120.png","70","image-keyboard-response","87","186181","0.0-6.0-1.40","SOBA","1","f","rechts","21","","","object","f","150","true"
"null","<div style=""font-size:60px;"">+</div>","null","html-keyboard-response","88","186534","0.0-6.0-0.41","SOBA","1","f","rechts","21","","fixation","","","",""
"1252","img/30_120.png","74","image-keyboard-response","89","187802","0.0-6.0-1.41","SOBA","1","f","rechts","21","","","object","j","30","true"
"null","<div style=""font-size:60px;"">+</div>","null","html-keyboard-response","90","188317","0.0-6.0-0.42","SOBA","1","f","rechts","21","","fixation","","","",""
"null","img/120_90.png","null","image-keyboard-response","91","191354","0.0-6.0-1.42","SOBA","1","f","rechts","21","","","object","f","120","false"
"null","<div style=""font-size:60px;"">+</div>","null","html-keyboard-response","92","191663","0.0-6.0-0.43","SOBA","1","f","rechts","21","","fixation","","","",""
"199","img/150_240.png","74","image-keyboard-response","93","191880","0.0-6.0-1.43","SOBA","1","f","rechts","21","","","object","j","150","true"
"null","<div style=""font-size:60px;"">+</div>","null","html-keyboard-response","94","192196","0.0-6.0-0.44","SOBA","1","f","rechts","21","","fixation","","","",""
"1761","img/90_150.png","74","image-keyboard-response","95","193974","0.0-6.0-1.44","SOBA","1","f","rechts","21","","","object","j","90","true"
"null","<div style=""font-size:60px;"">+</div>","null","html-keyboard-response","96","194485","0.0-6.0-0.45","SOBA","1","f","rechts","21","","fixation","","","",""
"1466","img/30_300.png","70","image-keyboard-response","97","195958","0.0-6.0-1.45","SOBA","1","f","rechts","21","","","object","f","30","true"
"null","<div style=""font-size:60px;"">+</div>","null","html-keyboard-response","98","196411","0.0-6.0-0.46","SOBA","1","f","rechts","21","","fixation","","","",""
"1790","img/60_210.png","70","image-keyboard-response","99","198217","0.0-6.0-1.46","SOBA","1","f","rechts","21","","","object","f","60","true"
"null","<div style=""font-size:60px;"">+</div>","null","html-keyboard-response","100","198625","0.0-6.0-0.47","SOBA","1","f","rechts","21","","fixation","","","",""
"1117","img/0_270.png","70","image-keyboard-response","101","199759","0.0-6.0-1.47","SOBA","1","f","rechts","21","","","object","f","0","true"
"null","<div style=""font-size:60px;"">+</div>","null","html-keyboard-response","102","200075","0.0-6.0-0.48","SOBA","1","f","rechts","21","","fixation","","","",""
"1802","img/120_150.png","74","image-keyboard-response","103","201897","0.0-6.0-1.48","SOBA","1","f","rechts","21","","","object","j","120","true"
"null","<div style=""font-size:60px;"">+</div>","null","html-keyboard-response","104","202213","0.0-6.0-0.49","SOBA","1","f","rechts","21","","fixation","","","",""
"1617","img/L60_180.png","74","image-keyboard-response","105","203843","0.0-6.0-1.49","SOBA","1","f","rechts","21","","","object","j","60","true"
"null","<div style=""font-size:60px;"">+</div>","null","html-keyboard-response","106","204299","0.0-6.0-0.50","SOBA","1","f","rechts","21","","fixation","","","",""
"1914","img/120_330.png","74","image-keyboard-response","107","206218","0.0-6.0-1.50","SOBA","1","f","rechts","21","","","object","j","120","true"
"null","<div style=""font-size:60px;"">+</div>","null","html-keyboard-response","108","206692","0.0-6.0-0.51","SOBA","1","f","rechts","21","","fixation","","","",""
"1580","img/0_210.png","70","image-keyboard-response","109","208289","0.0-6.0-1.51","SOBA","1","f","rechts","21","","","object","f","0","true"
"null","<div style=""font-size:60px;"">+</div>","null","html-keyboard-response","110","208620","0.0-6.0-0.52","SOBA","1","f","rechts","21","","fixation","","","",""
"2128","img/120_90.png","70","image-keyboard-response","111","210757","0.0-6.0-1.52","SOBA","1","f","rechts","21","","","object","f","120","true"
"null","<div style=""font-size:60px;"">+</div>","null","html-keyboard-response","112","211222","0.0-6.0-0.53","SOBA","1","f","rechts","21","","fixation","","","",""
"1413","img/30_60.png","74","image-keyboard-response","113","212651","0.0-6.0-1.53","SOBA","1","f","rechts","21","","","object","j","30","true"
"null","<div style=""font-size:60px;"">+</div>","null","html-keyboard-response","114","213062","0.0-6.0-0.54","SOBA","1","f","rechts","21","","fixation","","","",""
"1545","img/90_30.png","70","image-keyboard-response","115","214620","0.0-6.0-1.54","SOBA","1","f","rechts","21","","","object","f","90","true"
"null","<div style=""font-size:60px;"">+</div>","null","html-keyboard-response","116","214928","0.0-6.0-0.55","SOBA","1","f","rechts","21","","fixation","","","",""
"1384","img/120_330.png","74","image-keyboard-response","117","216321","0.0-6.0-1.55","SOBA","1","f","rechts","21","","","object","j","120","true"
"null","<div style=""font-size:60px;"">+</div>","null","html-keyboard-response","118","216830","0.0-6.0-0.56","SOBA","1","f","rechts","21","","fixation","","","",""
"1550","img/0_300.png","70","image-keyboard-response","119","218390","0.0-6.0-1.56","SOBA","1","f","rechts","21","","","object","f","0","true"
"null","<div style=""font-size:60px;"">+</div>","null","html-keyboard-response","120","218746","0.0-6.0-0.57","SOBA","1","f","rechts","21","","fixation","","","",""
"1000","img/0_240.png","70","image-keyboard-response","121","219750","0.0-6.0-1.57","SOBA","1","f","rechts","21","","","object","f","0","true"
"null","<div style=""font-size:60px;"">+</div>","null","html-keyboard-response","122","220200","0.0-6.0-0.58","SOBA","1","f","rechts","21","","fixation","","","",""
"1219","img/0_330.png","70","image-keyboard-response","123","221428","0.0-6.0-1.58","SOBA","1","f","rechts","21","","","object","f","0","true"
"null","<div style=""font-size:60px;"">+</div>","null","html-keyboard-response","124","221841","0.0-6.0-0.59","SOBA","1","f","rechts","21","","fixation","","","",""
"1614","img/L120_180.png","74","image-keyboard-response","125","223464","0.0-6.0-1.59","SOBA","1","f","rechts","21","","","object","j","120","true"
"null","<div style=""font-size:60px;"">+</div>","null","html-keyboard-response","126","223923","0.0-6.0-0.60","SOBA","1","f","rechts","21","","fixation","","","",""
"1213","img/0_270.png","70","image-keyboard-response","127","225139","0.0-6.0-1.60","SOBA","1","f","rechts","21","","","object","f","0","true"
"null","<div style=""font-size:60px;"">+</div>","null","html-keyboard-response","128","225456","0.0-6.0-0.61","SOBA","1","f","rechts","21","","fixation","","","",""
"1302","img/90_60.png","70","image-keyboard-response","129","226772","0.0-6.0-1.61","SOBA","1","f","rechts","21","","","object","f","90","true"
"null","<div style=""font-size:60px;"">+</div>","null","html-keyboard-response","130","227185","0.0-6.0-0.62","SOBA","1","f","rechts","21","","fixation","","","",""
"1464","img/120_150.png","74","image-keyboard-response","131","228659","0.0-6.0-1.62","SOBA","1","f","rechts","21","","","object","j","120","true"
"null","<div style=""font-size:60px;"">+</div>","null","html-keyboard-response","132","229016","0.0-6.0-0.63","SOBA","1","f","rechts","21","","fixation","","","",""
"2733","img/150_180.png","70","image-keyboard-response","133","231754","0.0-6.0-1.63","SOBA","1","f","rechts","21","","","object","f","150","true"
"null","<div style=""font-size:60px;"">+</div>","null","html-keyboard-response","134","232209","0.0-6.0-0.64","SOBA","1","f","rechts","21","","fixation","","","",""
"null","img/90_210.png","null","image-keyboard-response","135","235234","0.0-6.0-1.64","SOBA","1","f","rechts","21","","","object","f","90","false"
"null","<div style=""font-size:60px;"">+</div>","null","html-keyboard-response","136","235761","0.0-6.0-0.65","SOBA","1","f","rechts","21","","fixation","","","",""
"1703","img/150_300.png","74","image-keyboard-response","137","237476","0.0-6.0-1.65","SOBA","1","f","rechts","21","","","object","j","150","true"
"null","<div style=""font-size:60px;"">+</div>","null","html-keyboard-response","138","237828","0.0-6.0-0.66","SOBA","1","f","rechts","21","","fixation","","","",""
"1811","img/60_30.png","70","image-keyboard-response","139","239653","0.0-6.0-1.66","SOBA","1","f","rechts","21","","","object","f","60","true"
"null","<div style=""font-size:60px;"">+</div>","null","html-keyboard-response","140","240075","0.0-6.0-0.67","SOBA","1","f","rechts","21","","fixation","","","",""
"2038","img/90_150.png","74","image-keyboard-response","141","242122","0.0-6.0-1.67","SOBA","1","f","rechts","21","","","object","j","90","true"
"null","<div style=""font-size:60px;"">+</div>","null","html-keyboard-response","142","242446","0.0-6.0-0.68","SOBA","1","f","rechts","21","","fixation","","","",""
"2417","img/30_270.png","70","image-keyboard-response","143","244878","0.0-6.0-1.68","SOBA","1","f","rechts","21","","","object","f","30","true"
"null","<div style=""font-size:60px;"">+</div>","null","html-keyboard-response","144","245192","0.0-6.0-0.69","SOBA","1","f","rechts","21","","fixation","","","",""
"1415","img/0_30.png","74","image-keyboard-response","145","246616","0.0-6.0-1.69","SOBA","1","f","rechts","21","","","object","j","0","true"
"null","<div style=""font-size:60px;"">+</div>","null","html-keyboard-response","146","246984","0.0-6.0-0.70","SOBA","1","f","rechts","21","","fixation","","","",""
"1907","img/150_240.png","70","image-keyboard-response","147","248901","0.0-6.0-1.70","SOBA","1","f","rechts","21","","","object","j","150","false"
"null","<div style=""font-size:60px;"">+</div>","null","html-keyboard-response","148","249326","0.0-6.0-0.71","SOBA","1","f","rechts","21","","fixation","","","",""
"1700","img/30_120.png","74","image-keyboard-response","149","251038","0.0-6.0-1.71","SOBA","1","f","rechts","21","","","object","j","30","true"
"null","<div style=""font-size:60px;"">+</div>","null","html-keyboard-response","150","251456","0.0-6.0-0.72","SOBA","1","f","rechts","21","","fixation","","","",""
"2463","img/60_210.png","70","image-keyboard-response","151","253928","0.0-6.0-1.72","SOBA","1","f","rechts","21","","","object","f","60","true"
"null","<div style=""font-size:60px;"">+</div>","null","html-keyboard-response","152","254395","0.0-6.0-0.73","SOBA","1","f","rechts","21","","fixation","","","",""
"2632","img/60_270.png","74","image-keyboard-response","153","257040","0.0-6.0-1.73","SOBA","1","f","rechts","21","","","object","f","60","false"
"null","<div style=""font-size:60px;"">+</div>","null","html-keyboard-response","154","257562","0.0-6.0-0.74","SOBA","1","f","rechts","21","","fixation","","","",""
"2095","img/0_120.png","74","image-keyboard-response","155","259671","0.0-6.0-1.74","SOBA","1","f","rechts","21","","","object","j","0","true"
"null","<div style=""font-size:60px;"">+</div>","null","html-keyboard-response","156","259988","0.0-6.0-0.75","SOBA","1","f","rechts","21","","fixation","","","",""
"1361","img/0_210.png","70","image-keyboard-response","157","261352","0.0-6.0-1.75","SOBA","1","f","rechts","21","","","object","f","0","true"
"null","<div style=""font-size:60px;"">+</div>","null","html-keyboard-response","158","261733","0.0-6.0-0.76","SOBA","1","f","rechts","21","","fixation","","","",""
"1886","img/90_300.png","74","image-keyboard-response","159","263628","0.0-6.0-1.76","SOBA","1","f","rechts","21","","","object","j","90","true"
"null","<div style=""font-size:60px;"">+</div>","null","html-keyboard-response","160","264138","0.0-6.0-0.77","SOBA","1","f","rechts","21","","fixation","","","",""
"2220","img/120_30.png","70","image-keyboard-response","161","266364","0.0-6.0-1.77","SOBA","1","f","rechts","21","","","object","f","120","true"
"null","<div style=""font-size:60px;"">+</div>","null","html-keyboard-response","162","266818","0.0-6.0-0.78","SOBA","1","f","rechts","21","","fixation","","","",""
"2749","img/120_270.png","74","image-keyboard-response","163","269581","0.0-6.0-1.78","SOBA","1","f","rechts","21","","","object","j","120","true"
"null","<div style=""font-size:60px;"">+</div>","null","html-keyboard-response","164","270057","0.0-6.0-0.79","SOBA","1","f","rechts","21","","fixation","","","",""
"2381","img/90_240.png","74","image-keyboard-response","165","272447","0.0-6.0-1.79","SOBA","1","f","rechts","21","","","object","f","90","false"
"null","<div style=""font-size:60px;"">+</div>","null","html-keyboard-response","166","272757","0.0-6.0-0.80","SOBA","1","f","rechts","21","","fixation","","","",""
"2100","img/150_270.png","74","image-keyboard-response","167","274869","0.0-6.0-1.80","SOBA","1","f","rechts","21","","","object","j","150","true"
"null","<div style=""font-size:60px;"">+</div>","null","html-keyboard-response","168","275222","0.0-6.0-0.81","SOBA","1","f","rechts","21","","fixation","","","",""
"2354","img/120_210.png","74","image-keyboard-response","169","277590","0.0-6.0-1.81","SOBA","1","f","rechts","21","","","object","f","120","false"
"null","<div style=""font-size:60px;"">+</div>","null","html-keyboard-response","170","277901","0.0-6.0-0.82","SOBA","1","f","rechts","21","","fixation","","","",""
"null","img/90_120.png","null","image-keyboard-response","171","280936","0.0-6.0-1.82","SOBA","1","f","rechts","21","","","object","j","90","false"
"null","<div style=""font-size:60px;"">+</div>","null","html-keyboard-response","172","281240","0.0-6.0-0.83","SOBA","1","f","rechts","21","","fixation","","","",""
"133","img/0_150.png","70","image-keyboard-response","173","281391","0.0-6.0-1.83","SOBA","1","f","rechts","21","","","object","j","0","false"
"null","<div style=""font-size:60px;"">+</div>","null","html-keyboard-response","174","281866","0.0-6.0-0.84","SOBA","1","f","rechts","21","","fixation","","","",""
"2240","img/120_180.png","70","image-keyboard-response","175","284118","0.0-6.0-1.84","SOBA","1","f","rechts","21","","","object","f","120","true"
"null","<div style=""font-size:60px;"">+</div>","null","html-keyboard-response","176","284590","0.0-6.0-0.85","SOBA","1","f","rechts","21","","fixation","","","",""
"2485","img/90_180.png","70","image-keyboard-response","177","287088","0.0-6.0-1.85","SOBA","1","f","rechts","21","","","object","f","90","true"
"null","<div style=""font-size:60px;"">+</div>","null","html-keyboard-response","178","287451","0.0-6.0-0.86","SOBA","1","f","rechts","21","","fixation","","","",""
"1350","img/L30_180.png","74","image-keyboard-response","179","288815","0.0-6.0-1.86","SOBA","1","f","rechts","21","","","object","j","30","true"
"null","<div style=""font-size:60px;"">+</div>","null","html-keyboard-response","180","289230","0.0-6.0-0.87","SOBA","1","f","rechts","21","","fixation","","","",""
"2767","img/60_90.png","74","image-keyboard-response","181","292010","0.0-6.0-1.87","SOBA","1","f","rechts","21","","","object","j","60","true"
"null","<div style=""font-size:60px;"">+</div>","null","html-keyboard-response","182","292462","0.0-6.0-0.88","SOBA","1","f","rechts","21","","fixation","","","",""
"1414","img/30_180.png","74","image-keyboard-response","183","293889","0.0-6.0-1.88","SOBA","1","f","rechts","21","","","object","f","30","false"
"null","<div style=""font-size:60px;"">+</div>","null","html-keyboard-response","184","294246","0.0-6.0-0.89","SOBA","1","f","rechts","21","","fixation","","","",""
"null","img/0_90.png","null","image-keyboard-response","185","297287","0.0-6.0-1.89","SOBA","1","f","rechts","21","","","object","j","0","false"
"null","<div style=""font-size:60px;"">+</div>","null","html-keyboard-response","186","297602","0.0-6.0-0.90","SOBA","1","f","rechts","21","","fixation","","","",""
"2296","img/30_90.png","74","image-keyboard-response","187","299910","0.0-6.0-1.90","SOBA","1","f","rechts","21","","","object","j","30","true"
"null","<div style=""font-size:60px;"">+</div>","null","html-keyboard-response","188","300230","0.0-6.0-0.91","SOBA","1","f","rechts","21","","fixation","","","",""
"1739","img/60_150.png","74","image-keyboard-response","189","301979","0.0-6.0-1.91","SOBA","1","f","rechts","21","","","object","j","60","true"
"null","<div style=""font-size:60px;"">+</div>","null","html-keyboard-response","190","302299","0.0-6.0-0.92","SOBA","1","f","rechts","21","","fixation","","","",""
"1714","img/90_330.png","74","image-keyboard-response","191","304026","0.0-6.0-1.92","SOBA","1","f","rechts","21","","","object","j","90","true"
"null","<div style=""font-size:60px;"">+</div>","null","html-keyboard-response","192","304547","0.0-6.0-0.93","SOBA","1","f","rechts","21","","fixation","","","",""
"1542","img/L90_180.png","74","image-keyboard-response","193","306096","0.0-6.0-1.93","SOBA","1","f","rechts","21","","","object","j","90","true"
"null","<div style=""font-size:60px;"">+</div>","null","html-keyboard-response","194","306416","0.0-6.0-0.94","SOBA","1","f","rechts","21","","fixation","","","",""
"1364","img/0_60.png","74","image-keyboard-response","195","307794","0.0-6.0-1.94","SOBA","1","f","rechts","21","","","object","j","0","true"
"null","<div style=""font-size:60px;"">+</div>","null","html-keyboard-response","196","308317","0.0-6.0-0.95","SOBA","1","f","rechts","21","","fixation","","","",""
"1703","img/L60_180.png","74","image-keyboard-response","197","310032","0.0-6.0-1.95","SOBA","1","f","rechts","21","","","object","j","60","true"
"null","<div style=""font-size:60px;"">+</div>","null","html-keyboard-response","198","310451","0.0-6.0-0.96","SOBA","1","f","rechts","21","","fixation","","","",""
"1255","img/60_330.png","74","image-keyboard-response","199","311720","0.0-6.0-1.96","SOBA","1","f","rechts","21","","","object","j","60","true"
"null","<div style=""font-size:60px;"">+</div>","null","html-keyboard-response","200","312155","0.0-6.0-0.97","SOBA","1","f","rechts","21","","fixation","","","",""
"2707","img/30_240.png","70","image-keyboard-response","201","314876","0.0-6.0-1.97","SOBA","1","f","rechts","21","","","object","f","30","true"
"null","<div style=""font-size:60px;"">+</div>","null","html-keyboard-response","202","315395","0.0-6.0-0.98","SOBA","1","f","rechts","21","","fixation","","","",""
"1596","img/150_90.png","74","image-keyboard-response","203","317010","0.0-6.0-1.98","SOBA","1","f","rechts","21","","","object","f","150","false"
"null","<div style=""font-size:60px;"">+</div>","null","html-keyboard-response","204","317437","0.0-6.0-0.99","SOBA","1","f","rechts","21","","fixation","","","",""
"2375","img/60_180.png","70","image-keyboard-response","205","319826","0.0-6.0-1.99","SOBA","1","f","rechts","21","","","object","f","60","true"
"null","<div style=""font-size:60px;"">+</div>","null","html-keyboard-response","206","320291","0.0-6.0-0.100","SOBA","1","f","rechts","21","","fixation","","","",""
"2479","img/L150_180.png","74","image-keyboard-response","207","322783","0.0-6.0-1.100","SOBA","1","f","rechts","21","","","object","j","150","true"
"null","<div style=""font-size:60px;"">+</div>","null","html-keyboard-response","208","323235","0.0-6.0-0.101","SOBA","1","f","rechts","21","","fixation","","","",""
"2056","img/150_120.png","74","image-keyboard-response","209","325304","0.0-6.0-1.101","SOBA","1","f","rechts","21","","","object","f","150","false"
"null","<div style=""font-size:60px;"">+</div>","null","html-keyboard-response","210","325714","0.0-6.0-0.102","SOBA","1","f","rechts","21","","fixation","","","",""
"2153","img/30_300.png","74","image-keyboard-response","211","327882","0.0-6.0-1.102","SOBA","1","f","rechts","21","","","object","f","30","false"
"null","<div style=""font-size:60px;"">+</div>","null","html-keyboard-response","212","328295","0.0-6.0-0.103","SOBA","1","f","rechts","21","","fixation","","","",""
"2240","img/150_60.png","70","image-keyboard-response","213","330547","0.0-6.0-1.103","SOBA","1","f","rechts","21","","","object","f","150","true"
"null","<div style=""font-size:60px;"">+</div>","null","html-keyboard-response","214","331073","0.0-6.0-0.104","SOBA","1","f","rechts","21","","fixation","","","",""
"2250","img/90_30.png","70","image-keyboard-response","215","333335","0.0-6.0-1.104","SOBA","1","f","rechts","21","","","object","f","90","true"
"null","<div style=""font-size:60px;"">+</div>","null","html-keyboard-response","216","333852","0.0-6.0-0.105","SOBA","1","f","rechts","21","","fixation","","","",""
"2745","img/30_240.png","70","image-keyboard-response","217","336607","0.0-6.0-1.105","SOBA","1","f","rechts","21","","","object","f","30","true"
"null","<div style=""font-size:60px;"">+</div>","null","html-keyboard-response","218","337130","0.0-6.0-0.106","SOBA","1","f","rechts","21","","fixation","","","",""
"2914","img/L60_180.png","74","image-keyboard-response","219","340053","0.0-6.0-1.106","SOBA","1","f","rechts","21","","","object","j","60","true"
"null","<div style=""font-size:60px;"">+</div>","null","html-keyboard-response","220","340419","0.0-6.0-0.107","SOBA","1","f","rechts","21","","fixation","","","",""
"1736","img/60_30.png","70","image-keyboard-response","221","342165","0.0-6.0-1.107","SOBA","1","f","rechts","21","","","object","f","60","true"
"null","<div style=""font-size:60px;"">+</div>","null","html-keyboard-response","222","342473","0.0-6.0-0.108","SOBA","1","f","rechts","21","","fixation","","","",""
"939","img/0_60.png","74","image-keyboard-response","223","343424","0.0-6.0-1.108","SOBA","1","f","rechts","21","","","object","j","0","true"
"null","<div style=""font-size:60px;"">+</div>","null","html-keyboard-response","224","343952","0.0-6.0-0.109","SOBA","1","f","rechts","21","","fixation","","","",""
"1489","img/60_180.png","70","image-keyboard-response","225","345450","0.0-6.0-1.109","SOBA","1","f","rechts","21","","","object","f","60","true"
"null","<div style=""font-size:60px;"">+</div>","null","html-keyboard-response","226","345767","0.0-6.0-0.110","SOBA","1","f","rechts","21","","fixation","","","",""
"2433","img/120_30.png","70","image-keyboard-response","227","348209","0.0-6.0-1.110","SOBA","1","f","rechts","21","","","object","f","120","true"
"null","<div style=""font-size:60px;"">+</div>","null","html-keyboard-response","228","348719","0.0-6.0-0.111","SOBA","1","f","rechts","21","","fixation","","","",""
"2084","img/150_300.png","74","image-keyboard-response","229","350806","0.0-6.0-1.111","SOBA","1","f","rechts","21","","","object","j","150","true"
"null","<div style=""font-size:60px;"">+</div>","null","html-keyboard-response","230","351263","0.0-6.0-0.112","SOBA","1","f","rechts","21","","fixation","","","",""
"2593","img/150_120.png","74","image-keyboard-response","231","353866","0.0-6.0-1.112","SOBA","1","f","rechts","21","","","object","f","150","false"
"null","<div style=""font-size:60px;"">+</div>","null","html-keyboard-response","232","354174","0.0-6.0-0.113","SOBA","1","f","rechts","21","","fixation","","","",""
"1713","img/L120_180.png","74","image-keyboard-response","233","355901","0.0-6.0-1.113","SOBA","1","f","rechts","21","","","object","j","120","true"
"null","<div style=""font-size:60px;"">+</div>","null","html-keyboard-response","234","356218","0.0-6.0-0.114","SOBA","1","f","rechts","21","","fixation","","","",""
"1534","img/0_30.png","74","image-keyboard-response","235","357765","0.0-6.0-1.114","SOBA","1","f","rechts","21","","","object","j","0","true"
"null","<div style=""font-size:60px;"">+</div>","null","html-keyboard-response","236","358187","0.0-6.0-0.115","SOBA","1","f","rechts","21","","fixation","","","",""
"1187","img/90_60.png","70","image-keyboard-response","237","359387","0.0-6.0-1.115","SOBA","1","f","rechts","21","","","object","f","90","true"
"null","<div style=""font-size:60px;"">+</div>","null","html-keyboard-response","238","359909","0.0-6.0-0.116","SOBA","1","f","rechts","21","","fixation","","","",""
"2770","img/60_270.png","70","image-keyboard-response","239","362689","0.0-6.0-1.116","SOBA","1","f","rechts","21","","","object","f","60","true"
"null","<div style=""font-size:60px;"">+</div>","null","html-keyboard-response","240","363008","0.0-6.0-0.117","SOBA","1","f","rechts","21","","fixation","","","",""
"2745","img/90_240.png","74","image-keyboard-response","241","365767","0.0-6.0-1.117","SOBA","1","f","rechts","21","","","object","f","90","false"
"null","<div style=""font-size:60px;"">+</div>","null","html-keyboard-response","242","366086","0.0-6.0-0.118","SOBA","1","f","rechts","21","","fixation","","","",""
"2832","img/30_300.png","74","image-keyboard-response","243","368922","0.0-6.0-1.118","SOBA","1","f","rechts","21","","","object","f","30","false"
"null","<div style=""font-size:60px;"">+</div>","null","html-keyboard-response","244","369399","0.0-6.0-0.119","SOBA","1","f","rechts","21","","fixation","","","",""
"2407","img/90_210.png","70","image-keyboard-response","245","371822","0.0-6.0-1.119","SOBA","1","f","rechts","21","","","object","f","90","true"
"null","<div style=""font-size:60px;"">+</div>","null","html-keyboard-response","246","372296","0.0-6.0-0.120","SOBA","1","f","rechts","21","","fixation","","","",""
"1029","img/0_240.png","70","image-keyboard-response","247","373338","0.0-6.0-1.120","SOBA","1","f","rechts","21","","","object","f","0","true"
"null","<div style=""font-size:60px;"">+</div>","null","html-keyboard-response","248","373650","0.0-6.0-0.121","SOBA","1","f","rechts","21","","fixation","","","",""
"1627","img/90_300.png","74","image-keyboard-response","249","375283","0.0-6.0-1.121","SOBA","1","f","rechts","21","","","object","j","90","true"
"null","<div style=""font-size:60px;"">+</div>","null","html-keyboard-response","250","375640","0.0-6.0-0.122","SOBA","1","f","rechts","21","","fixation","","","",""
"2445","img/120_210.png","74","image-keyboard-response","251","378096","0.0-6.0-1.122","SOBA","1","f","rechts","21","","","object","f","120","false"
"null","<div style=""font-size:60px;"">+</div>","null","html-keyboard-response","252","378423","0.0-6.0-0.123","SOBA","1","f","rechts","21","","fixation","","","",""
"1485","img/L150_180.png","74","image-keyboard-response","253","379918","0.0-6.0-1.123","SOBA","1","f","rechts","21","","","object","j","150","true"
"null","<div style=""font-size:60px;"">+</div>","null","html-keyboard-response","254","380240","0.0-6.0-0.124","SOBA","1","f","rechts","21","","fixation","","","",""
"974","img/0_150.png","74","image-keyboard-response","255","381225","0.0-6.0-1.124","SOBA","1","f","rechts","21","","","object","j","0","true"
"null","<div style=""font-size:60px;"">+</div>","null","html-keyboard-response","256","381700","0.0-6.0-0.125","SOBA","1","f","rechts","21","","fixation","","","",""
"2380","img/150_270.png","74","image-keyboard-response","257","384086","0.0-6.0-1.125","SOBA","1","f","rechts","21","","","object","j","150","true"
"null","<div style=""font-size:60px;"">+</div>","null","html-keyboard-response","258","384590","0.0-6.0-0.126","SOBA","1","f","rechts","21","","fixation","","","",""
"1406","img/L90_180.png","74","image-keyboard-response","259","386005","0.0-6.0-1.126","SOBA","1","f","rechts","21","","","object","j","90","true"
"null","<div style=""font-size:60px;"">+</div>","null","html-keyboard-response","260","386512","0.0-6.0-0.127","SOBA","1","f","rechts","21","","fixation","","","",""
"913","img/0_210.png","70","image-keyboard-response","261","387447","0.0-6.0-1.127","SOBA","1","f","rechts","21","","","object","f","0","true"
"null","<div style=""font-size:60px;"">+</div>","null","html-keyboard-response","262","387753","0.0-6.0-0.128","SOBA","1","f","rechts","21","","fixation","","","",""
"2216","img/60_90.png","74","image-keyboard-response","263","389983","0.0-6.0-1.128","SOBA","1","f","rechts","21","","","object","j","60","true"
"null","<div style=""font-size:60px;"">+</div>","null","html-keyboard-response","264","390412","0.0-6.0-0.129","SOBA","1","f","rechts","21","","fixation","","","",""
"1589","img/0_120.png","74","image-keyboard-response","265","392014","0.0-6.0-1.129","SOBA","1","f","rechts","21","","","object","j","0","true"
"null","<div style=""font-size:60px;"">+</div>","null","html-keyboard-response","266","392386","0.0-6.0-0.130","SOBA","1","f","rechts","21","","fixation","","","",""
"1414","img/90_120.png","70","image-keyboard-response","267","393813","0.0-6.0-1.130","SOBA","1","f","rechts","21","","","object","j","90","false"
"null","<div style=""font-size:60px;"">+</div>","null","html-keyboard-response","268","394174","0.0-6.0-0.131","SOBA","1","f","rechts","21","","fixation","","","",""
"2715","img/120_180.png","70","image-keyboard-response","269","396900","0.0-6.0-1.131","SOBA","1","f","rechts","21","","","object","f","120","true"
"null","<div style=""font-size:60px;"">+</div>","null","html-keyboard-response","270","397216","0.0-6.0-0.132","SOBA","1","f","rechts","21","","fixation","","","",""
"1446","img/0_90.png","74","image-keyboard-response","271","398674","0.0-6.0-1.132","SOBA","1","f","rechts","21","","","object","j","0","true"
"null","<div style=""font-size:60px;"">+</div>","null","html-keyboard-response","272","398987","0.0-6.0-0.133","SOBA","1","f","rechts","21","","fixation","","","",""
"1910","img/90_150.png","74","image-keyboard-response","273","400911","0.0-6.0-1.133","SOBA","1","f","rechts","21","","","object","j","90","true"
"null","<div style=""font-size:60px;"">+</div>","null","html-keyboard-response","274","401433","0.0-6.0-0.134","SOBA","1","f","rechts","21","","fixation","","","",""
"1681","img/30_120.png","74","image-keyboard-response","275","403127","0.0-6.0-1.134","SOBA","1","f","rechts","21","","","object","j","30","true"
"null","<div style=""font-size:60px;"">+</div>","null","html-keyboard-response","276","403594","0.0-6.0-0.135","SOBA","1","f","rechts","21","","fixation","","","",""
"2563","img/150_240.png","74","image-keyboard-response","277","406170","0.0-6.0-1.135","SOBA","1","f","rechts","21","","","object","j","150","true"
"null","<div style=""font-size:60px;"">+</div>","null","html-keyboard-response","278","406493","0.0-6.0-0.136","SOBA","1","f","rechts","21","","fixation","","","",""
"2274","img/30_270.png","70","image-keyboard-response","279","408780","0.0-6.0-1.136","SOBA","1","f","rechts","21","","","object","f","30","true"
"null","<div style=""font-size:60px;"">+</div>","null","html-keyboard-response","280","409201","0.0-6.0-0.137","SOBA","1","f","rechts","21","","fixation","","","",""
"2459","img/120_150.png","74","image-keyboard-response","281","411672","0.0-6.0-1.137","SOBA","1","f","rechts","21","","","object","j","120","true"
"null","<div style=""font-size:60px;"">+</div>","null","html-keyboard-response","282","412036","0.0-6.0-0.138","SOBA","1","f","rechts","21","","fixation","","","",""
"2548","img/150_180.png","70","image-keyboard-response","283","414597","0.0-6.0-1.138","SOBA","1","f","rechts","21","","","object","f","150","true"
"null","<div style=""font-size:60px;"">+</div>","null","html-keyboard-response","284","415060","0.0-6.0-0.139","SOBA","1","f","rechts","21","","fixation","","","",""
"2594","img/0_270.png","70","image-keyboard-response","285","417668","0.0-6.0-1.139","SOBA","1","f","rechts","21","","","object","f","0","true"
"null","<div style=""font-size:60px;"">+</div>","null","html-keyboard-response","286","417982","0.0-6.0-0.140","SOBA","1","f","rechts","21","","fixation","","","",""
"996","img/0_330.png","70","image-keyboard-response","287","418992","0.0-6.0-1.140","SOBA","1","f","rechts","21","","","object","f","0","true"
"null","<div style=""font-size:60px;"">+</div>","null","html-keyboard-response","288","419303","0.0-6.0-0.141","SOBA","1","f","rechts","21","","fixation","","","",""
"2729","img/150_60.png","70","image-keyboard-response","289","422044","0.0-6.0-1.141","SOBA","1","f","rechts","21","","","object","f","150","true"
"null","<div style=""font-size:60px;"">+</div>","null","html-keyboard-response","290","422525","0.0-6.0-0.142","SOBA","1","f","rechts","21","","fixation","","","",""
"2662","img/120_90.png","70","image-keyboard-response","291","425203","0.0-6.0-1.142","SOBA","1","f","rechts","21","","","object","f","120","true"
"null","<div style=""font-size:60px;"">+</div>","null","html-keyboard-response","292","425618","0.0-6.0-0.143","SOBA","1","f","rechts","21","","fixation","","","",""
"null","img/90_180.png","null","image-keyboard-response","293","428642","0.0-6.0-1.143","SOBA","1","f","rechts","21","","","object","f","90","false"
"null","<div style=""font-size:60px;"">+</div>","null","html-keyboard-response","294","429116","0.0-6.0-0.144","SOBA","1","f","rechts","21","","fixation","","","",""
"2289","img/60_210.png","70","image-keyboard-response","295","431417","0.0-6.0-1.144","SOBA","1","f","rechts","21","","","object","f","60","true"
"null","<div style=""font-size:60px;"">+</div>","null","html-keyboard-response","296","431923","0.0-6.0-0.145","SOBA","1","f","rechts","21","","fixation","","","",""
"2101","img/30_60.png","74","image-keyboard-response","297","434038","0.0-6.0-1.145","SOBA","1","f","rechts","21","","","object","j","30","true"
"null","<div style=""font-size:60px;"">+</div>","null","html-keyboard-response","298","434460","0.0-6.0-0.146","SOBA","1","f","rechts","21","","fixation","","","",""
"2108","img/120_330.png","74","image-keyboard-response","299","436580","0.0-6.0-1.146","SOBA","1","f","rechts","21","","","object","j","120","true"
"null","<div style=""font-size:60px;"">+</div>","null","html-keyboard-response","300","437096","0.0-6.0-0.147","SOBA","1","f","rechts","21","","fixation","","","",""
"1516","img/60_330.png","74","image-keyboard-response","301","438624","0.0-6.0-1.147","SOBA","1","f","rechts","21","","","object","j","60","true"
"null","<div style=""font-size:60px;"">+</div>","null","html-keyboard-response","302","438991","0.0-6.0-0.148","SOBA","1","f","rechts","21","","fixation","","","",""
"1663","img/L30_180.png","74","image-keyboard-response","303","440670","0.0-6.0-1.148","SOBA","1","f","rechts","21","","","object","j","30","true"
"null","<div style=""font-size:60px;"">+</div>","null","html-keyboard-response","304","441078","0.0-6.0-0.149","SOBA","1","f","rechts","21","","fixation","","","",""
"1684","img/90_330.png","74","image-keyboard-response","305","442775","0.0-6.0-1.149","SOBA","1","f","rechts","21","","","object","j","90","true"
"null","<div style=""font-size:60px;"">+</div>","null","html-keyboard-response","306","443107","0.0-6.0-0.150","SOBA","1","f","rechts","21","","fixation","","","",""
"2709","img/60_150.png","70","image-keyboard-response","307","445828","0.0-6.0-1.150","SOBA","1","f","rechts","21","","","object","j","60","false"
"null","<div style=""font-size:60px;"">+</div>","null","html-keyboard-response","308","446134","0.0-6.0-0.151","SOBA","1","f","rechts","21","","fixation","","","",""
"2455","img/30_90.png","74","image-keyboard-response","309","448594","0.0-6.0-1.151","SOBA","1","f","rechts","21","","","object","j","30","true"
"null","<div style=""font-size:60px;"">+</div>","null","html-keyboard-response","310","449006","0.0-6.0-0.152","SOBA","1","f","rechts","21","","fixation","","","",""
"1687","img/30_180.png","70","image-keyboard-response","311","450706","0.0-6.0-1.152","SOBA","1","f","rechts","21","","","object","f","30","true"
"null","<div style=""font-size:60px;"">+</div>","null","html-keyboard-response","312","451178","0.0-6.0-0.153","SOBA","1","f","rechts","21","","fixation","","","",""
"887","img/0_300.png","70","image-keyboard-response","313","452078","0.0-6.0-1.153","SOBA","1","f","rechts","21","","","object","f","0","true"
"null","<div style=""font-size:60px;"">+</div>","null","html-keyboard-response","314","452447","0.0-6.0-0.154","SOBA","1","f","rechts","21","","fixation","","","",""
"2586","img/150_90.png","70","image-keyboard-response","315","455051","0.0-6.0-1.154","SOBA","1","f","rechts","21","","","object","f","150","true"
"null","<div style=""font-size:60px;"">+</div>","null","html-keyboard-response","316","455564","0.0-6.0-0.155","SOBA","1","f","rechts","21","","fixation","","","",""
"2186","img/120_270.png","74","image-keyboard-response","317","457763","0.0-6.0-1.155","SOBA","1","f","rechts","21","","","object","j","120","true"
"null","<div style=""font-size:60px;"">+</div>","null","html-keyboard-response","318","458127","0.0-6.0-0.156","SOBA","1","f","rechts","21","","fixation","","","",""
"1736","img/150_270.png","74","image-keyboard-response","319","459874","0.0-6.0-1.156","SOBA","1","f","rechts","21","","","object","j","150","true"
"null","<div style=""font-size:60px;"">+</div>","null","html-keyboard-response","320","460391","0.0-6.0-0.157","SOBA","1","f","rechts","21","","fixation","","","",""
"1290","img/150_60.png","70","image-keyboard-response","321","461685","0.0-6.0-1.157","SOBA","1","f","rechts","21","","","object","f","150","true"
"null","<div style=""font-size:60px;"">+</div>","null","html-keyboard-response","322","461988","0.0-6.0-0.158","SOBA","1","f","rechts","21","","fixation","","","",""
"1836","img/90_300.png","74","image-keyboard-response","323","463835","0.0-6.0-1.158","SOBA","1","f","rechts","21","","","object","j","90","true"
"null","<div style=""font-size:60px;"">+</div>","null","html-keyboard-response","324","464360","0.0-6.0-0.159","SOBA","1","f","rechts","21","","fixation","","","",""
"1489","img/90_120.png","74","image-keyboard-response","325","465858","0.0-6.0-1.159","SOBA","1","f","rechts","21","","","object","j","90","true"
"null","<div style=""font-size:60px;"">+</div>","null","html-keyboard-response","326","466218","0.0-6.0-0.160","SOBA","1","f","rechts","21","","fixation","","","",""
"967","img/0_270.png","70","image-keyboard-response","327","467199","0.0-6.0-1.160","SOBA","1","f","rechts","21","","","object","f","0","true"
"null","<div style=""font-size:60px;"">+</div>","null","html-keyboard-response","328","467616","0.0-6.0-0.161","SOBA","1","f","rechts","21","","fixation","","","",""
"2725","img/30_60.png","74","image-keyboard-response","329","470352","0.0-6.0-1.161","SOBA","1","f","rechts","21","","","object","j","30","true"
"null","<div style=""font-size:60px;"">+</div>","null","html-keyboard-response","330","470876","0.0-6.0-0.162","SOBA","1","f","rechts","21","","fixation","","","",""
"2716","img/90_240.png","70","image-keyboard-response","331","473603","0.0-6.0-1.162","SOBA","1","f","rechts","21","","","object","f","90","true"
"null","<div style=""font-size:60px;"">+</div>","null","html-keyboard-response","332","474018","0.0-6.0-0.163","SOBA","1","f","rechts","21","","fixation","","","",""
"1039","img/0_240.png","70","image-keyboard-response","333","475068","0.0-6.0-1.163","SOBA","1","f","rechts","21","","","object","f","0","true"
"null","<div style=""font-size:60px;"">+</div>","null","html-keyboard-response","334","475577","0.0-6.0-0.164","SOBA","1","f","rechts","21","","fixation","","","",""
"2448","img/120_90.png","70","image-keyboard-response","335","478034","0.0-6.0-1.164","SOBA","1","f","rechts","21","","","object","f","120","true"
"null","<div style=""font-size:60px;"">+</div>","null","html-keyboard-response","336","478400","0.0-6.0-0.165","SOBA","1","f","rechts","21","","fixation","","","",""
"1283","img/90_150.png","74","image-keyboard-response","337","479694","0.0-6.0-1.165","SOBA","1","f","rechts","21","","","object","j","90","true"
"null","<div style=""font-size:60px;"">+</div>","null","html-keyboard-response","338","480108","0.0-6.0-0.166","SOBA","1","f","rechts","21","","fixation","","","",""
"2459","img/L150_180.png","74","image-keyboard-response","339","482581","0.0-6.0-1.166","SOBA","1","f","rechts","21","","","object","j","150","true"
"null","<div style=""font-size:60px;"">+</div>","null","html-keyboard-response","340","482895","0.0-6.0-0.167","SOBA","1","f","rechts","21","","fixation","","","",""
"1535","img/0_60.png","74","image-keyboard-response","341","484445","0.0-6.0-1.167","SOBA","1","f","rechts","21","","","object","j","0","true"
"null","<div style=""font-size:60px;"">+</div>","null","html-keyboard-response","342","484815","0.0-6.0-0.168","SOBA","1","f","rechts","21","","fixation","","","",""
"1834","img/30_240.png","70","image-keyboard-response","343","486663","0.0-6.0-1.168","SOBA","1","f","rechts","21","","","object","f","30","true"
"null","<div style=""font-size:60px;"">+</div>","null","html-keyboard-response","344","487179","0.0-6.0-0.169","SOBA","1","f","rechts","21","","fixation","","","",""
"2259","img/90_210.png","70","image-keyboard-response","345","489451","0.0-6.0-1.169","SOBA","1","f","rechts","21","","","object","f","90","true"
"null","<div style=""font-size:60px;"">+</div>","null","html-keyboard-response","346","489978","0.0-6.0-0.170","SOBA","1","f","rechts","21","","fixation","","","",""
"982","img/0_300.png","70","image-keyboard-response","347","490970","0.0-6.0-1.170","SOBA","1","f","rechts","21","","","object","f","0","true"
"null","<div style=""font-size:60px;"">+</div>","null","html-keyboard-response","348","491272","0.0-6.0-0.171","SOBA","1","f","rechts","21","","fixation","","","",""
"2536","img/60_270.png","70","image-keyboard-response","349","493822","0.0-6.0-1.171","SOBA","1","f","rechts","21","","","object","f","60","true"
"null","<div style=""font-size:60px;"">+</div>","null","html-keyboard-response","350","494131","0.0-6.0-0.172","SOBA","1","f","rechts","21","","fixation","","","",""
"2762","img/150_240.png","74","image-keyboard-response","351","496902","0.0-6.0-1.172","SOBA","1","f","rechts","21","","","object","j","150","true"
"null","<div style=""font-size:60px;"">+</div>","null","html-keyboard-response","352","497320","0.0-6.0-0.173","SOBA","1","f","rechts","21","","fixation","","","",""
"2349","img/150_120.png","70","image-keyboard-response","353","499683","0.0-6.0-1.173","SOBA","1","f","rechts","21","","","object","f","150","true"
"null","<div style=""font-size:60px;"">+</div>","null","html-keyboard-response","354","500101","0.0-6.0-0.174","SOBA","1","f","rechts","21","","fixation","","","",""
"1341","img/30_300.png","74","image-keyboard-response","355","501455","0.0-6.0-1.174","SOBA","1","f","rechts","21","","","object","f","30","false"
"null","<div style=""font-size:60px;"">+</div>","null","html-keyboard-response","356","501815","0.0-6.0-0.175","SOBA","1","f","rechts","21","","fixation","","","",""
"1840","img/150_180.png","70","image-keyboard-response","357","503659","0.0-6.0-1.175","SOBA","1","f","rechts","21","","","object","f","150","true"
"null","<div style=""font-size:60px;"">+</div>","null","html-keyboard-response","358","503983","0.0-6.0-0.176","SOBA","1","f","rechts","21","","fixation","","","",""
"1579","img/60_150.png","74","image-keyboard-response","359","505573","0.0-6.0-1.176","SOBA","1","f","rechts","21","","","object","j","60","true"
"null","<div style=""font-size:60px;"">+</div>","null","html-keyboard-response","360","505943","0.0-6.0-0.177","SOBA","1","f","rechts","21","","fixation","","","",""
"1684","img/120_30.png","70","image-keyboard-response","361","507632","0.0-6.0-1.177","SOBA","1","f","rechts","21","","","object","f","120","true"
"null","<div style=""font-size:60px;"">+</div>","null","html-keyboard-response","362","507941","0.0-6.0-0.178","SOBA","1","f","rechts","21","","fixation","","","",""
"1831","img/0_150.png","74","image-keyboard-response","363","509780","0.0-6.0-1.178","SOBA","1","f","rechts","21","","","object","j","0","true"
"null","<div style=""font-size:60px;"">+</div>","null","html-keyboard-response","364","510097","0.0-6.0-0.179","SOBA","1","f","rechts","21","","fixation","","","",""
"2436","img/150_300.png","74","image-keyboard-response","365","512537","0.0-6.0-1.179","SOBA","1","f","rechts","21","","","object","j","150","true"
"null","<div style=""font-size:60px;"">+</div>","null","html-keyboard-response","366","512906","0.0-6.0-0.180","SOBA","1","f","rechts","21","","fixation","","","",""
"2164","img/30_180.png","70","image-keyboard-response","367","515079","0.0-6.0-1.180","SOBA","1","f","rechts","21","","","object","f","30","true"
"null","<div style=""font-size:60px;"">+</div>","null","html-keyboard-response","368","515501","0.0-6.0-0.181","SOBA","1","f","rechts","21","","fixation","","","",""
"1278","img/0_330.png","70","image-keyboard-response","369","516789","0.0-6.0-1.181","SOBA","1","f","rechts","21","","","object","f","0","true"
"null","<div style=""font-size:60px;"">+</div>","null","html-keyboard-response","370","517100","0.0-6.0-0.182","SOBA","1","f","rechts","21","","fixation","","","",""
"1885","img/120_270.png","74","image-keyboard-response","371","518996","0.0-6.0-1.182","SOBA","1","f","rechts","21","","","object","j","120","true"
"null","<div style=""font-size:60px;"">+</div>","null","html-keyboard-response","372","519363","0.0-6.0-0.183","SOBA","1","f","rechts","21","","fixation","","","",""
"1471","img/90_30.png","70","image-keyboard-response","373","520839","0.0-6.0-1.183","SOBA","1","f","rechts","21","","","object","f","90","true"
"null","<div style=""font-size:60px;"">+</div>","null","html-keyboard-response","374","521260","0.0-6.0-0.184","SOBA","1","f","rechts","21","","fixation","","","",""
"2364","img/90_180.png","70","image-keyboard-response","375","523634","0.0-6.0-1.184","SOBA","1","f","rechts","21","","","object","f","90","true"
"null","<div style=""font-size:60px;"">+</div>","null","html-keyboard-response","376","523941","0.0-6.0-0.185","SOBA","1","f","rechts","21","","fixation","","","",""
"1530","img/60_90.png","74","image-keyboard-response","377","525484","0.0-6.0-1.185","SOBA","1","f","rechts","21","","","object","j","60","true"
"null","<div style=""font-size:60px;"">+</div>","null","html-keyboard-response","378","526006","0.0-6.0-0.186","SOBA","1","f","rechts","21","","fixation","","","",""
"1177","img/30_120.png","74","image-keyboard-response","379","527196","0.0-6.0-1.186","SOBA","1","f","rechts","21","","","object","j","30","true"
"null","<div style=""font-size:60px;"">+</div>","null","html-keyboard-response","380","527713","0.0-6.0-0.187","SOBA","1","f","rechts","21","","fixation","","","",""
"1560","img/L90_180.png","74","image-keyboard-response","381","529287","0.0-6.0-1.187","SOBA","1","f","rechts","21","","","object","j","90","true"
"null","<div style=""font-size:60px;"">+</div>","null","html-keyboard-response","382","529789","0.0-6.0-0.188","SOBA","1","f","rechts","21","","fixation","","","",""
"1048","img/60_30.png","70","image-keyboard-response","383","530850","0.0-6.0-1.188","SOBA","1","f","rechts","21","","","object","f","60","true"
"null","<div style=""font-size:60px;"">+</div>","null","html-keyboard-response","384","531204","0.0-6.0-0.189","SOBA","1","f","rechts","21","","fixation","","","",""
"2575","img/120_210.png","70","image-keyboard-response","385","533792","0.0-6.0-1.189","SOBA","1","f","rechts","21","","","object","f","120","true"
"null","<div style=""font-size:60px;"">+</div>","null","html-keyboard-response","386","534305","0.0-6.0-0.190","SOBA","1","f","rechts","21","","fixation","","","",""
"1747","img/120_330.png","74","image-keyboard-response","387","536062","0.0-6.0-1.190","SOBA","1","f","rechts","21","","","object","j","120","true"
"null","<div style=""font-size:60px;"">+</div>","null","html-keyboard-response","388","536533","0.0-6.0-0.191","SOBA","1","f","rechts","21","","fixation","","","",""
"1953","img/30_90.png","74","image-keyboard-response","389","538495","0.0-6.0-1.191","SOBA","1","f","rechts","21","","","object","j","30","true"
"null","<div style=""font-size:60px;"">+</div>","null","html-keyboard-response","390","539014","0.0-6.0-0.192","SOBA","1","f","rechts","21","","fixation","","","",""
"1509","img/0_120.png","74","image-keyboard-response","391","540538","0.0-6.0-1.192","SOBA","1","f","rechts","21","","","object","j","0","true"
"null","<div style=""font-size:60px;"">+</div>","null","html-keyboard-response","392","540954","0.0-6.0-0.193","SOBA","1","f","rechts","21","","fixation","","","",""
"1168","img/90_60.png","70","image-keyboard-response","393","542135","0.0-6.0-1.193","SOBA","1","f","rechts","21","","","object","f","90","true"
"null","<div style=""font-size:60px;"">+</div>","null","html-keyboard-response","394","542512","0.0-6.0-0.194","SOBA","1","f","rechts","21","","fixation","","","",""
"1760","img/0_210.png","74","image-keyboard-response","395","544285","0.0-6.0-1.194","SOBA","1","f","rechts","21","","","object","f","0","false"
"null","<div style=""font-size:60px;"">+</div>","null","html-keyboard-response","396","544707","0.0-6.0-0.195","SOBA","1","f","rechts","21","","fixation","","","",""
"1722","img/30_270.png","74","image-keyboard-response","397","546442","0.0-6.0-1.195","SOBA","1","f","rechts","21","","","object","f","30","false"
"null","<div style=""font-size:60px;"">+</div>","null","html-keyboard-response","398","546811","0.0-6.0-0.196","SOBA","1","f","rechts","21","","fixation","","","",""
"1521","img/0_30.png","74","image-keyboard-response","399","548346","0.0-6.0-1.196","SOBA","1","f","rechts","21","","","object","j","0","true"
"null","<div style=""font-size:60px;"">+</div>","null","html-keyboard-response","400","548710","0.0-6.0-0.197","SOBA","1","f","rechts","21","","fixation","","","",""
"2019","img/L120_180.png","74","image-keyboard-response","401","550741","0.0-6.0-1.197","SOBA","1","f","rechts","21","","","object","j","120","true"
"null","<div style=""font-size:60px;"">+</div>","null","html-keyboard-response","402","551156","0.0-6.0-0.198","SOBA","1","f","rechts","21","","fixation","","","",""
"1766","img/120_150.png","74","image-keyboard-response","403","552936","0.0-6.0-1.198","SOBA","1","f","rechts","21","","","object","j","120","true"
"null","<div style=""font-size:60px;"">+</div>","null","html-keyboard-response","404","553243","0.0-6.0-0.199","SOBA","1","f","rechts","21","","fixation","","","",""
"1966","img/60_180.png","70","image-keyboard-response","405","555222","0.0-6.0-1.199","SOBA","1","f","rechts","21","","","object","f","60","true"
"null","<div style=""font-size:60px;"">+</div>","null","html-keyboard-response","406","555677","0.0-6.0-0.200","SOBA","1","f","rechts","21","","fixation","","","",""
"2416","img/L60_180.png","74","image-keyboard-response","407","558110","0.0-6.0-1.200","SOBA","1","f","rechts","21","","","object","j","60","true"
"null","<div style=""font-size:60px;"">+</div>","null","html-keyboard-response","408","558477","0.0-6.0-0.201","SOBA","1","f","rechts","21","","fixation","","","",""
"2520","img/120_180.png","70","image-keyboard-response","409","561002","0.0-6.0-1.201","SOBA","1","f","rechts","21","","","object","f","120","true"
"null","<div style=""font-size:60px;"">+</div>","null","html-keyboard-response","410","561469","0.0-6.0-0.202","SOBA","1","f","rechts","21","","fixation","","","",""
"2967","img/60_210.png","74","image-keyboard-response","411","564449","0.0-6.0-1.202","SOBA","1","f","rechts","21","","","object","f","60","false"
"null","<div style=""font-size:60px;"">+</div>","null","html-keyboard-response","412","564902","0.0-6.0-0.203","SOBA","1","f","rechts","21","","fixation","","","",""
"1212","img/0_90.png","74","image-keyboard-response","413","566131","0.0-6.0-1.203","SOBA","1","f","rechts","21","","","object","j","0","true"
"null","<div style=""font-size:60px;"">+</div>","null","html-keyboard-response","414","566554","0.0-6.0-0.204","SOBA","1","f","rechts","21","","fixation","","","",""
"2359","img/L30_180.png","74","image-keyboard-response","415","568927","0.0-6.0-1.204","SOBA","1","f","rechts","21","","","object","j","30","true"
"null","<div style=""font-size:60px;"">+</div>","null","html-keyboard-response","416","569247","0.0-6.0-0.205","SOBA","1","f","rechts","21","","fixation","","","",""
"1504","img/150_90.png","70","image-keyboard-response","417","570767","0.0-6.0-1.205","SOBA","1","f","rechts","21","","","object","f","150","true"
"null","<div style=""font-size:60px;"">+</div>","null","html-keyboard-response","418","571147","0.0-6.0-0.206","SOBA","1","f","rechts","21","","fixation","","","",""
"1777","img/90_330.png","74","image-keyboard-response","419","572928","0.0-6.0-1.206","SOBA","1","f","rechts","21","","","object","j","90","true"
"null","<div style=""font-size:60px;"">+</div>","null","html-keyboard-response","420","573300","0.0-6.0-0.207","SOBA","1","f","rechts","21","","fixation","","","",""
"1085","img/60_330.png","74","image-keyboard-response","421","574390","0.0-6.0-1.207","SOBA","1","f","rechts","21","","","object","j","60","true"
"20515","<p>Du hast in 84% der Versuche korrekt entschieden.</p><p>Deine durchschnittliche Reaktionszeit war  1839ms.</p><p>Dr&uuml;cke eine beliebige Taste, um die Session zu beenden. Vielen Dank!</p>","32","html-keyboard-response","422","594914","0.0-7.0","SOBA","1","f","rechts","21","","","","","",""
