"rt","stimulus","key_press","trial_type","trial_index","time_elapsed","internal_node_id","subject","session","sex","handedness","age","responses","test_part","condition","correct_response","angle","correct"
"1396","<p>Mental Rotation Experiment.</p> <p>Dr&uuml;cke eine beliebige Taste, um anzufangen.</p>","13","html-keyboard-response","0","1440","0.0-0.0","SOBA","4","f","rechts","21","","","","","",""
"4918","","","survey-text","1","6361","0.0-1.0","SOBA","4","f","rechts","21","{""Q0"":""SOBA""}","","","","",""
"2817","","","survey-text","2","9179","0.0-2.0","SOBA","4","f","rechts","21","{""Q0"":""4""}","","","","",""
"5284","","","survey-multi-choice","3","14468","0.0-3.0","SOBA","4","f","rechts","21","{""Q0"":""f"",""Q1"":""rechts""}","","","","",""
"2731","","","survey-text","4","17201","0.0-4.0","SOBA","4","f","rechts","21","{""Q0"":""21""}","","","","",""
"44235","<p>Stell dir vor, dass du vor einem runden Tisch stehst, auf dem sich ein blauer Ball am Tischrand befindet. Entlang des Tischrands ist jeweils ein verschieden langer Pfeil. Nun bleibst du an deinem Platz vor dem Tisch und rotierst den Tisch entlang des Pfeils (gleiche Richtung und Länge). </p> <img src='img/30_180.png'></img> <br><p> Nachdem du diese (vorgestellte) Rotation durchgef&uuml;hrt hast, schau in Richtung der Tischmitte, und entscheide dann, ob der Ball links oder rechts von dir liegt.</p> <p>Dr&uuml;cke die <strong>'f'</strong>-Taste f&uuml;r links, die <strong>'j'</strong>-Taste f&uuml;r rechts.</p><br><p> Das Bild wird jeweils 1 Sekunde lang pr&auml;sentiert. Du hast 3 Sekunden Zeit eine Entscheidung zu treffen.</p>","32","html-keyboard-response","5","61443","0.0-5.0","SOBA","4","f","rechts","21","","","","","",""
"null","<div style=""font-size:60px;"">+</div>","null","html-keyboard-response","6","62876","0.0-6.0-0.0","SOBA","4","f","rechts","21","","fixation","","","",""
"1528","img/90_150.png","74","image-keyboard-response","7","64425","0.0-6.0-1.0","SOBA","4","f","rechts","21","","","object","j","90","true"
"null","<div style=""font-size:60px;"">+</div>","null","html-keyboard-response","8","64749","0.0-6.0-0.1","SOBA","4","f","rechts","21","","fixation","","","",""
"1373","img/90_210.png","70","image-keyboard-response","9","66140","0.0-6.0-1.1","SOBA","4","f","rechts","21","","","object","f","90","true"
"null","<div style=""font-size:60px;"">+</div>","null","html-keyboard-response","10","66598","0.0-6.0-0.2","SOBA","4","f","rechts","21","","fixation","","","",""
"1078","img/30_300.png","70","image-keyboard-response","11","67694","0.0-6.0-1.2","SOBA","4","f","rechts","21","","","object","f","30","true"
"null","<div style=""font-size:60px;"">+</div>","null","html-keyboard-response","12","68205","0.0-6.0-0.3","SOBA","4","f","rechts","21","","fixation","","","",""
"1632","img/120_150.png","74","image-keyboard-response","13","69844","0.0-6.0-1.3","SOBA","4","f","rechts","21","","","object","j","120","true"
"null","<div style=""font-size:60px;"">+</div>","null","html-keyboard-response","14","70268","0.0-6.0-0.4","SOBA","4","f","rechts","21","","fixation","","","",""
"940","img/90_330.png","74","image-keyboard-response","15","71226","0.0-6.0-1.4","SOBA","4","f","rechts","21","","","object","j","90","true"
"null","<div style=""font-size:60px;"">+</div>","null","html-keyboard-response","16","71642","0.0-6.0-0.5","SOBA","4","f","rechts","21","","fixation","","","",""
"838","img/0_90.png","74","image-keyboard-response","17","72498","0.0-6.0-1.5","SOBA","4","f","rechts","21","","","object","j","0","true"
"null","<div style=""font-size:60px;"">+</div>","null","html-keyboard-response","18","72955","0.0-6.0-0.6","SOBA","4","f","rechts","21","","fixation","","","",""
"1131","img/30_60.png","74","image-keyboard-response","19","74105","0.0-6.0-1.6","SOBA","4","f","rechts","21","","","object","j","30","true"
"null","<div style=""font-size:60px;"">+</div>","null","html-keyboard-response","20","74486","0.0-6.0-0.7","SOBA","4","f","rechts","21","","fixation","","","",""
"1021","img/150_60.png","70","image-keyboard-response","21","75525","0.0-6.0-1.7","SOBA","4","f","rechts","21","","","object","f","150","true"
"null","<div style=""font-size:60px;"">+</div>","null","html-keyboard-response","22","75876","0.0-6.0-0.8","SOBA","4","f","rechts","21","","fixation","","","",""
"935","img/90_60.png","70","image-keyboard-response","23","76838","0.0-6.0-1.8","SOBA","4","f","rechts","21","","","object","f","90","true"
"null","<div style=""font-size:60px;"">+</div>","null","html-keyboard-response","24","77301","0.0-6.0-0.9","SOBA","4","f","rechts","21","","fixation","","","",""
"1221","img/60_270.png","70","image-keyboard-response","25","78539","0.0-6.0-1.9","SOBA","4","f","rechts","21","","","object","f","60","true"
"null","<div style=""font-size:60px;"">+</div>","null","html-keyboard-response","26","79019","0.0-6.0-0.10","SOBA","4","f","rechts","21","","fixation","","","",""
"1528","img/120_90.png","70","image-keyboard-response","27","80564","0.0-6.0-1.10","SOBA","4","f","rechts","21","","","object","f","120","true"
"null","<div style=""font-size:60px;"">+</div>","null","html-keyboard-response","28","81066","0.0-6.0-0.11","SOBA","4","f","rechts","21","","fixation","","","",""
"909","img/0_240.png","70","image-keyboard-response","29","81992","0.0-6.0-1.11","SOBA","4","f","rechts","21","","","object","f","0","true"
"null","<div style=""font-size:60px;"">+</div>","null","html-keyboard-response","30","82503","0.0-6.0-0.12","SOBA","4","f","rechts","21","","fixation","","","",""
"1799","img/150_90.png","70","image-keyboard-response","31","84321","0.0-6.0-1.12","SOBA","4","f","rechts","21","","","object","f","150","true"
"null","<div style=""font-size:60px;"">+</div>","null","html-keyboard-response","32","84690","0.0-6.0-0.13","SOBA","4","f","rechts","21","","fixation","","","",""
"986","img/0_210.png","70","image-keyboard-response","33","85694","0.0-6.0-1.13","SOBA","4","f","rechts","21","","","object","f","0","true"
"null","<div style=""font-size:60px;"">+</div>","null","html-keyboard-response","34","86049","0.0-6.0-0.14","SOBA","4","f","rechts","21","","fixation","","","",""
"1542","img/L90_180.png","74","image-keyboard-response","35","87619","0.0-6.0-1.14","SOBA","4","f","rechts","21","","","object","j","90","true"
"null","<div style=""font-size:60px;"">+</div>","null","html-keyboard-response","36","87927","0.0-6.0-0.15","SOBA","4","f","rechts","21","","fixation","","","",""
"1935","img/150_240.png","70","image-keyboard-response","37","89880","0.0-6.0-1.15","SOBA","4","f","rechts","21","","","object","j","150","false"
"null","<div style=""font-size:60px;"">+</div>","null","html-keyboard-response","38","90192","0.0-6.0-0.16","SOBA","4","f","rechts","21","","fixation","","","",""
"1075","img/150_270.png","74","image-keyboard-response","39","91274","0.0-6.0-1.16","SOBA","4","f","rechts","21","","","object","j","150","true"
"null","<div style=""font-size:60px;"">+</div>","null","html-keyboard-response","40","91693","0.0-6.0-0.17","SOBA","4","f","rechts","21","","fixation","","","",""
"948","img/90_300.png","74","image-keyboard-response","41","92659","0.0-6.0-1.17","SOBA","4","f","rechts","21","","","object","j","90","true"
"null","<div style=""font-size:60px;"">+</div>","null","html-keyboard-response","42","93036","0.0-6.0-0.18","SOBA","4","f","rechts","21","","fixation","","","",""
"918","img/0_330.png","70","image-keyboard-response","43","93975","0.0-6.0-1.18","SOBA","4","f","rechts","21","","","object","f","0","true"
"null","<div style=""font-size:60px;"">+</div>","null","html-keyboard-response","44","94443","0.0-6.0-0.19","SOBA","4","f","rechts","21","","fixation","","","",""
"1878","img/30_90.png","74","image-keyboard-response","45","96338","0.0-6.0-1.19","SOBA","4","f","rechts","21","","","object","j","30","true"
"null","<div style=""font-size:60px;"">+</div>","null","html-keyboard-response","46","96698","0.0-6.0-0.20","SOBA","4","f","rechts","21","","fixation","","","",""
"1117","img/0_150.png","74","image-keyboard-response","47","97832","0.0-6.0-1.20","SOBA","4","f","rechts","21","","","object","j","0","true"
"null","<div style=""font-size:60px;"">+</div>","null","html-keyboard-response","48","98339","0.0-6.0-0.21","SOBA","4","f","rechts","21","","fixation","","","",""
"1390","img/120_270.png","74","image-keyboard-response","49","99746","0.0-6.0-1.21","SOBA","4","f","rechts","21","","","object","j","120","true"
"null","<div style=""font-size:60px;"">+</div>","null","html-keyboard-response","50","100260","0.0-6.0-0.22","SOBA","4","f","rechts","21","","fixation","","","",""
"1505","img/120_210.png","70","image-keyboard-response","51","101780","0.0-6.0-1.22","SOBA","4","f","rechts","21","","","object","f","120","true"
"null","<div style=""font-size:60px;"">+</div>","null","html-keyboard-response","52","102307","0.0-6.0-0.23","SOBA","4","f","rechts","21","","fixation","","","",""
"1089","img/60_30.png","70","image-keyboard-response","53","103413","0.0-6.0-1.23","SOBA","4","f","rechts","21","","","object","f","60","true"
"null","<div style=""font-size:60px;"">+</div>","null","html-keyboard-response","54","103728","0.0-6.0-0.24","SOBA","4","f","rechts","21","","fixation","","","",""
"1680","img/30_240.png","70","image-keyboard-response","55","105428","0.0-6.0-1.24","SOBA","4","f","rechts","21","","","object","f","30","true"
"null","<div style=""font-size:60px;"">+</div>","null","html-keyboard-response","56","105744","0.0-6.0-0.25","SOBA","4","f","rechts","21","","fixation","","","",""
"1417","img/120_30.png","70","image-keyboard-response","57","107179","0.0-6.0-1.25","SOBA","4","f","rechts","21","","","object","f","120","true"
"null","<div style=""font-size:60px;"">+</div>","null","html-keyboard-response","58","107682","0.0-6.0-0.26","SOBA","4","f","rechts","21","","fixation","","","",""
"977","img/0_60.png","74","image-keyboard-response","59","108679","0.0-6.0-1.26","SOBA","4","f","rechts","21","","","object","j","0","true"
"null","<div style=""font-size:60px;"">+</div>","null","html-keyboard-response","60","108980","0.0-6.0-0.27","SOBA","4","f","rechts","21","","fixation","","","",""
"1357","img/150_120.png","74","image-keyboard-response","61","110356","0.0-6.0-1.27","SOBA","4","f","rechts","21","","","object","f","150","false"
"null","<div style=""font-size:60px;"">+</div>","null","html-keyboard-response","62","110714","0.0-6.0-0.28","SOBA","4","f","rechts","21","","fixation","","","",""
"1052","img/120_330.png","74","image-keyboard-response","63","111784","0.0-6.0-1.28","SOBA","4","f","rechts","21","","","object","j","120","true"
"null","<div style=""font-size:60px;"">+</div>","null","html-keyboard-response","64","112197","0.0-6.0-0.29","SOBA","4","f","rechts","21","","fixation","","","",""
"1950","img/60_210.png","70","image-keyboard-response","65","114156","0.0-6.0-1.29","SOBA","4","f","rechts","21","","","object","f","60","true"
"null","<div style=""font-size:60px;"">+</div>","null","html-keyboard-response","66","114667","0.0-6.0-0.30","SOBA","4","f","rechts","21","","fixation","","","",""
"1835","img/120_180.png","70","image-keyboard-response","67","116521","0.0-6.0-1.30","SOBA","4","f","rechts","21","","","object","f","120","true"
"null","<div style=""font-size:60px;"">+</div>","null","html-keyboard-response","68","116997","0.0-6.0-0.31","SOBA","4","f","rechts","21","","fixation","","","",""
"1247","img/30_120.png","74","image-keyboard-response","69","118264","0.0-6.0-1.31","SOBA","4","f","rechts","21","","","object","j","30","true"
"null","<div style=""font-size:60px;"">+</div>","null","html-keyboard-response","70","118623","0.0-6.0-0.32","SOBA","4","f","rechts","21","","fixation","","","",""
"1908","img/90_180.png","70","image-keyboard-response","71","120547","0.0-6.0-1.32","SOBA","4","f","rechts","21","","","object","f","90","true"
"null","<div style=""font-size:60px;"">+</div>","null","html-keyboard-response","72","120858","0.0-6.0-0.33","SOBA","4","f","rechts","21","","fixation","","","",""
"1494","img/60_180.png","70","image-keyboard-response","73","122369","0.0-6.0-1.33","SOBA","4","f","rechts","21","","","object","f","60","true"
"null","<div style=""font-size:60px;"">+</div>","null","html-keyboard-response","74","122747","0.0-6.0-0.34","SOBA","4","f","rechts","21","","fixation","","","",""
"1381","img/0_270.png","70","image-keyboard-response","75","124145","0.0-6.0-1.34","SOBA","4","f","rechts","21","","","object","f","0","true"
"null","<div style=""font-size:60px;"">+</div>","null","html-keyboard-response","76","124607","0.0-6.0-0.35","SOBA","4","f","rechts","21","","fixation","","","",""
"1017","img/60_90.png","74","image-keyboard-response","77","125643","0.0-6.0-1.35","SOBA","4","f","rechts","21","","","object","j","60","true"
"null","<div style=""font-size:60px;"">+</div>","null","html-keyboard-response","78","126106","0.0-6.0-0.36","SOBA","4","f","rechts","21","","fixation","","","",""
"990","img/90_30.png","70","image-keyboard-response","79","127115","0.0-6.0-1.36","SOBA","4","f","rechts","21","","","object","f","90","true"
"null","<div style=""font-size:60px;"">+</div>","null","html-keyboard-response","80","127530","0.0-6.0-0.37","SOBA","4","f","rechts","21","","fixation","","","",""
"860","img/60_330.png","74","image-keyboard-response","81","128411","0.0-6.0-1.37","SOBA","4","f","rechts","21","","","object","j","60","true"
"null","<div style=""font-size:60px;"">+</div>","null","html-keyboard-response","82","128827","0.0-6.0-0.38","SOBA","4","f","rechts","21","","fixation","","","",""
"983","img/90_240.png","70","image-keyboard-response","83","129829","0.0-6.0-1.38","SOBA","4","f","rechts","21","","","object","f","90","true"
"null","<div style=""font-size:60px;"">+</div>","null","html-keyboard-response","84","130136","0.0-6.0-0.39","SOBA","4","f","rechts","21","","fixation","","","",""
"956","img/30_270.png","70","image-keyboard-response","85","131100","0.0-6.0-1.39","SOBA","4","f","rechts","21","","","object","f","30","true"
"null","<div style=""font-size:60px;"">+</div>","null","html-keyboard-response","86","131526","0.0-6.0-0.40","SOBA","4","f","rechts","21","","fixation","","","",""
"927","img/L120_180.png","74","image-keyboard-response","87","132473","0.0-6.0-1.40","SOBA","4","f","rechts","21","","","object","j","120","true"
"null","<div style=""font-size:60px;"">+</div>","null","html-keyboard-response","88","132887","0.0-6.0-0.41","SOBA","4","f","rechts","21","","fixation","","","",""
"829","img/0_120.png","74","image-keyboard-response","89","133733","0.0-6.0-1.41","SOBA","4","f","rechts","21","","","object","j","0","true"
"null","<div style=""font-size:60px;"">+</div>","null","html-keyboard-response","90","134199","0.0-6.0-0.42","SOBA","4","f","rechts","21","","fixation","","","",""
"910","img/L30_180.png","74","image-keyboard-response","91","135117","0.0-6.0-1.42","SOBA","4","f","rechts","21","","","object","j","30","true"
"null","<div style=""font-size:60px;"">+</div>","null","html-keyboard-response","92","135526","0.0-6.0-0.43","SOBA","4","f","rechts","21","","fixation","","","",""
"1426","img/L150_180.png","74","image-keyboard-response","93","136971","0.0-6.0-1.43","SOBA","4","f","rechts","21","","","object","j","150","true"
"null","<div style=""font-size:60px;"">+</div>","null","html-keyboard-response","94","137278","0.0-6.0-0.44","SOBA","4","f","rechts","21","","fixation","","","",""
"969","img/0_30.png","74","image-keyboard-response","95","138266","0.0-6.0-1.44","SOBA","4","f","rechts","21","","","object","j","0","true"
"null","<div style=""font-size:60px;"">+</div>","null","html-keyboard-response","96","138796","0.0-6.0-0.45","SOBA","4","f","rechts","21","","fixation","","","",""
"948","img/L60_180.png","74","image-keyboard-response","97","139763","0.0-6.0-1.45","SOBA","4","f","rechts","21","","","object","j","60","true"
"null","<div style=""font-size:60px;"">+</div>","null","html-keyboard-response","98","140091","0.0-6.0-0.46","SOBA","4","f","rechts","21","","fixation","","","",""
"1212","img/60_150.png","74","image-keyboard-response","99","141316","0.0-6.0-1.46","SOBA","4","f","rechts","21","","","object","j","60","true"
"null","<div style=""font-size:60px;"">+</div>","null","html-keyboard-response","100","141669","0.0-6.0-0.47","SOBA","4","f","rechts","21","","fixation","","","",""
"983","img/30_180.png","70","image-keyboard-response","101","142666","0.0-6.0-1.47","SOBA","4","f","rechts","21","","","object","f","30","true"
"null","<div style=""font-size:60px;"">+</div>","null","html-keyboard-response","102","143075","0.0-6.0-0.48","SOBA","4","f","rechts","21","","fixation","","","",""
"986","img/150_300.png","74","image-keyboard-response","103","144083","0.0-6.0-1.48","SOBA","4","f","rechts","21","","","object","j","150","true"
"null","<div style=""font-size:60px;"">+</div>","null","html-keyboard-response","104","144387","0.0-6.0-0.49","SOBA","4","f","rechts","21","","fixation","","","",""
"994","img/150_180.png","70","image-keyboard-response","105","145399","0.0-6.0-1.49","SOBA","4","f","rechts","21","","","object","f","150","true"
"null","<div style=""font-size:60px;"">+</div>","null","html-keyboard-response","106","145919","0.0-6.0-0.50","SOBA","4","f","rechts","21","","fixation","","","",""
"846","img/0_300.png","70","image-keyboard-response","107","146783","0.0-6.0-1.50","SOBA","4","f","rechts","21","","","object","f","0","true"
"null","<div style=""font-size:60px;"">+</div>","null","html-keyboard-response","108","147109","0.0-6.0-0.51","SOBA","4","f","rechts","21","","fixation","","","",""
"912","img/90_120.png","74","image-keyboard-response","109","148031","0.0-6.0-1.51","SOBA","4","f","rechts","21","","","object","j","90","true"
"null","<div style=""font-size:60px;"">+</div>","null","html-keyboard-response","110","148343","0.0-6.0-0.52","SOBA","4","f","rechts","21","","fixation","","","",""
"1161","img/60_270.png","70","image-keyboard-response","111","149516","0.0-6.0-1.52","SOBA","4","f","rechts","21","","","object","f","60","true"
"null","<div style=""font-size:60px;"">+</div>","null","html-keyboard-response","112","149889","0.0-6.0-0.53","SOBA","4","f","rechts","21","","fixation","","","",""
"834","img/30_120.png","74","image-keyboard-response","113","150733","0.0-6.0-1.53","SOBA","4","f","rechts","21","","","object","j","30","true"
"null","<div style=""font-size:60px;"">+</div>","null","html-keyboard-response","114","151108","0.0-6.0-0.54","SOBA","4","f","rechts","21","","fixation","","","",""
"910","img/90_240.png","70","image-keyboard-response","115","152024","0.0-6.0-1.54","SOBA","4","f","rechts","21","","","object","f","90","true"
"null","<div style=""font-size:60px;"">+</div>","null","html-keyboard-response","116","152435","0.0-6.0-0.55","SOBA","4","f","rechts","21","","fixation","","","",""
"1373","img/120_150.png","74","image-keyboard-response","117","153814","0.0-6.0-1.55","SOBA","4","f","rechts","21","","","object","j","120","true"
"null","<div style=""font-size:60px;"">+</div>","null","html-keyboard-response","118","154279","0.0-6.0-0.56","SOBA","4","f","rechts","21","","fixation","","","",""
"1200","img/L150_180.png","74","image-keyboard-response","119","155490","0.0-6.0-1.56","SOBA","4","f","rechts","21","","","object","j","150","true"
"null","<div style=""font-size:60px;"">+</div>","null","html-keyboard-response","120","155952","0.0-6.0-0.57","SOBA","4","f","rechts","21","","fixation","","","",""
"972","img/90_30.png","70","image-keyboard-response","121","156931","0.0-6.0-1.57","SOBA","4","f","rechts","21","","","object","f","90","true"
"null","<div style=""font-size:60px;"">+</div>","null","html-keyboard-response","122","157437","0.0-6.0-0.58","SOBA","4","f","rechts","21","","fixation","","","",""
"1001","img/30_240.png","74","image-keyboard-response","123","158448","0.0-6.0-1.58","SOBA","4","f","rechts","21","","","object","f","30","false"
"null","<div style=""font-size:60px;"">+</div>","null","html-keyboard-response","124","158783","0.0-6.0-0.59","SOBA","4","f","rechts","21","","fixation","","","",""
"2622","img/0_30.png","74","image-keyboard-response","125","161412","0.0-6.0-1.59","SOBA","4","f","rechts","21","","","object","j","0","true"
"null","<div style=""font-size:60px;"">+</div>","null","html-keyboard-response","126","161767","0.0-6.0-0.60","SOBA","4","f","rechts","21","","fixation","","","",""
"1273","img/120_180.png","70","image-keyboard-response","127","163049","0.0-6.0-1.60","SOBA","4","f","rechts","21","","","object","f","120","true"
"null","<div style=""font-size:60px;"">+</div>","null","html-keyboard-response","128","163525","0.0-6.0-0.61","SOBA","4","f","rechts","21","","fixation","","","",""
"1575","img/120_30.png","70","image-keyboard-response","129","165109","0.0-6.0-1.61","SOBA","4","f","rechts","21","","","object","f","120","true"
"null","<div style=""font-size:60px;"">+</div>","null","html-keyboard-response","130","165572","0.0-6.0-0.62","SOBA","4","f","rechts","21","","fixation","","","",""
"1627","img/120_90.png","74","image-keyboard-response","131","167212","0.0-6.0-1.62","SOBA","4","f","rechts","21","","","object","f","120","false"
"null","<div style=""font-size:60px;"">+</div>","null","html-keyboard-response","132","167666","0.0-6.0-0.63","SOBA","4","f","rechts","21","","fixation","","","",""
"2625","img/60_150.png","74","image-keyboard-response","133","170300","0.0-6.0-1.63","SOBA","4","f","rechts","21","","","object","j","60","true"
"null","<div style=""font-size:60px;"">+</div>","null","html-keyboard-response","134","170624","0.0-6.0-0.64","SOBA","4","f","rechts","21","","fixation","","","",""
"1052","img/90_60.png","70","image-keyboard-response","135","171689","0.0-6.0-1.64","SOBA","4","f","rechts","21","","","object","f","90","true"
"null","<div style=""font-size:60px;"">+</div>","null","html-keyboard-response","136","172213","0.0-6.0-0.65","SOBA","4","f","rechts","21","","fixation","","","",""
"934","img/0_120.png","74","image-keyboard-response","137","173152","0.0-6.0-1.65","SOBA","4","f","rechts","21","","","object","j","0","true"
"null","<div style=""font-size:60px;"">+</div>","null","html-keyboard-response","138","173667","0.0-6.0-0.66","SOBA","4","f","rechts","21","","fixation","","","",""
"1148","img/120_270.png","70","image-keyboard-response","139","174829","0.0-6.0-1.66","SOBA","4","f","rechts","21","","","object","j","120","false"
"null","<div style=""font-size:60px;"">+</div>","null","html-keyboard-response","140","175355","0.0-6.0-0.67","SOBA","4","f","rechts","21","","fixation","","","",""
"746","img/90_330.png","74","image-keyboard-response","141","176113","0.0-6.0-1.67","SOBA","4","f","rechts","21","","","object","j","90","true"
"null","<div style=""font-size:60px;"">+</div>","null","html-keyboard-response","142","176620","0.0-6.0-0.68","SOBA","4","f","rechts","21","","fixation","","","",""
"1147","img/30_180.png","70","image-keyboard-response","143","177776","0.0-6.0-1.68","SOBA","4","f","rechts","21","","","object","f","30","true"
"null","<div style=""font-size:60px;"">+</div>","null","html-keyboard-response","144","178088","0.0-6.0-0.69","SOBA","4","f","rechts","21","","fixation","","","",""
"902","img/150_300.png","74","image-keyboard-response","145","179001","0.0-6.0-1.69","SOBA","4","f","rechts","21","","","object","j","150","true"
"null","<div style=""font-size:60px;"">+</div>","null","html-keyboard-response","146","179464","0.0-6.0-0.70","SOBA","4","f","rechts","21","","fixation","","","",""
"1035","img/150_270.png","74","image-keyboard-response","147","180511","0.0-6.0-1.70","SOBA","4","f","rechts","21","","","object","j","150","true"
"null","<div style=""font-size:60px;"">+</div>","null","html-keyboard-response","148","180871","0.0-6.0-0.71","SOBA","4","f","rechts","21","","fixation","","","",""
"1195","img/60_180.png","70","image-keyboard-response","149","182075","0.0-6.0-1.71","SOBA","4","f","rechts","21","","","object","f","60","true"
"null","<div style=""font-size:60px;"">+</div>","null","html-keyboard-response","150","182543","0.0-6.0-0.72","SOBA","4","f","rechts","21","","fixation","","","",""
"748","img/60_330.png","74","image-keyboard-response","151","183300","0.0-6.0-1.72","SOBA","4","f","rechts","21","","","object","j","60","true"
"null","<div style=""font-size:60px;"">+</div>","null","html-keyboard-response","152","183810","0.0-6.0-0.73","SOBA","4","f","rechts","21","","fixation","","","",""
"1143","img/30_90.png","74","image-keyboard-response","153","184966","0.0-6.0-1.73","SOBA","4","f","rechts","21","","","object","j","30","true"
"null","<div style=""font-size:60px;"">+</div>","null","html-keyboard-response","154","185434","0.0-6.0-0.74","SOBA","4","f","rechts","21","","fixation","","","",""
"926","img/90_150.png","74","image-keyboard-response","155","186373","0.0-6.0-1.74","SOBA","4","f","rechts","21","","","object","j","90","true"
"null","<div style=""font-size:60px;"">+</div>","null","html-keyboard-response","156","186685","0.0-6.0-0.75","SOBA","4","f","rechts","21","","fixation","","","",""
"1486","img/L120_180.png","74","image-keyboard-response","157","188180","0.0-6.0-1.75","SOBA","4","f","rechts","21","","","object","j","120","true"
"null","<div style=""font-size:60px;"">+</div>","null","html-keyboard-response","158","188542","0.0-6.0-0.76","SOBA","4","f","rechts","21","","fixation","","","",""
"1213","img/150_90.png","70","image-keyboard-response","159","189768","0.0-6.0-1.76","SOBA","4","f","rechts","21","","","object","f","150","true"
"null","<div style=""font-size:60px;"">+</div>","null","html-keyboard-response","160","190089","0.0-6.0-0.77","SOBA","4","f","rechts","21","","fixation","","","",""
"928","img/60_30.png","70","image-keyboard-response","161","191031","0.0-6.0-1.77","SOBA","4","f","rechts","21","","","object","f","60","true"
"null","<div style=""font-size:60px;"">+</div>","null","html-keyboard-response","162","191339","0.0-6.0-0.78","SOBA","4","f","rechts","21","","fixation","","","",""
"1026","img/L90_180.png","74","image-keyboard-response","163","192379","0.0-6.0-1.78","SOBA","4","f","rechts","21","","","object","j","90","true"
"null","<div style=""font-size:60px;"">+</div>","null","html-keyboard-response","164","192746","0.0-6.0-0.79","SOBA","4","f","rechts","21","","fixation","","","",""
"916","img/0_300.png","70","image-keyboard-response","165","193673","0.0-6.0-1.79","SOBA","4","f","rechts","21","","","object","f","0","true"
"null","<div style=""font-size:60px;"">+</div>","null","html-keyboard-response","166","194184","0.0-6.0-0.80","SOBA","4","f","rechts","21","","fixation","","","",""
"1496","img/90_300.png","74","image-keyboard-response","167","195686","0.0-6.0-1.80","SOBA","4","f","rechts","21","","","object","j","90","true"
"null","<div style=""font-size:60px;"">+</div>","null","html-keyboard-response","168","196193","0.0-6.0-0.81","SOBA","4","f","rechts","21","","fixation","","","",""
"2465","img/150_240.png","70","image-keyboard-response","169","198663","0.0-6.0-1.81","SOBA","4","f","rechts","21","","","object","j","150","false"
"null","<div style=""font-size:60px;"">+</div>","null","html-keyboard-response","170","199018","0.0-6.0-0.82","SOBA","4","f","rechts","21","","fixation","","","",""
"1347","img/150_60.png","70","image-keyboard-response","171","200377","0.0-6.0-1.82","SOBA","4","f","rechts","21","","","object","f","150","true"
"null","<div style=""font-size:60px;"">+</div>","null","html-keyboard-response","172","200798","0.0-6.0-0.83","SOBA","4","f","rechts","21","","fixation","","","",""
"1570","img/90_210.png","70","image-keyboard-response","173","202382","0.0-6.0-1.83","SOBA","4","f","rechts","21","","","object","f","90","true"
"null","<div style=""font-size:60px;"">+</div>","null","html-keyboard-response","174","202907","0.0-6.0-0.84","SOBA","4","f","rechts","21","","fixation","","","",""
"1418","img/120_210.png","70","image-keyboard-response","175","204339","0.0-6.0-1.84","SOBA","4","f","rechts","21","","","object","f","120","true"
"null","<div style=""font-size:60px;"">+</div>","null","html-keyboard-response","176","204642","0.0-6.0-0.85","SOBA","4","f","rechts","21","","fixation","","","",""
"1542","img/90_120.png","74","image-keyboard-response","177","206192","0.0-6.0-1.85","SOBA","4","f","rechts","21","","","object","j","90","true"
"null","<div style=""font-size:60px;"">+</div>","null","html-keyboard-response","178","206516","0.0-6.0-0.86","SOBA","4","f","rechts","21","","fixation","","","",""
"1420","img/30_60.png","74","image-keyboard-response","179","207949","0.0-6.0-1.86","SOBA","4","f","rechts","21","","","object","j","30","true"
"null","<div style=""font-size:60px;"">+</div>","null","html-keyboard-response","180","208407","0.0-6.0-0.87","SOBA","4","f","rechts","21","","fixation","","","",""
"1589","img/90_180.png","70","image-keyboard-response","181","210010","0.0-6.0-1.87","SOBA","4","f","rechts","21","","","object","f","90","true"
"null","<div style=""font-size:60px;"">+</div>","null","html-keyboard-response","182","210422","0.0-6.0-0.88","SOBA","4","f","rechts","21","","fixation","","","",""
"2873","img/60_210.png","70","image-keyboard-response","183","213308","0.0-6.0-1.88","SOBA","4","f","rechts","21","","","object","f","60","true"
"null","<div style=""font-size:60px;"">+</div>","null","html-keyboard-response","184","213680","0.0-6.0-0.89","SOBA","4","f","rechts","21","","fixation","","","",""
"1208","img/30_300.png","70","image-keyboard-response","185","214902","0.0-6.0-1.89","SOBA","4","f","rechts","21","","","object","f","30","true"
"null","<div style=""font-size:60px;"">+</div>","null","html-keyboard-response","186","215210","0.0-6.0-0.90","SOBA","4","f","rechts","21","","fixation","","","",""
"1170","img/30_270.png","70","image-keyboard-response","187","216387","0.0-6.0-1.90","SOBA","4","f","rechts","21","","","object","f","30","true"
"null","<div style=""font-size:60px;"">+</div>","null","html-keyboard-response","188","216851","0.0-6.0-0.91","SOBA","4","f","rechts","21","","fixation","","","",""
"874","img/0_330.png","70","image-keyboard-response","189","217737","0.0-6.0-1.91","SOBA","4","f","rechts","21","","","object","f","0","true"
"null","<div style=""font-size:60px;"">+</div>","null","html-keyboard-response","190","218054","0.0-6.0-0.92","SOBA","4","f","rechts","21","","fixation","","","",""
"908","img/120_330.png","74","image-keyboard-response","191","218975","0.0-6.0-1.92","SOBA","4","f","rechts","21","","","object","j","120","true"
"null","<div style=""font-size:60px;"">+</div>","null","html-keyboard-response","192","219290","0.0-6.0-0.93","SOBA","4","f","rechts","21","","fixation","","","",""
"865","img/0_210.png","70","image-keyboard-response","193","220166","0.0-6.0-1.93","SOBA","4","f","rechts","21","","","object","f","0","true"
"null","<div style=""font-size:60px;"">+</div>","null","html-keyboard-response","194","220695","0.0-6.0-0.94","SOBA","4","f","rechts","21","","fixation","","","",""
"821","img/0_240.png","70","image-keyboard-response","195","221529","0.0-6.0-1.94","SOBA","4","f","rechts","21","","","object","f","0","true"
"null","<div style=""font-size:60px;"">+</div>","null","html-keyboard-response","196","222041","0.0-6.0-0.95","SOBA","4","f","rechts","21","","fixation","","","",""
"1332","img/150_120.png","74","image-keyboard-response","197","223386","0.0-6.0-1.95","SOBA","4","f","rechts","21","","","object","f","150","false"
"null","<div style=""font-size:60px;"">+</div>","null","html-keyboard-response","198","223698","0.0-6.0-0.96","SOBA","4","f","rechts","21","","fixation","","","",""
"978","img/0_90.png","74","image-keyboard-response","199","224689","0.0-6.0-1.96","SOBA","4","f","rechts","21","","","object","j","0","true"
"null","<div style=""font-size:60px;"">+</div>","null","html-keyboard-response","200","225104","0.0-6.0-0.97","SOBA","4","f","rechts","21","","fixation","","","",""
"877","img/60_90.png","74","image-keyboard-response","201","225996","0.0-6.0-1.97","SOBA","4","f","rechts","21","","","object","j","60","true"
"null","<div style=""font-size:60px;"">+</div>","null","html-keyboard-response","202","226478","0.0-6.0-0.98","SOBA","4","f","rechts","21","","fixation","","","",""
"979","img/L60_180.png","74","image-keyboard-response","203","227469","0.0-6.0-1.98","SOBA","4","f","rechts","21","","","object","j","60","true"
"null","<div style=""font-size:60px;"">+</div>","null","html-keyboard-response","204","227901","0.0-6.0-0.99","SOBA","4","f","rechts","21","","fixation","","","",""
"848","img/0_60.png","74","image-keyboard-response","205","228763","0.0-6.0-1.99","SOBA","4","f","rechts","21","","","object","j","0","true"
"null","<div style=""font-size:60px;"">+</div>","null","html-keyboard-response","206","229231","0.0-6.0-0.100","SOBA","4","f","rechts","21","","fixation","","","",""
"2306","img/150_180.png","70","image-keyboard-response","207","231543","0.0-6.0-1.100","SOBA","4","f","rechts","21","","","object","f","150","true"
"null","<div style=""font-size:60px;"">+</div>","null","html-keyboard-response","208","231853","0.0-6.0-0.101","SOBA","4","f","rechts","21","","fixation","","","",""
"1094","img/0_150.png","74","image-keyboard-response","209","232959","0.0-6.0-1.101","SOBA","4","f","rechts","21","","","object","j","0","true"
"null","<div style=""font-size:60px;"">+</div>","null","html-keyboard-response","210","233321","0.0-6.0-0.102","SOBA","4","f","rechts","21","","fixation","","","",""
"917","img/0_270.png","70","image-keyboard-response","211","234251","0.0-6.0-1.102","SOBA","4","f","rechts","21","","","object","f","0","true"
"null","<div style=""font-size:60px;"">+</div>","null","html-keyboard-response","212","234664","0.0-6.0-0.103","SOBA","4","f","rechts","21","","fixation","","","",""
"991","img/L30_180.png","74","image-keyboard-response","213","235669","0.0-6.0-1.103","SOBA","4","f","rechts","21","","","object","j","30","true"
"null","<div style=""font-size:60px;"">+</div>","null","html-keyboard-response","214","236088","0.0-6.0-0.104","SOBA","4","f","rechts","21","","fixation","","","",""
"1369","img/120_150.png","74","image-keyboard-response","215","237469","0.0-6.0-1.104","SOBA","4","f","rechts","21","","","object","j","120","true"
"null","<div style=""font-size:60px;"">+</div>","null","html-keyboard-response","216","237874","0.0-6.0-0.105","SOBA","4","f","rechts","21","","fixation","","","",""
"820","img/90_30.png","70","image-keyboard-response","217","238707","0.0-6.0-1.105","SOBA","4","f","rechts","21","","","object","f","90","true"
"null","<div style=""font-size:60px;"">+</div>","null","html-keyboard-response","218","239186","0.0-6.0-0.106","SOBA","4","f","rechts","21","","fixation","","","",""
"907","img/L150_180.png","74","image-keyboard-response","219","240104","0.0-6.0-1.106","SOBA","4","f","rechts","21","","","object","j","150","true"
"null","<div style=""font-size:60px;"">+</div>","null","html-keyboard-response","220","240468","0.0-6.0-0.107","SOBA","4","f","rechts","21","","fixation","","","",""
"1515","img/150_90.png","70","image-keyboard-response","221","241992","0.0-6.0-1.107","SOBA","4","f","rechts","21","","","object","f","150","true"
"null","<div style=""font-size:60px;"">+</div>","null","html-keyboard-response","222","242499","0.0-6.0-0.108","SOBA","4","f","rechts","21","","fixation","","","",""
"1112","img/30_180.png","70","image-keyboard-response","223","243625","0.0-6.0-1.108","SOBA","4","f","rechts","21","","","object","f","30","true"
"null","<div style=""font-size:60px;"">+</div>","null","html-keyboard-response","224","244140","0.0-6.0-0.109","SOBA","4","f","rechts","21","","fixation","","","",""
"1204","img/L90_180.png","74","image-keyboard-response","225","245356","0.0-6.0-1.109","SOBA","4","f","rechts","21","","","object","j","90","true"
"null","<div style=""font-size:60px;"">+</div>","null","html-keyboard-response","226","245764","0.0-6.0-0.110","SOBA","4","f","rechts","21","","fixation","","","",""
"1059","img/30_270.png","70","image-keyboard-response","227","246832","0.0-6.0-1.110","SOBA","4","f","rechts","21","","","object","f","30","true"
"null","<div style=""font-size:60px;"">+</div>","null","html-keyboard-response","228","247141","0.0-6.0-0.111","SOBA","4","f","rechts","21","","fixation","","","",""
"1490","img/150_240.png","74","image-keyboard-response","229","248642","0.0-6.0-1.111","SOBA","4","f","rechts","21","","","object","j","150","true"
"null","<div style=""font-size:60px;"">+</div>","null","html-keyboard-response","230","249171","0.0-6.0-0.112","SOBA","4","f","rechts","21","","fixation","","","",""
"983","img/30_300.png","70","image-keyboard-response","231","250161","0.0-6.0-1.112","SOBA","4","f","rechts","21","","","object","f","30","true"
"null","<div style=""font-size:60px;"">+</div>","null","html-keyboard-response","232","250516","0.0-6.0-0.113","SOBA","4","f","rechts","21","","fixation","","","",""
"1853","img/90_180.png","70","image-keyboard-response","233","252378","0.0-6.0-1.113","SOBA","4","f","rechts","21","","","object","f","90","true"
"null","<div style=""font-size:60px;"">+</div>","null","html-keyboard-response","234","252781","0.0-6.0-0.114","SOBA","4","f","rechts","21","","fixation","","","",""
"993","img/0_150.png","74","image-keyboard-response","235","253784","0.0-6.0-1.114","SOBA","4","f","rechts","21","","","object","j","0","true"
"null","<div style=""font-size:60px;"">+</div>","null","html-keyboard-response","236","254203","0.0-6.0-0.115","SOBA","4","f","rechts","21","","fixation","","","",""
"1373","img/120_180.png","70","image-keyboard-response","237","255584","0.0-6.0-1.115","SOBA","4","f","rechts","21","","","object","f","120","true"
"null","<div style=""font-size:60px;"">+</div>","null","html-keyboard-response","238","256062","0.0-6.0-0.116","SOBA","4","f","rechts","21","","fixation","","","",""
"857","img/90_330.png","74","image-keyboard-response","239","256932","0.0-6.0-1.116","SOBA","4","f","rechts","21","","","object","j","90","true"
"null","<div style=""font-size:60px;"">+</div>","null","html-keyboard-response","240","257251","0.0-6.0-0.117","SOBA","4","f","rechts","21","","fixation","","","",""
"1915","img/90_150.png","74","image-keyboard-response","241","259171","0.0-6.0-1.117","SOBA","4","f","rechts","21","","","object","j","90","true"
"null","<div style=""font-size:60px;"">+</div>","null","html-keyboard-response","242","259594","0.0-6.0-0.118","SOBA","4","f","rechts","21","","fixation","","","",""
"2037","img/150_120.png","74","image-keyboard-response","243","261641","0.0-6.0-1.118","SOBA","4","f","rechts","21","","","object","f","150","false"
"null","<div style=""font-size:60px;"">+</div>","null","html-keyboard-response","244","261966","0.0-6.0-0.119","SOBA","4","f","rechts","21","","fixation","","","",""
"931","img/60_90.png","74","image-keyboard-response","245","262906","0.0-6.0-1.119","SOBA","4","f","rechts","21","","","object","j","60","true"
"null","<div style=""font-size:60px;"">+</div>","null","html-keyboard-response","246","263372","0.0-6.0-0.120","SOBA","4","f","rechts","21","","fixation","","","",""
"818","img/0_330.png","70","image-keyboard-response","247","264200","0.0-6.0-1.120","SOBA","4","f","rechts","21","","","object","f","0","true"
"null","<div style=""font-size:60px;"">+</div>","null","html-keyboard-response","248","264606","0.0-6.0-0.121","SOBA","4","f","rechts","21","","fixation","","","",""
"910","img/90_60.png","70","image-keyboard-response","249","265529","0.0-6.0-1.121","SOBA","4","f","rechts","21","","","object","f","90","true"
"null","<div style=""font-size:60px;"">+</div>","null","html-keyboard-response","250","265933","0.0-6.0-0.122","SOBA","4","f","rechts","21","","fixation","","","",""
"812","img/0_90.png","74","image-keyboard-response","251","266754","0.0-6.0-1.122","SOBA","4","f","rechts","21","","","object","j","0","true"
"null","<div style=""font-size:60px;"">+</div>","null","html-keyboard-response","252","267277","0.0-6.0-0.123","SOBA","4","f","rechts","21","","fixation","","","",""
"787","img/60_330.png","74","image-keyboard-response","253","268069","0.0-6.0-1.123","SOBA","4","f","rechts","21","","","object","j","60","true"
"null","<div style=""font-size:60px;"">+</div>","null","html-keyboard-response","254","268574","0.0-6.0-0.124","SOBA","4","f","rechts","21","","fixation","","","",""
"790","img/0_300.png","70","image-keyboard-response","255","269376","0.0-6.0-1.124","SOBA","4","f","rechts","21","","","object","f","0","true"
"null","<div style=""font-size:60px;"">+</div>","null","html-keyboard-response","256","269794","0.0-6.0-0.125","SOBA","4","f","rechts","21","","fixation","","","",""
"810","img/L30_180.png","74","image-keyboard-response","257","270612","0.0-6.0-1.125","SOBA","4","f","rechts","21","","","object","j","30","true"
"null","<div style=""font-size:60px;"">+</div>","null","html-keyboard-response","258","271044","0.0-6.0-0.126","SOBA","4","f","rechts","21","","fixation","","","",""
"818","img/120_30.png","70","image-keyboard-response","259","271874","0.0-6.0-1.126","SOBA","4","f","rechts","21","","","object","f","120","true"
"null","<div style=""font-size:60px;"">+</div>","null","html-keyboard-response","260","272232","0.0-6.0-0.127","SOBA","4","f","rechts","21","","fixation","","","",""
"1403","img/90_120.png","74","image-keyboard-response","261","273641","0.0-6.0-1.127","SOBA","4","f","rechts","21","","","object","j","90","true"
"null","<div style=""font-size:60px;"">+</div>","null","html-keyboard-response","262","274045","0.0-6.0-0.128","SOBA","4","f","rechts","21","","fixation","","","",""
"1090","img/60_180.png","70","image-keyboard-response","263","275148","0.0-6.0-1.128","SOBA","4","f","rechts","21","","","object","f","60","true"
"null","<div style=""font-size:60px;"">+</div>","null","html-keyboard-response","264","275623","0.0-6.0-0.129","SOBA","4","f","rechts","21","","fixation","","","",""
"693","img/90_300.png","74","image-keyboard-response","265","276329","0.0-6.0-1.129","SOBA","4","f","rechts","21","","","object","j","90","true"
"null","<div style=""font-size:60px;"">+</div>","null","html-keyboard-response","266","276749","0.0-6.0-0.130","SOBA","4","f","rechts","21","","fixation","","","",""
"741","img/120_330.png","74","image-keyboard-response","267","277499","0.0-6.0-1.130","SOBA","4","f","rechts","21","","","object","j","120","true"
"null","<div style=""font-size:60px;"">+</div>","null","html-keyboard-response","268","277966","0.0-6.0-0.131","SOBA","4","f","rechts","21","","fixation","","","",""
"1004","img/L120_180.png","74","image-keyboard-response","269","278984","0.0-6.0-1.131","SOBA","4","f","rechts","21","","","object","j","120","true"
"null","<div style=""font-size:60px;"">+</div>","null","html-keyboard-response","270","279295","0.0-6.0-0.132","SOBA","4","f","rechts","21","","fixation","","","",""
"1170","img/30_90.png","74","image-keyboard-response","271","280481","0.0-6.0-1.132","SOBA","4","f","rechts","21","","","object","j","30","true"
"null","<div style=""font-size:60px;"">+</div>","null","html-keyboard-response","272","280983","0.0-6.0-0.133","SOBA","4","f","rechts","21","","fixation","","","",""
"944","img/120_90.png","70","image-keyboard-response","273","281941","0.0-6.0-1.133","SOBA","4","f","rechts","21","","","object","f","120","true"
"null","<div style=""font-size:60px;"">+</div>","null","html-keyboard-response","274","282454","0.0-6.0-0.134","SOBA","4","f","rechts","21","","fixation","","","",""
"768","img/150_300.png","74","image-keyboard-response","275","283235","0.0-6.0-1.134","SOBA","4","f","rechts","21","","","object","j","150","true"
"null","<div style=""font-size:60px;"">+</div>","null","html-keyboard-response","276","283594","0.0-6.0-0.135","SOBA","4","f","rechts","21","","fixation","","","",""
"1181","img/60_270.png","70","image-keyboard-response","277","284789","0.0-6.0-1.135","SOBA","4","f","rechts","21","","","object","f","60","true"
"null","<div style=""font-size:60px;"">+</div>","null","html-keyboard-response","278","285312","0.0-6.0-0.136","SOBA","4","f","rechts","21","","fixation","","","",""
"901","img/120_270.png","70","image-keyboard-response","279","286226","0.0-6.0-1.136","SOBA","4","f","rechts","21","","","object","j","120","false"
"null","<div style=""font-size:60px;"">+</div>","null","html-keyboard-response","280","286594","0.0-6.0-0.137","SOBA","4","f","rechts","21","","fixation","","","",""
"1040","img/60_150.png","74","image-keyboard-response","281","287646","0.0-6.0-1.137","SOBA","4","f","rechts","21","","","object","j","60","true"
"null","<div style=""font-size:60px;"">+</div>","null","html-keyboard-response","282","288109","0.0-6.0-0.138","SOBA","4","f","rechts","21","","fixation","","","",""
"728","img/0_30.png","74","image-keyboard-response","283","288850","0.0-6.0-1.138","SOBA","4","f","rechts","21","","","object","j","0","true"
"null","<div style=""font-size:60px;"">+</div>","null","html-keyboard-response","284","289374","0.0-6.0-0.139","SOBA","4","f","rechts","21","","fixation","","","",""
"973","img/150_180.png","70","image-keyboard-response","285","290356","0.0-6.0-1.139","SOBA","4","f","rechts","21","","","object","f","150","true"
"null","<div style=""font-size:60px;"">+</div>","null","html-keyboard-response","286","290875","0.0-6.0-0.140","SOBA","4","f","rechts","21","","fixation","","","",""
"1057","img/150_60.png","70","image-keyboard-response","287","291945","0.0-6.0-1.140","SOBA","4","f","rechts","21","","","object","f","150","true"
"null","<div style=""font-size:60px;"">+</div>","null","html-keyboard-response","288","292266","0.0-6.0-0.141","SOBA","4","f","rechts","21","","fixation","","","",""
"831","img/0_210.png","70","image-keyboard-response","289","293101","0.0-6.0-1.141","SOBA","4","f","rechts","21","","","object","f","0","true"
"null","<div style=""font-size:60px;"">+</div>","null","html-keyboard-response","290","293470","0.0-6.0-0.142","SOBA","4","f","rechts","21","","fixation","","","",""
"917","img/L60_180.png","74","image-keyboard-response","291","294396","0.0-6.0-1.142","SOBA","4","f","rechts","21","","","object","j","60","true"
"null","<div style=""font-size:60px;"">+</div>","null","html-keyboard-response","292","294755","0.0-6.0-0.143","SOBA","4","f","rechts","21","","fixation","","","",""
"1077","img/30_60.png","74","image-keyboard-response","293","295845","0.0-6.0-1.143","SOBA","4","f","rechts","21","","","object","j","30","true"
"null","<div style=""font-size:60px;"">+</div>","null","html-keyboard-response","294","296255","0.0-6.0-0.144","SOBA","4","f","rechts","21","","fixation","","","",""
"724","img/60_30.png","70","image-keyboard-response","295","296984","0.0-6.0-1.144","SOBA","4","f","rechts","21","","","object","f","60","true"
"null","<div style=""font-size:60px;"">+</div>","null","html-keyboard-response","296","297303","0.0-6.0-0.145","SOBA","4","f","rechts","21","","fixation","","","",""
"649","img/0_60.png","74","image-keyboard-response","297","297962","0.0-6.0-1.145","SOBA","4","f","rechts","21","","","object","j","0","true"
"null","<div style=""font-size:60px;"">+</div>","null","html-keyboard-response","298","298428","0.0-6.0-0.146","SOBA","4","f","rechts","21","","fixation","","","",""
"1569","img/60_210.png","70","image-keyboard-response","299","300010","0.0-6.0-1.146","SOBA","4","f","rechts","21","","","object","f","60","true"
"null","<div style=""font-size:60px;"">+</div>","null","html-keyboard-response","300","300317","0.0-6.0-0.147","SOBA","4","f","rechts","21","","fixation","","","",""
"1555","img/120_210.png","70","image-keyboard-response","301","301887","0.0-6.0-1.147","SOBA","4","f","rechts","21","","","object","f","120","true"
"null","<div style=""font-size:60px;"">+</div>","null","html-keyboard-response","302","302195","0.0-6.0-0.148","SOBA","4","f","rechts","21","","fixation","","","",""
"957","img/30_120.png","74","image-keyboard-response","303","303161","0.0-6.0-1.148","SOBA","4","f","rechts","21","","","object","j","30","true"
"null","<div style=""font-size:60px;"">+</div>","null","html-keyboard-response","304","303491","0.0-6.0-0.149","SOBA","4","f","rechts","21","","fixation","","","",""
"859","img/30_240.png","70","image-keyboard-response","305","304365","0.0-6.0-1.149","SOBA","4","f","rechts","21","","","object","f","30","true"
"null","<div style=""font-size:60px;"">+</div>","null","html-keyboard-response","306","304725","0.0-6.0-0.150","SOBA","4","f","rechts","21","","fixation","","","",""
"1863","img/90_240.png","70","image-keyboard-response","307","306603","0.0-6.0-1.150","SOBA","4","f","rechts","21","","","object","f","90","true"
"null","<div style=""font-size:60px;"">+</div>","null","html-keyboard-response","308","307131","0.0-6.0-0.151","SOBA","4","f","rechts","21","","fixation","","","",""
"1225","img/150_270.png","74","image-keyboard-response","309","308369","0.0-6.0-1.151","SOBA","4","f","rechts","21","","","object","j","150","true"
"null","<div style=""font-size:60px;"">+</div>","null","html-keyboard-response","310","308725","0.0-6.0-0.152","SOBA","4","f","rechts","21","","fixation","","","",""
"879","img/0_270.png","70","image-keyboard-response","311","309619","0.0-6.0-1.152","SOBA","4","f","rechts","21","","","object","f","0","true"
"null","<div style=""font-size:60px;"">+</div>","null","html-keyboard-response","312","309929","0.0-6.0-0.153","SOBA","4","f","rechts","21","","fixation","","","",""
"879","img/0_240.png","70","image-keyboard-response","313","310820","0.0-6.0-1.153","SOBA","4","f","rechts","21","","","object","f","0","true"
"null","<div style=""font-size:60px;"">+</div>","null","html-keyboard-response","314","311335","0.0-6.0-0.154","SOBA","4","f","rechts","21","","fixation","","","",""
"1228","img/90_210.png","70","image-keyboard-response","315","312577","0.0-6.0-1.154","SOBA","4","f","rechts","21","","","object","f","90","true"
"null","<div style=""font-size:60px;"">+</div>","null","html-keyboard-response","316","312992","0.0-6.0-0.155","SOBA","4","f","rechts","21","","fixation","","","",""
"773","img/0_120.png","74","image-keyboard-response","317","313780","0.0-6.0-1.155","SOBA","4","f","rechts","21","","","object","j","0","true"
"null","<div style=""font-size:60px;"">+</div>","null","html-keyboard-response","318","314212","0.0-6.0-0.156","SOBA","4","f","rechts","21","","fixation","","","",""
"818","img/0_90.png","74","image-keyboard-response","319","315039","0.0-6.0-1.156","SOBA","4","f","rechts","21","","","object","j","0","true"
"null","<div style=""font-size:60px;"">+</div>","null","html-keyboard-response","320","315352","0.0-6.0-0.157","SOBA","4","f","rechts","21","","fixation","","","",""
"825","img/120_90.png","70","image-keyboard-response","321","316186","0.0-6.0-1.157","SOBA","4","f","rechts","21","","","object","f","120","true"
"null","<div style=""font-size:60px;"">+</div>","null","html-keyboard-response","322","316697","0.0-6.0-0.158","SOBA","4","f","rechts","21","","fixation","","","",""
"966","img/150_60.png","70","image-keyboard-response","323","317673","0.0-6.0-1.158","SOBA","4","f","rechts","21","","","object","f","150","true"
"null","<div style=""font-size:60px;"">+</div>","null","html-keyboard-response","324","317978","0.0-6.0-0.159","SOBA","4","f","rechts","21","","fixation","","","",""
"788","img/0_270.png","70","image-keyboard-response","325","318776","0.0-6.0-1.159","SOBA","4","f","rechts","21","","","object","f","0","true"
"null","<div style=""font-size:60px;"">+</div>","null","html-keyboard-response","326","319290","0.0-6.0-0.160","SOBA","4","f","rechts","21","","fixation","","","",""
"1125","img/90_240.png","70","image-keyboard-response","327","320418","0.0-6.0-1.160","SOBA","4","f","rechts","21","","","object","f","90","true"
"null","<div style=""font-size:60px;"">+</div>","null","html-keyboard-response","328","320728","0.0-6.0-0.161","SOBA","4","f","rechts","21","","fixation","","","",""
"1534","img/120_270.png","74","image-keyboard-response","329","322271","0.0-6.0-1.161","SOBA","4","f","rechts","21","","","object","j","120","true"
"null","<div style=""font-size:60px;"">+</div>","null","html-keyboard-response","330","322681","0.0-6.0-0.162","SOBA","4","f","rechts","21","","fixation","","","",""
"1057","img/90_300.png","74","image-keyboard-response","331","323749","0.0-6.0-1.162","SOBA","4","f","rechts","21","","","object","j","90","true"
"null","<div style=""font-size:60px;"">+</div>","null","html-keyboard-response","332","324275","0.0-6.0-0.163","SOBA","4","f","rechts","21","","fixation","","","",""
"1314","img/L90_180.png","74","image-keyboard-response","333","325593","0.0-6.0-1.163","SOBA","4","f","rechts","21","","","object","j","90","true"
"null","<div style=""font-size:60px;"">+</div>","null","html-keyboard-response","334","326057","0.0-6.0-0.164","SOBA","4","f","rechts","21","","fixation","","","",""
"944","img/30_240.png","70","image-keyboard-response","335","327011","0.0-6.0-1.164","SOBA","4","f","rechts","21","","","object","f","30","true"
"null","<div style=""font-size:60px;"">+</div>","null","html-keyboard-response","336","327522","0.0-6.0-0.165","SOBA","4","f","rechts","21","","fixation","","","",""
"1196","img/120_210.png","70","image-keyboard-response","337","328728","0.0-6.0-1.165","SOBA","4","f","rechts","21","","","object","f","120","true"
"null","<div style=""font-size:60px;"">+</div>","null","html-keyboard-response","338","329053","0.0-6.0-0.166","SOBA","4","f","rechts","21","","fixation","","","",""
"1874","img/120_30.png","70","image-keyboard-response","339","330936","0.0-6.0-1.166","SOBA","4","f","rechts","21","","","object","f","120","true"
"null","<div style=""font-size:60px;"">+</div>","null","html-keyboard-response","340","331256","0.0-6.0-0.167","SOBA","4","f","rechts","21","","fixation","","","",""
"1893","img/60_30.png","70","image-keyboard-response","341","333153","0.0-6.0-1.167","SOBA","4","f","rechts","21","","","object","f","60","true"
"null","<div style=""font-size:60px;"">+</div>","null","html-keyboard-response","342","333511","0.0-6.0-0.168","SOBA","4","f","rechts","21","","fixation","","","",""
"1061","img/30_120.png","74","image-keyboard-response","343","334581","0.0-6.0-1.168","SOBA","4","f","rechts","21","","","object","j","30","true"
"null","<div style=""font-size:60px;"">+</div>","null","html-keyboard-response","344","334885","0.0-6.0-0.169","SOBA","4","f","rechts","21","","fixation","","","",""
"1498","img/120_180.png","74","image-keyboard-response","345","336404","0.0-6.0-1.169","SOBA","4","f","rechts","21","","","object","f","120","false"
"null","<div style=""font-size:60px;"">+</div>","null","html-keyboard-response","346","336932","0.0-6.0-0.170","SOBA","4","f","rechts","21","","fixation","","","",""
"1195","img/60_270.png","70","image-keyboard-response","347","338138","0.0-6.0-1.170","SOBA","4","f","rechts","21","","","object","f","60","true"
"null","<div style=""font-size:60px;"">+</div>","null","html-keyboard-response","348","338604","0.0-6.0-0.171","SOBA","4","f","rechts","21","","fixation","","","",""
"952","img/60_330.png","74","image-keyboard-response","349","339565","0.0-6.0-1.171","SOBA","4","f","rechts","21","","","object","j","60","true"
"null","<div style=""font-size:60px;"">+</div>","null","html-keyboard-response","350","339884","0.0-6.0-0.172","SOBA","4","f","rechts","21","","fixation","","","",""
"1357","img/0_30.png","74","image-keyboard-response","351","341251","0.0-6.0-1.172","SOBA","4","f","rechts","21","","","object","j","0","true"
"null","<div style=""font-size:60px;"">+</div>","null","html-keyboard-response","352","341715","0.0-6.0-0.173","SOBA","4","f","rechts","21","","fixation","","","",""
"1088","img/60_90.png","74","image-keyboard-response","353","342816","0.0-6.0-1.173","SOBA","4","f","rechts","21","","","object","j","60","true"
"null","<div style=""font-size:60px;"">+</div>","null","html-keyboard-response","354","343199","0.0-6.0-0.174","SOBA","4","f","rechts","21","","fixation","","","",""
"2428","img/90_210.png","74","image-keyboard-response","355","345633","0.0-6.0-1.174","SOBA","4","f","rechts","21","","","object","f","90","false"
"null","<div style=""font-size:60px;"">+</div>","null","html-keyboard-response","356","345942","0.0-6.0-0.175","SOBA","4","f","rechts","21","","fixation","","","",""
"1067","img/0_120.png","74","image-keyboard-response","357","347021","0.0-6.0-1.175","SOBA","4","f","rechts","21","","","object","j","0","true"
"null","<div style=""font-size:60px;"">+</div>","null","html-keyboard-response","358","347481","0.0-6.0-0.176","SOBA","4","f","rechts","21","","fixation","","","",""
"1194","img/120_150.png","74","image-keyboard-response","359","348689","0.0-6.0-1.176","SOBA","4","f","rechts","21","","","object","j","120","true"
"null","<div style=""font-size:60px;"">+</div>","null","html-keyboard-response","360","349060","0.0-6.0-0.177","SOBA","4","f","rechts","21","","fixation","","","",""
"1573","img/150_90.png","70","image-keyboard-response","361","350646","0.0-6.0-1.177","SOBA","4","f","rechts","21","","","object","f","150","true"
"null","<div style=""font-size:60px;"">+</div>","null","html-keyboard-response","362","351028","0.0-6.0-0.178","SOBA","4","f","rechts","21","","fixation","","","",""
"933","img/L30_180.png","74","image-keyboard-response","363","351975","0.0-6.0-1.178","SOBA","4","f","rechts","21","","","object","j","30","true"
"null","<div style=""font-size:60px;"">+</div>","null","html-keyboard-response","364","352386","0.0-6.0-0.179","SOBA","4","f","rechts","21","","fixation","","","",""
"1367","img/150_300.png","74","image-keyboard-response","365","353763","0.0-6.0-1.179","SOBA","4","f","rechts","21","","","object","j","150","true"
"null","<div style=""font-size:60px;"">+</div>","null","html-keyboard-response","366","354183","0.0-6.0-0.180","SOBA","4","f","rechts","21","","fixation","","","",""
"1412","img/150_270.png","74","image-keyboard-response","367","355607","0.0-6.0-1.180","SOBA","4","f","rechts","21","","","object","j","150","true"
"null","<div style=""font-size:60px;"">+</div>","null","html-keyboard-response","368","356013","0.0-6.0-0.181","SOBA","4","f","rechts","21","","fixation","","","",""
"1350","img/L60_180.png","74","image-keyboard-response","369","357374","0.0-6.0-1.181","SOBA","4","f","rechts","21","","","object","j","60","true"
"null","<div style=""font-size:60px;"">+</div>","null","html-keyboard-response","370","357842","0.0-6.0-0.182","SOBA","4","f","rechts","21","","fixation","","","",""
"1522","img/150_120.png","70","image-keyboard-response","371","359376","0.0-6.0-1.182","SOBA","4","f","rechts","21","","","object","f","150","true"
"null","<div style=""font-size:60px;"">+</div>","null","html-keyboard-response","372","359845","0.0-6.0-0.183","SOBA","4","f","rechts","21","","fixation","","","",""
"1488","img/90_30.png","70","image-keyboard-response","373","361346","0.0-6.0-1.183","SOBA","4","f","rechts","21","","","object","f","90","true"
"null","<div style=""font-size:60px;"">+</div>","null","html-keyboard-response","374","361767","0.0-6.0-0.184","SOBA","4","f","rechts","21","","fixation","","","",""
"1398","img/120_330.png","74","image-keyboard-response","375","363178","0.0-6.0-1.184","SOBA","4","f","rechts","21","","","object","j","120","true"
"null","<div style=""font-size:60px;"">+</div>","null","html-keyboard-response","376","363658","0.0-6.0-0.185","SOBA","4","f","rechts","21","","fixation","","","",""
"1402","img/30_60.png","74","image-keyboard-response","377","365069","0.0-6.0-1.185","SOBA","4","f","rechts","21","","","object","j","30","true"
"null","<div style=""font-size:60px;"">+</div>","null","html-keyboard-response","378","365580","0.0-6.0-0.186","SOBA","4","f","rechts","21","","fixation","","","",""
"1052","img/0_60.png","74","image-keyboard-response","379","366646","0.0-6.0-1.186","SOBA","4","f","rechts","21","","","object","j","0","true"
"null","<div style=""font-size:60px;"">+</div>","null","html-keyboard-response","380","367174","0.0-6.0-0.187","SOBA","4","f","rechts","21","","fixation","","","",""
"1019","img/60_150.png","74","image-keyboard-response","381","368206","0.0-6.0-1.187","SOBA","4","f","rechts","21","","","object","j","60","true"
"null","<div style=""font-size:60px;"">+</div>","null","html-keyboard-response","382","368611","0.0-6.0-0.188","SOBA","4","f","rechts","21","","fixation","","","",""
"833","img/0_330.png","70","image-keyboard-response","383","369459","0.0-6.0-1.188","SOBA","4","f","rechts","21","","","object","f","0","true"
"null","<div style=""font-size:60px;"">+</div>","null","html-keyboard-response","384","369971","0.0-6.0-0.189","SOBA","4","f","rechts","21","","fixation","","","",""
"1138","img/30_300.png","70","image-keyboard-response","385","371122","0.0-6.0-1.189","SOBA","4","f","rechts","21","","","object","f","30","true"
"null","<div style=""font-size:60px;"">+</div>","null","html-keyboard-response","386","371548","0.0-6.0-0.190","SOBA","4","f","rechts","21","","fixation","","","",""
"843","img/0_150.png","74","image-keyboard-response","387","372404","0.0-6.0-1.190","SOBA","4","f","rechts","21","","","object","j","0","true"
"null","<div style=""font-size:60px;"">+</div>","null","html-keyboard-response","388","372767","0.0-6.0-0.191","SOBA","4","f","rechts","21","","fixation","","","",""
"1104","img/30_180.png","70","image-keyboard-response","389","373889","0.0-6.0-1.191","SOBA","4","f","rechts","21","","","object","f","30","true"
"null","<div style=""font-size:60px;"">+</div>","null","html-keyboard-response","390","374268","0.0-6.0-0.192","SOBA","4","f","rechts","21","","fixation","","","",""
"1395","img/90_120.png","74","image-keyboard-response","391","375668","0.0-6.0-1.192","SOBA","4","f","rechts","21","","","object","j","90","true"
"null","<div style=""font-size:60px;"">+</div>","null","html-keyboard-response","392","375971","0.0-6.0-0.193","SOBA","4","f","rechts","21","","fixation","","","",""
"1741","img/30_270.png","70","image-keyboard-response","393","377727","0.0-6.0-1.193","SOBA","4","f","rechts","21","","","object","f","30","true"
"null","<div style=""font-size:60px;"">+</div>","null","html-keyboard-response","394","378238","0.0-6.0-0.194","SOBA","4","f","rechts","21","","fixation","","","",""
"1742","img/L120_180.png","74","image-keyboard-response","395","379987","0.0-6.0-1.194","SOBA","4","f","rechts","21","","","object","j","120","true"
"null","<div style=""font-size:60px;"">+</div>","null","html-keyboard-response","396","380409","0.0-6.0-0.195","SOBA","4","f","rechts","21","","fixation","","","",""
"1917","img/150_180.png","70","image-keyboard-response","397","382339","0.0-6.0-1.195","SOBA","4","f","rechts","21","","","object","f","150","true"
"null","<div style=""font-size:60px;"">+</div>","null","html-keyboard-response","398","382816","0.0-6.0-0.196","SOBA","4","f","rechts","21","","fixation","","","",""
"1189","img/0_240.png","70","image-keyboard-response","399","384014","0.0-6.0-1.196","SOBA","4","f","rechts","21","","","object","f","0","true"
"null","<div style=""font-size:60px;"">+</div>","null","html-keyboard-response","400","384347","0.0-6.0-0.197","SOBA","4","f","rechts","21","","fixation","","","",""
"879","img/30_90.png","74","image-keyboard-response","401","385239","0.0-6.0-1.197","SOBA","4","f","rechts","21","","","object","j","30","true"
"null","<div style=""font-size:60px;"">+</div>","null","html-keyboard-response","402","385643","0.0-6.0-0.198","SOBA","4","f","rechts","21","","fixation","","","",""
"1091","img/90_180.png","70","image-keyboard-response","403","386749","0.0-6.0-1.198","SOBA","4","f","rechts","21","","","object","f","90","true"
"null","<div style=""font-size:60px;"">+</div>","null","html-keyboard-response","404","387255","0.0-6.0-0.199","SOBA","4","f","rechts","21","","fixation","","","",""
"883","img/0_300.png","70","image-keyboard-response","405","388144","0.0-6.0-1.199","SOBA","4","f","rechts","21","","","object","f","0","true"
"null","<div style=""font-size:60px;"">+</div>","null","html-keyboard-response","406","388599","0.0-6.0-0.200","SOBA","4","f","rechts","21","","fixation","","","",""
"848","img/90_330.png","74","image-keyboard-response","407","389459","0.0-6.0-1.200","SOBA","4","f","rechts","21","","","object","j","90","true"
"null","<div style=""font-size:60px;"">+</div>","null","html-keyboard-response","408","389911","0.0-6.0-0.201","SOBA","4","f","rechts","21","","fixation","","","",""
"1427","img/L150_180.png","70","image-keyboard-response","409","391351","0.0-6.0-1.201","SOBA","4","f","rechts","21","","","object","j","150","false"
"null","<div style=""font-size:60px;"">+</div>","null","html-keyboard-response","410","391724","0.0-6.0-0.202","SOBA","4","f","rechts","21","","fixation","","","",""
"null","img/60_210.png","null","image-keyboard-response","411","394742","0.0-6.0-1.202","SOBA","4","f","rechts","21","","","object","f","60","false"
"null","<div style=""font-size:60px;"">+</div>","null","html-keyboard-response","412","395070","0.0-6.0-0.203","SOBA","4","f","rechts","21","","fixation","","","",""
"1436","img/90_60.png","70","image-keyboard-response","413","396520","0.0-6.0-1.203","SOBA","4","f","rechts","21","","","object","f","90","true"
"null","<div style=""font-size:60px;"">+</div>","null","html-keyboard-response","414","396890","0.0-6.0-0.204","SOBA","4","f","rechts","21","","fixation","","","",""
"1657","img/150_240.png","74","image-keyboard-response","415","398560","0.0-6.0-1.204","SOBA","4","f","rechts","21","","","object","j","150","true"
"null","<div style=""font-size:60px;"">+</div>","null","html-keyboard-response","416","399092","0.0-6.0-0.205","SOBA","4","f","rechts","21","","fixation","","","",""
"1041","img/60_180.png","70","image-keyboard-response","417","400148","0.0-6.0-1.205","SOBA","4","f","rechts","21","","","object","f","60","true"
"null","<div style=""font-size:60px;"">+</div>","null","html-keyboard-response","418","400608","0.0-6.0-0.206","SOBA","4","f","rechts","21","","fixation","","","",""
"1200","img/90_150.png","74","image-keyboard-response","419","401824","0.0-6.0-1.206","SOBA","4","f","rechts","21","","","object","j","90","true"
"null","<div style=""font-size:60px;"">+</div>","null","html-keyboard-response","420","402330","0.0-6.0-0.207","SOBA","4","f","rechts","21","","fixation","","","",""
"1641","img/0_210.png","70","image-keyboard-response","421","403984","0.0-6.0-1.207","SOBA","4","f","rechts","21","","","object","f","0","true"
"18442","<p>Du hast in 91% der Versuche korrekt entschieden.</p><p>Deine durchschnittliche Reaktionszeit war  1181ms.</p><p>Dr&uuml;cke eine beliebige Taste, um die Session zu beenden. Vielen Dank!</p>","32","html-keyboard-response","422","422438","0.0-7.0","SOBA","4","f","rechts","21","","","","","",""
