"rt","stimulus","key_press","trial_type","trial_index","time_elapsed","internal_node_id","subject","session","sex","handedness","age","responses","test_part","condition","correct_response","angle","correct"
"1262","<p>Mental Rotation Experiment.</p> <p>Dr&uuml;cke eine beliebige Taste, um anzufangen.</p>","13","html-keyboard-response","0","1288","0.0-0.0","SOBA","3","f","rechts","21","","","","","",""
"15812","","","survey-text","1","17102","0.0-1.0","SOBA","3","f","rechts","21","{""Q0"":""SOBA""}","","","","",""
"3053","","","survey-text","2","20158","0.0-2.0","SOBA","3","f","rechts","21","{""Q0"":""3""}","","","","",""
"3359","","","survey-multi-choice","3","23522","0.0-3.0","SOBA","3","f","rechts","21","{""Q0"":""f"",""Q1"":""rechts""}","","","","",""
"16490","","","survey-text","4","40014","0.0-4.0","SOBA","3","f","rechts","21","{""Q0"":""21""}","","","","",""
"69066","<p>Stell dir vor, dass du vor einem runden Tisch stehst, auf dem sich ein blauer Ball am Tischrand befindet. Entlang des Tischrands ist jeweils ein verschieden langer Pfeil. Nun bleibst du an deinem Platz vor dem Tisch und rotierst den Tisch entlang des Pfeils (gleiche Richtung und Länge). </p> <img src='img/30_180.png'></img> <br><p> Nachdem du diese (vorgestellte) Rotation durchgef&uuml;hrt hast, schau in Richtung der Tischmitte, und entscheide dann, ob der Ball links oder rechts von dir liegt.</p> <p>Dr&uuml;cke die <strong>'f'</strong>-Taste f&uuml;r links, die <strong>'j'</strong>-Taste f&uuml;r rechts.</p><br><p> Das Bild wird jeweils 1 Sekunde lang pr&auml;sentiert. Du hast 3 Sekunden Zeit eine Entscheidung zu treffen.</p>","32","html-keyboard-response","5","109088","0.0-5.0","SOBA","3","f","rechts","21","","","","","",""
"null","<div style=""font-size:60px;"">+</div>","null","html-keyboard-response","6","110425","0.0-6.0-0.0","SOBA","3","f","rechts","21","","fixation","","","",""
"1634","img/90_180.png","70","image-keyboard-response","7","112079","0.0-6.0-1.0","SOBA","3","f","rechts","21","","","object","f","90","true"
"null","<div style=""font-size:60px;"">+</div>","null","html-keyboard-response","8","112532","0.0-6.0-0.1","SOBA","3","f","rechts","21","","fixation","","","",""
"1448","img/90_30.png","70","image-keyboard-response","9","113998","0.0-6.0-1.1","SOBA","3","f","rechts","21","","","object","f","90","true"
"null","<div style=""font-size:60px;"">+</div>","null","html-keyboard-response","10","114308","0.0-6.0-0.2","SOBA","3","f","rechts","21","","fixation","","","",""
"1078","img/0_300.png","70","image-keyboard-response","11","115403","0.0-6.0-1.2","SOBA","3","f","rechts","21","","","object","f","0","true"
"null","<div style=""font-size:60px;"">+</div>","null","html-keyboard-response","12","115909","0.0-6.0-0.3","SOBA","3","f","rechts","21","","fixation","","","",""
"1467","img/60_150.png","74","image-keyboard-response","13","117383","0.0-6.0-1.3","SOBA","3","f","rechts","21","","","object","j","60","true"
"null","<div style=""font-size:60px;"">+</div>","null","html-keyboard-response","14","117839","0.0-6.0-0.4","SOBA","3","f","rechts","21","","fixation","","","",""
"1631","img/30_300.png","70","image-keyboard-response","15","119488","0.0-6.0-1.4","SOBA","3","f","rechts","21","","","object","f","30","true"
"null","<div style=""font-size:60px;"">+</div>","null","html-keyboard-response","16","119940","0.0-6.0-0.5","SOBA","3","f","rechts","21","","fixation","","","",""
"1072","img/0_60.png","74","image-keyboard-response","17","121029","0.0-6.0-1.5","SOBA","3","f","rechts","21","","","object","j","0","true"
"null","<div style=""font-size:60px;"">+</div>","null","html-keyboard-response","18","121538","0.0-6.0-0.6","SOBA","3","f","rechts","21","","fixation","","","",""
"1622","img/L150_180.png","74","image-keyboard-response","19","123178","0.0-6.0-1.6","SOBA","3","f","rechts","21","","","object","j","150","true"
"null","<div style=""font-size:60px;"">+</div>","null","html-keyboard-response","20","123634","0.0-6.0-0.7","SOBA","3","f","rechts","21","","fixation","","","",""
"1731","img/120_210.png","70","image-keyboard-response","21","125384","0.0-6.0-1.7","SOBA","3","f","rechts","21","","","object","f","120","true"
"null","<div style=""font-size:60px;"">+</div>","null","html-keyboard-response","22","125851","0.0-6.0-0.8","SOBA","3","f","rechts","21","","fixation","","","",""
"1648","img/120_150.png","74","image-keyboard-response","23","127520","0.0-6.0-1.8","SOBA","3","f","rechts","21","","","object","j","120","true"
"null","<div style=""font-size:60px;"">+</div>","null","html-keyboard-response","24","127975","0.0-6.0-0.9","SOBA","3","f","rechts","21","","fixation","","","",""
"1486","img/120_270.png","74","image-keyboard-response","25","129479","0.0-6.0-1.9","SOBA","3","f","rechts","21","","","object","j","120","true"
"null","<div style=""font-size:60px;"">+</div>","null","html-keyboard-response","26","129984","0.0-6.0-0.10","SOBA","3","f","rechts","21","","fixation","","","",""
"1795","img/90_120.png","74","image-keyboard-response","27","131796","0.0-6.0-1.10","SOBA","3","f","rechts","21","","","object","j","90","true"
"null","<div style=""font-size:60px;"">+</div>","null","html-keyboard-response","28","132320","0.0-6.0-0.11","SOBA","3","f","rechts","21","","fixation","","","",""
"1583","img/60_90.png","74","image-keyboard-response","29","133922","0.0-6.0-1.11","SOBA","3","f","rechts","21","","","object","j","60","true"
"null","<div style=""font-size:60px;"">+</div>","null","html-keyboard-response","30","134388","0.0-6.0-0.12","SOBA","3","f","rechts","21","","fixation","","","",""
"1259","img/30_120.png","74","image-keyboard-response","31","135666","0.0-6.0-1.12","SOBA","3","f","rechts","21","","","object","j","30","true"
"null","<div style=""font-size:60px;"">+</div>","null","html-keyboard-response","32","136173","0.0-6.0-0.13","SOBA","3","f","rechts","21","","fixation","","","",""
"1521","img/30_60.png","74","image-keyboard-response","33","137712","0.0-6.0-1.13","SOBA","3","f","rechts","21","","","object","j","30","true"
"null","<div style=""font-size:60px;"">+</div>","null","html-keyboard-response","34","138168","0.0-6.0-0.14","SOBA","3","f","rechts","21","","fixation","","","",""
"1526","img/120_90.png","70","image-keyboard-response","35","139713","0.0-6.0-1.14","SOBA","3","f","rechts","21","","","object","f","120","true"
"null","<div style=""font-size:60px;"">+</div>","null","html-keyboard-response","36","140128","0.0-6.0-0.15","SOBA","3","f","rechts","21","","fixation","","","",""
"1021","img/30_90.png","74","image-keyboard-response","37","141167","0.0-6.0-1.15","SOBA","3","f","rechts","21","","","object","j","30","true"
"null","<div style=""font-size:60px;"">+</div>","null","html-keyboard-response","38","141531","0.0-6.0-0.16","SOBA","3","f","rechts","21","","fixation","","","",""
"1110","img/60_30.png","70","image-keyboard-response","39","142661","0.0-6.0-1.16","SOBA","3","f","rechts","21","","","object","f","60","true"
"null","<div style=""font-size:60px;"">+</div>","null","html-keyboard-response","40","143171","0.0-6.0-0.17","SOBA","3","f","rechts","21","","fixation","","","",""
"1272","img/120_330.png","74","image-keyboard-response","41","144461","0.0-6.0-1.17","SOBA","3","f","rechts","21","","","object","j","120","true"
"null","<div style=""font-size:60px;"">+</div>","null","html-keyboard-response","42","144782","0.0-6.0-0.18","SOBA","3","f","rechts","21","","fixation","","","",""
"1143","img/60_180.png","70","image-keyboard-response","43","145937","0.0-6.0-1.18","SOBA","3","f","rechts","21","","","object","f","60","true"
"null","<div style=""font-size:60px;"">+</div>","null","html-keyboard-response","44","146467","0.0-6.0-0.19","SOBA","3","f","rechts","21","","fixation","","","",""
"927","img/0_120.png","74","image-keyboard-response","45","147410","0.0-6.0-1.19","SOBA","3","f","rechts","21","","","object","j","0","true"
"null","<div style=""font-size:60px;"">+</div>","null","html-keyboard-response","46","147739","0.0-6.0-0.20","SOBA","3","f","rechts","21","","fixation","","","",""
"912","img/0_150.png","74","image-keyboard-response","47","148672","0.0-6.0-1.20","SOBA","3","f","rechts","21","","","object","j","0","true"
"null","<div style=""font-size:60px;"">+</div>","null","html-keyboard-response","48","149097","0.0-6.0-0.21","SOBA","3","f","rechts","21","","fixation","","","",""
"1459","img/90_210.png","70","image-keyboard-response","49","150572","0.0-6.0-1.21","SOBA","3","f","rechts","21","","","object","f","90","true"
"null","<div style=""font-size:60px;"">+</div>","null","html-keyboard-response","50","150891","0.0-6.0-0.22","SOBA","3","f","rechts","21","","fixation","","","",""
"1265","img/90_240.png","74","image-keyboard-response","51","152170","0.0-6.0-1.22","SOBA","3","f","rechts","21","","","object","f","90","false"
"null","<div style=""font-size:60px;"">+</div>","null","html-keyboard-response","52","152696","0.0-6.0-0.23","SOBA","3","f","rechts","21","","fixation","","","",""
"2247","img/L90_180.png","74","image-keyboard-response","53","154961","0.0-6.0-1.23","SOBA","3","f","rechts","21","","","object","j","90","true"
"null","<div style=""font-size:60px;"">+</div>","null","html-keyboard-response","54","155331","0.0-6.0-0.24","SOBA","3","f","rechts","21","","fixation","","","",""
"1759","img/150_120.png","70","image-keyboard-response","55","157107","0.0-6.0-1.24","SOBA","3","f","rechts","21","","","object","f","150","true"
"null","<div style=""font-size:60px;"">+</div>","null","html-keyboard-response","56","157476","0.0-6.0-0.25","SOBA","3","f","rechts","21","","fixation","","","",""
"1236","img/60_330.png","74","image-keyboard-response","57","158729","0.0-6.0-1.25","SOBA","3","f","rechts","21","","","object","j","60","true"
"null","<div style=""font-size:60px;"">+</div>","null","html-keyboard-response","58","159155","0.0-6.0-0.26","SOBA","3","f","rechts","21","","fixation","","","",""
"1009","img/30_240.png","70","image-keyboard-response","59","160181","0.0-6.0-1.26","SOBA","3","f","rechts","21","","","object","f","30","true"
"null","<div style=""font-size:60px;"">+</div>","null","html-keyboard-response","60","160544","0.0-6.0-0.27","SOBA","3","f","rechts","21","","fixation","","","",""
"1124","img/0_210.png","70","image-keyboard-response","61","161686","0.0-6.0-1.27","SOBA","3","f","rechts","21","","","object","f","0","true"
"null","<div style=""font-size:60px;"">+</div>","null","html-keyboard-response","62","162097","0.0-6.0-0.28","SOBA","3","f","rechts","21","","fixation","","","",""
"1047","img/0_90.png","74","image-keyboard-response","63","163161","0.0-6.0-1.28","SOBA","3","f","rechts","21","","","object","j","0","true"
"null","<div style=""font-size:60px;"">+</div>","null","html-keyboard-response","64","163678","0.0-6.0-0.29","SOBA","3","f","rechts","21","","fixation","","","",""
"1273","img/0_30.png","74","image-keyboard-response","65","164972","0.0-6.0-1.29","SOBA","3","f","rechts","21","","","object","j","0","true"
"null","<div style=""font-size:60px;"">+</div>","null","html-keyboard-response","66","165331","0.0-6.0-0.30","SOBA","3","f","rechts","21","","fixation","","","",""
"1017","img/L60_180.png","74","image-keyboard-response","67","166367","0.0-6.0-1.30","SOBA","3","f","rechts","21","","","object","j","60","true"
"null","<div style=""font-size:60px;"">+</div>","null","html-keyboard-response","68","166879","0.0-6.0-0.31","SOBA","3","f","rechts","21","","fixation","","","",""
"1643","img/150_240.png","74","image-keyboard-response","69","168538","0.0-6.0-1.31","SOBA","3","f","rechts","21","","","object","j","150","true"
"null","<div style=""font-size:60px;"">+</div>","null","html-keyboard-response","70","169013","0.0-6.0-0.32","SOBA","3","f","rechts","21","","fixation","","","",""
"1127","img/60_270.png","70","image-keyboard-response","71","170158","0.0-6.0-1.32","SOBA","3","f","rechts","21","","","object","f","60","true"
"null","<div style=""font-size:60px;"">+</div>","null","html-keyboard-response","72","170619","0.0-6.0-0.33","SOBA","3","f","rechts","21","","fixation","","","",""
"1069","img/L30_180.png","74","image-keyboard-response","73","171710","0.0-6.0-1.33","SOBA","3","f","rechts","21","","","object","j","30","true"
"null","<div style=""font-size:60px;"">+</div>","null","html-keyboard-response","74","172085","0.0-6.0-0.34","SOBA","3","f","rechts","21","","fixation","","","",""
"993","img/90_330.png","74","image-keyboard-response","75","173095","0.0-6.0-1.34","SOBA","3","f","rechts","21","","","object","j","90","true"
"null","<div style=""font-size:60px;"">+</div>","null","html-keyboard-response","76","173404","0.0-6.0-0.35","SOBA","3","f","rechts","21","","fixation","","","",""
"1666","img/150_270.png","74","image-keyboard-response","77","175087","0.0-6.0-1.35","SOBA","3","f","rechts","21","","","object","j","150","true"
"null","<div style=""font-size:60px;"">+</div>","null","html-keyboard-response","78","175450","0.0-6.0-0.36","SOBA","3","f","rechts","21","","fixation","","","",""
"968","img/0_330.png","70","image-keyboard-response","79","176436","0.0-6.0-1.36","SOBA","3","f","rechts","21","","","object","f","0","true"
"null","<div style=""font-size:60px;"">+</div>","null","html-keyboard-response","80","176904","0.0-6.0-0.37","SOBA","3","f","rechts","21","","fixation","","","",""
"1616","img/60_210.png","70","image-keyboard-response","81","178540","0.0-6.0-1.37","SOBA","3","f","rechts","21","","","object","f","60","true"
"null","<div style=""font-size:60px;"">+</div>","null","html-keyboard-response","82","178961","0.0-6.0-0.38","SOBA","3","f","rechts","21","","fixation","","","",""
"1594","img/150_60.png","70","image-keyboard-response","83","180597","0.0-6.0-1.38","SOBA","3","f","rechts","21","","","object","f","150","true"
"null","<div style=""font-size:60px;"">+</div>","null","html-keyboard-response","84","180961","0.0-6.0-0.39","SOBA","3","f","rechts","21","","fixation","","","",""
"2418","img/120_180.png","70","image-keyboard-response","85","183384","0.0-6.0-1.39","SOBA","3","f","rechts","21","","","object","f","120","true"
"null","<div style=""font-size:60px;"">+</div>","null","html-keyboard-response","86","183894","0.0-6.0-0.40","SOBA","3","f","rechts","21","","fixation","","","",""
"1422","img/30_270.png","70","image-keyboard-response","87","185335","0.0-6.0-1.40","SOBA","3","f","rechts","21","","","object","f","30","true"
"null","<div style=""font-size:60px;"">+</div>","null","html-keyboard-response","88","185797","0.0-6.0-0.41","SOBA","3","f","rechts","21","","fixation","","","",""
"1306","img/90_300.png","74","image-keyboard-response","89","187120","0.0-6.0-1.41","SOBA","3","f","rechts","21","","","object","j","90","true"
"null","<div style=""font-size:60px;"">+</div>","null","html-keyboard-response","90","187590","0.0-6.0-0.42","SOBA","3","f","rechts","21","","fixation","","","",""
"1486","img/90_60.png","70","image-keyboard-response","91","189093","0.0-6.0-1.42","SOBA","3","f","rechts","21","","","object","f","90","true"
"null","<div style=""font-size:60px;"">+</div>","null","html-keyboard-response","92","189467","0.0-6.0-0.43","SOBA","3","f","rechts","21","","fixation","","","",""
"1822","img/150_90.png","70","image-keyboard-response","93","191306","0.0-6.0-1.43","SOBA","3","f","rechts","21","","","object","f","150","true"
"null","<div style=""font-size:60px;"">+</div>","null","html-keyboard-response","94","191633","0.0-6.0-0.44","SOBA","3","f","rechts","21","","fixation","","","",""
"1424","img/90_150.png","74","image-keyboard-response","95","193075","0.0-6.0-1.44","SOBA","3","f","rechts","21","","","object","j","90","true"
"null","<div style=""font-size:60px;"">+</div>","null","html-keyboard-response","96","193437","0.0-6.0-0.45","SOBA","3","f","rechts","21","","fixation","","","",""
"1140","img/L120_180.png","74","image-keyboard-response","97","194582","0.0-6.0-1.45","SOBA","3","f","rechts","21","","","object","j","120","true"
"null","<div style=""font-size:60px;"">+</div>","null","html-keyboard-response","98","194888","0.0-6.0-0.46","SOBA","3","f","rechts","21","","fixation","","","",""
"954","img/0_240.png","70","image-keyboard-response","99","195853","0.0-6.0-1.46","SOBA","3","f","rechts","21","","","object","f","0","true"
"null","<div style=""font-size:60px;"">+</div>","null","html-keyboard-response","100","196310","0.0-6.0-0.47","SOBA","3","f","rechts","21","","fixation","","","",""
"964","img/0_270.png","70","image-keyboard-response","101","197293","0.0-6.0-1.47","SOBA","3","f","rechts","21","","","object","f","0","true"
"null","<div style=""font-size:60px;"">+</div>","null","html-keyboard-response","102","197651","0.0-6.0-0.48","SOBA","3","f","rechts","21","","fixation","","","",""
"1051","img/150_300.png","74","image-keyboard-response","103","198723","0.0-6.0-1.48","SOBA","3","f","rechts","21","","","object","j","150","true"
"null","<div style=""font-size:60px;"">+</div>","null","html-keyboard-response","104","199145","0.0-6.0-0.49","SOBA","3","f","rechts","21","","fixation","","","",""
"880","img/120_30.png","70","image-keyboard-response","105","200050","0.0-6.0-1.49","SOBA","3","f","rechts","21","","","object","f","120","true"
"null","<div style=""font-size:60px;"">+</div>","null","html-keyboard-response","106","200422","0.0-6.0-0.50","SOBA","3","f","rechts","21","","fixation","","","",""
"1438","img/30_180.png","70","image-keyboard-response","107","201872","0.0-6.0-1.50","SOBA","3","f","rechts","21","","","object","f","30","true"
"null","<div style=""font-size:60px;"">+</div>","null","html-keyboard-response","108","202187","0.0-6.0-0.51","SOBA","3","f","rechts","21","","fixation","","","",""
"1413","img/150_180.png","70","image-keyboard-response","109","203617","0.0-6.0-1.51","SOBA","3","f","rechts","21","","","object","f","150","true"
"null","<div style=""font-size:60px;"">+</div>","null","html-keyboard-response","110","204071","0.0-6.0-0.52","SOBA","3","f","rechts","21","","fixation","","","",""
"1472","img/90_60.png","70","image-keyboard-response","111","205552","0.0-6.0-1.52","SOBA","3","f","rechts","21","","","object","f","90","true"
"null","<div style=""font-size:60px;"">+</div>","null","html-keyboard-response","112","206007","0.0-6.0-0.53","SOBA","3","f","rechts","21","","fixation","","","",""
"735","img/0_300.png","70","image-keyboard-response","113","206756","0.0-6.0-1.53","SOBA","3","f","rechts","21","","","object","f","0","true"
"null","<div style=""font-size:60px;"">+</div>","null","html-keyboard-response","114","207115","0.0-6.0-0.54","SOBA","3","f","rechts","21","","fixation","","","",""
"1452","img/60_90.png","74","image-keyboard-response","115","208579","0.0-6.0-1.54","SOBA","3","f","rechts","21","","","object","j","60","true"
"null","<div style=""font-size:60px;"">+</div>","null","html-keyboard-response","116","209099","0.0-6.0-0.55","SOBA","3","f","rechts","21","","fixation","","","",""
"820","img/0_90.png","74","image-keyboard-response","117","209928","0.0-6.0-1.55","SOBA","3","f","rechts","21","","","object","j","0","true"
"null","<div style=""font-size:60px;"">+</div>","null","html-keyboard-response","118","210237","0.0-6.0-0.56","SOBA","3","f","rechts","21","","fixation","","","",""
"1368","img/150_270.png","74","image-keyboard-response","119","211615","0.0-6.0-1.56","SOBA","3","f","rechts","21","","","object","j","150","true"
"null","<div style=""font-size:60px;"">+</div>","null","html-keyboard-response","120","212083","0.0-6.0-0.57","SOBA","3","f","rechts","21","","fixation","","","",""
"1827","img/150_120.png","70","image-keyboard-response","121","213920","0.0-6.0-1.57","SOBA","3","f","rechts","21","","","object","f","150","true"
"null","<div style=""font-size:60px;"">+</div>","null","html-keyboard-response","122","214382","0.0-6.0-0.58","SOBA","3","f","rechts","21","","fixation","","","",""
"990","img/0_60.png","74","image-keyboard-response","123","215384","0.0-6.0-1.58","SOBA","3","f","rechts","21","","","object","j","0","true"
"null","<div style=""font-size:60px;"">+</div>","null","html-keyboard-response","124","215700","0.0-6.0-0.59","SOBA","3","f","rechts","21","","fixation","","","",""
"989","img/60_30.png","70","image-keyboard-response","125","216702","0.0-6.0-1.59","SOBA","3","f","rechts","21","","","object","f","60","true"
"null","<div style=""font-size:60px;"">+</div>","null","html-keyboard-response","126","217016","0.0-6.0-0.60","SOBA","3","f","rechts","21","","fixation","","","",""
"884","img/120_330.png","74","image-keyboard-response","127","217904","0.0-6.0-1.60","SOBA","3","f","rechts","21","","","object","j","120","true"
"null","<div style=""font-size:60px;"">+</div>","null","html-keyboard-response","128","218317","0.0-6.0-0.61","SOBA","3","f","rechts","21","","fixation","","","",""
"950","img/0_210.png","70","image-keyboard-response","129","219277","0.0-6.0-1.61","SOBA","3","f","rechts","21","","","object","f","0","true"
"null","<div style=""font-size:60px;"">+</div>","null","html-keyboard-response","130","219729","0.0-6.0-0.62","SOBA","3","f","rechts","21","","fixation","","","",""
"952","img/30_120.png","74","image-keyboard-response","131","220694","0.0-6.0-1.62","SOBA","3","f","rechts","21","","","object","j","30","true"
"null","<div style=""font-size:60px;"">+</div>","null","html-keyboard-response","132","221052","0.0-6.0-0.63","SOBA","3","f","rechts","21","","fixation","","","",""
"1370","img/120_210.png","70","image-keyboard-response","133","222427","0.0-6.0-1.63","SOBA","3","f","rechts","21","","","object","f","120","true"
"null","<div style=""font-size:60px;"">+</div>","null","html-keyboard-response","134","222890","0.0-6.0-0.64","SOBA","3","f","rechts","21","","fixation","","","",""
"2688","img/90_210.png","70","image-keyboard-response","135","225592","0.0-6.0-1.64","SOBA","3","f","rechts","21","","","object","f","90","true"
"null","<div style=""font-size:60px;"">+</div>","null","html-keyboard-response","136","226068","0.0-6.0-0.65","SOBA","3","f","rechts","21","","fixation","","","",""
"923","img/60_150.png","74","image-keyboard-response","137","227003","0.0-6.0-1.65","SOBA","3","f","rechts","21","","","object","j","60","true"
"null","<div style=""font-size:60px;"">+</div>","null","html-keyboard-response","138","227322","0.0-6.0-0.66","SOBA","3","f","rechts","21","","fixation","","","",""
"1051","img/90_120.png","70","image-keyboard-response","139","228378","0.0-6.0-1.66","SOBA","3","f","rechts","21","","","object","j","90","false"
"null","<div style=""font-size:60px;"">+</div>","null","html-keyboard-response","140","228745","0.0-6.0-0.67","SOBA","3","f","rechts","21","","fixation","","","",""
"1226","img/60_330.png","74","image-keyboard-response","141","229985","0.0-6.0-1.67","SOBA","3","f","rechts","21","","","object","j","60","true"
"null","<div style=""font-size:60px;"">+</div>","null","html-keyboard-response","142","230455","0.0-6.0-0.68","SOBA","3","f","rechts","21","","fixation","","","",""
"900","img/L150_180.png","74","image-keyboard-response","143","231369","0.0-6.0-1.68","SOBA","3","f","rechts","21","","","object","j","150","true"
"null","<div style=""font-size:60px;"">+</div>","null","html-keyboard-response","144","231829","0.0-6.0-0.69","SOBA","3","f","rechts","21","","fixation","","","",""
"1468","img/L120_180.png","74","image-keyboard-response","145","233305","0.0-6.0-1.69","SOBA","3","f","rechts","21","","","object","j","120","true"
"null","<div style=""font-size:60px;"">+</div>","null","html-keyboard-response","146","233735","0.0-6.0-0.70","SOBA","3","f","rechts","21","","fixation","","","",""
"1360","img/30_180.png","70","image-keyboard-response","147","235105","0.0-6.0-1.70","SOBA","3","f","rechts","21","","","object","f","30","true"
"null","<div style=""font-size:60px;"">+</div>","null","html-keyboard-response","148","235534","0.0-6.0-0.71","SOBA","3","f","rechts","21","","fixation","","","",""
"933","img/0_330.png","70","image-keyboard-response","149","236477","0.0-6.0-1.71","SOBA","3","f","rechts","21","","","object","f","0","true"
"null","<div style=""font-size:60px;"">+</div>","null","html-keyboard-response","150","236951","0.0-6.0-0.72","SOBA","3","f","rechts","21","","fixation","","","",""
"1674","img/120_150.png","74","image-keyboard-response","151","238638","0.0-6.0-1.72","SOBA","3","f","rechts","21","","","object","j","120","true"
"null","<div style=""font-size:60px;"">+</div>","null","html-keyboard-response","152","239009","0.0-6.0-0.73","SOBA","3","f","rechts","21","","fixation","","","",""
"1579","img/60_210.png","74","image-keyboard-response","153","240594","0.0-6.0-1.73","SOBA","3","f","rechts","21","","","object","f","60","false"
"null","<div style=""font-size:60px;"">+</div>","null","html-keyboard-response","154","240995","0.0-6.0-0.74","SOBA","3","f","rechts","21","","fixation","","","",""
"1572","img/90_150.png","74","image-keyboard-response","155","242576","0.0-6.0-1.74","SOBA","3","f","rechts","21","","","object","j","90","true"
"null","<div style=""font-size:60px;"">+</div>","null","html-keyboard-response","156","243091","0.0-6.0-0.75","SOBA","3","f","rechts","21","","fixation","","","",""
"1297","img/90_300.png","74","image-keyboard-response","157","244399","0.0-6.0-1.75","SOBA","3","f","rechts","21","","","object","j","90","true"
"null","<div style=""font-size:60px;"">+</div>","null","html-keyboard-response","158","244915","0.0-6.0-0.76","SOBA","3","f","rechts","21","","fixation","","","",""
"1223","img/L90_180.png","74","image-keyboard-response","159","246154","0.0-6.0-1.76","SOBA","3","f","rechts","21","","","object","j","90","true"
"null","<div style=""font-size:60px;"">+</div>","null","html-keyboard-response","160","246672","0.0-6.0-0.77","SOBA","3","f","rechts","21","","fixation","","","",""
"1119","img/90_330.png","74","image-keyboard-response","161","247805","0.0-6.0-1.77","SOBA","3","f","rechts","21","","","object","j","90","true"
"null","<div style=""font-size:60px;"">+</div>","null","html-keyboard-response","162","248214","0.0-6.0-0.78","SOBA","3","f","rechts","21","","fixation","","","",""
"930","img/30_90.png","74","image-keyboard-response","163","249156","0.0-6.0-1.78","SOBA","3","f","rechts","21","","","object","j","30","true"
"null","<div style=""font-size:60px;"">+</div>","null","html-keyboard-response","164","249580","0.0-6.0-0.79","SOBA","3","f","rechts","21","","fixation","","","",""
"1346","img/30_270.png","70","image-keyboard-response","165","250935","0.0-6.0-1.79","SOBA","3","f","rechts","21","","","object","f","30","true"
"null","<div style=""font-size:60px;"">+</div>","null","html-keyboard-response","166","251359","0.0-6.0-0.80","SOBA","3","f","rechts","21","","fixation","","","",""
"1745","img/60_180.png","74","image-keyboard-response","167","253118","0.0-6.0-1.80","SOBA","3","f","rechts","21","","","object","f","60","false"
"null","<div style=""font-size:60px;"">+</div>","null","html-keyboard-response","168","253581","0.0-6.0-0.81","SOBA","3","f","rechts","21","","fixation","","","",""
"1180","img/0_270.png","70","image-keyboard-response","169","254771","0.0-6.0-1.81","SOBA","3","f","rechts","21","","","object","f","0","true"
"null","<div style=""font-size:60px;"">+</div>","null","html-keyboard-response","170","255276","0.0-6.0-0.82","SOBA","3","f","rechts","21","","fixation","","","",""
"1068","img/L30_180.png","74","image-keyboard-response","171","256357","0.0-6.0-1.82","SOBA","3","f","rechts","21","","","object","j","30","true"
"null","<div style=""font-size:60px;"">+</div>","null","html-keyboard-response","172","256771","0.0-6.0-0.83","SOBA","3","f","rechts","21","","fixation","","","",""
"1104","img/30_240.png","70","image-keyboard-response","173","257888","0.0-6.0-1.83","SOBA","3","f","rechts","21","","","object","f","30","true"
"null","<div style=""font-size:60px;"">+</div>","null","html-keyboard-response","174","258214","0.0-6.0-0.84","SOBA","3","f","rechts","21","","fixation","","","",""
"1503","img/90_180.png","70","image-keyboard-response","175","259732","0.0-6.0-1.84","SOBA","3","f","rechts","21","","","object","f","90","true"
"null","<div style=""font-size:60px;"">+</div>","null","html-keyboard-response","176","260047","0.0-6.0-0.85","SOBA","3","f","rechts","21","","fixation","","","",""
"1222","img/30_300.png","70","image-keyboard-response","177","261283","0.0-6.0-1.85","SOBA","3","f","rechts","21","","","object","f","30","true"
"null","<div style=""font-size:60px;"">+</div>","null","html-keyboard-response","178","261637","0.0-6.0-0.86","SOBA","3","f","rechts","21","","fixation","","","",""
"1245","img/150_180.png","70","image-keyboard-response","179","262891","0.0-6.0-1.86","SOBA","3","f","rechts","21","","","object","f","150","true"
"null","<div style=""font-size:60px;"">+</div>","null","html-keyboard-response","180","263415","0.0-6.0-0.87","SOBA","3","f","rechts","21","","fixation","","","",""
"1747","img/120_90.png","70","image-keyboard-response","181","265175","0.0-6.0-1.87","SOBA","3","f","rechts","21","","","object","f","120","true"
"null","<div style=""font-size:60px;"">+</div>","null","html-keyboard-response","182","265554","0.0-6.0-0.88","SOBA","3","f","rechts","21","","fixation","","","",""
"1626","img/150_90.png","70","image-keyboard-response","183","267189","0.0-6.0-1.88","SOBA","3","f","rechts","21","","","object","f","150","true"
"null","<div style=""font-size:60px;"">+</div>","null","html-keyboard-response","184","267499","0.0-6.0-0.89","SOBA","3","f","rechts","21","","fixation","","","",""
"1630","img/120_30.png","70","image-keyboard-response","185","269138","0.0-6.0-1.89","SOBA","3","f","rechts","21","","","object","f","120","true"
"null","<div style=""font-size:60px;"">+</div>","null","html-keyboard-response","186","269606","0.0-6.0-0.90","SOBA","3","f","rechts","21","","fixation","","","",""
"1024","img/0_120.png","74","image-keyboard-response","187","270644","0.0-6.0-1.90","SOBA","3","f","rechts","21","","","object","j","0","true"
"null","<div style=""font-size:60px;"">+</div>","null","html-keyboard-response","188","271072","0.0-6.0-0.91","SOBA","3","f","rechts","21","","fixation","","","",""
"1144","img/120_180.png","70","image-keyboard-response","189","272230","0.0-6.0-1.91","SOBA","3","f","rechts","21","","","object","f","120","true"
"null","<div style=""font-size:60px;"">+</div>","null","html-keyboard-response","190","272608","0.0-6.0-0.92","SOBA","3","f","rechts","21","","fixation","","","",""
"975","img/0_240.png","70","image-keyboard-response","191","273593","0.0-6.0-1.92","SOBA","3","f","rechts","21","","","object","f","0","true"
"null","<div style=""font-size:60px;"">+</div>","null","html-keyboard-response","192","273960","0.0-6.0-0.93","SOBA","3","f","rechts","21","","fixation","","","",""
"1071","img/90_30.png","70","image-keyboard-response","193","275044","0.0-6.0-1.93","SOBA","3","f","rechts","21","","","object","f","90","true"
"null","<div style=""font-size:60px;"">+</div>","null","html-keyboard-response","194","275559","0.0-6.0-0.94","SOBA","3","f","rechts","21","","fixation","","","",""
"1868","img/150_240.png","74","image-keyboard-response","195","277441","0.0-6.0-1.94","SOBA","3","f","rechts","21","","","object","j","150","true"
"null","<div style=""font-size:60px;"">+</div>","null","html-keyboard-response","196","277766","0.0-6.0-0.95","SOBA","3","f","rechts","21","","fixation","","","",""
"1855","img/L60_180.png","74","image-keyboard-response","197","279635","0.0-6.0-1.95","SOBA","3","f","rechts","21","","","object","j","60","true"
"null","<div style=""font-size:60px;"">+</div>","null","html-keyboard-response","198","280090","0.0-6.0-0.96","SOBA","3","f","rechts","21","","fixation","","","",""
"792","img/0_30.png","74","image-keyboard-response","199","280895","0.0-6.0-1.96","SOBA","3","f","rechts","21","","","object","j","0","true"
"null","<div style=""font-size:60px;"">+</div>","null","html-keyboard-response","200","281417","0.0-6.0-0.97","SOBA","3","f","rechts","21","","fixation","","","",""
"1197","img/120_270.png","70","image-keyboard-response","201","282627","0.0-6.0-1.97","SOBA","3","f","rechts","21","","","object","j","120","false"
"null","<div style=""font-size:60px;"">+</div>","null","html-keyboard-response","202","283001","0.0-6.0-0.98","SOBA","3","f","rechts","21","","fixation","","","",""
"914","img/150_300.png","74","image-keyboard-response","203","283929","0.0-6.0-1.98","SOBA","3","f","rechts","21","","","object","j","150","true"
"null","<div style=""font-size:60px;"">+</div>","null","html-keyboard-response","204","284254","0.0-6.0-0.99","SOBA","3","f","rechts","21","","fixation","","","",""
"963","img/150_60.png","70","image-keyboard-response","205","285221","0.0-6.0-1.99","SOBA","3","f","rechts","21","","","object","f","150","true"
"null","<div style=""font-size:60px;"">+</div>","null","html-keyboard-response","206","285586","0.0-6.0-0.100","SOBA","3","f","rechts","21","","fixation","","","",""
"1707","img/30_60.png","74","image-keyboard-response","207","287307","0.0-6.0-1.100","SOBA","3","f","rechts","21","","","object","j","30","true"
"null","<div style=""font-size:60px;"">+</div>","null","html-keyboard-response","208","287617","0.0-6.0-0.101","SOBA","3","f","rechts","21","","fixation","","","",""
"1117","img/90_240.png","70","image-keyboard-response","209","288746","0.0-6.0-1.101","SOBA","3","f","rechts","21","","","object","f","90","true"
"null","<div style=""font-size:60px;"">+</div>","null","html-keyboard-response","210","289101","0.0-6.0-0.102","SOBA","3","f","rechts","21","","fixation","","","",""
"1060","img/60_270.png","70","image-keyboard-response","211","290174","0.0-6.0-1.102","SOBA","3","f","rechts","21","","","object","f","60","true"
"null","<div style=""font-size:60px;"">+</div>","null","html-keyboard-response","212","290633","0.0-6.0-0.103","SOBA","3","f","rechts","21","","fixation","","","",""
"878","img/0_150.png","74","image-keyboard-response","213","291525","0.0-6.0-1.103","SOBA","3","f","rechts","21","","","object","j","0","true"
"null","<div style=""font-size:60px;"">+</div>","null","html-keyboard-response","214","291883","0.0-6.0-0.104","SOBA","3","f","rechts","21","","fixation","","","",""
"1006","img/30_90.png","74","image-keyboard-response","215","292899","0.0-6.0-1.104","SOBA","3","f","rechts","21","","","object","j","30","true"
"null","<div style=""font-size:60px;"">+</div>","null","html-keyboard-response","216","293205","0.0-6.0-0.105","SOBA","3","f","rechts","21","","fixation","","","",""
"2039","img/120_210.png","70","image-keyboard-response","217","295247","0.0-6.0-1.105","SOBA","3","f","rechts","21","","","object","f","120","true"
"null","<div style=""font-size:60px;"">+</div>","null","html-keyboard-response","218","295572","0.0-6.0-0.106","SOBA","3","f","rechts","21","","fixation","","","",""
"972","img/90_150.png","74","image-keyboard-response","219","296553","0.0-6.0-1.106","SOBA","3","f","rechts","21","","","object","j","90","true"
"null","<div style=""font-size:60px;"">+</div>","null","html-keyboard-response","220","297009","0.0-6.0-0.107","SOBA","3","f","rechts","21","","fixation","","","",""
"905","img/90_60.png","70","image-keyboard-response","221","297927","0.0-6.0-1.107","SOBA","3","f","rechts","21","","","object","f","90","true"
"null","<div style=""font-size:60px;"">+</div>","null","html-keyboard-response","222","298430","0.0-6.0-0.108","SOBA","3","f","rechts","21","","fixation","","","",""
"713","img/0_30.png","74","image-keyboard-response","223","299154","0.0-6.0-1.108","SOBA","3","f","rechts","21","","","object","j","0","true"
"null","<div style=""font-size:60px;"">+</div>","null","html-keyboard-response","224","299618","0.0-6.0-0.109","SOBA","3","f","rechts","21","","fixation","","","",""
"888","img/150_300.png","74","image-keyboard-response","225","300515","0.0-6.0-1.109","SOBA","3","f","rechts","21","","","object","j","150","true"
"null","<div style=""font-size:60px;"">+</div>","null","html-keyboard-response","226","300874","0.0-6.0-0.110","SOBA","3","f","rechts","21","","fixation","","","",""
"1025","img/30_300.png","74","image-keyboard-response","227","301909","0.0-6.0-1.110","SOBA","3","f","rechts","21","","","object","f","30","false"
"null","<div style=""font-size:60px;"">+</div>","null","html-keyboard-response","228","302326","0.0-6.0-0.111","SOBA","3","f","rechts","21","","fixation","","","",""
"785","img/0_60.png","74","image-keyboard-response","229","303123","0.0-6.0-1.111","SOBA","3","f","rechts","21","","","object","j","0","true"
"null","<div style=""font-size:60px;"">+</div>","null","html-keyboard-response","230","303498","0.0-6.0-0.112","SOBA","3","f","rechts","21","","fixation","","","",""
"985","img/120_330.png","74","image-keyboard-response","231","304497","0.0-6.0-1.112","SOBA","3","f","rechts","21","","","object","j","120","true"
"null","<div style=""font-size:60px;"">+</div>","null","html-keyboard-response","232","305028","0.0-6.0-0.113","SOBA","3","f","rechts","21","","fixation","","","",""
"1649","img/L120_180.png","74","image-keyboard-response","233","306691","0.0-6.0-1.113","SOBA","3","f","rechts","21","","","object","j","120","true"
"null","<div style=""font-size:60px;"">+</div>","null","html-keyboard-response","234","307201","0.0-6.0-0.114","SOBA","3","f","rechts","21","","fixation","","","",""
"1522","img/L90_180.png","74","image-keyboard-response","235","308728","0.0-6.0-1.114","SOBA","3","f","rechts","21","","","object","j","90","true"
"null","<div style=""font-size:60px;"">+</div>","null","html-keyboard-response","236","309092","0.0-6.0-0.115","SOBA","3","f","rechts","21","","fixation","","","",""
"1028","img/0_330.png","70","image-keyboard-response","237","310132","0.0-6.0-1.115","SOBA","3","f","rechts","21","","","object","f","0","true"
"null","<div style=""font-size:60px;"">+</div>","null","html-keyboard-response","238","310655","0.0-6.0-0.116","SOBA","3","f","rechts","21","","fixation","","","",""
"895","img/60_150.png","74","image-keyboard-response","239","311563","0.0-6.0-1.116","SOBA","3","f","rechts","21","","","object","j","60","true"
"null","<div style=""font-size:60px;"">+</div>","null","html-keyboard-response","240","312078","0.0-6.0-0.117","SOBA","3","f","rechts","21","","fixation","","","",""
"915","img/120_180.png","70","image-keyboard-response","241","313002","0.0-6.0-1.117","SOBA","3","f","rechts","21","","","object","f","120","true"
"null","<div style=""font-size:60px;"">+</div>","null","html-keyboard-response","242","313420","0.0-6.0-0.118","SOBA","3","f","rechts","21","","fixation","","","",""
"1711","img/120_90.png","70","image-keyboard-response","243","315141","0.0-6.0-1.118","SOBA","3","f","rechts","21","","","object","f","120","true"
"null","<div style=""font-size:60px;"">+</div>","null","html-keyboard-response","244","315564","0.0-6.0-0.119","SOBA","3","f","rechts","21","","fixation","","","",""
"1490","img/120_150.png","74","image-keyboard-response","245","317064","0.0-6.0-1.119","SOBA","3","f","rechts","21","","","object","j","120","true"
"null","<div style=""font-size:60px;"">+</div>","null","html-keyboard-response","246","317375","0.0-6.0-0.120","SOBA","3","f","rechts","21","","fixation","","","",""
"1418","img/90_210.png","70","image-keyboard-response","247","318806","0.0-6.0-1.120","SOBA","3","f","rechts","21","","","object","f","90","true"
"null","<div style=""font-size:60px;"">+</div>","null","html-keyboard-response","248","319265","0.0-6.0-0.121","SOBA","3","f","rechts","21","","fixation","","","",""
"1530","img/60_180.png","70","image-keyboard-response","249","320799","0.0-6.0-1.121","SOBA","3","f","rechts","21","","","object","f","60","true"
"null","<div style=""font-size:60px;"">+</div>","null","html-keyboard-response","250","321219","0.0-6.0-0.122","SOBA","3","f","rechts","21","","fixation","","","",""
"1472","img/90_300.png","74","image-keyboard-response","251","322697","0.0-6.0-1.122","SOBA","3","f","rechts","21","","","object","j","90","true"
"null","<div style=""font-size:60px;"">+</div>","null","html-keyboard-response","252","323065","0.0-6.0-0.123","SOBA","3","f","rechts","21","","fixation","","","",""
"2654","img/90_120.png","74","image-keyboard-response","253","325730","0.0-6.0-1.123","SOBA","3","f","rechts","21","","","object","j","90","true"
"null","<div style=""font-size:60px;"">+</div>","null","html-keyboard-response","254","326101","0.0-6.0-0.124","SOBA","3","f","rechts","21","","fixation","","","",""
"1052","img/60_30.png","70","image-keyboard-response","255","327167","0.0-6.0-1.124","SOBA","3","f","rechts","21","","","object","f","60","true"
"null","<div style=""font-size:60px;"">+</div>","null","html-keyboard-response","256","327680","0.0-6.0-0.125","SOBA","3","f","rechts","21","","fixation","","","",""
"892","img/90_330.png","74","image-keyboard-response","257","328582","0.0-6.0-1.125","SOBA","3","f","rechts","21","","","object","j","90","true"
"null","<div style=""font-size:60px;"">+</div>","null","html-keyboard-response","258","328961","0.0-6.0-0.126","SOBA","3","f","rechts","21","","fixation","","","",""
"1804","img/30_240.png","74","image-keyboard-response","259","330778","0.0-6.0-1.126","SOBA","3","f","rechts","21","","","object","f","30","false"
"null","<div style=""font-size:60px;"">+</div>","null","html-keyboard-response","260","331151","0.0-6.0-0.127","SOBA","3","f","rechts","21","","fixation","","","",""
"2405","img/150_180.png","70","image-keyboard-response","261","333572","0.0-6.0-1.127","SOBA","3","f","rechts","21","","","object","f","150","true"
"null","<div style=""font-size:60px;"">+</div>","null","html-keyboard-response","262","333942","0.0-6.0-0.128","SOBA","3","f","rechts","21","","fixation","","","",""
"1231","img/0_300.png","70","image-keyboard-response","263","335187","0.0-6.0-1.128","SOBA","3","f","rechts","21","","","object","f","0","true"
"null","<div style=""font-size:60px;"">+</div>","null","html-keyboard-response","264","335505","0.0-6.0-0.129","SOBA","3","f","rechts","21","","fixation","","","",""
"1448","img/150_270.png","74","image-keyboard-response","265","336965","0.0-6.0-1.129","SOBA","3","f","rechts","21","","","object","j","150","true"
"null","<div style=""font-size:60px;"">+</div>","null","html-keyboard-response","266","337333","0.0-6.0-0.130","SOBA","3","f","rechts","21","","fixation","","","",""
"1757","img/150_90.png","70","image-keyboard-response","267","339103","0.0-6.0-1.130","SOBA","3","f","rechts","21","","","object","f","150","true"
"null","<div style=""font-size:60px;"">+</div>","null","html-keyboard-response","268","339457","0.0-6.0-0.131","SOBA","3","f","rechts","21","","fixation","","","",""
"993","img/30_120.png","74","image-keyboard-response","269","340463","0.0-6.0-1.131","SOBA","3","f","rechts","21","","","object","j","30","true"
"null","<div style=""font-size:60px;"">+</div>","null","html-keyboard-response","270","340975","0.0-6.0-0.132","SOBA","3","f","rechts","21","","fixation","","","",""
"2368","img/60_270.png","70","image-keyboard-response","271","343353","0.0-6.0-1.132","SOBA","3","f","rechts","21","","","object","f","60","true"
"null","<div style=""font-size:60px;"">+</div>","null","html-keyboard-response","272","343663","0.0-6.0-0.133","SOBA","3","f","rechts","21","","fixation","","","",""
"1018","img/30_180.png","74","image-keyboard-response","273","344694","0.0-6.0-1.133","SOBA","3","f","rechts","21","","","object","f","30","false"
"null","<div style=""font-size:60px;"">+</div>","null","html-keyboard-response","274","345224","0.0-6.0-0.134","SOBA","3","f","rechts","21","","fixation","","","",""
"1798","img/60_330.png","74","image-keyboard-response","275","347031","0.0-6.0-1.134","SOBA","3","f","rechts","21","","","object","j","60","true"
"null","<div style=""font-size:60px;"">+</div>","null","html-keyboard-response","276","347442","0.0-6.0-0.135","SOBA","3","f","rechts","21","","fixation","","","",""
"1038","img/120_30.png","70","image-keyboard-response","277","348485","0.0-6.0-1.135","SOBA","3","f","rechts","21","","","object","f","120","true"
"null","<div style=""font-size:60px;"">+</div>","null","html-keyboard-response","278","348990","0.0-6.0-0.136","SOBA","3","f","rechts","21","","fixation","","","",""
"2679","img/L150_180.png","74","image-keyboard-response","279","351683","0.0-6.0-1.136","SOBA","3","f","rechts","21","","","object","j","150","true"
"null","<div style=""font-size:60px;"">+</div>","null","html-keyboard-response","280","351993","0.0-6.0-0.137","SOBA","3","f","rechts","21","","fixation","","","",""
"2049","img/150_240.png","74","image-keyboard-response","281","354053","0.0-6.0-1.137","SOBA","3","f","rechts","21","","","object","j","150","true"
"null","<div style=""font-size:60px;"">+</div>","null","html-keyboard-response","282","354425","0.0-6.0-0.138","SOBA","3","f","rechts","21","","fixation","","","",""
"1742","img/60_210.png","70","image-keyboard-response","283","356181","0.0-6.0-1.138","SOBA","3","f","rechts","21","","","object","f","60","true"
"null","<div style=""font-size:60px;"">+</div>","null","html-keyboard-response","284","356555","0.0-6.0-0.139","SOBA","3","f","rechts","21","","fixation","","","",""
"1582","img/90_240.png","70","image-keyboard-response","285","358147","0.0-6.0-1.139","SOBA","3","f","rechts","21","","","object","f","90","true"
"null","<div style=""font-size:60px;"">+</div>","null","html-keyboard-response","286","358654","0.0-6.0-0.140","SOBA","3","f","rechts","21","","fixation","","","",""
"2324","img/120_270.png","74","image-keyboard-response","287","360988","0.0-6.0-1.140","SOBA","3","f","rechts","21","","","object","j","120","true"
"null","<div style=""font-size:60px;"">+</div>","null","html-keyboard-response","288","361296","0.0-6.0-0.141","SOBA","3","f","rechts","21","","fixation","","","",""
"2320","img/150_120.png","74","image-keyboard-response","289","363621","0.0-6.0-1.141","SOBA","3","f","rechts","21","","","object","f","150","false"
"null","<div style=""font-size:60px;"">+</div>","null","html-keyboard-response","290","364086","0.0-6.0-0.142","SOBA","3","f","rechts","21","","fixation","","","",""
"1126","img/30_270.png","74","image-keyboard-response","291","365225","0.0-6.0-1.142","SOBA","3","f","rechts","21","","","object","f","30","false"
"null","<div style=""font-size:60px;"">+</div>","null","html-keyboard-response","292","365604","0.0-6.0-0.143","SOBA","3","f","rechts","21","","fixation","","","",""
"2552","img/L60_180.png","74","image-keyboard-response","293","368167","0.0-6.0-1.143","SOBA","3","f","rechts","21","","","object","j","60","true"
"null","<div style=""font-size:60px;"">+</div>","null","html-keyboard-response","294","368677","0.0-6.0-0.144","SOBA","3","f","rechts","21","","fixation","","","",""
"1089","img/L30_180.png","74","image-keyboard-response","295","369781","0.0-6.0-1.144","SOBA","3","f","rechts","21","","","object","j","30","true"
"null","<div style=""font-size:60px;"">+</div>","null","html-keyboard-response","296","370240","0.0-6.0-0.145","SOBA","3","f","rechts","21","","fixation","","","",""
"1065","img/0_150.png","74","image-keyboard-response","297","371308","0.0-6.0-1.145","SOBA","3","f","rechts","21","","","object","j","0","true"
"null","<div style=""font-size:60px;"">+</div>","null","html-keyboard-response","298","371683","0.0-6.0-0.146","SOBA","3","f","rechts","21","","fixation","","","",""
"1765","img/60_90.png","74","image-keyboard-response","299","373460","0.0-6.0-1.146","SOBA","3","f","rechts","21","","","object","j","60","true"
"null","<div style=""font-size:60px;"">+</div>","null","html-keyboard-response","300","373823","0.0-6.0-0.147","SOBA","3","f","rechts","21","","fixation","","","",""
"1818","img/90_180.png","70","image-keyboard-response","301","375655","0.0-6.0-1.147","SOBA","3","f","rechts","21","","","object","f","90","true"
"null","<div style=""font-size:60px;"">+</div>","null","html-keyboard-response","302","376058","0.0-6.0-0.148","SOBA","3","f","rechts","21","","fixation","","","",""
"899","img/0_270.png","70","image-keyboard-response","303","376970","0.0-6.0-1.148","SOBA","3","f","rechts","21","","","object","f","0","true"
"null","<div style=""font-size:60px;"">+</div>","null","html-keyboard-response","304","377277","0.0-6.0-0.149","SOBA","3","f","rechts","21","","fixation","","","",""
"1143","img/90_30.png","70","image-keyboard-response","305","378434","0.0-6.0-1.149","SOBA","3","f","rechts","21","","","object","f","90","true"
"null","<div style=""font-size:60px;"">+</div>","null","html-keyboard-response","306","378807","0.0-6.0-0.150","SOBA","3","f","rechts","21","","fixation","","","",""
"1356","img/150_60.png","70","image-keyboard-response","307","380176","0.0-6.0-1.150","SOBA","3","f","rechts","21","","","object","f","150","true"
"null","<div style=""font-size:60px;"">+</div>","null","html-keyboard-response","308","380684","0.0-6.0-0.151","SOBA","3","f","rechts","21","","fixation","","","",""
"831","img/0_120.png","74","image-keyboard-response","309","381528","0.0-6.0-1.151","SOBA","3","f","rechts","21","","","object","j","0","true"
"null","<div style=""font-size:60px;"">+</div>","null","html-keyboard-response","310","381934","0.0-6.0-0.152","SOBA","3","f","rechts","21","","fixation","","","",""
"873","img/0_210.png","70","image-keyboard-response","311","382820","0.0-6.0-1.152","SOBA","3","f","rechts","21","","","object","f","0","true"
"null","<div style=""font-size:60px;"">+</div>","null","html-keyboard-response","312","383339","0.0-6.0-0.153","SOBA","3","f","rechts","21","","fixation","","","",""
"861","img/0_90.png","74","image-keyboard-response","313","384205","0.0-6.0-1.153","SOBA","3","f","rechts","21","","","object","j","0","true"
"null","<div style=""font-size:60px;"">+</div>","null","html-keyboard-response","314","384558","0.0-6.0-0.154","SOBA","3","f","rechts","21","","fixation","","","",""
"983","img/30_60.png","74","image-keyboard-response","315","385554","0.0-6.0-1.154","SOBA","3","f","rechts","21","","","object","j","30","true"
"null","<div style=""font-size:60px;"">+</div>","null","html-keyboard-response","316","385981","0.0-6.0-0.155","SOBA","3","f","rechts","21","","fixation","","","",""
"1135","img/0_240.png","70","image-keyboard-response","317","387130","0.0-6.0-1.155","SOBA","3","f","rechts","21","","","object","f","0","true"
"null","<div style=""font-size:60px;"">+</div>","null","html-keyboard-response","318","387513","0.0-6.0-0.156","SOBA","3","f","rechts","21","","fixation","","","",""
"1553","img/120_270.png","74","image-keyboard-response","319","389076","0.0-6.0-1.156","SOBA","3","f","rechts","21","","","object","j","120","true"
"null","<div style=""font-size:60px;"">+</div>","null","html-keyboard-response","320","389481","0.0-6.0-0.157","SOBA","3","f","rechts","21","","fixation","","","",""
"888","img/0_210.png","70","image-keyboard-response","321","390378","0.0-6.0-1.157","SOBA","3","f","rechts","21","","","object","f","0","true"
"null","<div style=""font-size:60px;"">+</div>","null","html-keyboard-response","322","390794","0.0-6.0-0.158","SOBA","3","f","rechts","21","","fixation","","","",""
"905","img/0_300.png","70","image-keyboard-response","323","391708","0.0-6.0-1.158","SOBA","3","f","rechts","21","","","object","f","0","true"
"null","<div style=""font-size:60px;"">+</div>","null","html-keyboard-response","324","392169","0.0-6.0-0.159","SOBA","3","f","rechts","21","","fixation","","","",""
"1644","img/60_150.png","74","image-keyboard-response","325","393823","0.0-6.0-1.159","SOBA","3","f","rechts","21","","","object","j","60","true"
"null","<div style=""font-size:60px;"">+</div>","null","html-keyboard-response","326","394247","0.0-6.0-0.160","SOBA","3","f","rechts","21","","fixation","","","",""
"2406","img/150_60.png","70","image-keyboard-response","327","396663","0.0-6.0-1.160","SOBA","3","f","rechts","21","","","object","f","150","true"
"null","<div style=""font-size:60px;"">+</div>","null","html-keyboard-response","328","397082","0.0-6.0-0.161","SOBA","3","f","rechts","21","","fixation","","","",""
"1004","img/30_270.png","74","image-keyboard-response","329","398096","0.0-6.0-1.161","SOBA","3","f","rechts","21","","","object","f","30","false"
"null","<div style=""font-size:60px;"">+</div>","null","html-keyboard-response","330","398565","0.0-6.0-0.162","SOBA","3","f","rechts","21","","fixation","","","",""
"1768","img/30_90.png","74","image-keyboard-response","331","400346","0.0-6.0-1.162","SOBA","3","f","rechts","21","","","object","j","30","true"
"null","<div style=""font-size:60px;"">+</div>","null","html-keyboard-response","332","400877","0.0-6.0-0.163","SOBA","3","f","rechts","21","","fixation","","","",""
"1688","img/30_60.png","74","image-keyboard-response","333","402576","0.0-6.0-1.163","SOBA","3","f","rechts","21","","","object","j","30","true"
"null","<div style=""font-size:60px;"">+</div>","null","html-keyboard-response","334","403081","0.0-6.0-0.164","SOBA","3","f","rechts","21","","fixation","","","",""
"1961","img/60_180.png","70","image-keyboard-response","335","405056","0.0-6.0-1.164","SOBA","3","f","rechts","21","","","object","f","60","true"
"null","<div style=""font-size:60px;"">+</div>","null","html-keyboard-response","336","405474","0.0-6.0-0.165","SOBA","3","f","rechts","21","","fixation","","","",""
"1750","img/90_180.png","70","image-keyboard-response","337","407233","0.0-6.0-1.165","SOBA","3","f","rechts","21","","","object","f","90","true"
"null","<div style=""font-size:60px;"">+</div>","null","html-keyboard-response","338","407599","0.0-6.0-0.166","SOBA","3","f","rechts","21","","fixation","","","",""
"903","img/0_30.png","74","image-keyboard-response","339","408515","0.0-6.0-1.166","SOBA","3","f","rechts","21","","","object","j","0","true"
"null","<div style=""font-size:60px;"">+</div>","null","html-keyboard-response","340","408896","0.0-6.0-0.167","SOBA","3","f","rechts","21","","fixation","","","",""
"836","img/0_330.png","70","image-keyboard-response","341","409743","0.0-6.0-1.167","SOBA","3","f","rechts","21","","","object","f","0","true"
"null","<div style=""font-size:60px;"">+</div>","null","html-keyboard-response","342","410272","0.0-6.0-0.168","SOBA","3","f","rechts","21","","fixation","","","",""
"1733","img/60_210.png","70","image-keyboard-response","343","412014","0.0-6.0-1.168","SOBA","3","f","rechts","21","","","object","f","60","true"
"null","<div style=""font-size:60px;"">+</div>","null","html-keyboard-response","344","412428","0.0-6.0-0.169","SOBA","3","f","rechts","21","","fixation","","","",""
"1550","img/0_270.png","70","image-keyboard-response","345","413983","0.0-6.0-1.169","SOBA","3","f","rechts","21","","","object","f","0","true"
"null","<div style=""font-size:60px;"">+</div>","null","html-keyboard-response","346","414444","0.0-6.0-0.170","SOBA","3","f","rechts","21","","fixation","","","",""
"1405","img/90_150.png","74","image-keyboard-response","347","415862","0.0-6.0-1.170","SOBA","3","f","rechts","21","","","object","j","90","true"
"null","<div style=""font-size:60px;"">+</div>","null","html-keyboard-response","348","416320","0.0-6.0-0.171","SOBA","3","f","rechts","21","","fixation","","","",""
"2032","img/120_90.png","74","image-keyboard-response","349","418362","0.0-6.0-1.171","SOBA","3","f","rechts","21","","","object","f","120","false"
"null","<div style=""font-size:60px;"">+</div>","null","html-keyboard-response","350","418830","0.0-6.0-0.172","SOBA","3","f","rechts","21","","fixation","","","",""
"1147","img/120_180.png","70","image-keyboard-response","351","419991","0.0-6.0-1.172","SOBA","3","f","rechts","21","","","object","f","120","true"
"null","<div style=""font-size:60px;"">+</div>","null","html-keyboard-response","352","420446","0.0-6.0-0.173","SOBA","3","f","rechts","21","","fixation","","","",""
"1323","img/150_120.png","74","image-keyboard-response","353","421780","0.0-6.0-1.173","SOBA","3","f","rechts","21","","","object","f","150","false"
"null","<div style=""font-size:60px;"">+</div>","null","html-keyboard-response","354","422134","0.0-6.0-0.174","SOBA","3","f","rechts","21","","fixation","","","",""
"1931","img/60_90.png","74","image-keyboard-response","355","424075","0.0-6.0-1.174","SOBA","3","f","rechts","21","","","object","j","60","true"
"null","<div style=""font-size:60px;"">+</div>","null","html-keyboard-response","356","424589","0.0-6.0-0.175","SOBA","3","f","rechts","21","","fixation","","","",""
"2396","img/90_300.png","74","image-keyboard-response","357","426994","0.0-6.0-1.175","SOBA","3","f","rechts","21","","","object","j","90","true"
"null","<div style=""font-size:60px;"">+</div>","null","html-keyboard-response","358","427363","0.0-6.0-0.176","SOBA","3","f","rechts","21","","fixation","","","",""
"1522","img/150_270.png","74","image-keyboard-response","359","428890","0.0-6.0-1.176","SOBA","3","f","rechts","21","","","object","j","150","true"
"null","<div style=""font-size:60px;"">+</div>","null","html-keyboard-response","360","429348","0.0-6.0-0.177","SOBA","3","f","rechts","21","","fixation","","","",""
"1539","img/120_210.png","70","image-keyboard-response","361","430892","0.0-6.0-1.177","SOBA","3","f","rechts","21","","","object","f","120","true"
"null","<div style=""font-size:60px;"">+</div>","null","html-keyboard-response","362","431308","0.0-6.0-0.178","SOBA","3","f","rechts","21","","fixation","","","",""
"1163","img/150_300.png","74","image-keyboard-response","363","432479","0.0-6.0-1.178","SOBA","3","f","rechts","21","","","object","j","150","true"
"null","<div style=""font-size:60px;"">+</div>","null","html-keyboard-response","364","432996","0.0-6.0-0.179","SOBA","3","f","rechts","21","","fixation","","","",""
"1402","img/L90_180.png","74","image-keyboard-response","365","434411","0.0-6.0-1.179","SOBA","3","f","rechts","21","","","object","j","90","true"
"null","<div style=""font-size:60px;"">+</div>","null","html-keyboard-response","366","434824","0.0-6.0-0.180","SOBA","3","f","rechts","21","","fixation","","","",""
"1199","img/0_150.png","74","image-keyboard-response","367","436033","0.0-6.0-1.180","SOBA","3","f","rechts","21","","","object","j","0","true"
"null","<div style=""font-size:60px;"">+</div>","null","html-keyboard-response","368","436451","0.0-6.0-0.181","SOBA","3","f","rechts","21","","fixation","","","",""
"966","img/L60_180.png","74","image-keyboard-response","369","437427","0.0-6.0-1.181","SOBA","3","f","rechts","21","","","object","j","60","true"
"null","<div style=""font-size:60px;"">+</div>","null","html-keyboard-response","370","437794","0.0-6.0-0.182","SOBA","3","f","rechts","21","","fixation","","","",""
"1400","img/L150_180.png","74","image-keyboard-response","371","439205","0.0-6.0-1.182","SOBA","3","f","rechts","21","","","object","j","150","true"
"null","<div style=""font-size:60px;"">+</div>","null","html-keyboard-response","372","439560","0.0-6.0-0.183","SOBA","3","f","rechts","21","","fixation","","","",""
"1076","img/60_330.png","74","image-keyboard-response","373","440646","0.0-6.0-1.183","SOBA","3","f","rechts","21","","","object","j","60","true"
"null","<div style=""font-size:60px;"">+</div>","null","html-keyboard-response","374","440968","0.0-6.0-0.184","SOBA","3","f","rechts","21","","fixation","","","",""
"1051","img/150_180.png","70","image-keyboard-response","375","442029","0.0-6.0-1.184","SOBA","3","f","rechts","21","","","object","f","150","true"
"null","<div style=""font-size:60px;"">+</div>","null","html-keyboard-response","376","442483","0.0-6.0-0.185","SOBA","3","f","rechts","21","","fixation","","","",""
"1461","img/90_30.png","70","image-keyboard-response","377","443955","0.0-6.0-1.185","SOBA","3","f","rechts","21","","","object","f","90","true"
"null","<div style=""font-size:60px;"">+</div>","null","html-keyboard-response","378","444326","0.0-6.0-0.186","SOBA","3","f","rechts","21","","fixation","","","",""
"1084","img/90_120.png","74","image-keyboard-response","379","445415","0.0-6.0-1.186","SOBA","3","f","rechts","21","","","object","j","90","true"
"null","<div style=""font-size:60px;"">+</div>","null","html-keyboard-response","380","445843","0.0-6.0-0.187","SOBA","3","f","rechts","21","","fixation","","","",""
"1720","img/30_300.png","74","image-keyboard-response","381","447577","0.0-6.0-1.187","SOBA","3","f","rechts","21","","","object","f","30","false"
"null","<div style=""font-size:60px;"">+</div>","null","html-keyboard-response","382","447952","0.0-6.0-0.188","SOBA","3","f","rechts","21","","fixation","","","",""
"1971","img/60_270.png","70","image-keyboard-response","383","449939","0.0-6.0-1.188","SOBA","3","f","rechts","21","","","object","f","60","true"
"null","<div style=""font-size:60px;"">+</div>","null","html-keyboard-response","384","450453","0.0-6.0-0.189","SOBA","3","f","rechts","21","","fixation","","","",""
"1679","img/90_240.png","70","image-keyboard-response","385","452145","0.0-6.0-1.189","SOBA","3","f","rechts","21","","","object","f","90","true"
"null","<div style=""font-size:60px;"">+</div>","null","html-keyboard-response","386","452624","0.0-6.0-0.190","SOBA","3","f","rechts","21","","fixation","","","",""
"1812","img/120_150.png","74","image-keyboard-response","387","454450","0.0-6.0-1.190","SOBA","3","f","rechts","21","","","object","j","120","true"
"null","<div style=""font-size:60px;"">+</div>","null","html-keyboard-response","388","454958","0.0-6.0-0.191","SOBA","3","f","rechts","21","","fixation","","","",""
"1389","img/90_60.png","70","image-keyboard-response","389","456359","0.0-6.0-1.191","SOBA","3","f","rechts","21","","","object","f","90","true"
"null","<div style=""font-size:60px;"">+</div>","null","html-keyboard-response","390","456864","0.0-6.0-0.192","SOBA","3","f","rechts","21","","fixation","","","",""
"744","img/0_60.png","74","image-keyboard-response","391","457624","0.0-6.0-1.192","SOBA","3","f","rechts","21","","","object","j","0","true"
"null","<div style=""font-size:60px;"">+</div>","null","html-keyboard-response","392","458130","0.0-6.0-0.193","SOBA","3","f","rechts","21","","fixation","","","",""
"1874","img/30_240.png","70","image-keyboard-response","393","460020","0.0-6.0-1.193","SOBA","3","f","rechts","21","","","object","f","30","true"
"null","<div style=""font-size:60px;"">+</div>","null","html-keyboard-response","394","460427","0.0-6.0-0.194","SOBA","3","f","rechts","21","","fixation","","","",""
"1454","img/120_330.png","74","image-keyboard-response","395","461886","0.0-6.0-1.194","SOBA","3","f","rechts","21","","","object","j","120","true"
"null","<div style=""font-size:60px;"">+</div>","null","html-keyboard-response","396","462364","0.0-6.0-0.195","SOBA","3","f","rechts","21","","fixation","","","",""
"1420","img/30_180.png","70","image-keyboard-response","397","463789","0.0-6.0-1.195","SOBA","3","f","rechts","21","","","object","f","30","true"
"null","<div style=""font-size:60px;"">+</div>","null","html-keyboard-response","398","464255","0.0-6.0-0.196","SOBA","3","f","rechts","21","","fixation","","","",""
"1567","img/120_30.png","70","image-keyboard-response","399","465837","0.0-6.0-1.196","SOBA","3","f","rechts","21","","","object","f","120","true"
"null","<div style=""font-size:60px;"">+</div>","null","html-keyboard-response","400","466148","0.0-6.0-0.197","SOBA","3","f","rechts","21","","fixation","","","",""
"1033","img/60_30.png","70","image-keyboard-response","401","467194","0.0-6.0-1.197","SOBA","3","f","rechts","21","","","object","f","60","true"
"null","<div style=""font-size:60px;"">+</div>","null","html-keyboard-response","402","467647","0.0-6.0-0.198","SOBA","3","f","rechts","21","","fixation","","","",""
"912","img/0_90.png","74","image-keyboard-response","403","468570","0.0-6.0-1.198","SOBA","3","f","rechts","21","","","object","j","0","true"
"null","<div style=""font-size:60px;"">+</div>","null","html-keyboard-response","404","468929","0.0-6.0-0.199","SOBA","3","f","rechts","21","","fixation","","","",""
"1145","img/30_120.png","74","image-keyboard-response","405","470087","0.0-6.0-1.199","SOBA","3","f","rechts","21","","","object","j","30","true"
"null","<div style=""font-size:60px;"">+</div>","null","html-keyboard-response","406","470555","0.0-6.0-0.200","SOBA","3","f","rechts","21","","fixation","","","",""
"null","img/150_240.png","null","image-keyboard-response","407","473583","0.0-6.0-1.200","SOBA","3","f","rechts","21","","","object","j","150","false"
"null","<div style=""font-size:60px;"">+</div>","null","html-keyboard-response","408","474003","0.0-6.0-0.201","SOBA","3","f","rechts","21","","fixation","","","",""
"1472","img/90_210.png","74","image-keyboard-response","409","475488","0.0-6.0-1.201","SOBA","3","f","rechts","21","","","object","f","90","false"
"null","<div style=""font-size:60px;"">+</div>","null","html-keyboard-response","410","476008","0.0-6.0-0.202","SOBA","3","f","rechts","21","","fixation","","","",""
"2461","img/L120_180.png","74","image-keyboard-response","411","478484","0.0-6.0-1.202","SOBA","3","f","rechts","21","","","object","j","120","true"
"null","<div style=""font-size:60px;"">+</div>","null","html-keyboard-response","412","478840","0.0-6.0-0.203","SOBA","3","f","rechts","21","","fixation","","","",""
"1652","img/L30_180.png","74","image-keyboard-response","413","480505","0.0-6.0-1.203","SOBA","3","f","rechts","21","","","object","j","30","true"
"null","<div style=""font-size:60px;"">+</div>","null","html-keyboard-response","414","481027","0.0-6.0-0.204","SOBA","3","f","rechts","21","","fixation","","","",""
"1108","img/90_330.png","74","image-keyboard-response","415","482148","0.0-6.0-1.204","SOBA","3","f","rechts","21","","","object","j","90","true"
"null","<div style=""font-size:60px;"">+</div>","null","html-keyboard-response","416","482512","0.0-6.0-0.205","SOBA","3","f","rechts","21","","fixation","","","",""
"782","img/0_120.png","74","image-keyboard-response","417","483307","0.0-6.0-1.205","SOBA","3","f","rechts","21","","","object","j","0","true"
"null","<div style=""font-size:60px;"">+</div>","null","html-keyboard-response","418","483636","0.0-6.0-0.206","SOBA","3","f","rechts","21","","fixation","","","",""
"1445","img/150_90.png","70","image-keyboard-response","419","485095","0.0-6.0-1.206","SOBA","3","f","rechts","21","","","object","f","150","true"
"null","<div style=""font-size:60px;"">+</div>","null","html-keyboard-response","420","485605","0.0-6.0-0.207","SOBA","3","f","rechts","21","","fixation","","","",""
"1615","img/0_240.png","70","image-keyboard-response","421","487232","0.0-6.0-1.207","SOBA","3","f","rechts","21","","","object","f","0","true"
"13394","<p>Du hast in 90% der Versuche korrekt entschieden.</p><p>Deine durchschnittliche Reaktionszeit war  1366ms.</p><p>Dr&uuml;cke eine beliebige Taste, um die Session zu beenden. Vielen Dank!</p>","32","html-keyboard-response","422","500636","0.0-7.0","SOBA","3","f","rechts","21","","","","","",""
