"rt","stimulus","key_press","trial_type","trial_index","time_elapsed","internal_node_id","subject","session","sex","handedness","age","responses","test_part","condition","correct_response","angle","correct"
"1261","<p>Mental Rotation Experiment.</p> <p>Dr&uuml;cke eine beliebige Taste, um anzufangen.</p>","13","html-keyboard-response","0","1296","0.0-0.0","SOBA","2","f","rechts","21","","","","","",""
"9128","","","survey-text","1","10429","0.0-1.0","SOBA","2","f","rechts","21","{""Q0"":""SOBA""}","","","","",""
"2553","","","survey-text","2","12985","0.0-2.0","SOBA","2","f","rechts","21","{""Q0"":""2""}","","","","",""
"3651","","","survey-multi-choice","3","16640","0.0-3.0","SOBA","2","f","rechts","21","{""Q0"":""f"",""Q1"":""rechts""}","","","","",""
"3349","","","survey-text","4","19992","0.0-4.0","SOBA","2","f","rechts","21","{""Q0"":""21""}","","","","",""
"49309","<p> Stell dir vor, dass du vor einem runden Tisch stehst, auf dem sich ein blauer Ball am Tischrand befindet. Entlang des Tischrands ist jeweils ein verschieden langer Pfeil. Nun bewegst du dich entlang dieses Pfeils bis an seine Spitze. Wenn du am Ende des Pfeils angekommen bist, schau zur Tischmitte. </p> <img src='img/90_180.png'></img> <br> <p>Entscheide dann, ob der Ball von deiner neuen (vorgestellten) Position links oder rechts von dir liegt.</p> <p>Dr&uuml;cke die <strong>'f'</strong>-Taste f&uuml;r links, die <strong>'j'</strong>-Taste f&uuml;r rechts.</p> <br><p> Das Bild wird jeweils 1 Sekunde lang pr&auml;sentiert. Du hast 3 Sekunden Zeit eine Entscheidung zu treffen.</p>","32","html-keyboard-response","5","69309","0.0-5.0","SOBA","2","f","rechts","21","","","","","",""
"null","<div style=""font-size:60px;"">+</div>","null","html-keyboard-response","6","70694","0.0-6.0-0.0","SOBA","2","f","rechts","21","","fixation","","","",""
"1652","img/60_150.png","70","image-keyboard-response","7","72367","0.0-6.0-1.0","SOBA","2","f","rechts","21","","","self","f","60","true"
"null","<div style=""font-size:60px;"">+</div>","null","html-keyboard-response","8","72850","0.0-6.0-0.1","SOBA","2","f","rechts","21","","fixation","","","",""
"1397","img/60_90.png","74","image-keyboard-response","9","74264","0.0-6.0-1.1","SOBA","2","f","rechts","21","","","self","j","60","true"
"null","<div style=""font-size:60px;"">+</div>","null","html-keyboard-response","10","74771","0.0-6.0-0.2","SOBA","2","f","rechts","21","","fixation","","","",""
"1433","img/150_180.png","74","image-keyboard-response","11","76221","0.0-6.0-1.2","SOBA","2","f","rechts","21","","","self","j","150","true"
"null","<div style=""font-size:60px;"">+</div>","null","html-keyboard-response","12","76692","0.0-6.0-0.3","SOBA","2","f","rechts","21","","fixation","","","",""
"1562","img/30_300.png","70","image-keyboard-response","13","78270","0.0-6.0-1.3","SOBA","2","f","rechts","21","","","self","f","30","true"
"null","<div style=""font-size:60px;"">+</div>","null","html-keyboard-response","14","78774","0.0-6.0-0.4","SOBA","2","f","rechts","21","","fixation","","","",""
"null","img/150_300.png","null","image-keyboard-response","15","81804","0.0-6.0-1.4","SOBA","2","f","rechts","21","","","self","j","150","false"
"null","<div style=""font-size:60px;"">+</div>","null","html-keyboard-response","16","82258","0.0-6.0-0.5","SOBA","2","f","rechts","21","","fixation","","","",""
"1449","img/30_90.png","74","image-keyboard-response","17","83727","0.0-6.0-1.5","SOBA","2","f","rechts","21","","","self","j","30","true"
"null","<div style=""font-size:60px;"">+</div>","null","html-keyboard-response","18","84040","0.0-6.0-0.6","SOBA","2","f","rechts","21","","fixation","","","",""
"1411","img/30_60.png","74","image-keyboard-response","19","85469","0.0-6.0-1.6","SOBA","2","f","rechts","21","","","self","j","30","true"
"null","<div style=""font-size:60px;"">+</div>","null","html-keyboard-response","20","85945","0.0-6.0-0.7","SOBA","2","f","rechts","21","","fixation","","","",""
"1653","img/150_240.png","74","image-keyboard-response","21","87618","0.0-6.0-1.7","SOBA","2","f","rechts","21","","","self","j","150","true"
"null","<div style=""font-size:60px;"">+</div>","null","html-keyboard-response","22","88072","0.0-6.0-0.8","SOBA","2","f","rechts","21","","fixation","","","",""
"1107","img/60_180.png","74","image-keyboard-response","23","89197","0.0-6.0-1.8","SOBA","2","f","rechts","21","","","self","j","60","true"
"null","<div style=""font-size:60px;"">+</div>","null","html-keyboard-response","24","89650","0.0-6.0-0.9","SOBA","2","f","rechts","21","","fixation","","","",""
"1051","img/90_180.png","74","image-keyboard-response","25","90714","0.0-6.0-1.9","SOBA","2","f","rechts","21","","","self","j","90","true"
"null","<div style=""font-size:60px;"">+</div>","null","html-keyboard-response","26","91026","0.0-6.0-0.10","SOBA","2","f","rechts","21","","fixation","","","",""
"894","img/0_210.png","70","image-keyboard-response","27","91937","0.0-6.0-1.10","SOBA","2","f","rechts","21","","","self","f","0","true"
"null","<div style=""font-size:60px;"">+</div>","null","html-keyboard-response","28","92401","0.0-6.0-0.11","SOBA","2","f","rechts","21","","fixation","","","",""
"1130","img/120_210.png","74","image-keyboard-response","29","93537","0.0-6.0-1.11","SOBA","2","f","rechts","21","","","self","j","120","true"
"null","<div style=""font-size:60px;"">+</div>","null","html-keyboard-response","30","93995","0.0-6.0-0.12","SOBA","2","f","rechts","21","","fixation","","","",""
"1358","img/30_240.png","70","image-keyboard-response","31","95370","0.0-6.0-1.12","SOBA","2","f","rechts","21","","","self","f","30","true"
"null","<div style=""font-size:60px;"">+</div>","null","html-keyboard-response","32","95682","0.0-6.0-0.13","SOBA","2","f","rechts","21","","fixation","","","",""
"1428","img/L120_180.png","70","image-keyboard-response","33","97126","0.0-6.0-1.13","SOBA","2","f","rechts","21","","","self","f","120","true"
"null","<div style=""font-size:60px;"">+</div>","null","html-keyboard-response","34","97636","0.0-6.0-0.14","SOBA","2","f","rechts","21","","fixation","","","",""
"1281","img/L150_180.png","70","image-keyboard-response","35","98937","0.0-6.0-1.14","SOBA","2","f","rechts","21","","","self","f","150","true"
"null","<div style=""font-size:60px;"">+</div>","null","html-keyboard-response","36","99463","0.0-6.0-0.15","SOBA","2","f","rechts","21","","fixation","","","",""
"1367","img/60_270.png","70","image-keyboard-response","37","100837","0.0-6.0-1.15","SOBA","2","f","rechts","21","","","self","f","60","true"
"null","<div style=""font-size:60px;"">+</div>","null","html-keyboard-response","38","101214","0.0-6.0-0.16","SOBA","2","f","rechts","21","","fixation","","","",""
"1201","img/90_30.png","74","image-keyboard-response","39","102433","0.0-6.0-1.16","SOBA","2","f","rechts","21","","","self","j","90","true"
"null","<div style=""font-size:60px;"">+</div>","null","html-keyboard-response","40","102858","0.0-6.0-0.17","SOBA","2","f","rechts","21","","fixation","","","",""
"876","img/60_330.png","70","image-keyboard-response","41","103752","0.0-6.0-1.17","SOBA","2","f","rechts","21","","","self","f","60","true"
"null","<div style=""font-size:60px;"">+</div>","null","html-keyboard-response","42","104263","0.0-6.0-0.18","SOBA","2","f","rechts","21","","fixation","","","",""
"1029","img/120_270.png","74","image-keyboard-response","43","105315","0.0-6.0-1.18","SOBA","2","f","rechts","21","","","self","j","120","true"
"null","<div style=""font-size:60px;"">+</div>","null","html-keyboard-response","44","105826","0.0-6.0-0.19","SOBA","2","f","rechts","21","","fixation","","","",""
"1417","img/120_330.png","70","image-keyboard-response","45","107262","0.0-6.0-1.19","SOBA","2","f","rechts","21","","","self","f","120","true"
"null","<div style=""font-size:60px;"">+</div>","null","html-keyboard-response","46","107576","0.0-6.0-0.20","SOBA","2","f","rechts","21","","fixation","","","",""
"983","img/90_210.png","74","image-keyboard-response","47","108577","0.0-6.0-1.20","SOBA","2","f","rechts","21","","","self","j","90","true"
"null","<div style=""font-size:60px;"">+</div>","null","html-keyboard-response","48","108999","0.0-6.0-0.21","SOBA","2","f","rechts","21","","fixation","","","",""
"1114","img/L30_180.png","70","image-keyboard-response","49","110130","0.0-6.0-1.21","SOBA","2","f","rechts","21","","","self","f","30","true"
"null","<div style=""font-size:60px;"">+</div>","null","html-keyboard-response","50","110591","0.0-6.0-0.22","SOBA","2","f","rechts","21","","fixation","","","",""
"984","img/0_300.png","70","image-keyboard-response","51","111593","0.0-6.0-1.22","SOBA","2","f","rechts","21","","","self","f","0","true"
"null","<div style=""font-size:60px;"">+</div>","null","html-keyboard-response","52","112109","0.0-6.0-0.23","SOBA","2","f","rechts","21","","fixation","","","",""
"1468","img/120_30.png","74","image-keyboard-response","53","113596","0.0-6.0-1.23","SOBA","2","f","rechts","21","","","self","j","120","true"
"null","<div style=""font-size:60px;"">+</div>","null","html-keyboard-response","54","113906","0.0-6.0-0.24","SOBA","2","f","rechts","21","","fixation","","","",""
"1303","img/120_180.png","74","image-keyboard-response","55","115226","0.0-6.0-1.24","SOBA","2","f","rechts","21","","","self","j","120","true"
"null","<div style=""font-size:60px;"">+</div>","null","html-keyboard-response","56","115531","0.0-6.0-0.25","SOBA","2","f","rechts","21","","fixation","","","",""
"1309","img/L90_180.png","70","image-keyboard-response","57","116858","0.0-6.0-1.25","SOBA","2","f","rechts","21","","","self","f","90","true"
"null","<div style=""font-size:60px;"">+</div>","null","html-keyboard-response","58","117360","0.0-6.0-0.26","SOBA","2","f","rechts","21","","fixation","","","",""
"986","img/0_270.png","70","image-keyboard-response","59","118366","0.0-6.0-1.26","SOBA","2","f","rechts","21","","","self","f","0","true"
"null","<div style=""font-size:60px;"">+</div>","null","html-keyboard-response","60","118845","0.0-6.0-0.27","SOBA","2","f","rechts","21","","fixation","","","",""
"1301","img/120_150.png","70","image-keyboard-response","61","120165","0.0-6.0-1.27","SOBA","2","f","rechts","21","","","self","f","120","true"
"null","<div style=""font-size:60px;"">+</div>","null","html-keyboard-response","62","120642","0.0-6.0-0.28","SOBA","2","f","rechts","21","","fixation","","","",""
"1250","img/30_180.png","74","image-keyboard-response","63","121909","0.0-6.0-1.28","SOBA","2","f","rechts","21","","","self","j","30","true"
"null","<div style=""font-size:60px;"">+</div>","null","html-keyboard-response","64","122313","0.0-6.0-0.29","SOBA","2","f","rechts","21","","fixation","","","",""
"1345","img/30_270.png","70","image-keyboard-response","65","123675","0.0-6.0-1.29","SOBA","2","f","rechts","21","","","self","f","30","true"
"null","<div style=""font-size:60px;"">+</div>","null","html-keyboard-response","66","124095","0.0-6.0-0.30","SOBA","2","f","rechts","21","","fixation","","","",""
"945","img/0_120.png","74","image-keyboard-response","67","125057","0.0-6.0-1.30","SOBA","2","f","rechts","21","","","self","j","0","true"
"null","<div style=""font-size:60px;"">+</div>","null","html-keyboard-response","68","125469","0.0-6.0-0.31","SOBA","2","f","rechts","21","","fixation","","","",""
"1159","img/60_30.png","74","image-keyboard-response","69","126635","0.0-6.0-1.31","SOBA","2","f","rechts","21","","","self","j","60","true"
"null","<div style=""font-size:60px;"">+</div>","null","html-keyboard-response","70","126940","0.0-6.0-0.32","SOBA","2","f","rechts","21","","fixation","","","",""
"1286","img/150_270.png","74","image-keyboard-response","71","128243","0.0-6.0-1.32","SOBA","2","f","rechts","21","","","self","j","150","true"
"null","<div style=""font-size:60px;"">+</div>","null","html-keyboard-response","72","128721","0.0-6.0-0.33","SOBA","2","f","rechts","21","","fixation","","","",""
"1370","img/90_150.png","70","image-keyboard-response","73","130109","0.0-6.0-1.33","SOBA","2","f","rechts","21","","","self","f","90","true"
"null","<div style=""font-size:60px;"">+</div>","null","html-keyboard-response","74","130486","0.0-6.0-0.34","SOBA","2","f","rechts","21","","fixation","","","",""
"1328","img/60_210.png","74","image-keyboard-response","75","131821","0.0-6.0-1.34","SOBA","2","f","rechts","21","","","self","j","60","true"
"null","<div style=""font-size:60px;"">+</div>","null","html-keyboard-response","76","132283","0.0-6.0-0.35","SOBA","2","f","rechts","21","","fixation","","","",""
"858","img/0_30.png","74","image-keyboard-response","77","133160","0.0-6.0-1.35","SOBA","2","f","rechts","21","","","self","j","0","true"
"null","<div style=""font-size:60px;"">+</div>","null","html-keyboard-response","78","133517","0.0-6.0-0.36","SOBA","2","f","rechts","21","","fixation","","","",""
"1403","img/90_300.png","70","image-keyboard-response","79","134937","0.0-6.0-1.36","SOBA","2","f","rechts","21","","","self","f","90","true"
"null","<div style=""font-size:60px;"">+</div>","null","html-keyboard-response","80","135392","0.0-6.0-0.37","SOBA","2","f","rechts","21","","fixation","","","",""
"1466","img/90_330.png","70","image-keyboard-response","81","136873","0.0-6.0-1.37","SOBA","2","f","rechts","21","","","self","f","90","true"
"null","<div style=""font-size:60px;"">+</div>","null","html-keyboard-response","82","137403","0.0-6.0-0.38","SOBA","2","f","rechts","21","","fixation","","","",""
"1461","img/90_240.png","74","image-keyboard-response","83","138876","0.0-6.0-1.38","SOBA","2","f","rechts","21","","","self","j","90","true"
"null","<div style=""font-size:60px;"">+</div>","null","html-keyboard-response","84","139403","0.0-6.0-0.39","SOBA","2","f","rechts","21","","fixation","","","",""
"1306","img/90_120.png","70","image-keyboard-response","85","140720","0.0-6.0-1.39","SOBA","2","f","rechts","21","","","self","f","90","true"
"null","<div style=""font-size:60px;"">+</div>","null","html-keyboard-response","86","141138","0.0-6.0-0.40","SOBA","2","f","rechts","21","","fixation","","","",""
"1771","img/90_60.png","74","image-keyboard-response","87","142925","0.0-6.0-1.40","SOBA","2","f","rechts","21","","","self","j","90","true"
"null","<div style=""font-size:60px;"">+</div>","null","html-keyboard-response","88","143234","0.0-6.0-0.41","SOBA","2","f","rechts","21","","fixation","","","",""
"2504","img/150_60.png","70","image-keyboard-response","89","145754","0.0-6.0-1.41","SOBA","2","f","rechts","21","","","self","f","150","true"
"null","<div style=""font-size:60px;"">+</div>","null","html-keyboard-response","90","146156","0.0-6.0-0.42","SOBA","2","f","rechts","21","","fixation","","","",""
"811","img/0_60.png","74","image-keyboard-response","91","146985","0.0-6.0-1.42","SOBA","2","f","rechts","21","","","self","j","0","true"
"null","<div style=""font-size:60px;"">+</div>","null","html-keyboard-response","92","147296","0.0-6.0-0.43","SOBA","2","f","rechts","21","","fixation","","","",""
"1034","img/0_240.png","70","image-keyboard-response","93","148348","0.0-6.0-1.43","SOBA","2","f","rechts","21","","","self","f","0","true"
"null","<div style=""font-size:60px;"">+</div>","null","html-keyboard-response","94","148875","0.0-6.0-0.44","SOBA","2","f","rechts","21","","fixation","","","",""
"849","img/0_330.png","70","image-keyboard-response","95","149742","0.0-6.0-1.44","SOBA","2","f","rechts","21","","","self","f","0","true"
"null","<div style=""font-size:60px;"">+</div>","null","html-keyboard-response","96","150250","0.0-6.0-0.45","SOBA","2","f","rechts","21","","fixation","","","",""
"937","img/0_90.png","74","image-keyboard-response","97","151205","0.0-6.0-1.45","SOBA","2","f","rechts","21","","","self","j","0","true"
"null","<div style=""font-size:60px;"">+</div>","null","html-keyboard-response","98","151625","0.0-6.0-0.46","SOBA","2","f","rechts","21","","fixation","","","",""
"1463","img/30_120.png","74","image-keyboard-response","99","153106","0.0-6.0-1.46","SOBA","2","f","rechts","21","","","self","j","30","true"
"null","<div style=""font-size:60px;"">+</div>","null","html-keyboard-response","100","153531","0.0-6.0-0.47","SOBA","2","f","rechts","21","","fixation","","","",""
"1112","img/0_150.png","74","image-keyboard-response","101","154659","0.0-6.0-1.47","SOBA","2","f","rechts","21","","","self","j","0","true"
"null","<div style=""font-size:60px;"">+</div>","null","html-keyboard-response","102","155187","0.0-6.0-0.48","SOBA","2","f","rechts","21","","fixation","","","",""
"1262","img/L60_180.png","70","image-keyboard-response","103","156468","0.0-6.0-1.48","SOBA","2","f","rechts","21","","","self","f","60","true"
"null","<div style=""font-size:60px;"">+</div>","null","html-keyboard-response","104","156829","0.0-6.0-0.49","SOBA","2","f","rechts","21","","fixation","","","",""
"1344","img/150_90.png","70","image-keyboard-response","105","158191","0.0-6.0-1.49","SOBA","2","f","rechts","21","","","self","f","150","true"
"null","<div style=""font-size:60px;"">+</div>","null","html-keyboard-response","106","158501","0.0-6.0-0.50","SOBA","2","f","rechts","21","","fixation","","","",""
"1170","img/120_90.png","70","image-keyboard-response","107","159690","0.0-6.0-1.50","SOBA","2","f","rechts","21","","","self","f","120","true"
"null","<div style=""font-size:60px;"">+</div>","null","html-keyboard-response","108","160063","0.0-6.0-0.51","SOBA","2","f","rechts","21","","fixation","","","",""
"1215","img/150_120.png","70","image-keyboard-response","109","161296","0.0-6.0-1.51","SOBA","2","f","rechts","21","","","self","f","150","true"
"null","<div style=""font-size:60px;"">+</div>","null","html-keyboard-response","110","161828","0.0-6.0-0.52","SOBA","2","f","rechts","21","","fixation","","","",""
"1109","img/120_210.png","74","image-keyboard-response","111","162951","0.0-6.0-1.52","SOBA","2","f","rechts","21","","","self","j","120","true"
"null","<div style=""font-size:60px;"">+</div>","null","html-keyboard-response","112","163376","0.0-6.0-0.53","SOBA","2","f","rechts","21","","fixation","","","",""
"944","img/150_270.png","74","image-keyboard-response","113","164332","0.0-6.0-1.53","SOBA","2","f","rechts","21","","","self","j","150","true"
"null","<div style=""font-size:60px;"">+</div>","null","html-keyboard-response","114","164734","0.0-6.0-0.54","SOBA","2","f","rechts","21","","fixation","","","",""
"1042","img/L60_180.png","70","image-keyboard-response","115","165785","0.0-6.0-1.54","SOBA","2","f","rechts","21","","","self","f","60","true"
"null","<div style=""font-size:60px;"">+</div>","null","html-keyboard-response","116","166234","0.0-6.0-0.55","SOBA","2","f","rechts","21","","fixation","","","",""
"1000","img/L120_180.png","70","image-keyboard-response","117","167247","0.0-6.0-1.55","SOBA","2","f","rechts","21","","","self","f","120","true"
"null","<div style=""font-size:60px;"">+</div>","null","html-keyboard-response","118","167611","0.0-6.0-0.56","SOBA","2","f","rechts","21","","fixation","","","",""
"1157","img/90_120.png","70","image-keyboard-response","119","168778","0.0-6.0-1.56","SOBA","2","f","rechts","21","","","self","f","90","true"
"null","<div style=""font-size:60px;"">+</div>","null","html-keyboard-response","120","169237","0.0-6.0-0.57","SOBA","2","f","rechts","21","","fixation","","","",""
"980","img/90_210.png","74","image-keyboard-response","121","170229","0.0-6.0-1.57","SOBA","2","f","rechts","21","","","self","j","90","true"
"null","<div style=""font-size:60px;"">+</div>","null","html-keyboard-response","122","170647","0.0-6.0-0.58","SOBA","2","f","rechts","21","","fixation","","","",""
"998","img/120_270.png","74","image-keyboard-response","123","171658","0.0-6.0-1.58","SOBA","2","f","rechts","21","","","self","j","120","true"
"null","<div style=""font-size:60px;"">+</div>","null","html-keyboard-response","124","171975","0.0-6.0-0.59","SOBA","2","f","rechts","21","","fixation","","","",""
"964","img/L30_180.png","70","image-keyboard-response","125","172951","0.0-6.0-1.59","SOBA","2","f","rechts","21","","","self","f","30","true"
"null","<div style=""font-size:60px;"">+</div>","null","html-keyboard-response","126","173412","0.0-6.0-0.60","SOBA","2","f","rechts","21","","fixation","","","",""
"965","img/150_90.png","70","image-keyboard-response","127","174382","0.0-6.0-1.60","SOBA","2","f","rechts","21","","","self","f","150","true"
"null","<div style=""font-size:60px;"">+</div>","null","html-keyboard-response","128","174772","0.0-6.0-0.61","SOBA","2","f","rechts","21","","fixation","","","",""
"957","img/0_300.png","70","image-keyboard-response","129","175741","0.0-6.0-1.61","SOBA","2","f","rechts","21","","","self","f","0","true"
"null","<div style=""font-size:60px;"">+</div>","null","html-keyboard-response","130","176210","0.0-6.0-0.62","SOBA","2","f","rechts","21","","fixation","","","",""
"1081","img/60_270.png","70","image-keyboard-response","131","177304","0.0-6.0-1.62","SOBA","2","f","rechts","21","","","self","f","60","true"
"null","<div style=""font-size:60px;"">+</div>","null","html-keyboard-response","132","177711","0.0-6.0-0.63","SOBA","2","f","rechts","21","","fixation","","","",""
"967","img/90_150.png","70","image-keyboard-response","133","178689","0.0-6.0-1.63","SOBA","2","f","rechts","21","","","self","f","90","true"
"null","<div style=""font-size:60px;"">+</div>","null","html-keyboard-response","134","179117","0.0-6.0-0.64","SOBA","2","f","rechts","21","","fixation","","","",""
"1866","img/150_240.png","74","image-keyboard-response","135","180996","0.0-6.0-1.64","SOBA","2","f","rechts","21","","","self","j","150","true"
"null","<div style=""font-size:60px;"">+</div>","null","html-keyboard-response","136","181321","0.0-6.0-0.65","SOBA","2","f","rechts","21","","fixation","","","",""
"956","img/150_180.png","74","image-keyboard-response","137","182289","0.0-6.0-1.65","SOBA","2","f","rechts","21","","","self","j","150","true"
"null","<div style=""font-size:60px;"">+</div>","null","html-keyboard-response","138","182604","0.0-6.0-0.66","SOBA","2","f","rechts","21","","fixation","","","",""
"1113","img/30_90.png","74","image-keyboard-response","139","183730","0.0-6.0-1.66","SOBA","2","f","rechts","21","","","self","j","30","true"
"null","<div style=""font-size:60px;"">+</div>","null","html-keyboard-response","140","184056","0.0-6.0-0.67","SOBA","2","f","rechts","21","","fixation","","","",""
"998","img/30_60.png","74","image-keyboard-response","141","185067","0.0-6.0-1.67","SOBA","2","f","rechts","21","","","self","j","30","true"
"null","<div style=""font-size:60px;"">+</div>","null","html-keyboard-response","142","185431","0.0-6.0-0.68","SOBA","2","f","rechts","21","","fixation","","","",""
"894","img/0_330.png","70","image-keyboard-response","143","186328","0.0-6.0-1.68","SOBA","2","f","rechts","21","","","self","f","0","true"
"null","<div style=""font-size:60px;"">+</div>","null","html-keyboard-response","144","186838","0.0-6.0-0.69","SOBA","2","f","rechts","21","","fixation","","","",""
"966","img/150_120.png","74","image-keyboard-response","145","187813","0.0-6.0-1.69","SOBA","2","f","rechts","21","","","self","f","150","false"
"null","<div style=""font-size:60px;"">+</div>","null","html-keyboard-response","146","188182","0.0-6.0-0.70","SOBA","2","f","rechts","21","","fixation","","","",""
"748","img/0_30.png","74","image-keyboard-response","147","188938","0.0-6.0-1.70","SOBA","2","f","rechts","21","","","self","j","0","true"
"null","<div style=""font-size:60px;"">+</div>","null","html-keyboard-response","148","189290","0.0-6.0-0.71","SOBA","2","f","rechts","21","","fixation","","","",""
"1748","img/60_330.png","70","image-keyboard-response","149","191052","0.0-6.0-1.71","SOBA","2","f","rechts","21","","","self","f","60","true"
"null","<div style=""font-size:60px;"">+</div>","null","html-keyboard-response","150","191461","0.0-6.0-0.72","SOBA","2","f","rechts","21","","fixation","","","",""
"2427","img/60_90.png","74","image-keyboard-response","151","193894","0.0-6.0-1.72","SOBA","2","f","rechts","21","","","self","j","60","true"
"null","<div style=""font-size:60px;"">+</div>","null","html-keyboard-response","152","194312","0.0-6.0-0.73","SOBA","2","f","rechts","21","","fixation","","","",""
"1287","img/90_330.png","70","image-keyboard-response","153","195609","0.0-6.0-1.73","SOBA","2","f","rechts","21","","","self","f","90","true"
"null","<div style=""font-size:60px;"">+</div>","null","html-keyboard-response","154","196045","0.0-6.0-0.74","SOBA","2","f","rechts","21","","fixation","","","",""
"1509","img/120_30.png","74","image-keyboard-response","155","197567","0.0-6.0-1.74","SOBA","2","f","rechts","21","","","self","j","120","true"
"null","<div style=""font-size:60px;"">+</div>","null","html-keyboard-response","156","198074","0.0-6.0-0.75","SOBA","2","f","rechts","21","","fixation","","","",""
"1436","img/30_300.png","70","image-keyboard-response","157","199525","0.0-6.0-1.75","SOBA","2","f","rechts","21","","","self","f","30","true"
"null","<div style=""font-size:60px;"">+</div>","null","html-keyboard-response","158","199855","0.0-6.0-0.76","SOBA","2","f","rechts","21","","fixation","","","",""
"1899","img/90_60.png","74","image-keyboard-response","159","201764","0.0-6.0-1.76","SOBA","2","f","rechts","21","","","self","j","90","true"
"null","<div style=""font-size:60px;"">+</div>","null","html-keyboard-response","160","202277","0.0-6.0-0.77","SOBA","2","f","rechts","21","","fixation","","","",""
"1332","img/90_240.png","74","image-keyboard-response","161","203619","0.0-6.0-1.77","SOBA","2","f","rechts","21","","","self","j","90","true"
"null","<div style=""font-size:60px;"">+</div>","null","html-keyboard-response","162","203984","0.0-6.0-0.78","SOBA","2","f","rechts","21","","fixation","","","",""
"1356","img/30_180.png","74","image-keyboard-response","163","205352","0.0-6.0-1.78","SOBA","2","f","rechts","21","","","self","j","30","true"
"null","<div style=""font-size:60px;"">+</div>","null","html-keyboard-response","164","205766","0.0-6.0-0.79","SOBA","2","f","rechts","21","","fixation","","","",""
"867","img/0_120.png","74","image-keyboard-response","165","206645","0.0-6.0-1.79","SOBA","2","f","rechts","21","","","self","j","0","true"
"null","<div style=""font-size:60px;"">+</div>","null","html-keyboard-response","166","207075","0.0-6.0-0.80","SOBA","2","f","rechts","21","","fixation","","","",""
"1118","img/90_30.png","74","image-keyboard-response","167","208208","0.0-6.0-1.80","SOBA","2","f","rechts","21","","","self","j","90","true"
"null","<div style=""font-size:60px;"">+</div>","null","html-keyboard-response","168","208668","0.0-6.0-0.81","SOBA","2","f","rechts","21","","fixation","","","",""
"892","img/0_60.png","74","image-keyboard-response","169","209570","0.0-6.0-1.81","SOBA","2","f","rechts","21","","","self","j","0","true"
"null","<div style=""font-size:60px;"">+</div>","null","html-keyboard-response","170","209903","0.0-6.0-0.82","SOBA","2","f","rechts","21","","fixation","","","",""
"907","img/0_90.png","74","image-keyboard-response","171","210819","0.0-6.0-1.82","SOBA","2","f","rechts","21","","","self","j","0","true"
"null","<div style=""font-size:60px;"">+</div>","null","html-keyboard-response","172","211121","0.0-6.0-0.83","SOBA","2","f","rechts","21","","fixation","","","",""
"944","img/60_150.png","70","image-keyboard-response","173","212078","0.0-6.0-1.83","SOBA","2","f","rechts","21","","","self","f","60","true"
"null","<div style=""font-size:60px;"">+</div>","null","html-keyboard-response","174","212591","0.0-6.0-0.84","SOBA","2","f","rechts","21","","fixation","","","",""
"1036","img/60_210.png","74","image-keyboard-response","175","213633","0.0-6.0-1.84","SOBA","2","f","rechts","21","","","self","j","60","true"
"null","<div style=""font-size:60px;"">+</div>","null","html-keyboard-response","176","213983","0.0-6.0-0.85","SOBA","2","f","rechts","21","","fixation","","","",""
"938","img/0_210.png","70","image-keyboard-response","177","214937","0.0-6.0-1.85","SOBA","2","f","rechts","21","","","self","f","0","true"
"null","<div style=""font-size:60px;"">+</div>","null","html-keyboard-response","178","215342","0.0-6.0-0.86","SOBA","2","f","rechts","21","","fixation","","","",""
"788","img/0_150.png","74","image-keyboard-response","179","216140","0.0-6.0-1.86","SOBA","2","f","rechts","21","","","self","j","0","true"
"null","<div style=""font-size:60px;"">+</div>","null","html-keyboard-response","180","216467","0.0-6.0-0.87","SOBA","2","f","rechts","21","","fixation","","","",""
"1122","img/90_300.png","70","image-keyboard-response","181","217602","0.0-6.0-1.87","SOBA","2","f","rechts","21","","","self","f","90","true"
"null","<div style=""font-size:60px;"">+</div>","null","html-keyboard-response","182","218076","0.0-6.0-0.88","SOBA","2","f","rechts","21","","fixation","","","",""
"711","img/0_240.png","70","image-keyboard-response","183","218797","0.0-6.0-1.88","SOBA","2","f","rechts","21","","","self","f","0","true"
"null","<div style=""font-size:60px;"">+</div>","null","html-keyboard-response","184","219264","0.0-6.0-0.89","SOBA","2","f","rechts","21","","fixation","","","",""
"1071","img/L90_180.png","70","image-keyboard-response","185","220348","0.0-6.0-1.89","SOBA","2","f","rechts","21","","","self","f","90","true"
"null","<div style=""font-size:60px;"">+</div>","null","html-keyboard-response","186","220810","0.0-6.0-0.90","SOBA","2","f","rechts","21","","fixation","","","",""
"1135","img/60_30.png","74","image-keyboard-response","187","221958","0.0-6.0-1.90","SOBA","2","f","rechts","21","","","self","j","60","true"
"null","<div style=""font-size:60px;"">+</div>","null","html-keyboard-response","188","222263","0.0-6.0-0.91","SOBA","2","f","rechts","21","","fixation","","","",""
"1045","img/30_120.png","74","image-keyboard-response","189","223318","0.0-6.0-1.91","SOBA","2","f","rechts","21","","","self","j","30","true"
"null","<div style=""font-size:60px;"">+</div>","null","html-keyboard-response","190","223732","0.0-6.0-0.92","SOBA","2","f","rechts","21","","fixation","","","",""
"1047","img/90_180.png","74","image-keyboard-response","191","224792","0.0-6.0-1.92","SOBA","2","f","rechts","21","","","self","j","90","true"
"null","<div style=""font-size:60px;"">+</div>","null","html-keyboard-response","192","225310","0.0-6.0-0.93","SOBA","2","f","rechts","21","","fixation","","","",""
"1079","img/30_240.png","70","image-keyboard-response","193","226401","0.0-6.0-1.93","SOBA","2","f","rechts","21","","","self","f","30","true"
"null","<div style=""font-size:60px;"">+</div>","null","html-keyboard-response","194","226810","0.0-6.0-0.94","SOBA","2","f","rechts","21","","fixation","","","",""
"1278","img/150_300.png","74","image-keyboard-response","195","228101","0.0-6.0-1.94","SOBA","2","f","rechts","21","","","self","j","150","true"
"null","<div style=""font-size:60px;"">+</div>","null","html-keyboard-response","196","228625","0.0-6.0-0.95","SOBA","2","f","rechts","21","","fixation","","","",""
"965","img/L150_180.png","70","image-keyboard-response","197","229594","0.0-6.0-1.95","SOBA","2","f","rechts","21","","","self","f","150","true"
"null","<div style=""font-size:60px;"">+</div>","null","html-keyboard-response","198","230117","0.0-6.0-0.96","SOBA","2","f","rechts","21","","fixation","","","",""
"794","img/0_270.png","70","image-keyboard-response","199","230925","0.0-6.0-1.96","SOBA","2","f","rechts","21","","","self","f","0","true"
"null","<div style=""font-size:60px;"">+</div>","null","html-keyboard-response","200","231328","0.0-6.0-0.97","SOBA","2","f","rechts","21","","fixation","","","",""
"808","img/120_180.png","74","image-keyboard-response","201","232149","0.0-6.0-1.97","SOBA","2","f","rechts","21","","","self","j","120","true"
"null","<div style=""font-size:60px;"">+</div>","null","html-keyboard-response","202","232531","0.0-6.0-0.98","SOBA","2","f","rechts","21","","fixation","","","",""
"1155","img/150_60.png","70","image-keyboard-response","203","233692","0.0-6.0-1.98","SOBA","2","f","rechts","21","","","self","f","150","true"
"null","<div style=""font-size:60px;"">+</div>","null","html-keyboard-response","204","234015","0.0-6.0-0.99","SOBA","2","f","rechts","21","","fixation","","","",""
"1037","img/120_150.png","70","image-keyboard-response","205","235065","0.0-6.0-1.99","SOBA","2","f","rechts","21","","","self","f","120","true"
"null","<div style=""font-size:60px;"">+</div>","null","html-keyboard-response","206","235531","0.0-6.0-0.100","SOBA","2","f","rechts","21","","fixation","","","",""
"1453","img/120_90.png","70","image-keyboard-response","207","236988","0.0-6.0-1.100","SOBA","2","f","rechts","21","","","self","f","120","true"
"null","<div style=""font-size:60px;"">+</div>","null","html-keyboard-response","208","237455","0.0-6.0-0.101","SOBA","2","f","rechts","21","","fixation","","","",""
"992","img/60_180.png","74","image-keyboard-response","209","238461","0.0-6.0-1.101","SOBA","2","f","rechts","21","","","self","j","60","true"
"null","<div style=""font-size:60px;"">+</div>","null","html-keyboard-response","210","238813","0.0-6.0-0.102","SOBA","2","f","rechts","21","","fixation","","","",""
"1287","img/30_270.png","70","image-keyboard-response","211","240114","0.0-6.0-1.102","SOBA","2","f","rechts","21","","","self","f","30","true"
"null","<div style=""font-size:60px;"">+</div>","null","html-keyboard-response","212","240470","0.0-6.0-0.103","SOBA","2","f","rechts","21","","fixation","","","",""
"1552","img/120_330.png","70","image-keyboard-response","213","242039","0.0-6.0-1.103","SOBA","2","f","rechts","21","","","self","f","120","true"
"null","<div style=""font-size:60px;"">+</div>","null","html-keyboard-response","214","242549","0.0-6.0-0.104","SOBA","2","f","rechts","21","","fixation","","","",""
"926","img/90_240.png","74","image-keyboard-response","215","243478","0.0-6.0-1.104","SOBA","2","f","rechts","21","","","self","j","90","true"
"null","<div style=""font-size:60px;"">+</div>","null","html-keyboard-response","216","243909","0.0-6.0-0.105","SOBA","2","f","rechts","21","","fixation","","","",""
"1382","img/30_60.png","70","image-keyboard-response","217","245302","0.0-6.0-1.105","SOBA","2","f","rechts","21","","","self","j","30","false"
"null","<div style=""font-size:60px;"">+</div>","null","html-keyboard-response","218","245659","0.0-6.0-0.106","SOBA","2","f","rechts","21","","fixation","","","",""
"1812","img/L120_180.png","70","image-keyboard-response","219","247485","0.0-6.0-1.106","SOBA","2","f","rechts","21","","","self","f","120","true"
"null","<div style=""font-size:60px;"">+</div>","null","html-keyboard-response","220","248002","0.0-6.0-0.107","SOBA","2","f","rechts","21","","fixation","","","",""
"878","img/L150_180.png","70","image-keyboard-response","221","248890","0.0-6.0-1.107","SOBA","2","f","rechts","21","","","self","f","150","true"
"null","<div style=""font-size:60px;"">+</div>","null","html-keyboard-response","222","249347","0.0-6.0-0.108","SOBA","2","f","rechts","21","","fixation","","","",""
"895","img/0_90.png","74","image-keyboard-response","223","250252","0.0-6.0-1.108","SOBA","2","f","rechts","21","","","self","j","0","true"
"null","<div style=""font-size:60px;"">+</div>","null","html-keyboard-response","224","250659","0.0-6.0-0.109","SOBA","2","f","rechts","21","","fixation","","","",""
"842","img/0_60.png","74","image-keyboard-response","225","251510","0.0-6.0-1.109","SOBA","2","f","rechts","21","","","self","j","0","true"
"null","<div style=""font-size:60px;"">+</div>","null","html-keyboard-response","226","251879","0.0-6.0-0.110","SOBA","2","f","rechts","21","","fixation","","","",""
"1152","img/60_30.png","74","image-keyboard-response","227","253041","0.0-6.0-1.110","SOBA","2","f","rechts","21","","","self","j","60","true"
"null","<div style=""font-size:60px;"">+</div>","null","html-keyboard-response","228","253503","0.0-6.0-0.111","SOBA","2","f","rechts","21","","fixation","","","",""
"879","img/90_210.png","74","image-keyboard-response","229","254391","0.0-6.0-1.111","SOBA","2","f","rechts","21","","","self","j","90","true"
"null","<div style=""font-size:60px;"">+</div>","null","html-keyboard-response","230","254864","0.0-6.0-0.112","SOBA","2","f","rechts","21","","fixation","","","",""
"1319","img/90_30.png","74","image-keyboard-response","231","256192","0.0-6.0-1.112","SOBA","2","f","rechts","21","","","self","j","90","true"
"null","<div style=""font-size:60px;"">+</div>","null","html-keyboard-response","232","256550","0.0-6.0-0.113","SOBA","2","f","rechts","21","","fixation","","","",""
"841","img/0_240.png","70","image-keyboard-response","233","257395","0.0-6.0-1.113","SOBA","2","f","rechts","21","","","self","f","0","true"
"null","<div style=""font-size:60px;"">+</div>","null","html-keyboard-response","234","257801","0.0-6.0-0.114","SOBA","2","f","rechts","21","","fixation","","","",""
"934","img/150_180.png","74","image-keyboard-response","235","258746","0.0-6.0-1.114","SOBA","2","f","rechts","21","","","self","j","150","true"
"null","<div style=""font-size:60px;"">+</div>","null","html-keyboard-response","236","259176","0.0-6.0-0.115","SOBA","2","f","rechts","21","","fixation","","","",""
"1077","img/120_90.png","70","image-keyboard-response","237","260264","0.0-6.0-1.115","SOBA","2","f","rechts","21","","","self","f","120","true"
"null","<div style=""font-size:60px;"">+</div>","null","html-keyboard-response","238","260676","0.0-6.0-0.116","SOBA","2","f","rechts","21","","fixation","","","",""
"1221","img/60_330.png","70","image-keyboard-response","239","261907","0.0-6.0-1.116","SOBA","2","f","rechts","21","","","self","f","60","true"
"null","<div style=""font-size:60px;"">+</div>","null","html-keyboard-response","240","262412","0.0-6.0-0.117","SOBA","2","f","rechts","21","","fixation","","","",""
"1645","img/120_150.png","70","image-keyboard-response","241","264067","0.0-6.0-1.117","SOBA","2","f","rechts","21","","","self","f","120","true"
"null","<div style=""font-size:60px;"">+</div>","null","html-keyboard-response","242","264521","0.0-6.0-0.118","SOBA","2","f","rechts","21","","fixation","","","",""
"1347","img/120_270.png","74","image-keyboard-response","243","265877","0.0-6.0-1.118","SOBA","2","f","rechts","21","","","self","j","120","true"
"null","<div style=""font-size:60px;"">+</div>","null","html-keyboard-response","244","266303","0.0-6.0-0.119","SOBA","2","f","rechts","21","","fixation","","","",""
"1331","img/30_240.png","70","image-keyboard-response","245","267643","0.0-6.0-1.119","SOBA","2","f","rechts","21","","","self","f","30","true"
"null","<div style=""font-size:60px;"">+</div>","null","html-keyboard-response","246","268053","0.0-6.0-0.120","SOBA","2","f","rechts","21","","fixation","","","",""
"996","img/90_150.png","70","image-keyboard-response","247","269061","0.0-6.0-1.120","SOBA","2","f","rechts","21","","","self","f","90","true"
"null","<div style=""font-size:60px;"">+</div>","null","html-keyboard-response","248","269520","0.0-6.0-0.121","SOBA","2","f","rechts","21","","fixation","","","",""
"994","img/150_90.png","70","image-keyboard-response","249","270523","0.0-6.0-1.121","SOBA","2","f","rechts","21","","","self","f","150","true"
"null","<div style=""font-size:60px;"">+</div>","null","html-keyboard-response","250","271037","0.0-6.0-0.122","SOBA","2","f","rechts","21","","fixation","","","",""
"1254","img/30_120.png","70","image-keyboard-response","251","272302","0.0-6.0-1.122","SOBA","2","f","rechts","21","","","self","j","30","false"
"null","<div style=""font-size:60px;"">+</div>","null","html-keyboard-response","252","272672","0.0-6.0-0.123","SOBA","2","f","rechts","21","","fixation","","","",""
"1509","img/150_300.png","74","image-keyboard-response","253","274192","0.0-6.0-1.123","SOBA","2","f","rechts","21","","","self","j","150","true"
"null","<div style=""font-size:60px;"">+</div>","null","html-keyboard-response","254","274561","0.0-6.0-0.124","SOBA","2","f","rechts","21","","fixation","","","",""
"1007","img/L60_180.png","70","image-keyboard-response","255","275573","0.0-6.0-1.124","SOBA","2","f","rechts","21","","","self","f","60","true"
"null","<div style=""font-size:60px;"">+</div>","null","html-keyboard-response","256","276032","0.0-6.0-0.125","SOBA","2","f","rechts","21","","fixation","","","",""
"1029","img/30_180.png","74","image-keyboard-response","257","277071","0.0-6.0-1.125","SOBA","2","f","rechts","21","","","self","j","30","true"
"null","<div style=""font-size:60px;"">+</div>","null","html-keyboard-response","258","277430","0.0-6.0-0.126","SOBA","2","f","rechts","21","","fixation","","","",""
"2392","img/120_330.png","70","image-keyboard-response","259","279831","0.0-6.0-1.126","SOBA","2","f","rechts","21","","","self","f","120","true"
"null","<div style=""font-size:60px;"">+</div>","null","html-keyboard-response","260","280157","0.0-6.0-0.127","SOBA","2","f","rechts","21","","fixation","","","",""
"977","img/60_180.png","74","image-keyboard-response","261","281144","0.0-6.0-1.127","SOBA","2","f","rechts","21","","","self","j","60","true"
"null","<div style=""font-size:60px;"">+</div>","null","html-keyboard-response","262","281562","0.0-6.0-0.128","SOBA","2","f","rechts","21","","fixation","","","",""
"940","img/90_300.png","70","image-keyboard-response","263","282506","0.0-6.0-1.128","SOBA","2","f","rechts","21","","","self","f","90","true"
"null","<div style=""font-size:60px;"">+</div>","null","html-keyboard-response","264","282868","0.0-6.0-0.129","SOBA","2","f","rechts","21","","fixation","","","",""
"918","img/0_300.png","70","image-keyboard-response","265","283799","0.0-6.0-1.129","SOBA","2","f","rechts","21","","","self","f","0","true"
"null","<div style=""font-size:60px;"">+</div>","null","html-keyboard-response","266","284228","0.0-6.0-0.130","SOBA","2","f","rechts","21","","fixation","","","",""
"938","img/90_120.png","70","image-keyboard-response","267","285195","0.0-6.0-1.130","SOBA","2","f","rechts","21","","","self","f","90","true"
"null","<div style=""font-size:60px;"">+</div>","null","html-keyboard-response","268","285602","0.0-6.0-0.131","SOBA","2","f","rechts","21","","fixation","","","",""
"993","img/120_180.png","74","image-keyboard-response","269","286598","0.0-6.0-1.131","SOBA","2","f","rechts","21","","","self","j","120","true"
"null","<div style=""font-size:60px;"">+</div>","null","html-keyboard-response","270","286978","0.0-6.0-0.132","SOBA","2","f","rechts","21","","fixation","","","",""
"1004","img/150_270.png","74","image-keyboard-response","271","287995","0.0-6.0-1.132","SOBA","2","f","rechts","21","","","self","j","150","true"
"null","<div style=""font-size:60px;"">+</div>","null","html-keyboard-response","272","288508","0.0-6.0-0.133","SOBA","2","f","rechts","21","","fixation","","","",""
"1189","img/150_120.png","70","image-keyboard-response","273","289706","0.0-6.0-1.133","SOBA","2","f","rechts","21","","","self","f","150","true"
"null","<div style=""font-size:60px;"">+</div>","null","html-keyboard-response","274","290133","0.0-6.0-0.134","SOBA","2","f","rechts","21","","fixation","","","",""
"1014","img/60_150.png","70","image-keyboard-response","275","291157","0.0-6.0-1.134","SOBA","2","f","rechts","21","","","self","f","60","true"
"null","<div style=""font-size:60px;"">+</div>","null","html-keyboard-response","276","291586","0.0-6.0-0.135","SOBA","2","f","rechts","21","","fixation","","","",""
"805","img/0_270.png","70","image-keyboard-response","277","292394","0.0-6.0-1.135","SOBA","2","f","rechts","21","","","self","f","0","true"
"null","<div style=""font-size:60px;"">+</div>","null","html-keyboard-response","278","292901","0.0-6.0-0.136","SOBA","2","f","rechts","21","","fixation","","","",""
"999","img/30_90.png","74","image-keyboard-response","279","293914","0.0-6.0-1.136","SOBA","2","f","rechts","21","","","self","j","30","true"
"null","<div style=""font-size:60px;"">+</div>","null","html-keyboard-response","280","294276","0.0-6.0-0.137","SOBA","2","f","rechts","21","","fixation","","","",""
"1034","img/30_270.png","70","image-keyboard-response","281","295319","0.0-6.0-1.137","SOBA","2","f","rechts","21","","","self","f","30","true"
"null","<div style=""font-size:60px;"">+</div>","null","html-keyboard-response","282","295745","0.0-6.0-0.138","SOBA","2","f","rechts","21","","fixation","","","",""
"1041","img/150_60.png","70","image-keyboard-response","283","296795","0.0-6.0-1.138","SOBA","2","f","rechts","21","","","self","f","150","true"
"null","<div style=""font-size:60px;"">+</div>","null","html-keyboard-response","284","297260","0.0-6.0-0.139","SOBA","2","f","rechts","21","","fixation","","","",""
"893","img/L90_180.png","70","image-keyboard-response","285","298164","0.0-6.0-1.139","SOBA","2","f","rechts","21","","","self","f","90","true"
"null","<div style=""font-size:60px;"">+</div>","null","html-keyboard-response","286","298682","0.0-6.0-0.140","SOBA","2","f","rechts","21","","fixation","","","",""
"1756","img/120_30.png","74","image-keyboard-response","287","300450","0.0-6.0-1.140","SOBA","2","f","rechts","21","","","self","j","120","true"
"null","<div style=""font-size:60px;"">+</div>","null","html-keyboard-response","288","300964","0.0-6.0-0.141","SOBA","2","f","rechts","21","","fixation","","","",""
"1329","img/150_240.png","74","image-keyboard-response","289","302306","0.0-6.0-1.141","SOBA","2","f","rechts","21","","","self","j","150","true"
"null","<div style=""font-size:60px;"">+</div>","null","html-keyboard-response","290","302621","0.0-6.0-0.142","SOBA","2","f","rechts","21","","fixation","","","",""
"1558","img/90_330.png","70","image-keyboard-response","291","304185","0.0-6.0-1.142","SOBA","2","f","rechts","21","","","self","f","90","true"
"null","<div style=""font-size:60px;"">+</div>","null","html-keyboard-response","292","304543","0.0-6.0-0.143","SOBA","2","f","rechts","21","","fixation","","","",""
"874","img/60_270.png","70","image-keyboard-response","293","305422","0.0-6.0-1.143","SOBA","2","f","rechts","21","","","self","f","60","true"
"null","<div style=""font-size:60px;"">+</div>","null","html-keyboard-response","294","305899","0.0-6.0-0.144","SOBA","2","f","rechts","21","","fixation","","","",""
"838","img/30_300.png","70","image-keyboard-response","295","306750","0.0-6.0-1.144","SOBA","2","f","rechts","21","","","self","f","30","true"
"null","<div style=""font-size:60px;"">+</div>","null","html-keyboard-response","296","307153","0.0-6.0-0.145","SOBA","2","f","rechts","21","","fixation","","","",""
"990","img/L30_180.png","70","image-keyboard-response","297","308156","0.0-6.0-1.145","SOBA","2","f","rechts","21","","","self","f","30","true"
"null","<div style=""font-size:60px;"">+</div>","null","html-keyboard-response","298","308669","0.0-6.0-0.146","SOBA","2","f","rechts","21","","fixation","","","",""
"912","img/60_210.png","74","image-keyboard-response","299","309594","0.0-6.0-1.146","SOBA","2","f","rechts","21","","","self","j","60","true"
"null","<div style=""font-size:60px;"">+</div>","null","html-keyboard-response","300","310059","0.0-6.0-0.147","SOBA","2","f","rechts","21","","fixation","","","",""
"785","img/0_330.png","70","image-keyboard-response","301","310857","0.0-6.0-1.147","SOBA","2","f","rechts","21","","","self","f","0","true"
"null","<div style=""font-size:60px;"">+</div>","null","html-keyboard-response","302","311262","0.0-6.0-0.148","SOBA","2","f","rechts","21","","fixation","","","",""
"844","img/90_180.png","74","image-keyboard-response","303","312116","0.0-6.0-1.148","SOBA","2","f","rechts","21","","","self","j","90","true"
"null","<div style=""font-size:60px;"">+</div>","null","html-keyboard-response","304","312574","0.0-6.0-0.149","SOBA","2","f","rechts","21","","fixation","","","",""
"1123","img/90_60.png","70","image-keyboard-response","305","313702","0.0-6.0-1.149","SOBA","2","f","rechts","21","","","self","j","90","false"
"null","<div style=""font-size:60px;"">+</div>","null","html-keyboard-response","306","314231","0.0-6.0-0.150","SOBA","2","f","rechts","21","","fixation","","","",""
"818","img/0_150.png","74","image-keyboard-response","307","315063","0.0-6.0-1.150","SOBA","2","f","rechts","21","","","self","j","0","true"
"null","<div style=""font-size:60px;"">+</div>","null","html-keyboard-response","308","315481","0.0-6.0-0.151","SOBA","2","f","rechts","21","","fixation","","","",""
"1064","img/120_210.png","74","image-keyboard-response","309","316559","0.0-6.0-1.151","SOBA","2","f","rechts","21","","","self","j","120","true"
"null","<div style=""font-size:60px;"">+</div>","null","html-keyboard-response","310","316873","0.0-6.0-0.152","SOBA","2","f","rechts","21","","fixation","","","",""
"1684","img/60_90.png","74","image-keyboard-response","311","318571","0.0-6.0-1.152","SOBA","2","f","rechts","21","","","self","j","60","true"
"null","<div style=""font-size:60px;"">+</div>","null","html-keyboard-response","312","318982","0.0-6.0-0.153","SOBA","2","f","rechts","21","","fixation","","","",""
"792","img/0_210.png","70","image-keyboard-response","313","319788","0.0-6.0-1.153","SOBA","2","f","rechts","21","","","self","f","0","true"
"null","<div style=""font-size:60px;"">+</div>","null","html-keyboard-response","314","320091","0.0-6.0-0.154","SOBA","2","f","rechts","21","","fixation","","","",""
"753","img/0_30.png","74","image-keyboard-response","315","320858","0.0-6.0-1.154","SOBA","2","f","rechts","21","","","self","j","0","true"
"null","<div style=""font-size:60px;"">+</div>","null","html-keyboard-response","316","321217","0.0-6.0-0.155","SOBA","2","f","rechts","21","","fixation","","","",""
"708","img/0_120.png","74","image-keyboard-response","317","321938","0.0-6.0-1.155","SOBA","2","f","rechts","21","","","self","j","0","true"
"null","<div style=""font-size:60px;"">+</div>","null","html-keyboard-response","318","322342","0.0-6.0-0.156","SOBA","2","f","rechts","21","","fixation","","","",""
"900","img/60_180.png","74","image-keyboard-response","319","323252","0.0-6.0-1.156","SOBA","2","f","rechts","21","","","self","j","60","true"
"null","<div style=""font-size:60px;"">+</div>","null","html-keyboard-response","320","323669","0.0-6.0-0.157","SOBA","2","f","rechts","21","","fixation","","","",""
"830","img/0_330.png","70","image-keyboard-response","321","324503","0.0-6.0-1.157","SOBA","2","f","rechts","21","","","self","f","0","true"
"null","<div style=""font-size:60px;"">+</div>","null","html-keyboard-response","322","325013","0.0-6.0-0.158","SOBA","2","f","rechts","21","","fixation","","","",""
"897","img/L60_180.png","70","image-keyboard-response","323","325920","0.0-6.0-1.158","SOBA","2","f","rechts","21","","","self","f","60","true"
"null","<div style=""font-size:60px;"">+</div>","null","html-keyboard-response","324","326279","0.0-6.0-0.159","SOBA","2","f","rechts","21","","fixation","","","",""
"2041","img/30_120.png","74","image-keyboard-response","325","328333","0.0-6.0-1.159","SOBA","2","f","rechts","21","","","self","j","30","true"
"null","<div style=""font-size:60px;"">+</div>","null","html-keyboard-response","326","328641","0.0-6.0-0.160","SOBA","2","f","rechts","21","","fixation","","","",""
"1201","img/90_330.png","70","image-keyboard-response","327","329847","0.0-6.0-1.160","SOBA","2","f","rechts","21","","","self","f","90","true"
"null","<div style=""font-size:60px;"">+</div>","null","html-keyboard-response","328","330361","0.0-6.0-0.161","SOBA","2","f","rechts","21","","fixation","","","",""
"1240","img/60_90.png","74","image-keyboard-response","329","331611","0.0-6.0-1.161","SOBA","2","f","rechts","21","","","self","j","60","true"
"null","<div style=""font-size:60px;"">+</div>","null","html-keyboard-response","330","331985","0.0-6.0-0.162","SOBA","2","f","rechts","21","","fixation","","","",""
"1566","img/120_270.png","74","image-keyboard-response","331","333558","0.0-6.0-1.162","SOBA","2","f","rechts","21","","","self","j","120","true"
"null","<div style=""font-size:60px;"">+</div>","null","html-keyboard-response","332","334033","0.0-6.0-0.163","SOBA","2","f","rechts","21","","fixation","","","",""
"1349","img/L120_180.png","70","image-keyboard-response","333","335391","0.0-6.0-1.163","SOBA","2","f","rechts","21","","","self","f","120","true"
"null","<div style=""font-size:60px;"">+</div>","null","html-keyboard-response","334","335845","0.0-6.0-0.164","SOBA","2","f","rechts","21","","fixation","","","",""
"1325","img/90_180.png","74","image-keyboard-response","335","337180","0.0-6.0-1.164","SOBA","2","f","rechts","21","","","self","j","90","true"
"null","<div style=""font-size:60px;"">+</div>","null","html-keyboard-response","336","337487","0.0-6.0-0.165","SOBA","2","f","rechts","21","","fixation","","","",""
"910","img/150_120.png","70","image-keyboard-response","337","338408","0.0-6.0-1.165","SOBA","2","f","rechts","21","","","self","f","150","true"
"null","<div style=""font-size:60px;"">+</div>","null","html-keyboard-response","338","338815","0.0-6.0-0.166","SOBA","2","f","rechts","21","","fixation","","","",""
"1461","img/90_60.png","74","image-keyboard-response","339","340287","0.0-6.0-1.166","SOBA","2","f","rechts","21","","","self","j","90","true"
"null","<div style=""font-size:60px;"">+</div>","null","html-keyboard-response","340","340700","0.0-6.0-0.167","SOBA","2","f","rechts","21","","fixation","","","",""
"1346","img/120_210.png","74","image-keyboard-response","341","342051","0.0-6.0-1.167","SOBA","2","f","rechts","21","","","self","j","120","true"
"null","<div style=""font-size:60px;"">+</div>","null","html-keyboard-response","342","342576","0.0-6.0-0.168","SOBA","2","f","rechts","21","","fixation","","","",""
"2458","img/60_270.png","70","image-keyboard-response","343","345039","0.0-6.0-1.168","SOBA","2","f","rechts","21","","","self","f","60","true"
"null","<div style=""font-size:60px;"">+</div>","null","html-keyboard-response","344","345550","0.0-6.0-0.169","SOBA","2","f","rechts","21","","fixation","","","",""
"1081","img/60_150.png","70","image-keyboard-response","345","346641","0.0-6.0-1.169","SOBA","2","f","rechts","21","","","self","f","60","true"
"null","<div style=""font-size:60px;"">+</div>","null","html-keyboard-response","346","346972","0.0-6.0-0.170","SOBA","2","f","rechts","21","","fixation","","","",""
"1323","img/90_300.png","70","image-keyboard-response","347","348308","0.0-6.0-1.170","SOBA","2","f","rechts","21","","","self","f","90","true"
"null","<div style=""font-size:60px;"">+</div>","null","html-keyboard-response","348","348674","0.0-6.0-0.171","SOBA","2","f","rechts","21","","fixation","","","",""
"1201","img/L150_180.png","70","image-keyboard-response","349","349881","0.0-6.0-1.171","SOBA","2","f","rechts","21","","","self","f","150","true"
"null","<div style=""font-size:60px;"">+</div>","null","html-keyboard-response","350","350253","0.0-6.0-0.172","SOBA","2","f","rechts","21","","fixation","","","",""
"1027","img/60_210.png","74","image-keyboard-response","351","351289","0.0-6.0-1.172","SOBA","2","f","rechts","21","","","self","j","60","true"
"null","<div style=""font-size:60px;"">+</div>","null","html-keyboard-response","352","351659","0.0-6.0-0.173","SOBA","2","f","rechts","21","","fixation","","","",""
"918","img/L90_180.png","70","image-keyboard-response","353","352581","0.0-6.0-1.173","SOBA","2","f","rechts","21","","","self","f","90","true"
"null","<div style=""font-size:60px;"">+</div>","null","html-keyboard-response","354","352990","0.0-6.0-0.174","SOBA","2","f","rechts","21","","fixation","","","",""
"912","img/30_180.png","74","image-keyboard-response","355","353912","0.0-6.0-1.174","SOBA","2","f","rechts","21","","","self","j","30","true"
"null","<div style=""font-size:60px;"">+</div>","null","html-keyboard-response","356","354318","0.0-6.0-0.175","SOBA","2","f","rechts","21","","fixation","","","",""
"1098","img/90_240.png","74","image-keyboard-response","357","355429","0.0-6.0-1.175","SOBA","2","f","rechts","21","","","self","j","90","true"
"null","<div style=""font-size:60px;"">+</div>","null","html-keyboard-response","358","355897","0.0-6.0-0.176","SOBA","2","f","rechts","21","","fixation","","","",""
"1669","img/150_300.png","74","image-keyboard-response","359","357579","0.0-6.0-1.176","SOBA","2","f","rechts","21","","","self","j","150","true"
"null","<div style=""font-size:60px;"">+</div>","null","html-keyboard-response","360","357960","0.0-6.0-0.177","SOBA","2","f","rechts","21","","fixation","","","",""
"846","img/0_300.png","70","image-keyboard-response","361","358815","0.0-6.0-1.177","SOBA","2","f","rechts","21","","","self","f","0","true"
"null","<div style=""font-size:60px;"">+</div>","null","html-keyboard-response","362","359239","0.0-6.0-0.178","SOBA","2","f","rechts","21","","fixation","","","",""
"723","img/0_120.png","74","image-keyboard-response","363","359973","0.0-6.0-1.178","SOBA","2","f","rechts","21","","","self","j","0","true"
"null","<div style=""font-size:60px;"">+</div>","null","html-keyboard-response","364","360286","0.0-6.0-0.179","SOBA","2","f","rechts","21","","fixation","","","",""
"1678","img/30_60.png","74","image-keyboard-response","365","361977","0.0-6.0-1.179","SOBA","2","f","rechts","21","","","self","j","30","true"
"null","<div style=""font-size:60px;"">+</div>","null","html-keyboard-response","366","362398","0.0-6.0-0.180","SOBA","2","f","rechts","21","","fixation","","","",""
"869","img/0_240.png","70","image-keyboard-response","367","363281","0.0-6.0-1.180","SOBA","2","f","rechts","21","","","self","f","0","true"
"null","<div style=""font-size:60px;"">+</div>","null","html-keyboard-response","368","363599","0.0-6.0-0.181","SOBA","2","f","rechts","21","","fixation","","","",""
"1601","img/120_30.png","74","image-keyboard-response","369","365206","0.0-6.0-1.181","SOBA","2","f","rechts","21","","","self","j","120","true"
"null","<div style=""font-size:60px;"">+</div>","null","html-keyboard-response","370","365710","0.0-6.0-0.182","SOBA","2","f","rechts","21","","fixation","","","",""
"699","img/0_150.png","74","image-keyboard-response","371","366420","0.0-6.0-1.182","SOBA","2","f","rechts","21","","","self","j","0","true"
"null","<div style=""font-size:60px;"">+</div>","null","html-keyboard-response","372","366836","0.0-6.0-0.183","SOBA","2","f","rechts","21","","fixation","","","",""
"909","img/0_90.png","74","image-keyboard-response","373","367758","0.0-6.0-1.183","SOBA","2","f","rechts","21","","","self","j","0","true"
"null","<div style=""font-size:60px;"">+</div>","null","html-keyboard-response","374","368179","0.0-6.0-0.184","SOBA","2","f","rechts","21","","fixation","","","",""
"1558","img/120_150.png","70","image-keyboard-response","375","369750","0.0-6.0-1.184","SOBA","2","f","rechts","21","","","self","f","120","true"
"null","<div style=""font-size:60px;"">+</div>","null","html-keyboard-response","376","370225","0.0-6.0-0.185","SOBA","2","f","rechts","21","","fixation","","","",""
"873","img/150_180.png","74","image-keyboard-response","377","371112","0.0-6.0-1.185","SOBA","2","f","rechts","21","","","self","j","150","true"
"null","<div style=""font-size:60px;"">+</div>","null","html-keyboard-response","378","371569","0.0-6.0-0.186","SOBA","2","f","rechts","21","","fixation","","","",""
"855","img/90_150.png","70","image-keyboard-response","379","372440","0.0-6.0-1.186","SOBA","2","f","rechts","21","","","self","f","90","true"
"null","<div style=""font-size:60px;"">+</div>","null","html-keyboard-response","380","372946","0.0-6.0-0.187","SOBA","2","f","rechts","21","","fixation","","","",""
"1133","img/30_270.png","70","image-keyboard-response","381","374093","0.0-6.0-1.187","SOBA","2","f","rechts","21","","","self","f","30","true"
"null","<div style=""font-size:60px;"">+</div>","null","html-keyboard-response","382","374418","0.0-6.0-0.188","SOBA","2","f","rechts","21","","fixation","","","",""
"797","img/0_270.png","70","image-keyboard-response","383","375229","0.0-6.0-1.188","SOBA","2","f","rechts","21","","","self","f","0","true"
"null","<div style=""font-size:60px;"">+</div>","null","html-keyboard-response","384","375746","0.0-6.0-0.189","SOBA","2","f","rechts","21","","fixation","","","",""
"687","img/0_30.png","74","image-keyboard-response","385","376444","0.0-6.0-1.189","SOBA","2","f","rechts","21","","","self","j","0","true"
"null","<div style=""font-size:60px;"">+</div>","null","html-keyboard-response","386","376856","0.0-6.0-0.190","SOBA","2","f","rechts","21","","fixation","","","",""
"937","img/90_120.png","70","image-keyboard-response","387","377806","0.0-6.0-1.190","SOBA","2","f","rechts","21","","","self","f","90","true"
"null","<div style=""font-size:60px;"">+</div>","null","html-keyboard-response","388","378121","0.0-6.0-0.191","SOBA","2","f","rechts","21","","fixation","","","",""
"1313","img/60_30.png","74","image-keyboard-response","389","379448","0.0-6.0-1.191","SOBA","2","f","rechts","21","","","self","j","60","true"
"null","<div style=""font-size:60px;"">+</div>","null","html-keyboard-response","390","379825","0.0-6.0-0.192","SOBA","2","f","rechts","21","","fixation","","","",""
"738","img/0_210.png","70","image-keyboard-response","391","380574","0.0-6.0-1.192","SOBA","2","f","rechts","21","","","self","f","0","true"
"null","<div style=""font-size:60px;"">+</div>","null","html-keyboard-response","392","380981","0.0-6.0-0.193","SOBA","2","f","rechts","21","","fixation","","","",""
"1187","img/150_90.png","70","image-keyboard-response","393","382182","0.0-6.0-1.193","SOBA","2","f","rechts","21","","","self","f","150","true"
"null","<div style=""font-size:60px;"">+</div>","null","html-keyboard-response","394","382607","0.0-6.0-0.194","SOBA","2","f","rechts","21","","fixation","","","",""
"1376","img/150_270.png","74","image-keyboard-response","395","383993","0.0-6.0-1.194","SOBA","2","f","rechts","21","","","self","j","150","true"
"null","<div style=""font-size:60px;"">+</div>","null","html-keyboard-response","396","384404","0.0-6.0-0.195","SOBA","2","f","rechts","21","","fixation","","","",""
"906","img/30_300.png","70","image-keyboard-response","397","385321","0.0-6.0-1.195","SOBA","2","f","rechts","21","","","self","f","30","true"
"null","<div style=""font-size:60px;"">+</div>","null","html-keyboard-response","398","385780","0.0-6.0-0.196","SOBA","2","f","rechts","21","","fixation","","","",""
"1025","img/60_330.png","70","image-keyboard-response","399","386818","0.0-6.0-1.196","SOBA","2","f","rechts","21","","","self","f","60","true"
"null","<div style=""font-size:60px;"">+</div>","null","html-keyboard-response","400","387233","0.0-6.0-0.197","SOBA","2","f","rechts","21","","fixation","","","",""
"1236","img/120_90.png","70","image-keyboard-response","401","388482","0.0-6.0-1.197","SOBA","2","f","rechts","21","","","self","f","120","true"
"null","<div style=""font-size:60px;"">+</div>","null","html-keyboard-response","402","388888","0.0-6.0-0.198","SOBA","2","f","rechts","21","","fixation","","","",""
"805","img/0_60.png","74","image-keyboard-response","403","389706","0.0-6.0-1.198","SOBA","2","f","rechts","21","","","self","j","0","true"
"null","<div style=""font-size:60px;"">+</div>","null","html-keyboard-response","404","390232","0.0-6.0-0.199","SOBA","2","f","rechts","21","","fixation","","","",""
"1217","img/90_30.png","74","image-keyboard-response","405","391461","0.0-6.0-1.199","SOBA","2","f","rechts","21","","","self","j","90","true"
"null","<div style=""font-size:60px;"">+</div>","null","html-keyboard-response","406","391967","0.0-6.0-0.200","SOBA","2","f","rechts","21","","fixation","","","",""
"1136","img/30_90.png","74","image-keyboard-response","407","393118","0.0-6.0-1.200","SOBA","2","f","rechts","21","","","self","j","30","true"
"null","<div style=""font-size:60px;"">+</div>","null","html-keyboard-response","408","393576","0.0-6.0-0.201","SOBA","2","f","rechts","21","","fixation","","","",""
"1046","img/90_210.png","74","image-keyboard-response","409","394635","0.0-6.0-1.201","SOBA","2","f","rechts","21","","","self","j","90","true"
"null","<div style=""font-size:60px;"">+</div>","null","html-keyboard-response","410","395044","0.0-6.0-0.202","SOBA","2","f","rechts","21","","fixation","","","",""
"916","img/150_60.png","70","image-keyboard-response","411","395975","0.0-6.0-1.202","SOBA","2","f","rechts","21","","","self","f","150","true"
"null","<div style=""font-size:60px;"">+</div>","null","html-keyboard-response","412","396482","0.0-6.0-0.203","SOBA","2","f","rechts","21","","fixation","","","",""
"853","img/30_240.png","74","image-keyboard-response","413","397347","0.0-6.0-1.203","SOBA","2","f","rechts","21","","","self","f","30","false"
"null","<div style=""font-size:60px;"">+</div>","null","html-keyboard-response","414","397764","0.0-6.0-0.204","SOBA","2","f","rechts","21","","fixation","","","",""
"1646","img/L30_180.png","70","image-keyboard-response","415","399417","0.0-6.0-1.204","SOBA","2","f","rechts","21","","","self","f","30","true"
"null","<div style=""font-size:60px;"">+</div>","null","html-keyboard-response","416","399874","0.0-6.0-0.205","SOBA","2","f","rechts","21","","fixation","","","",""
"1363","img/120_180.png","74","image-keyboard-response","417","401251","0.0-6.0-1.205","SOBA","2","f","rechts","21","","","self","j","120","true"
"null","<div style=""font-size:60px;"">+</div>","null","html-keyboard-response","418","401562","0.0-6.0-0.206","SOBA","2","f","rechts","21","","fixation","","","",""
"957","img/150_240.png","74","image-keyboard-response","419","402533","0.0-6.0-1.206","SOBA","2","f","rechts","21","","","self","j","150","true"
"null","<div style=""font-size:60px;"">+</div>","null","html-keyboard-response","420","402984","0.0-6.0-0.207","SOBA","2","f","rechts","21","","fixation","","","",""
"1630","img/120_330.png","74","image-keyboard-response","421","404627","0.0-6.0-1.207","SOBA","2","f","rechts","21","","","self","f","120","false"
"14688","<p>Du hast in 94% der Versuche korrekt entschieden.</p><p>Deine durchschnittliche Reaktionszeit war  1163ms.</p><p>Dr&uuml;cke eine beliebige Taste, um die Session zu beenden. Vielen Dank!</p>","32","html-keyboard-response","422","419324","0.0-7.0","SOBA","2","f","rechts","21","","","","","",""
