"rt","stimulus","key_press","trial_type","trial_index","time_elapsed","internal_node_id","subject","session","sex","handedness","age","responses","test_part","condition","correct_response","angle","correct"
"1135","<p>Mental Rotation Experiment.</p> <p>Dr&uuml;cke eine beliebige Taste, um anzufangen.</p>","13","html-keyboard-response","0","1155","0.0-0.0","SOBA","1","f","rechts","21","","","","","",""
"3484","","","survey-text","1","4641","0.0-1.0","SOBA","1","f","rechts","21","{""Q0"":""SOBA""}","","","","",""
"2589","","","survey-text","2","7232","0.0-2.0","SOBA","1","f","rechts","21","{""Q0"":""1""}","","","","",""
"5752","","","survey-multi-choice","3","12992","0.0-3.0","SOBA","1","f","rechts","21","{""Q0"":""f"",""Q1"":""rechts""}","","","","",""
"3015","","","survey-text","4","16007","0.0-4.0","SOBA","1","f","rechts","21","{""Q0"":""21""}","","","","",""
"34844","<p> Stell dir vor, dass du vor einem runden Tisch stehst, auf dem sich ein blauer Ball am Tischrand befindet. Entlang des Tischrands ist jeweils ein verschieden langer Pfeil. Nun bewegst du dich entlang dieses Pfeils bis an seine Spitze. Wenn du am Ende des Pfeils angekommen bist, schau zur Tischmitte. </p> <img src='img/90_180.png'></img> <br> <p>Entscheide dann, ob der Ball von deiner neuen (vorgestellten) Position links oder rechts von dir liegt.</p> <p>Dr&uuml;cke die <strong>'f'</strong>-Taste f&uuml;r links, die <strong>'j'</strong>-Taste f&uuml;r rechts.</p> <br><p> Das Bild wird jeweils 1 Sekunde lang pr&auml;sentiert. Du hast 3 Sekunden Zeit eine Entscheidung zu treffen.</p>","32","html-keyboard-response","5","50859","0.0-5.0","SOBA","1","f","rechts","21","","","","","",""
"null","<div style=""font-size:60px;"">+</div>","null","html-keyboard-response","6","52243","0.0-6.0-0.0","SOBA","1","f","rechts","21","","fixation","","","",""
"2438","img/30_270.png","70","image-keyboard-response","7","54702","0.0-6.0-1.0","SOBA","1","f","rechts","21","","","self","f","30","true"
"null","<div style=""font-size:60px;"">+</div>","null","html-keyboard-response","8","55152","0.0-6.0-0.1","SOBA","1","f","rechts","21","","fixation","","","",""
"2380","img/150_120.png","70","image-keyboard-response","9","57549","0.0-6.0-1.1","SOBA","1","f","rechts","21","","","self","f","150","true"
"null","<div style=""font-size:60px;"">+</div>","null","html-keyboard-response","10","58015","0.0-6.0-0.2","SOBA","1","f","rechts","21","","fixation","","","",""
"2281","img/30_240.png","70","image-keyboard-response","11","60316","0.0-6.0-1.2","SOBA","1","f","rechts","21","","","self","f","30","true"
"null","<div style=""font-size:60px;"">+</div>","null","html-keyboard-response","12","60688","0.0-6.0-0.3","SOBA","1","f","rechts","21","","fixation","","","",""
"1563","img/30_60.png","74","image-keyboard-response","13","62269","0.0-6.0-1.3","SOBA","1","f","rechts","21","","","self","j","30","true"
"null","<div style=""font-size:60px;"">+</div>","null","html-keyboard-response","14","62778","0.0-6.0-0.4","SOBA","1","f","rechts","21","","fixation","","","",""
"1048","img/0_330.png","70","image-keyboard-response","15","63845","0.0-6.0-1.4","SOBA","1","f","rechts","21","","","self","f","0","true"
"null","<div style=""font-size:60px;"">+</div>","null","html-keyboard-response","16","64309","0.0-6.0-0.5","SOBA","1","f","rechts","21","","fixation","","","",""
"1858","img/90_60.png","74","image-keyboard-response","17","66186","0.0-6.0-1.5","SOBA","1","f","rechts","21","","","self","j","90","true"
"null","<div style=""font-size:60px;"">+</div>","null","html-keyboard-response","18","66700","0.0-6.0-0.6","SOBA","1","f","rechts","21","","fixation","","","",""
"1389","img/60_90.png","74","image-keyboard-response","19","68109","0.0-6.0-1.6","SOBA","1","f","rechts","21","","","self","j","60","true"
"null","<div style=""font-size:60px;"">+</div>","null","html-keyboard-response","20","68575","0.0-6.0-0.7","SOBA","1","f","rechts","21","","fixation","","","",""
"1734","img/60_30.png","74","image-keyboard-response","21","70326","0.0-6.0-1.7","SOBA","1","f","rechts","21","","","self","j","60","true"
"null","<div style=""font-size:60px;"">+</div>","null","html-keyboard-response","22","70730","0.0-6.0-0.8","SOBA","1","f","rechts","21","","fixation","","","",""
"1721","img/L120_180.png","70","image-keyboard-response","23","72472","0.0-6.0-1.8","SOBA","1","f","rechts","21","","","self","f","120","true"
"null","<div style=""font-size:60px;"">+</div>","null","html-keyboard-response","24","72890","0.0-6.0-0.9","SOBA","1","f","rechts","21","","fixation","","","",""
"1421","img/90_120.png","70","image-keyboard-response","25","74330","0.0-6.0-1.9","SOBA","1","f","rechts","21","","","self","f","90","true"
"null","<div style=""font-size:60px;"">+</div>","null","html-keyboard-response","26","74841","0.0-6.0-0.10","SOBA","1","f","rechts","21","","fixation","","","",""
"1446","img/90_180.png","74","image-keyboard-response","27","76300","0.0-6.0-1.10","SOBA","1","f","rechts","21","","","self","j","90","true"
"null","<div style=""font-size:60px;"">+</div>","null","html-keyboard-response","28","76831","0.0-6.0-0.11","SOBA","1","f","rechts","21","","fixation","","","",""
"969","img/0_300.png","70","image-keyboard-response","29","77817","0.0-6.0-1.11","SOBA","1","f","rechts","21","","","self","f","0","true"
"null","<div style=""font-size:60px;"">+</div>","null","html-keyboard-response","30","78128","0.0-6.0-0.12","SOBA","1","f","rechts","21","","fixation","","","",""
"1258","img/60_180.png","74","image-keyboard-response","31","79403","0.0-6.0-1.12","SOBA","1","f","rechts","21","","","self","j","60","true"
"null","<div style=""font-size:60px;"">+</div>","null","html-keyboard-response","32","79909","0.0-6.0-0.13","SOBA","1","f","rechts","21","","fixation","","","",""
"1513","img/30_90.png","74","image-keyboard-response","33","81438","0.0-6.0-1.13","SOBA","1","f","rechts","21","","","self","j","30","true"
"null","<div style=""font-size:60px;"">+</div>","null","html-keyboard-response","34","81911","0.0-6.0-0.14","SOBA","1","f","rechts","21","","fixation","","","",""
"1838","img/60_150.png","70","image-keyboard-response","35","83769","0.0-6.0-1.14","SOBA","1","f","rechts","21","","","self","f","60","true"
"null","<div style=""font-size:60px;"">+</div>","null","html-keyboard-response","36","84301","0.0-6.0-0.15","SOBA","1","f","rechts","21","","fixation","","","",""
"1561","img/0_210.png","70","image-keyboard-response","37","85882","0.0-6.0-1.15","SOBA","1","f","rechts","21","","","self","f","0","true"
"null","<div style=""font-size:60px;"">+</div>","null","html-keyboard-response","38","86301","0.0-6.0-0.16","SOBA","1","f","rechts","21","","fixation","","","",""
"1488","img/60_330.png","70","image-keyboard-response","39","87808","0.0-6.0-1.16","SOBA","1","f","rechts","21","","","self","f","60","true"
"null","<div style=""font-size:60px;"">+</div>","null","html-keyboard-response","40","88270","0.0-6.0-0.17","SOBA","1","f","rechts","21","","fixation","","","",""
"2641","img/L30_180.png","74","image-keyboard-response","41","90928","0.0-6.0-1.17","SOBA","1","f","rechts","21","","","self","f","30","false"
"null","<div style=""font-size:60px;"">+</div>","null","html-keyboard-response","42","91393","0.0-6.0-0.18","SOBA","1","f","rechts","21","","fixation","","","",""
"2777","img/90_30.png","74","image-keyboard-response","43","94180","0.0-6.0-1.18","SOBA","1","f","rechts","21","","","self","j","90","true"
"null","<div style=""font-size:60px;"">+</div>","null","html-keyboard-response","44","94582","0.0-6.0-0.19","SOBA","1","f","rechts","21","","fixation","","","",""
"2097","img/150_300.png","74","image-keyboard-response","45","96696","0.0-6.0-1.19","SOBA","1","f","rechts","21","","","self","j","150","true"
"null","<div style=""font-size:60px;"">+</div>","null","html-keyboard-response","46","97008","0.0-6.0-0.20","SOBA","1","f","rechts","21","","fixation","","","",""
"1411","img/L60_180.png","70","image-keyboard-response","47","98437","0.0-6.0-1.20","SOBA","1","f","rechts","21","","","self","f","60","true"
"null","<div style=""font-size:60px;"">+</div>","null","html-keyboard-response","48","98961","0.0-6.0-0.21","SOBA","1","f","rechts","21","","fixation","","","",""
"1451","img/120_150.png","70","image-keyboard-response","49","100429","0.0-6.0-1.21","SOBA","1","f","rechts","21","","","self","f","120","true"
"null","<div style=""font-size:60px;"">+</div>","null","html-keyboard-response","50","100930","0.0-6.0-0.22","SOBA","1","f","rechts","21","","fixation","","","",""
"1835","img/120_330.png","70","image-keyboard-response","51","102782","0.0-6.0-1.22","SOBA","1","f","rechts","21","","","self","f","120","true"
"null","<div style=""font-size:60px;"">+</div>","null","html-keyboard-response","52","103164","0.0-6.0-0.23","SOBA","1","f","rechts","21","","fixation","","","",""
"2968","img/120_90.png","70","image-keyboard-response","53","106150","0.0-6.0-1.23","SOBA","1","f","rechts","21","","","self","f","120","true"
"null","<div style=""font-size:60px;"">+</div>","null","html-keyboard-response","54","106600","0.0-6.0-0.24","SOBA","1","f","rechts","21","","fixation","","","",""
"2085","img/150_270.png","74","image-keyboard-response","55","108702","0.0-6.0-1.24","SOBA","1","f","rechts","21","","","self","j","150","true"
"null","<div style=""font-size:60px;"">+</div>","null","html-keyboard-response","56","109029","0.0-6.0-0.25","SOBA","1","f","rechts","21","","fixation","","","",""
"1734","img/0_60.png","74","image-keyboard-response","57","110780","0.0-6.0-1.25","SOBA","1","f","rechts","21","","","self","j","0","true"
"null","<div style=""font-size:60px;"">+</div>","null","html-keyboard-response","58","111261","0.0-6.0-0.26","SOBA","1","f","rechts","21","","fixation","","","",""
"1651","img/60_270.png","70","image-keyboard-response","59","112930","0.0-6.0-1.26","SOBA","1","f","rechts","21","","","self","f","60","true"
"null","<div style=""font-size:60px;"">+</div>","null","html-keyboard-response","60","113386","0.0-6.0-0.27","SOBA","1","f","rechts","21","","fixation","","","",""
"1416","img/0_120.png","74","image-keyboard-response","61","114819","0.0-6.0-1.27","SOBA","1","f","rechts","21","","","self","j","0","true"
"null","<div style=""font-size:60px;"">+</div>","null","html-keyboard-response","62","115244","0.0-6.0-0.28","SOBA","1","f","rechts","21","","fixation","","","",""
"1751","img/90_330.png","70","image-keyboard-response","63","117014","0.0-6.0-1.28","SOBA","1","f","rechts","21","","","self","f","90","true"
"null","<div style=""font-size:60px;"">+</div>","null","html-keyboard-response","64","117324","0.0-6.0-0.29","SOBA","1","f","rechts","21","","fixation","","","",""
"1787","img/30_180.png","74","image-keyboard-response","65","119129","0.0-6.0-1.29","SOBA","1","f","rechts","21","","","self","j","30","true"
"null","<div style=""font-size:60px;"">+</div>","null","html-keyboard-response","66","119636","0.0-6.0-0.30","SOBA","1","f","rechts","21","","fixation","","","",""
"1692","img/30_120.png","74","image-keyboard-response","67","121345","0.0-6.0-1.30","SOBA","1","f","rechts","21","","","self","j","30","true"
"null","<div style=""font-size:60px;"">+</div>","null","html-keyboard-response","68","121747","0.0-6.0-0.31","SOBA","1","f","rechts","21","","fixation","","","",""
"1640","img/30_300.png","70","image-keyboard-response","69","123404","0.0-6.0-1.31","SOBA","1","f","rechts","21","","","self","f","30","true"
"null","<div style=""font-size:60px;"">+</div>","null","html-keyboard-response","70","123934","0.0-6.0-0.32","SOBA","1","f","rechts","21","","fixation","","","",""
"1507","img/150_240.png","74","image-keyboard-response","71","125461","0.0-6.0-1.32","SOBA","1","f","rechts","21","","","self","j","150","true"
"null","<div style=""font-size:60px;"">+</div>","null","html-keyboard-response","72","125825","0.0-6.0-0.33","SOBA","1","f","rechts","21","","fixation","","","",""
"1431","img/0_240.png","70","image-keyboard-response","73","127272","0.0-6.0-1.33","SOBA","1","f","rechts","21","","","self","f","0","true"
"null","<div style=""font-size:60px;"">+</div>","null","html-keyboard-response","74","127730","0.0-6.0-0.34","SOBA","1","f","rechts","21","","fixation","","","",""
"1641","img/150_90.png","70","image-keyboard-response","75","129390","0.0-6.0-1.34","SOBA","1","f","rechts","21","","","self","f","150","true"
"null","<div style=""font-size:60px;"">+</div>","null","html-keyboard-response","76","129809","0.0-6.0-0.35","SOBA","1","f","rechts","21","","fixation","","","",""
"878","img/0_30.png","74","image-keyboard-response","77","130705","0.0-6.0-1.35","SOBA","1","f","rechts","21","","","self","j","0","true"
"null","<div style=""font-size:60px;"">+</div>","null","html-keyboard-response","78","131108","0.0-6.0-0.36","SOBA","1","f","rechts","21","","fixation","","","",""
"1537","img/120_270.png","74","image-keyboard-response","79","132662","0.0-6.0-1.36","SOBA","1","f","rechts","21","","","self","j","120","true"
"null","<div style=""font-size:60px;"">+</div>","null","html-keyboard-response","80","133186","0.0-6.0-0.37","SOBA","1","f","rechts","21","","fixation","","","",""
"1455","img/120_180.png","74","image-keyboard-response","81","134661","0.0-6.0-1.37","SOBA","1","f","rechts","21","","","self","j","120","true"
"null","<div style=""font-size:60px;"">+</div>","null","html-keyboard-response","82","135013","0.0-6.0-0.38","SOBA","1","f","rechts","21","","fixation","","","",""
"1432","img/120_210.png","74","image-keyboard-response","83","136462","0.0-6.0-1.38","SOBA","1","f","rechts","21","","","self","j","120","true"
"null","<div style=""font-size:60px;"">+</div>","null","html-keyboard-response","84","136889","0.0-6.0-0.39","SOBA","1","f","rechts","21","","fixation","","","",""
"1993","img/120_30.png","70","image-keyboard-response","85","138900","0.0-6.0-1.39","SOBA","1","f","rechts","21","","","self","j","120","false"
"null","<div style=""font-size:60px;"">+</div>","null","html-keyboard-response","86","139381","0.0-6.0-0.40","SOBA","1","f","rechts","21","","fixation","","","",""
"1026","img/0_270.png","70","image-keyboard-response","87","140425","0.0-6.0-1.40","SOBA","1","f","rechts","21","","","self","f","0","true"
"null","<div style=""font-size:60px;"">+</div>","null","html-keyboard-response","88","140881","0.0-6.0-0.41","SOBA","1","f","rechts","21","","fixation","","","",""
"2826","img/L90_180.png","70","image-keyboard-response","89","143724","0.0-6.0-1.41","SOBA","1","f","rechts","21","","","self","f","90","true"
"null","<div style=""font-size:60px;"">+</div>","null","html-keyboard-response","90","144033","0.0-6.0-0.42","SOBA","1","f","rechts","21","","fixation","","","",""
"1549","img/150_180.png","74","image-keyboard-response","91","145600","0.0-6.0-1.42","SOBA","1","f","rechts","21","","","self","j","150","true"
"null","<div style=""font-size:60px;"">+</div>","null","html-keyboard-response","92","146054","0.0-6.0-0.43","SOBA","1","f","rechts","21","","fixation","","","",""
"null","img/60_210.png","null","image-keyboard-response","93","149086","0.0-6.0-1.43","SOBA","1","f","rechts","21","","","self","j","60","false"
"null","<div style=""font-size:60px;"">+</div>","null","html-keyboard-response","94","149411","0.0-6.0-0.44","SOBA","1","f","rechts","21","","fixation","","","",""
"2755","img/90_150.png","70","image-keyboard-response","95","152186","0.0-6.0-1.44","SOBA","1","f","rechts","21","","","self","f","90","true"
"null","<div style=""font-size:60px;"">+</div>","null","html-keyboard-response","96","152509","0.0-6.0-0.45","SOBA","1","f","rechts","21","","fixation","","","",""
"1677","img/150_60.png","70","image-keyboard-response","97","154195","0.0-6.0-1.45","SOBA","1","f","rechts","21","","","self","f","150","true"
"null","<div style=""font-size:60px;"">+</div>","null","html-keyboard-response","98","154556","0.0-6.0-0.46","SOBA","1","f","rechts","21","","fixation","","","",""
"1701","img/90_240.png","74","image-keyboard-response","99","156264","0.0-6.0-1.46","SOBA","1","f","rechts","21","","","self","j","90","true"
"null","<div style=""font-size:60px;"">+</div>","null","html-keyboard-response","100","156665","0.0-6.0-0.47","SOBA","1","f","rechts","21","","fixation","","","",""
"1662","img/90_210.png","74","image-keyboard-response","101","158335","0.0-6.0-1.47","SOBA","1","f","rechts","21","","","self","j","90","true"
"null","<div style=""font-size:60px;"">+</div>","null","html-keyboard-response","102","158791","0.0-6.0-0.48","SOBA","1","f","rechts","21","","fixation","","","",""
"2227","img/L150_180.png","70","image-keyboard-response","103","161039","0.0-6.0-1.48","SOBA","1","f","rechts","21","","","self","f","150","true"
"null","<div style=""font-size:60px;"">+</div>","null","html-keyboard-response","104","161410","0.0-6.0-0.49","SOBA","1","f","rechts","21","","fixation","","","",""
"1402","img/0_90.png","74","image-keyboard-response","105","162835","0.0-6.0-1.49","SOBA","1","f","rechts","21","","","self","j","0","true"
"null","<div style=""font-size:60px;"">+</div>","null","html-keyboard-response","106","163302","0.0-6.0-0.50","SOBA","1","f","rechts","21","","fixation","","","",""
"1687","img/90_300.png","70","image-keyboard-response","107","165007","0.0-6.0-1.50","SOBA","1","f","rechts","21","","","self","f","90","true"
"null","<div style=""font-size:60px;"">+</div>","null","html-keyboard-response","108","165520","0.0-6.0-0.51","SOBA","1","f","rechts","21","","fixation","","","",""
"1043","img/0_150.png","74","image-keyboard-response","109","166568","0.0-6.0-1.51","SOBA","1","f","rechts","21","","","self","j","0","true"
"null","<div style=""font-size:60px;"">+</div>","null","html-keyboard-response","110","167044","0.0-6.0-0.52","SOBA","1","f","rechts","21","","fixation","","","",""
"1022","img/60_180.png","74","image-keyboard-response","111","168077","0.0-6.0-1.52","SOBA","1","f","rechts","21","","","self","j","60","true"
"null","<div style=""font-size:60px;"">+</div>","null","html-keyboard-response","112","168543","0.0-6.0-0.53","SOBA","1","f","rechts","21","","fixation","","","",""
"1803","img/120_330.png","70","image-keyboard-response","113","170351","0.0-6.0-1.53","SOBA","1","f","rechts","21","","","self","f","120","true"
"null","<div style=""font-size:60px;"">+</div>","null","html-keyboard-response","114","170668","0.0-6.0-0.54","SOBA","1","f","rechts","21","","fixation","","","",""
"1652","img/90_330.png","70","image-keyboard-response","115","172330","0.0-6.0-1.54","SOBA","1","f","rechts","21","","","self","f","90","true"
"null","<div style=""font-size:60px;"">+</div>","null","html-keyboard-response","116","172746","0.0-6.0-0.55","SOBA","1","f","rechts","21","","fixation","","","",""
"2424","img/60_270.png","70","image-keyboard-response","117","175180","0.0-6.0-1.55","SOBA","1","f","rechts","21","","","self","f","60","true"
"null","<div style=""font-size:60px;"">+</div>","null","html-keyboard-response","118","175590","0.0-6.0-0.56","SOBA","1","f","rechts","21","","fixation","","","",""
"2256","img/120_150.png","70","image-keyboard-response","119","177860","0.0-6.0-1.56","SOBA","1","f","rechts","21","","","self","f","120","true"
"null","<div style=""font-size:60px;"">+</div>","null","html-keyboard-response","120","178277","0.0-6.0-0.57","SOBA","1","f","rechts","21","","fixation","","","",""
"1457","img/30_180.png","74","image-keyboard-response","121","179743","0.0-6.0-1.57","SOBA","1","f","rechts","21","","","self","j","30","true"
"null","<div style=""font-size:60px;"">+</div>","null","html-keyboard-response","122","180199","0.0-6.0-0.58","SOBA","1","f","rechts","21","","fixation","","","",""
"2246","img/90_60.png","74","image-keyboard-response","123","182457","0.0-6.0-1.58","SOBA","1","f","rechts","21","","","self","j","90","true"
"null","<div style=""font-size:60px;"">+</div>","null","html-keyboard-response","124","182909","0.0-6.0-0.59","SOBA","1","f","rechts","21","","fixation","","","",""
"1067","img/0_240.png","70","image-keyboard-response","125","183985","0.0-6.0-1.59","SOBA","1","f","rechts","21","","","self","f","0","true"
"null","<div style=""font-size:60px;"">+</div>","null","html-keyboard-response","126","184409","0.0-6.0-0.60","SOBA","1","f","rechts","21","","fixation","","","",""
"1645","img/150_120.png","70","image-keyboard-response","127","186068","0.0-6.0-1.60","SOBA","1","f","rechts","21","","","self","f","150","true"
"null","<div style=""font-size:60px;"">+</div>","null","html-keyboard-response","128","186580","0.0-6.0-0.61","SOBA","1","f","rechts","21","","fixation","","","",""
"1678","img/L30_180.png","70","image-keyboard-response","129","188272","0.0-6.0-1.61","SOBA","1","f","rechts","21","","","self","f","30","true"
"null","<div style=""font-size:60px;"">+</div>","null","html-keyboard-response","130","188689","0.0-6.0-0.62","SOBA","1","f","rechts","21","","fixation","","","",""
"1541","img/150_180.png","74","image-keyboard-response","131","190240","0.0-6.0-1.62","SOBA","1","f","rechts","21","","","self","j","150","true"
"null","<div style=""font-size:60px;"">+</div>","null","html-keyboard-response","132","190642","0.0-6.0-0.63","SOBA","1","f","rechts","21","","fixation","","","",""
"1678","img/30_120.png","74","image-keyboard-response","133","192331","0.0-6.0-1.63","SOBA","1","f","rechts","21","","","self","j","30","true"
"null","<div style=""font-size:60px;"">+</div>","null","html-keyboard-response","134","192753","0.0-6.0-0.64","SOBA","1","f","rechts","21","","fixation","","","",""
"1378","img/30_90.png","74","image-keyboard-response","135","194145","0.0-6.0-1.64","SOBA","1","f","rechts","21","","","self","j","30","true"
"null","<div style=""font-size:60px;"">+</div>","null","html-keyboard-response","136","194597","0.0-6.0-0.65","SOBA","1","f","rechts","21","","fixation","","","",""
"1289","img/L120_180.png","70","image-keyboard-response","137","195899","0.0-6.0-1.65","SOBA","1","f","rechts","21","","","self","f","120","true"
"null","<div style=""font-size:60px;"">+</div>","null","html-keyboard-response","138","196316","0.0-6.0-0.66","SOBA","1","f","rechts","21","","fixation","","","",""
"822","img/0_150.png","74","image-keyboard-response","139","197148","0.0-6.0-1.66","SOBA","1","f","rechts","21","","","self","j","0","true"
"null","<div style=""font-size:60px;"">+</div>","null","html-keyboard-response","140","197565","0.0-6.0-0.67","SOBA","1","f","rechts","21","","fixation","","","",""
"1419","img/90_150.png","70","image-keyboard-response","141","198993","0.0-6.0-1.67","SOBA","1","f","rechts","21","","","self","f","90","true"
"null","<div style=""font-size:60px;"">+</div>","null","html-keyboard-response","142","199425","0.0-6.0-0.68","SOBA","1","f","rechts","21","","fixation","","","",""
"null","img/150_300.png","null","image-keyboard-response","143","202444","0.0-6.0-1.68","SOBA","1","f","rechts","21","","","self","j","150","false"
"null","<div style=""font-size:60px;"">+</div>","null","html-keyboard-response","144","202928","0.0-6.0-0.69","SOBA","1","f","rechts","21","","fixation","","","",""
"1620","img/120_90.png","70","image-keyboard-response","145","204560","0.0-6.0-1.69","SOBA","1","f","rechts","21","","","self","f","120","true"
"null","<div style=""font-size:60px;"">+</div>","null","html-keyboard-response","146","205037","0.0-6.0-0.70","SOBA","1","f","rechts","21","","fixation","","","",""
"1615","img/L60_180.png","70","image-keyboard-response","147","206664","0.0-6.0-1.70","SOBA","1","f","rechts","21","","","self","f","60","true"
"null","<div style=""font-size:60px;"">+</div>","null","html-keyboard-response","148","207084","0.0-6.0-0.71","SOBA","1","f","rechts","21","","fixation","","","",""
"1372","img/L150_180.png","70","image-keyboard-response","149","208465","0.0-6.0-1.71","SOBA","1","f","rechts","21","","","self","f","150","true"
"null","<div style=""font-size:60px;"">+</div>","null","html-keyboard-response","150","208771","0.0-6.0-0.72","SOBA","1","f","rechts","21","","fixation","","","",""
"828","img/0_120.png","74","image-keyboard-response","151","209612","0.0-6.0-1.72","SOBA","1","f","rechts","21","","","self","j","0","true"
"null","<div style=""font-size:60px;"">+</div>","null","html-keyboard-response","152","210032","0.0-6.0-0.73","SOBA","1","f","rechts","21","","fixation","","","",""
"2321","img/90_240.png","70","image-keyboard-response","153","212364","0.0-6.0-1.73","SOBA","1","f","rechts","21","","","self","j","90","false"
"null","<div style=""font-size:60px;"">+</div>","null","html-keyboard-response","154","212672","0.0-6.0-0.74","SOBA","1","f","rechts","21","","fixation","","","",""
"2378","img/60_330.png","70","image-keyboard-response","155","215063","0.0-6.0-1.74","SOBA","1","f","rechts","21","","","self","f","60","true"
"null","<div style=""font-size:60px;"">+</div>","null","html-keyboard-response","156","215465","0.0-6.0-0.75","SOBA","1","f","rechts","21","","fixation","","","",""
"1623","img/60_210.png","74","image-keyboard-response","157","217095","0.0-6.0-1.75","SOBA","1","f","rechts","21","","","self","j","60","true"
"null","<div style=""font-size:60px;"">+</div>","null","html-keyboard-response","158","217418","0.0-6.0-0.76","SOBA","1","f","rechts","21","","fixation","","","",""
"1583","img/90_30.png","74","image-keyboard-response","159","219018","0.0-6.0-1.76","SOBA","1","f","rechts","21","","","self","j","90","true"
"null","<div style=""font-size:60px;"">+</div>","null","html-keyboard-response","160","219527","0.0-6.0-0.77","SOBA","1","f","rechts","21","","fixation","","","",""
"1659","img/150_60.png","70","image-keyboard-response","161","221189","0.0-6.0-1.77","SOBA","1","f","rechts","21","","","self","f","150","true"
"null","<div style=""font-size:60px;"">+</div>","null","html-keyboard-response","162","221544","0.0-6.0-0.78","SOBA","1","f","rechts","21","","fixation","","","",""
"1725","img/L90_180.png","70","image-keyboard-response","163","223273","0.0-6.0-1.78","SOBA","1","f","rechts","21","","","self","f","90","true"
"null","<div style=""font-size:60px;"">+</div>","null","html-keyboard-response","164","223685","0.0-6.0-0.79","SOBA","1","f","rechts","21","","fixation","","","",""
"1159","img/90_120.png","70","image-keyboard-response","165","224857","0.0-6.0-1.79","SOBA","1","f","rechts","21","","","self","f","90","true"
"null","<div style=""font-size:60px;"">+</div>","null","html-keyboard-response","166","225310","0.0-6.0-0.80","SOBA","1","f","rechts","21","","fixation","","","",""
"1697","img/90_300.png","70","image-keyboard-response","167","227018","0.0-6.0-1.80","SOBA","1","f","rechts","21","","","self","f","90","true"
"null","<div style=""font-size:60px;"">+</div>","null","html-keyboard-response","168","227341","0.0-6.0-0.81","SOBA","1","f","rechts","21","","fixation","","","",""
"1788","img/150_270.png","74","image-keyboard-response","169","229143","0.0-6.0-1.81","SOBA","1","f","rechts","21","","","self","j","150","true"
"null","<div style=""font-size:60px;"">+</div>","null","html-keyboard-response","170","229544","0.0-6.0-0.82","SOBA","1","f","rechts","21","","fixation","","","",""
"1226","img/0_330.png","70","image-keyboard-response","171","230774","0.0-6.0-1.82","SOBA","1","f","rechts","21","","","self","f","0","true"
"null","<div style=""font-size:60px;"">+</div>","null","html-keyboard-response","172","231154","0.0-6.0-0.83","SOBA","1","f","rechts","21","","fixation","","","",""
"1974","img/120_180.png","70","image-keyboard-response","173","233138","0.0-6.0-1.83","SOBA","1","f","rechts","21","","","self","j","120","false"
"null","<div style=""font-size:60px;"">+</div>","null","html-keyboard-response","174","233450","0.0-6.0-0.84","SOBA","1","f","rechts","21","","fixation","","","",""
"2467","img/90_180.png","74","image-keyboard-response","175","235933","0.0-6.0-1.84","SOBA","1","f","rechts","21","","","self","j","90","true"
"null","<div style=""font-size:60px;"">+</div>","null","html-keyboard-response","176","236240","0.0-6.0-0.85","SOBA","1","f","rechts","21","","fixation","","","",""
"1666","img/120_30.png","74","image-keyboard-response","177","237917","0.0-6.0-1.85","SOBA","1","f","rechts","21","","","self","j","120","true"
"null","<div style=""font-size:60px;"">+</div>","null","html-keyboard-response","178","238318","0.0-6.0-0.86","SOBA","1","f","rechts","21","","fixation","","","",""
"1827","img/120_270.png","74","image-keyboard-response","179","240158","0.0-6.0-1.86","SOBA","1","f","rechts","21","","","self","j","120","true"
"null","<div style=""font-size:60px;"">+</div>","null","html-keyboard-response","180","240475","0.0-6.0-0.87","SOBA","1","f","rechts","21","","fixation","","","",""
"1548","img/90_210.png","74","image-keyboard-response","181","242034","0.0-6.0-1.87","SOBA","1","f","rechts","21","","","self","j","90","true"
"null","<div style=""font-size:60px;"">+</div>","null","html-keyboard-response","182","242412","0.0-6.0-0.88","SOBA","1","f","rechts","21","","fixation","","","",""
"1210","img/0_90.png","74","image-keyboard-response","183","243634","0.0-6.0-1.88","SOBA","1","f","rechts","21","","","self","j","0","true"
"null","<div style=""font-size:60px;"">+</div>","null","html-keyboard-response","184","243987","0.0-6.0-0.89","SOBA","1","f","rechts","21","","fixation","","","",""
"814","img/0_300.png","70","image-keyboard-response","185","244815","0.0-6.0-1.89","SOBA","1","f","rechts","21","","","self","f","0","true"
"null","<div style=""font-size:60px;"">+</div>","null","html-keyboard-response","186","245268","0.0-6.0-0.90","SOBA","1","f","rechts","21","","fixation","","","",""
"1525","img/60_90.png","74","image-keyboard-response","187","246807","0.0-6.0-1.90","SOBA","1","f","rechts","21","","","self","j","60","true"
"null","<div style=""font-size:60px;"">+</div>","null","html-keyboard-response","188","247315","0.0-6.0-0.91","SOBA","1","f","rechts","21","","fixation","","","",""
"2337","img/150_240.png","74","image-keyboard-response","189","249664","0.0-6.0-1.91","SOBA","1","f","rechts","21","","","self","j","150","true"
"null","<div style=""font-size:60px;"">+</div>","null","html-keyboard-response","190","250035","0.0-6.0-0.92","SOBA","1","f","rechts","21","","fixation","","","",""
"1325","img/120_210.png","74","image-keyboard-response","191","251374","0.0-6.0-1.92","SOBA","1","f","rechts","21","","","self","j","120","true"
"null","<div style=""font-size:60px;"">+</div>","null","html-keyboard-response","192","251739","0.0-6.0-0.93","SOBA","1","f","rechts","21","","fixation","","","",""
"1545","img/150_90.png","70","image-keyboard-response","193","253297","0.0-6.0-1.93","SOBA","1","f","rechts","21","","","self","f","150","true"
"null","<div style=""font-size:60px;"">+</div>","null","html-keyboard-response","194","253676","0.0-6.0-0.94","SOBA","1","f","rechts","21","","fixation","","","",""
"1453","img/0_210.png","70","image-keyboard-response","195","255142","0.0-6.0-1.94","SOBA","1","f","rechts","21","","","self","f","0","true"
"null","<div style=""font-size:60px;"">+</div>","null","html-keyboard-response","196","255550","0.0-6.0-0.95","SOBA","1","f","rechts","21","","fixation","","","",""
"2146","img/30_60.png","74","image-keyboard-response","197","257702","0.0-6.0-1.95","SOBA","1","f","rechts","21","","","self","j","30","true"
"null","<div style=""font-size:60px;"">+</div>","null","html-keyboard-response","198","258058","0.0-6.0-0.96","SOBA","1","f","rechts","21","","fixation","","","",""
"1427","img/30_240.png","70","image-keyboard-response","199","259497","0.0-6.0-1.96","SOBA","1","f","rechts","21","","","self","f","30","true"
"null","<div style=""font-size:60px;"">+</div>","null","html-keyboard-response","200","259854","0.0-6.0-0.97","SOBA","1","f","rechts","21","","fixation","","","",""
"934","img/0_270.png","70","image-keyboard-response","201","260802","0.0-6.0-1.97","SOBA","1","f","rechts","21","","","self","f","0","true"
"null","<div style=""font-size:60px;"">+</div>","null","html-keyboard-response","202","261213","0.0-6.0-0.98","SOBA","1","f","rechts","21","","fixation","","","",""
"1442","img/30_270.png","70","image-keyboard-response","203","262669","0.0-6.0-1.98","SOBA","1","f","rechts","21","","","self","f","30","true"
"null","<div style=""font-size:60px;"">+</div>","null","html-keyboard-response","204","263151","0.0-6.0-0.99","SOBA","1","f","rechts","21","","fixation","","","",""
"1394","img/30_300.png","70","image-keyboard-response","205","264558","0.0-6.0-1.99","SOBA","1","f","rechts","21","","","self","f","30","true"
"null","<div style=""font-size:60px;"">+</div>","null","html-keyboard-response","206","264917","0.0-6.0-0.100","SOBA","1","f","rechts","21","","fixation","","","",""
"844","img/0_60.png","74","image-keyboard-response","207","265774","0.0-6.0-1.100","SOBA","1","f","rechts","21","","","self","j","0","true"
"null","<div style=""font-size:60px;"">+</div>","null","html-keyboard-response","208","266231","0.0-6.0-0.101","SOBA","1","f","rechts","21","","fixation","","","",""
"881","img/0_30.png","74","image-keyboard-response","209","267124","0.0-6.0-1.101","SOBA","1","f","rechts","21","","","self","j","0","true"
"null","<div style=""font-size:60px;"">+</div>","null","html-keyboard-response","210","267652","0.0-6.0-0.102","SOBA","1","f","rechts","21","","fixation","","","",""
"1315","img/60_30.png","74","image-keyboard-response","211","268981","0.0-6.0-1.102","SOBA","1","f","rechts","21","","","self","j","60","true"
"null","<div style=""font-size:60px;"">+</div>","null","html-keyboard-response","212","269309","0.0-6.0-0.103","SOBA","1","f","rechts","21","","fixation","","","",""
"1594","img/60_150.png","70","image-keyboard-response","213","270916","0.0-6.0-1.103","SOBA","1","f","rechts","21","","","self","f","60","true"
"null","<div style=""font-size:60px;"">+</div>","null","html-keyboard-response","214","271340","0.0-6.0-0.104","SOBA","1","f","rechts","21","","fixation","","","",""
"744","img/0_150.png","74","image-keyboard-response","215","272096","0.0-6.0-1.104","SOBA","1","f","rechts","21","","","self","j","0","true"
"null","<div style=""font-size:60px;"">+</div>","null","html-keyboard-response","216","272558","0.0-6.0-0.105","SOBA","1","f","rechts","21","","fixation","","","",""
"875","img/0_300.png","70","image-keyboard-response","217","273437","0.0-6.0-1.105","SOBA","1","f","rechts","21","","","self","f","0","true"
"null","<div style=""font-size:60px;"">+</div>","null","html-keyboard-response","218","273964","0.0-6.0-0.106","SOBA","1","f","rechts","21","","fixation","","","",""
"1427","img/90_330.png","70","image-keyboard-response","219","275404","0.0-6.0-1.106","SOBA","1","f","rechts","21","","","self","f","90","true"
"null","<div style=""font-size:60px;"">+</div>","null","html-keyboard-response","220","275715","0.0-6.0-0.107","SOBA","1","f","rechts","21","","fixation","","","",""
"1250","img/90_300.png","70","image-keyboard-response","221","276977","0.0-6.0-1.107","SOBA","1","f","rechts","21","","","self","f","90","true"
"null","<div style=""font-size:60px;"">+</div>","null","html-keyboard-response","222","277453","0.0-6.0-0.108","SOBA","1","f","rechts","21","","fixation","","","",""
"691","img/0_120.png","74","image-keyboard-response","223","278150","0.0-6.0-1.108","SOBA","1","f","rechts","21","","","self","j","0","true"
"null","<div style=""font-size:60px;"">+</div>","null","html-keyboard-response","224","278531","0.0-6.0-0.109","SOBA","1","f","rechts","21","","fixation","","","",""
"1472","img/150_270.png","74","image-keyboard-response","225","280006","0.0-6.0-1.109","SOBA","1","f","rechts","21","","","self","j","150","true"
"null","<div style=""font-size:60px;"">+</div>","null","html-keyboard-response","226","280313","0.0-6.0-0.110","SOBA","1","f","rechts","21","","fixation","","","",""
"1652","img/30_90.png","74","image-keyboard-response","227","281974","0.0-6.0-1.110","SOBA","1","f","rechts","21","","","self","j","30","true"
"null","<div style=""font-size:60px;"">+</div>","null","html-keyboard-response","228","282279","0.0-6.0-0.111","SOBA","1","f","rechts","21","","fixation","","","",""
"1437","img/60_210.png","74","image-keyboard-response","229","283729","0.0-6.0-1.111","SOBA","1","f","rechts","21","","","self","j","60","true"
"null","<div style=""font-size:60px;"">+</div>","null","html-keyboard-response","230","284060","0.0-6.0-0.112","SOBA","1","f","rechts","21","","fixation","","","",""
"1692","img/150_60.png","70","image-keyboard-response","231","285766","0.0-6.0-1.112","SOBA","1","f","rechts","21","","","self","f","150","true"
"null","<div style=""font-size:60px;"">+</div>","null","html-keyboard-response","232","286279","0.0-6.0-0.113","SOBA","1","f","rechts","21","","fixation","","","",""
"782","img/0_270.png","70","image-keyboard-response","233","287070","0.0-6.0-1.113","SOBA","1","f","rechts","21","","","self","f","0","true"
"null","<div style=""font-size:60px;"">+</div>","null","html-keyboard-response","234","287544","0.0-6.0-0.114","SOBA","1","f","rechts","21","","fixation","","","",""
"1029","img/0_330.png","70","image-keyboard-response","235","288577","0.0-6.0-1.114","SOBA","1","f","rechts","21","","","self","f","0","true"
"null","<div style=""font-size:60px;"">+</div>","null","html-keyboard-response","236","288889","0.0-6.0-0.115","SOBA","1","f","rechts","21","","fixation","","","",""
"1423","img/30_270.png","70","image-keyboard-response","237","290322","0.0-6.0-1.115","SOBA","1","f","rechts","21","","","self","f","30","true"
"null","<div style=""font-size:60px;"">+</div>","null","html-keyboard-response","238","290731","0.0-6.0-0.116","SOBA","1","f","rechts","21","","fixation","","","",""
"1704","img/120_330.png","70","image-keyboard-response","239","292448","0.0-6.0-1.116","SOBA","1","f","rechts","21","","","self","f","120","true"
"null","<div style=""font-size:60px;"">+</div>","null","html-keyboard-response","240","292875","0.0-6.0-0.117","SOBA","1","f","rechts","21","","fixation","","","",""
"1699","img/120_270.png","74","image-keyboard-response","241","294584","0.0-6.0-1.117","SOBA","1","f","rechts","21","","","self","j","120","true"
"null","<div style=""font-size:60px;"">+</div>","null","html-keyboard-response","242","295000","0.0-6.0-0.118","SOBA","1","f","rechts","21","","fixation","","","",""
"2806","img/L120_180.png","70","image-keyboard-response","243","297818","0.0-6.0-1.118","SOBA","1","f","rechts","21","","","self","f","120","true"
"null","<div style=""font-size:60px;"">+</div>","null","html-keyboard-response","244","298347","0.0-6.0-0.119","SOBA","1","f","rechts","21","","fixation","","","",""
"2558","img/150_90.png","70","image-keyboard-response","245","300914","0.0-6.0-1.119","SOBA","1","f","rechts","21","","","self","f","150","true"
"null","<div style=""font-size:60px;"">+</div>","null","html-keyboard-response","246","301269","0.0-6.0-0.120","SOBA","1","f","rechts","21","","fixation","","","",""
"1273","img/60_30.png","74","image-keyboard-response","247","302551","0.0-6.0-1.120","SOBA","1","f","rechts","21","","","self","j","60","true"
"null","<div style=""font-size:60px;"">+</div>","null","html-keyboard-response","248","302973","0.0-6.0-0.121","SOBA","1","f","rechts","21","","fixation","","","",""
"1212","img/30_300.png","70","image-keyboard-response","249","304193","0.0-6.0-1.121","SOBA","1","f","rechts","21","","","self","f","30","true"
"null","<div style=""font-size:60px;"">+</div>","null","html-keyboard-response","250","304503","0.0-6.0-0.122","SOBA","1","f","rechts","21","","fixation","","","",""
"1647","img/30_180.png","74","image-keyboard-response","251","306162","0.0-6.0-1.122","SOBA","1","f","rechts","21","","","self","j","30","true"
"null","<div style=""font-size:60px;"">+</div>","null","html-keyboard-response","252","306677","0.0-6.0-0.123","SOBA","1","f","rechts","21","","fixation","","","",""
"1538","img/60_270.png","70","image-keyboard-response","253","308221","0.0-6.0-1.123","SOBA","1","f","rechts","21","","","self","f","60","true"
"null","<div style=""font-size:60px;"">+</div>","null","html-keyboard-response","254","308537","0.0-6.0-0.124","SOBA","1","f","rechts","21","","fixation","","","",""
"1500","img/L150_180.png","70","image-keyboard-response","255","310053","0.0-6.0-1.124","SOBA","1","f","rechts","21","","","self","f","150","true"
"null","<div style=""font-size:60px;"">+</div>","null","html-keyboard-response","256","310511","0.0-6.0-0.125","SOBA","1","f","rechts","21","","fixation","","","",""
"1545","img/L30_180.png","70","image-keyboard-response","257","312068","0.0-6.0-1.125","SOBA","1","f","rechts","21","","","self","f","30","true"
"null","<div style=""font-size:60px;"">+</div>","null","html-keyboard-response","258","312385","0.0-6.0-0.126","SOBA","1","f","rechts","21","","fixation","","","",""
"888","img/0_210.png","70","image-keyboard-response","259","313284","0.0-6.0-1.126","SOBA","1","f","rechts","21","","","self","f","0","true"
"null","<div style=""font-size:60px;"">+</div>","null","html-keyboard-response","260","313744","0.0-6.0-0.127","SOBA","1","f","rechts","21","","fixation","","","",""
"1307","img/120_210.png","74","image-keyboard-response","261","315061","0.0-6.0-1.127","SOBA","1","f","rechts","21","","","self","j","120","true"
"null","<div style=""font-size:60px;"">+</div>","null","html-keyboard-response","262","315417","0.0-6.0-0.128","SOBA","1","f","rechts","21","","fixation","","","",""
"1579","img/90_120.png","70","image-keyboard-response","263","317007","0.0-6.0-1.128","SOBA","1","f","rechts","21","","","self","f","90","true"
"null","<div style=""font-size:60px;"">+</div>","null","html-keyboard-response","264","317527","0.0-6.0-0.129","SOBA","1","f","rechts","21","","fixation","","","",""
"1650","img/30_120.png","70","image-keyboard-response","265","319190","0.0-6.0-1.129","SOBA","1","f","rechts","21","","","self","j","30","false"
"null","<div style=""font-size:60px;"">+</div>","null","html-keyboard-response","266","319699","0.0-6.0-0.130","SOBA","1","f","rechts","21","","fixation","","","",""
"2358","img/90_60.png","74","image-keyboard-response","267","322062","0.0-6.0-1.130","SOBA","1","f","rechts","21","","","self","j","90","true"
"null","<div style=""font-size:60px;"">+</div>","null","html-keyboard-response","268","322371","0.0-6.0-0.131","SOBA","1","f","rechts","21","","fixation","","","",""
"2002","img/30_60.png","74","image-keyboard-response","269","324382","0.0-6.0-1.131","SOBA","1","f","rechts","21","","","self","j","30","true"
"null","<div style=""font-size:60px;"">+</div>","null","html-keyboard-response","270","324894","0.0-6.0-0.132","SOBA","1","f","rechts","21","","fixation","","","",""
"1517","img/120_150.png","70","image-keyboard-response","271","326424","0.0-6.0-1.132","SOBA","1","f","rechts","21","","","self","f","120","true"
"null","<div style=""font-size:60px;"">+</div>","null","html-keyboard-response","272","326796","0.0-6.0-0.133","SOBA","1","f","rechts","21","","fixation","","","",""
"1840","img/120_30.png","74","image-keyboard-response","273","328649","0.0-6.0-1.133","SOBA","1","f","rechts","21","","","self","j","120","true"
"null","<div style=""font-size:60px;"">+</div>","null","html-keyboard-response","274","329031","0.0-6.0-0.134","SOBA","1","f","rechts","21","","fixation","","","",""
"1205","img/0_90.png","74","image-keyboard-response","275","330248","0.0-6.0-1.134","SOBA","1","f","rechts","21","","","self","j","0","true"
"null","<div style=""font-size:60px;"">+</div>","null","html-keyboard-response","276","330780","0.0-6.0-0.135","SOBA","1","f","rechts","21","","fixation","","","",""
"1075","img/90_210.png","74","image-keyboard-response","277","331869","0.0-6.0-1.135","SOBA","1","f","rechts","21","","","self","j","90","true"
"null","<div style=""font-size:60px;"">+</div>","null","html-keyboard-response","278","332296","0.0-6.0-0.136","SOBA","1","f","rechts","21","","fixation","","","",""
"1746","img/60_90.png","74","image-keyboard-response","279","334051","0.0-6.0-1.136","SOBA","1","f","rechts","21","","","self","j","60","true"
"null","<div style=""font-size:60px;"">+</div>","null","html-keyboard-response","280","334514","0.0-6.0-0.137","SOBA","1","f","rechts","21","","fixation","","","",""
"1796","img/60_180.png","74","image-keyboard-response","281","336322","0.0-6.0-1.137","SOBA","1","f","rechts","21","","","self","j","60","true"
"null","<div style=""font-size:60px;"">+</div>","null","html-keyboard-response","282","336782","0.0-6.0-0.138","SOBA","1","f","rechts","21","","fixation","","","",""
"2232","img/L60_180.png","70","image-keyboard-response","283","339027","0.0-6.0-1.138","SOBA","1","f","rechts","21","","","self","f","60","true"
"null","<div style=""font-size:60px;"">+</div>","null","html-keyboard-response","284","339492","0.0-6.0-0.139","SOBA","1","f","rechts","21","","fixation","","","",""
"1198","img/0_30.png","74","image-keyboard-response","285","340699","0.0-6.0-1.139","SOBA","1","f","rechts","21","","","self","j","0","true"
"null","<div style=""font-size:60px;"">+</div>","null","html-keyboard-response","286","341008","0.0-6.0-0.140","SOBA","1","f","rechts","21","","fixation","","","",""
"928","img/0_240.png","70","image-keyboard-response","287","341950","0.0-6.0-1.140","SOBA","1","f","rechts","21","","","self","f","0","true"
"null","<div style=""font-size:60px;"">+</div>","null","html-keyboard-response","288","342352","0.0-6.0-0.141","SOBA","1","f","rechts","21","","fixation","","","",""
"813","img/0_60.png","74","image-keyboard-response","289","343174","0.0-6.0-1.141","SOBA","1","f","rechts","21","","","self","j","0","true"
"null","<div style=""font-size:60px;"">+</div>","null","html-keyboard-response","290","343483","0.0-6.0-0.142","SOBA","1","f","rechts","21","","fixation","","","",""
"1126","img/90_150.png","70","image-keyboard-response","291","344623","0.0-6.0-1.142","SOBA","1","f","rechts","21","","","self","f","90","true"
"null","<div style=""font-size:60px;"">+</div>","null","html-keyboard-response","292","345077","0.0-6.0-0.143","SOBA","1","f","rechts","21","","fixation","","","",""
"2290","img/120_90.png","74","image-keyboard-response","293","347380","0.0-6.0-1.143","SOBA","1","f","rechts","21","","","self","f","120","false"
"null","<div style=""font-size:60px;"">+</div>","null","html-keyboard-response","294","347736","0.0-6.0-0.144","SOBA","1","f","rechts","21","","fixation","","","",""
"2315","img/150_240.png","74","image-keyboard-response","295","350064","0.0-6.0-1.144","SOBA","1","f","rechts","21","","","self","j","150","true"
"null","<div style=""font-size:60px;"">+</div>","null","html-keyboard-response","296","350576","0.0-6.0-0.145","SOBA","1","f","rechts","21","","fixation","","","",""
"1465","img/90_240.png","74","image-keyboard-response","297","352049","0.0-6.0-1.145","SOBA","1","f","rechts","21","","","self","j","90","true"
"null","<div style=""font-size:60px;"">+</div>","null","html-keyboard-response","298","352510","0.0-6.0-0.146","SOBA","1","f","rechts","21","","fixation","","","",""
"1858","img/L90_180.png","70","image-keyboard-response","299","354380","0.0-6.0-1.146","SOBA","1","f","rechts","21","","","self","f","90","true"
"null","<div style=""font-size:60px;"">+</div>","null","html-keyboard-response","300","354759","0.0-6.0-0.147","SOBA","1","f","rechts","21","","fixation","","","",""
"1735","img/90_180.png","74","image-keyboard-response","301","356508","0.0-6.0-1.147","SOBA","1","f","rechts","21","","","self","j","90","true"
"null","<div style=""font-size:60px;"">+</div>","null","html-keyboard-response","302","356964","0.0-6.0-0.148","SOBA","1","f","rechts","21","","fixation","","","",""
"1746","img/150_300.png","74","image-keyboard-response","303","358723","0.0-6.0-1.148","SOBA","1","f","rechts","21","","","self","j","150","true"
"null","<div style=""font-size:60px;"">+</div>","null","html-keyboard-response","304","359230","0.0-6.0-0.149","SOBA","1","f","rechts","21","","fixation","","","",""
"2194","img/30_240.png","70","image-keyboard-response","305","361439","0.0-6.0-1.149","SOBA","1","f","rechts","21","","","self","f","30","true"
"null","<div style=""font-size:60px;"">+</div>","null","html-keyboard-response","306","361950","0.0-6.0-0.150","SOBA","1","f","rechts","21","","fixation","","","",""
"1653","img/90_30.png","74","image-keyboard-response","307","363616","0.0-6.0-1.150","SOBA","1","f","rechts","21","","","self","j","90","true"
"null","<div style=""font-size:60px;"">+</div>","null","html-keyboard-response","308","364028","0.0-6.0-0.151","SOBA","1","f","rechts","21","","fixation","","","",""
"1780","img/120_180.png","74","image-keyboard-response","309","365822","0.0-6.0-1.151","SOBA","1","f","rechts","21","","","self","j","120","true"
"null","<div style=""font-size:60px;"">+</div>","null","html-keyboard-response","310","366340","0.0-6.0-0.152","SOBA","1","f","rechts","21","","fixation","","","",""
"1587","img/60_150.png","70","image-keyboard-response","311","367937","0.0-6.0-1.152","SOBA","1","f","rechts","21","","","self","f","60","true"
"null","<div style=""font-size:60px;"">+</div>","null","html-keyboard-response","312","368356","0.0-6.0-0.153","SOBA","1","f","rechts","21","","fixation","","","",""
"1897","img/150_120.png","70","image-keyboard-response","313","370266","0.0-6.0-1.153","SOBA","1","f","rechts","21","","","self","f","150","true"
"null","<div style=""font-size:60px;"">+</div>","null","html-keyboard-response","314","370778","0.0-6.0-0.154","SOBA","1","f","rechts","21","","fixation","","","",""
"2213","img/60_330.png","70","image-keyboard-response","315","373005","0.0-6.0-1.154","SOBA","1","f","rechts","21","","","self","f","60","true"
"null","<div style=""font-size:60px;"">+</div>","null","html-keyboard-response","316","373515","0.0-6.0-0.155","SOBA","1","f","rechts","21","","fixation","","","",""
"2209","img/150_180.png","74","image-keyboard-response","317","375737","0.0-6.0-1.155","SOBA","1","f","rechts","21","","","self","j","150","true"
"null","<div style=""font-size:60px;"">+</div>","null","html-keyboard-response","318","376249","0.0-6.0-0.156","SOBA","1","f","rechts","21","","fixation","","","",""
"1043","img/60_30.png","74","image-keyboard-response","319","377306","0.0-6.0-1.156","SOBA","1","f","rechts","21","","","self","j","60","true"
"null","<div style=""font-size:60px;"">+</div>","null","html-keyboard-response","320","377611","0.0-6.0-0.157","SOBA","1","f","rechts","21","","fixation","","","",""
"952","img/60_330.png","70","image-keyboard-response","321","378568","0.0-6.0-1.157","SOBA","1","f","rechts","21","","","self","f","60","true"
"null","<div style=""font-size:60px;"">+</div>","null","html-keyboard-response","322","378971","0.0-6.0-0.158","SOBA","1","f","rechts","21","","fixation","","","",""
"1644","img/150_240.png","74","image-keyboard-response","323","380624","0.0-6.0-1.158","SOBA","1","f","rechts","21","","","self","j","150","true"
"null","<div style=""font-size:60px;"">+</div>","null","html-keyboard-response","324","380986","0.0-6.0-0.159","SOBA","1","f","rechts","21","","fixation","","","",""
"2368","img/90_300.png","70","image-keyboard-response","325","383366","0.0-6.0-1.159","SOBA","1","f","rechts","21","","","self","f","90","true"
"null","<div style=""font-size:60px;"">+</div>","null","html-keyboard-response","326","383721","0.0-6.0-0.160","SOBA","1","f","rechts","21","","fixation","","","",""
"1029","img/120_210.png","74","image-keyboard-response","327","384766","0.0-6.0-1.160","SOBA","1","f","rechts","21","","","self","j","120","true"
"null","<div style=""font-size:60px;"">+</div>","null","html-keyboard-response","328","385300","0.0-6.0-0.161","SOBA","1","f","rechts","21","","fixation","","","",""
"2435","img/30_120.png","74","image-keyboard-response","329","387744","0.0-6.0-1.161","SOBA","1","f","rechts","21","","","self","j","30","true"
"null","<div style=""font-size:60px;"">+</div>","null","html-keyboard-response","330","388162","0.0-6.0-0.162","SOBA","1","f","rechts","21","","fixation","","","",""
"1498","img/60_210.png","74","image-keyboard-response","331","389670","0.0-6.0-1.162","SOBA","1","f","rechts","21","","","self","j","60","true"
"null","<div style=""font-size:60px;"">+</div>","null","html-keyboard-response","332","390100","0.0-6.0-0.163","SOBA","1","f","rechts","21","","fixation","","","",""
"840","img/0_210.png","70","image-keyboard-response","333","390952","0.0-6.0-1.163","SOBA","1","f","rechts","21","","","self","f","0","true"
"null","<div style=""font-size:60px;"">+</div>","null","html-keyboard-response","334","391427","0.0-6.0-0.164","SOBA","1","f","rechts","21","","fixation","","","",""
"1711","img/120_90.png","70","image-keyboard-response","335","393148","0.0-6.0-1.164","SOBA","1","f","rechts","21","","","self","f","120","true"
"null","<div style=""font-size:60px;"">+</div>","null","html-keyboard-response","336","393458","0.0-6.0-0.165","SOBA","1","f","rechts","21","","fixation","","","",""
"1488","img/0_270.png","70","image-keyboard-response","337","394960","0.0-6.0-1.165","SOBA","1","f","rechts","21","","","self","f","0","true"
"null","<div style=""font-size:60px;"">+</div>","null","html-keyboard-response","338","395318","0.0-6.0-0.166","SOBA","1","f","rechts","21","","fixation","","","",""
"1663","img/30_180.png","74","image-keyboard-response","339","396992","0.0-6.0-1.166","SOBA","1","f","rechts","21","","","self","j","30","true"
"null","<div style=""font-size:60px;"">+</div>","null","html-keyboard-response","340","397397","0.0-6.0-0.167","SOBA","1","f","rechts","21","","fixation","","","",""
"1256","img/0_300.png","70","image-keyboard-response","341","398658","0.0-6.0-1.167","SOBA","1","f","rechts","21","","","self","f","0","true"
"null","<div style=""font-size:60px;"">+</div>","null","html-keyboard-response","342","399038","0.0-6.0-0.168","SOBA","1","f","rechts","21","","fixation","","","",""
"836","img/0_60.png","74","image-keyboard-response","343","399888","0.0-6.0-1.168","SOBA","1","f","rechts","21","","","self","j","0","true"
"null","<div style=""font-size:60px;"">+</div>","null","html-keyboard-response","344","400397","0.0-6.0-0.169","SOBA","1","f","rechts","21","","fixation","","","",""
"1112","img/150_180.png","74","image-keyboard-response","345","401520","0.0-6.0-1.169","SOBA","1","f","rechts","21","","","self","j","150","true"
"null","<div style=""font-size:60px;"">+</div>","null","html-keyboard-response","346","402023","0.0-6.0-0.170","SOBA","1","f","rechts","21","","fixation","","","",""
"1422","img/60_150.png","70","image-keyboard-response","347","403454","0.0-6.0-1.170","SOBA","1","f","rechts","21","","","self","f","60","true"
"null","<div style=""font-size:60px;"">+</div>","null","html-keyboard-response","348","403866","0.0-6.0-0.171","SOBA","1","f","rechts","21","","fixation","","","",""
"1912","img/90_120.png","74","image-keyboard-response","349","405791","0.0-6.0-1.171","SOBA","1","f","rechts","21","","","self","f","90","false"
"null","<div style=""font-size:60px;"">+</div>","null","html-keyboard-response","350","406306","0.0-6.0-0.172","SOBA","1","f","rechts","21","","fixation","","","",""
"1492","img/L30_180.png","74","image-keyboard-response","351","407808","0.0-6.0-1.172","SOBA","1","f","rechts","21","","","self","f","30","false"
"null","<div style=""font-size:60px;"">+</div>","null","html-keyboard-response","352","408134","0.0-6.0-0.173","SOBA","1","f","rechts","21","","fixation","","","",""
"1063","img/0_120.png","74","image-keyboard-response","353","409212","0.0-6.0-1.173","SOBA","1","f","rechts","21","","","self","j","0","true"
"null","<div style=""font-size:60px;"">+</div>","null","html-keyboard-response","354","409727","0.0-6.0-0.174","SOBA","1","f","rechts","21","","fixation","","","",""
"2350","img/150_120.png","70","image-keyboard-response","355","412088","0.0-6.0-1.174","SOBA","1","f","rechts","21","","","self","f","150","true"
"null","<div style=""font-size:60px;"">+</div>","null","html-keyboard-response","356","412443","0.0-6.0-0.175","SOBA","1","f","rechts","21","","fixation","","","",""
"1537","img/120_330.png","74","image-keyboard-response","357","413993","0.0-6.0-1.175","SOBA","1","f","rechts","21","","","self","f","120","false"
"null","<div style=""font-size:60px;"">+</div>","null","html-keyboard-response","358","414303","0.0-6.0-0.176","SOBA","1","f","rechts","21","","fixation","","","",""
"1697","img/120_180.png","74","image-keyboard-response","359","416009","0.0-6.0-1.176","SOBA","1","f","rechts","21","","","self","j","120","true"
"null","<div style=""font-size:60px;"">+</div>","null","html-keyboard-response","360","416385","0.0-6.0-0.177","SOBA","1","f","rechts","21","","fixation","","","",""
"1231","img/90_60.png","74","image-keyboard-response","361","417628","0.0-6.0-1.177","SOBA","1","f","rechts","21","","","self","j","90","true"
"null","<div style=""font-size:60px;"">+</div>","null","html-keyboard-response","362","418057","0.0-6.0-0.178","SOBA","1","f","rechts","21","","fixation","","","",""
"1722","img/90_30.png","74","image-keyboard-response","363","419789","0.0-6.0-1.178","SOBA","1","f","rechts","21","","","self","j","90","true"
"null","<div style=""font-size:60px;"">+</div>","null","html-keyboard-response","364","420198","0.0-6.0-0.179","SOBA","1","f","rechts","21","","fixation","","","",""
"1393","img/30_240.png","70","image-keyboard-response","365","421602","0.0-6.0-1.179","SOBA","1","f","rechts","21","","","self","f","30","true"
"null","<div style=""font-size:60px;"">+</div>","null","html-keyboard-response","366","422104","0.0-6.0-0.180","SOBA","1","f","rechts","21","","fixation","","","",""
"1442","img/150_60.png","70","image-keyboard-response","367","423560","0.0-6.0-1.180","SOBA","1","f","rechts","21","","","self","f","150","true"
"null","<div style=""font-size:60px;"">+</div>","null","html-keyboard-response","368","424088","0.0-6.0-0.181","SOBA","1","f","rechts","21","","fixation","","","",""
"1906","img/120_30.png","74","image-keyboard-response","369","426004","0.0-6.0-1.181","SOBA","1","f","rechts","21","","","self","j","120","true"
"null","<div style=""font-size:60px;"">+</div>","null","html-keyboard-response","370","426407","0.0-6.0-0.182","SOBA","1","f","rechts","21","","fixation","","","",""
"1377","img/120_270.png","74","image-keyboard-response","371","427798","0.0-6.0-1.182","SOBA","1","f","rechts","21","","","self","j","120","true"
"null","<div style=""font-size:60px;"">+</div>","null","html-keyboard-response","372","428329","0.0-6.0-0.183","SOBA","1","f","rechts","21","","fixation","","","",""
"1079","img/90_240.png","74","image-keyboard-response","373","429417","0.0-6.0-1.183","SOBA","1","f","rechts","21","","","self","j","90","true"
"null","<div style=""font-size:60px;"">+</div>","null","html-keyboard-response","374","429781","0.0-6.0-0.184","SOBA","1","f","rechts","21","","fixation","","","",""
"1471","img/30_60.png","74","image-keyboard-response","375","431265","0.0-6.0-1.184","SOBA","1","f","rechts","21","","","self","j","30","true"
"null","<div style=""font-size:60px;"">+</div>","null","html-keyboard-response","376","431622","0.0-6.0-0.185","SOBA","1","f","rechts","21","","fixation","","","",""
"1255","img/90_180.png","74","image-keyboard-response","377","432884","0.0-6.0-1.185","SOBA","1","f","rechts","21","","","self","j","90","true"
"null","<div style=""font-size:60px;"">+</div>","null","html-keyboard-response","378","433341","0.0-6.0-0.186","SOBA","1","f","rechts","21","","fixation","","","",""
"1578","img/L150_180.png","70","image-keyboard-response","379","434931","0.0-6.0-1.186","SOBA","1","f","rechts","21","","","self","f","150","true"
"null","<div style=""font-size:60px;"">+</div>","null","html-keyboard-response","380","435294","0.0-6.0-0.187","SOBA","1","f","rechts","21","","fixation","","","",""
"1630","img/60_180.png","74","image-keyboard-response","381","436935","0.0-6.0-1.187","SOBA","1","f","rechts","21","","","self","j","60","true"
"null","<div style=""font-size:60px;"">+</div>","null","html-keyboard-response","382","437403","0.0-6.0-0.188","SOBA","1","f","rechts","21","","fixation","","","",""
"1711","img/30_90.png","74","image-keyboard-response","383","439128","0.0-6.0-1.188","SOBA","1","f","rechts","21","","","self","j","30","true"
"null","<div style=""font-size:60px;"">+</div>","null","html-keyboard-response","384","439450","0.0-6.0-0.189","SOBA","1","f","rechts","21","","fixation","","","",""
"1408","img/120_150.png","70","image-keyboard-response","385","440872","0.0-6.0-1.189","SOBA","1","f","rechts","21","","","self","f","120","true"
"null","<div style=""font-size:60px;"">+</div>","null","html-keyboard-response","386","441327","0.0-6.0-0.190","SOBA","1","f","rechts","21","","fixation","","","",""
"1520","img/60_90.png","70","image-keyboard-response","387","442861","0.0-6.0-1.190","SOBA","1","f","rechts","21","","","self","j","60","false"
"null","<div style=""font-size:60px;"">+</div>","null","html-keyboard-response","388","443232","0.0-6.0-0.191","SOBA","1","f","rechts","21","","fixation","","","",""
"1821","img/150_90.png","70","image-keyboard-response","389","445068","0.0-6.0-1.191","SOBA","1","f","rechts","21","","","self","f","150","true"
"null","<div style=""font-size:60px;"">+</div>","null","html-keyboard-response","390","445526","0.0-6.0-0.192","SOBA","1","f","rechts","21","","fixation","","","",""
"1620","img/150_300.png","74","image-keyboard-response","391","447161","0.0-6.0-1.192","SOBA","1","f","rechts","21","","","self","j","150","true"
"null","<div style=""font-size:60px;"">+</div>","null","html-keyboard-response","392","447464","0.0-6.0-0.193","SOBA","1","f","rechts","21","","fixation","","","",""
"1775","img/90_210.png","74","image-keyboard-response","393","449252","0.0-6.0-1.193","SOBA","1","f","rechts","21","","","self","j","90","true"
"null","<div style=""font-size:60px;"">+</div>","null","html-keyboard-response","394","449760","0.0-6.0-0.194","SOBA","1","f","rechts","21","","fixation","","","",""
"974","img/0_90.png","74","image-keyboard-response","395","450749","0.0-6.0-1.194","SOBA","1","f","rechts","21","","","self","j","0","true"
"null","<div style=""font-size:60px;"">+</div>","null","html-keyboard-response","396","451153","0.0-6.0-0.195","SOBA","1","f","rechts","21","","fixation","","","",""
"2053","img/L60_180.png","70","image-keyboard-response","397","453219","0.0-6.0-1.195","SOBA","1","f","rechts","21","","","self","f","60","true"
"null","<div style=""font-size:60px;"">+</div>","null","html-keyboard-response","398","453621","0.0-6.0-0.196","SOBA","1","f","rechts","21","","fixation","","","",""
"1541","img/L120_180.png","70","image-keyboard-response","399","455170","0.0-6.0-1.196","SOBA","1","f","rechts","21","","","self","f","120","true"
"null","<div style=""font-size:60px;"">+</div>","null","html-keyboard-response","400","455637","0.0-6.0-0.197","SOBA","1","f","rechts","21","","fixation","","","",""
"1504","img/90_330.png","70","image-keyboard-response","401","457150","0.0-6.0-1.197","SOBA","1","f","rechts","21","","","self","f","90","true"
"null","<div style=""font-size:60px;"">+</div>","null","html-keyboard-response","402","457576","0.0-6.0-0.198","SOBA","1","f","rechts","21","","fixation","","","",""
"1833","img/90_150.png","70","image-keyboard-response","403","459423","0.0-6.0-1.198","SOBA","1","f","rechts","21","","","self","f","90","true"
"null","<div style=""font-size:60px;"">+</div>","null","html-keyboard-response","404","459841","0.0-6.0-0.199","SOBA","1","f","rechts","21","","fixation","","","",""
"793","img/0_330.png","70","image-keyboard-response","405","460647","0.0-6.0-1.199","SOBA","1","f","rechts","21","","","self","f","0","true"
"null","<div style=""font-size:60px;"">+</div>","null","html-keyboard-response","406","461029","0.0-6.0-0.200","SOBA","1","f","rechts","21","","fixation","","","",""
"1598","img/60_270.png","70","image-keyboard-response","407","462639","0.0-6.0-1.200","SOBA","1","f","rechts","21","","","self","f","60","true"
"null","<div style=""font-size:60px;"">+</div>","null","html-keyboard-response","408","462966","0.0-6.0-0.201","SOBA","1","f","rechts","21","","fixation","","","",""
"1855","img/150_270.png","74","image-keyboard-response","409","464835","0.0-6.0-1.201","SOBA","1","f","rechts","21","","","self","j","150","true"
"null","<div style=""font-size:60px;"">+</div>","null","html-keyboard-response","410","465293","0.0-6.0-0.202","SOBA","1","f","rechts","21","","fixation","","","",""
"1755","img/0_240.png","70","image-keyboard-response","411","467062","0.0-6.0-1.202","SOBA","1","f","rechts","21","","","self","f","0","true"
"null","<div style=""font-size:60px;"">+</div>","null","html-keyboard-response","412","467545","0.0-6.0-0.203","SOBA","1","f","rechts","21","","fixation","","","",""
"771","img/0_150.png","74","image-keyboard-response","413","468331","0.0-6.0-1.203","SOBA","1","f","rechts","21","","","self","j","0","true"
"null","<div style=""font-size:60px;"">+</div>","null","html-keyboard-response","414","468795","0.0-6.0-0.204","SOBA","1","f","rechts","21","","fixation","","","",""
"1199","img/30_270.png","70","image-keyboard-response","415","470009","0.0-6.0-1.204","SOBA","1","f","rechts","21","","","self","f","30","true"
"null","<div style=""font-size:60px;"">+</div>","null","html-keyboard-response","416","470483","0.0-6.0-0.205","SOBA","1","f","rechts","21","","fixation","","","",""
"931","img/0_30.png","74","image-keyboard-response","417","471426","0.0-6.0-1.205","SOBA","1","f","rechts","21","","","self","j","0","true"
"null","<div style=""font-size:60px;"">+</div>","null","html-keyboard-response","418","471858","0.0-6.0-0.206","SOBA","1","f","rechts","21","","fixation","","","",""
"1344","img/30_300.png","70","image-keyboard-response","419","473216","0.0-6.0-1.206","SOBA","1","f","rechts","21","","","self","f","30","true"
"null","<div style=""font-size:60px;"">+</div>","null","html-keyboard-response","420","473577","0.0-6.0-0.207","SOBA","1","f","rechts","21","","fixation","","","",""
"1443","img/L90_180.png","70","image-keyboard-response","421","475038","0.0-6.0-1.207","SOBA","1","f","rechts","21","","","self","f","90","true"
"47834","<p>Du hast in 92% der Versuche korrekt entschieden.</p><p>Deine durchschnittliche Reaktionszeit war  1569ms.</p><p>Dr&uuml;cke eine beliebige Taste, um die Session zu beenden. Vielen Dank!</p>","32","html-keyboard-response","422","522879","0.0-7.0","SOBA","1","f","rechts","21","","","","","",""
