"rt","stimulus","key_press","trial_type","trial_index","time_elapsed","internal_node_id","subject","session","sex","handedness","age","responses","test_part","condition","correct_response","angle","correct"
"1317","<p>Mental Rotation Experiment.</p> <p>Dr&uuml;cke eine beliebige Taste, um anzufangen.</p>","13","html-keyboard-response","0","1355","0.0-0.0","SOBA","3","f","rechts","21","","","","","",""
"5043","","","survey-text","1","6400","0.0-1.0","SOBA","3","f","rechts","21","{""Q0"":""SOBA""}","","","","",""
"2728","","","survey-text","2","9131","0.0-2.0","SOBA","3","f","rechts","21","{""Q0"":""3""}","","","","",""
"5721","","","survey-multi-choice","3","14857","0.0-3.0","SOBA","3","f","rechts","21","{""Q0"":""f"",""Q1"":""rechts""}","","","","",""
"3147","","","survey-text","4","18007","0.0-4.0","SOBA","3","f","rechts","21","{""Q0"":""21""}","","","","",""
"62393","<p> Stell dir vor, dass du vor einem runden Tisch stehst, auf dem sich ein blauer Ball am Tischrand befindet. Entlang des Tischrands ist jeweils ein verschieden langer Pfeil. Nun bewegst du dich entlang dieses Pfeils bis an seine Spitze. Wenn du am Ende des Pfeils angekommen bist, schau zur Tischmitte. </p> <img src='img/90_180.png'></img> <br> <p>Entscheide dann, ob der Ball von deiner neuen (vorgestellten) Position links oder rechts von dir liegt.</p> <p>Dr&uuml;cke die <strong>'f'</strong>-Taste f&uuml;r links, die <strong>'j'</strong>-Taste f&uuml;r rechts.</p> <br><p> Das Bild wird jeweils 1 Sekunde lang pr&auml;sentiert. Du hast 3 Sekunden Zeit eine Entscheidung zu treffen.</p>","32","html-keyboard-response","5","80409","0.0-5.0","SOBA","3","f","rechts","21","","","","","",""
"null","<div style=""font-size:60px;"">+</div>","null","html-keyboard-response","6","81748","0.0-6.0-0.0","SOBA","3","f","rechts","21","","fixation","","","",""
"879","img/0_270.png","70","image-keyboard-response","7","82647","0.0-6.0-1.0","SOBA","3","f","rechts","21","","","self","f","0","true"
"null","<div style=""font-size:60px;"">+</div>","null","html-keyboard-response","8","82972","0.0-6.0-0.1","SOBA","3","f","rechts","21","","fixation","","","",""
"1014","img/L150_180.png","70","image-keyboard-response","9","84004","0.0-6.0-1.1","SOBA","3","f","rechts","21","","","self","f","150","true"
"null","<div style=""font-size:60px;"">+</div>","null","html-keyboard-response","10","84409","0.0-6.0-0.2","SOBA","3","f","rechts","21","","fixation","","","",""
"1030","img/L30_180.png","70","image-keyboard-response","11","85452","0.0-6.0-1.2","SOBA","3","f","rechts","21","","","self","f","30","true"
"null","<div style=""font-size:60px;"">+</div>","null","html-keyboard-response","12","85909","0.0-6.0-0.3","SOBA","3","f","rechts","21","","fixation","","","",""
"777","img/0_300.png","70","image-keyboard-response","13","86703","0.0-6.0-1.3","SOBA","3","f","rechts","21","","","self","f","0","true"
"null","<div style=""font-size:60px;"">+</div>","null","html-keyboard-response","14","87206","0.0-6.0-0.4","SOBA","3","f","rechts","21","","fixation","","","",""
"875","img/120_210.png","74","image-keyboard-response","15","88100","0.0-6.0-1.4","SOBA","3","f","rechts","21","","","self","j","120","true"
"null","<div style=""font-size:60px;"">+</div>","null","html-keyboard-response","16","88581","0.0-6.0-0.5","SOBA","3","f","rechts","21","","fixation","","","",""
"1322","img/120_270.png","74","image-keyboard-response","17","89920","0.0-6.0-1.5","SOBA","3","f","rechts","21","","","self","j","120","true"
"null","<div style=""font-size:60px;"">+</div>","null","html-keyboard-response","18","90237","0.0-6.0-0.6","SOBA","3","f","rechts","21","","fixation","","","",""
"1206","img/90_60.png","74","image-keyboard-response","19","91460","0.0-6.0-1.6","SOBA","3","f","rechts","21","","","self","j","90","true"
"null","<div style=""font-size:60px;"">+</div>","null","html-keyboard-response","20","91817","0.0-6.0-0.7","SOBA","3","f","rechts","21","","fixation","","","",""
"831","img/60_180.png","74","image-keyboard-response","21","92666","0.0-6.0-1.7","SOBA","3","f","rechts","21","","","self","j","60","true"
"null","<div style=""font-size:60px;"">+</div>","null","html-keyboard-response","22","93176","0.0-6.0-0.8","SOBA","3","f","rechts","21","","fixation","","","",""
"968","img/60_90.png","74","image-keyboard-response","23","94164","0.0-6.0-1.8","SOBA","3","f","rechts","21","","","self","j","60","true"
"null","<div style=""font-size:60px;"">+</div>","null","html-keyboard-response","24","94615","0.0-6.0-0.9","SOBA","3","f","rechts","21","","fixation","","","",""
"757","img/0_30.png","74","image-keyboard-response","25","95389","0.0-6.0-1.9","SOBA","3","f","rechts","21","","","self","j","0","true"
"null","<div style=""font-size:60px;"">+</div>","null","html-keyboard-response","26","95754","0.0-6.0-0.10","SOBA","3","f","rechts","21","","fixation","","","",""
"684","img/0_120.png","74","image-keyboard-response","27","96455","0.0-6.0-1.10","SOBA","3","f","rechts","21","","","self","j","0","true"
"null","<div style=""font-size:60px;"">+</div>","null","html-keyboard-response","28","96770","0.0-6.0-0.11","SOBA","3","f","rechts","21","","fixation","","","",""
"1066","img/60_30.png","74","image-keyboard-response","29","97852","0.0-6.0-1.11","SOBA","3","f","rechts","21","","","self","j","60","true"
"null","<div style=""font-size:60px;"">+</div>","null","html-keyboard-response","30","98176","0.0-6.0-0.12","SOBA","3","f","rechts","21","","fixation","","","",""
"1298","img/30_120.png","74","image-keyboard-response","31","99493","0.0-6.0-1.12","SOBA","3","f","rechts","21","","","self","j","30","true"
"null","<div style=""font-size:60px;"">+</div>","null","html-keyboard-response","32","99801","0.0-6.0-0.13","SOBA","3","f","rechts","21","","fixation","","","",""
"1105","img/30_300.png","70","image-keyboard-response","33","100923","0.0-6.0-1.13","SOBA","3","f","rechts","21","","","self","f","30","true"
"null","<div style=""font-size:60px;"">+</div>","null","html-keyboard-response","34","101394","0.0-6.0-0.14","SOBA","3","f","rechts","21","","fixation","","","",""
"1156","img/30_180.png","74","image-keyboard-response","35","102577","0.0-6.0-1.14","SOBA","3","f","rechts","21","","","self","j","30","true"
"null","<div style=""font-size:60px;"">+</div>","null","html-keyboard-response","36","103085","0.0-6.0-0.15","SOBA","3","f","rechts","21","","fixation","","","",""
"939","img/90_120.png","70","image-keyboard-response","37","104041","0.0-6.0-1.15","SOBA","3","f","rechts","21","","","self","f","90","true"
"null","<div style=""font-size:60px;"">+</div>","null","html-keyboard-response","38","104397","0.0-6.0-0.16","SOBA","3","f","rechts","21","","fixation","","","",""
"1415","img/150_300.png","74","image-keyboard-response","39","105840","0.0-6.0-1.16","SOBA","3","f","rechts","21","","","self","j","150","true"
"null","<div style=""font-size:60px;"">+</div>","null","html-keyboard-response","40","106209","0.0-6.0-0.17","SOBA","3","f","rechts","21","","fixation","","","",""
"1377","img/60_150.png","70","image-keyboard-response","41","107606","0.0-6.0-1.17","SOBA","3","f","rechts","21","","","self","f","60","true"
"null","<div style=""font-size:60px;"">+</div>","null","html-keyboard-response","42","108117","0.0-6.0-0.18","SOBA","3","f","rechts","21","","fixation","","","",""
"1632","img/150_120.png","70","image-keyboard-response","43","109767","0.0-6.0-1.18","SOBA","3","f","rechts","21","","","self","f","150","true"
"null","<div style=""font-size:60px;"">+</div>","null","html-keyboard-response","44","110273","0.0-6.0-0.19","SOBA","3","f","rechts","21","","fixation","","","",""
"968","img/90_240.png","74","image-keyboard-response","45","111262","0.0-6.0-1.19","SOBA","3","f","rechts","21","","","self","j","90","true"
"null","<div style=""font-size:60px;"">+</div>","null","html-keyboard-response","46","111615","0.0-6.0-0.20","SOBA","3","f","rechts","21","","fixation","","","",""
"896","img/60_210.png","74","image-keyboard-response","47","112521","0.0-6.0-1.20","SOBA","3","f","rechts","21","","","self","j","60","true"
"null","<div style=""font-size:60px;"">+</div>","null","html-keyboard-response","48","112836","0.0-6.0-0.21","SOBA","3","f","rechts","21","","fixation","","","",""
"2426","img/120_330.png","70","image-keyboard-response","49","115267","0.0-6.0-1.21","SOBA","3","f","rechts","21","","","self","f","120","true"
"null","<div style=""font-size:60px;"">+</div>","null","html-keyboard-response","50","115794","0.0-6.0-0.22","SOBA","3","f","rechts","21","","fixation","","","",""
"1218","img/30_90.png","74","image-keyboard-response","51","117022","0.0-6.0-1.22","SOBA","3","f","rechts","21","","","self","j","30","true"
"null","<div style=""font-size:60px;"">+</div>","null","html-keyboard-response","52","117524","0.0-6.0-0.23","SOBA","3","f","rechts","21","","fixation","","","",""
"1101","img/150_90.png","70","image-keyboard-response","53","118632","0.0-6.0-1.23","SOBA","3","f","rechts","21","","","self","f","150","true"
"null","<div style=""font-size:60px;"">+</div>","null","html-keyboard-response","54","119150","0.0-6.0-0.24","SOBA","3","f","rechts","21","","fixation","","","",""
"1025","img/0_330.png","70","image-keyboard-response","55","120195","0.0-6.0-1.24","SOBA","3","f","rechts","21","","","self","f","0","true"
"null","<div style=""font-size:60px;"">+</div>","null","html-keyboard-response","56","120603","0.0-6.0-0.25","SOBA","3","f","rechts","21","","fixation","","","",""
"1194","img/150_60.png","70","image-keyboard-response","57","121815","0.0-6.0-1.25","SOBA","3","f","rechts","21","","","self","f","150","true"
"null","<div style=""font-size:60px;"">+</div>","null","html-keyboard-response","58","122181","0.0-6.0-0.26","SOBA","3","f","rechts","21","","fixation","","","",""
"2570","img/120_180.png","74","image-keyboard-response","59","124768","0.0-6.0-1.26","SOBA","3","f","rechts","21","","","self","j","120","true"
"null","<div style=""font-size:60px;"">+</div>","null","html-keyboard-response","60","125092","0.0-6.0-0.27","SOBA","3","f","rechts","21","","fixation","","","",""
"1171","img/0_90.png","74","image-keyboard-response","61","126281","0.0-6.0-1.27","SOBA","3","f","rechts","21","","","self","j","0","true"
"null","<div style=""font-size:60px;"">+</div>","null","html-keyboard-response","62","126760","0.0-6.0-0.28","SOBA","3","f","rechts","21","","fixation","","","",""
"1619","img/30_270.png","70","image-keyboard-response","63","128396","0.0-6.0-1.28","SOBA","3","f","rechts","21","","","self","f","30","true"
"null","<div style=""font-size:60px;"">+</div>","null","html-keyboard-response","64","128760","0.0-6.0-0.29","SOBA","3","f","rechts","21","","fixation","","","",""
"1014","img/L90_180.png","70","image-keyboard-response","65","129792","0.0-6.0-1.29","SOBA","3","f","rechts","21","","","self","f","90","true"
"null","<div style=""font-size:60px;"">+</div>","null","html-keyboard-response","66","130150","0.0-6.0-0.30","SOBA","3","f","rechts","21","","fixation","","","",""
"760","img/0_150.png","74","image-keyboard-response","67","130928","0.0-6.0-1.30","SOBA","3","f","rechts","21","","","self","j","0","true"
"null","<div style=""font-size:60px;"">+</div>","null","html-keyboard-response","68","131337","0.0-6.0-0.31","SOBA","3","f","rechts","21","","fixation","","","",""
"977","img/30_240.png","70","image-keyboard-response","69","132333","0.0-6.0-1.31","SOBA","3","f","rechts","21","","","self","f","30","true"
"null","<div style=""font-size:60px;"">+</div>","null","html-keyboard-response","70","132744","0.0-6.0-0.32","SOBA","3","f","rechts","21","","fixation","","","",""
"1012","img/L120_180.png","70","image-keyboard-response","71","133774","0.0-6.0-1.32","SOBA","3","f","rechts","21","","","self","f","120","true"
"null","<div style=""font-size:60px;"">+</div>","null","html-keyboard-response","72","134104","0.0-6.0-0.33","SOBA","3","f","rechts","21","","fixation","","","",""
"1181","img/30_60.png","74","image-keyboard-response","73","135303","0.0-6.0-1.33","SOBA","3","f","rechts","21","","","self","j","30","true"
"null","<div style=""font-size:60px;"">+</div>","null","html-keyboard-response","74","135666","0.0-6.0-0.34","SOBA","3","f","rechts","21","","fixation","","","",""
"947","img/120_90.png","70","image-keyboard-response","75","136630","0.0-6.0-1.34","SOBA","3","f","rechts","21","","","self","f","120","true"
"null","<div style=""font-size:60px;"">+</div>","null","html-keyboard-response","76","137089","0.0-6.0-0.35","SOBA","3","f","rechts","21","","fixation","","","",""
"771","img/0_240.png","70","image-keyboard-response","77","137880","0.0-6.0-1.35","SOBA","3","f","rechts","21","","","self","f","0","true"
"null","<div style=""font-size:60px;"">+</div>","null","html-keyboard-response","78","138246","0.0-6.0-0.36","SOBA","3","f","rechts","21","","fixation","","","",""
"1068","img/60_330.png","70","image-keyboard-response","79","139332","0.0-6.0-1.36","SOBA","3","f","rechts","21","","","self","f","60","true"
"null","<div style=""font-size:60px;"">+</div>","null","html-keyboard-response","80","139840","0.0-6.0-0.37","SOBA","3","f","rechts","21","","fixation","","","",""
"1034","img/150_240.png","74","image-keyboard-response","81","140895","0.0-6.0-1.37","SOBA","3","f","rechts","21","","","self","j","150","true"
"null","<div style=""font-size:60px;"">+</div>","null","html-keyboard-response","82","141418","0.0-6.0-0.38","SOBA","3","f","rechts","21","","fixation","","","",""
"962","img/90_150.png","70","image-keyboard-response","83","142392","0.0-6.0-1.38","SOBA","3","f","rechts","21","","","self","f","90","true"
"null","<div style=""font-size:60px;"">+</div>","null","html-keyboard-response","84","142699","0.0-6.0-0.39","SOBA","3","f","rechts","21","","fixation","","","",""
"867","img/150_270.png","74","image-keyboard-response","85","143584","0.0-6.0-1.39","SOBA","3","f","rechts","21","","","self","j","150","true"
"null","<div style=""font-size:60px;"">+</div>","null","html-keyboard-response","86","143902","0.0-6.0-0.40","SOBA","3","f","rechts","21","","fixation","","","",""
"1757","img/120_30.png","74","image-keyboard-response","87","145678","0.0-6.0-1.40","SOBA","3","f","rechts","21","","","self","j","120","true"
"null","<div style=""font-size:60px;"">+</div>","null","html-keyboard-response","88","145980","0.0-6.0-0.41","SOBA","3","f","rechts","21","","fixation","","","",""
"1040","img/90_30.png","74","image-keyboard-response","89","147038","0.0-6.0-1.41","SOBA","3","f","rechts","21","","","self","j","90","true"
"null","<div style=""font-size:60px;"">+</div>","null","html-keyboard-response","90","147357","0.0-6.0-0.42","SOBA","3","f","rechts","21","","fixation","","","",""
"1080","img/90_300.png","70","image-keyboard-response","91","148455","0.0-6.0-1.42","SOBA","3","f","rechts","21","","","self","f","90","true"
"null","<div style=""font-size:60px;"">+</div>","null","html-keyboard-response","92","148962","0.0-6.0-0.43","SOBA","3","f","rechts","21","","fixation","","","",""
"858","img/60_270.png","70","image-keyboard-response","93","149840","0.0-6.0-1.43","SOBA","3","f","rechts","21","","","self","f","60","true"
"null","<div style=""font-size:60px;"">+</div>","null","html-keyboard-response","94","150212","0.0-6.0-0.44","SOBA","3","f","rechts","21","","fixation","","","",""
"1038","img/150_180.png","74","image-keyboard-response","95","151268","0.0-6.0-1.44","SOBA","3","f","rechts","21","","","self","j","150","true"
"null","<div style=""font-size:60px;"">+</div>","null","html-keyboard-response","96","151680","0.0-6.0-0.45","SOBA","3","f","rechts","21","","fixation","","","",""
"780","img/0_210.png","70","image-keyboard-response","97","152479","0.0-6.0-1.45","SOBA","3","f","rechts","21","","","self","f","0","true"
"null","<div style=""font-size:60px;"">+</div>","null","html-keyboard-response","98","152946","0.0-6.0-0.46","SOBA","3","f","rechts","21","","fixation","","","",""
"958","img/L60_180.png","70","image-keyboard-response","99","153923","0.0-6.0-1.46","SOBA","3","f","rechts","21","","","self","f","60","true"
"null","<div style=""font-size:60px;"">+</div>","null","html-keyboard-response","100","154383","0.0-6.0-0.47","SOBA","3","f","rechts","21","","fixation","","","",""
"696","img/90_180.png","74","image-keyboard-response","101","155092","0.0-6.0-1.47","SOBA","3","f","rechts","21","","","self","j","90","true"
"null","<div style=""font-size:60px;"">+</div>","null","html-keyboard-response","102","155603","0.0-6.0-0.48","SOBA","3","f","rechts","21","","fixation","","","",""
"1046","img/90_330.png","70","image-keyboard-response","103","156669","0.0-6.0-1.48","SOBA","3","f","rechts","21","","","self","f","90","true"
"null","<div style=""font-size:60px;"">+</div>","null","html-keyboard-response","104","156980","0.0-6.0-0.49","SOBA","3","f","rechts","21","","fixation","","","",""
"896","img/90_210.png","74","image-keyboard-response","105","157894","0.0-6.0-1.49","SOBA","3","f","rechts","21","","","self","j","90","true"
"null","<div style=""font-size:60px;"">+</div>","null","html-keyboard-response","106","158416","0.0-6.0-0.50","SOBA","3","f","rechts","21","","fixation","","","",""
"716","img/0_60.png","74","image-keyboard-response","107","159143","0.0-6.0-1.50","SOBA","3","f","rechts","21","","","self","j","0","true"
"null","<div style=""font-size:60px;"">+</div>","null","html-keyboard-response","108","159621","0.0-6.0-0.51","SOBA","3","f","rechts","21","","fixation","","","",""
"820","img/120_150.png","70","image-keyboard-response","109","160458","0.0-6.0-1.51","SOBA","3","f","rechts","21","","","self","f","120","true"
"null","<div style=""font-size:60px;"">+</div>","null","html-keyboard-response","110","160917","0.0-6.0-0.52","SOBA","3","f","rechts","21","","fixation","","","",""
"1613","img/120_30.png","74","image-keyboard-response","111","162541","0.0-6.0-1.52","SOBA","3","f","rechts","21","","","self","j","120","true"
"null","<div style=""font-size:60px;"">+</div>","null","html-keyboard-response","112","163057","0.0-6.0-0.53","SOBA","3","f","rechts","21","","fixation","","","",""
"1149","img/150_90.png","70","image-keyboard-response","113","164217","0.0-6.0-1.53","SOBA","3","f","rechts","21","","","self","f","150","true"
"null","<div style=""font-size:60px;"">+</div>","null","html-keyboard-response","114","164620","0.0-6.0-0.54","SOBA","3","f","rechts","21","","fixation","","","",""
"831","img/L150_180.png","70","image-keyboard-response","115","165463","0.0-6.0-1.54","SOBA","3","f","rechts","21","","","self","f","150","true"
"null","<div style=""font-size:60px;"">+</div>","null","html-keyboard-response","116","165994","0.0-6.0-0.55","SOBA","3","f","rechts","21","","fixation","","","",""
"1390","img/30_120.png","74","image-keyboard-response","117","167400","0.0-6.0-1.55","SOBA","3","f","rechts","21","","","self","j","30","true"
"null","<div style=""font-size:60px;"">+</div>","null","html-keyboard-response","118","167902","0.0-6.0-0.56","SOBA","3","f","rechts","21","","fixation","","","",""
"757","img/0_300.png","70","image-keyboard-response","119","168672","0.0-6.0-1.56","SOBA","3","f","rechts","21","","","self","f","0","true"
"null","<div style=""font-size:60px;"">+</div>","null","html-keyboard-response","120","169027","0.0-6.0-0.57","SOBA","3","f","rechts","21","","fixation","","","",""
"947","img/60_180.png","74","image-keyboard-response","121","169987","0.0-6.0-1.57","SOBA","3","f","rechts","21","","","self","j","60","true"
"null","<div style=""font-size:60px;"">+</div>","null","html-keyboard-response","122","170448","0.0-6.0-0.58","SOBA","3","f","rechts","21","","fixation","","","",""
"808","img/90_180.png","74","image-keyboard-response","123","171260","0.0-6.0-1.58","SOBA","3","f","rechts","21","","","self","j","90","true"
"null","<div style=""font-size:60px;"">+</div>","null","html-keyboard-response","124","171574","0.0-6.0-0.59","SOBA","3","f","rechts","21","","fixation","","","",""
"876","img/30_180.png","74","image-keyboard-response","125","172462","0.0-6.0-1.59","SOBA","3","f","rechts","21","","","self","j","30","true"
"null","<div style=""font-size:60px;"">+</div>","null","html-keyboard-response","126","172870","0.0-6.0-0.60","SOBA","3","f","rechts","21","","fixation","","","",""
"1846","img/60_270.png","70","image-keyboard-response","127","174725","0.0-6.0-1.60","SOBA","3","f","rechts","21","","","self","f","60","true"
"null","<div style=""font-size:60px;"">+</div>","null","html-keyboard-response","128","175089","0.0-6.0-0.61","SOBA","3","f","rechts","21","","fixation","","","",""
"1133","img/150_270.png","74","image-keyboard-response","129","176231","0.0-6.0-1.61","SOBA","3","f","rechts","21","","","self","j","150","true"
"null","<div style=""font-size:60px;"">+</div>","null","html-keyboard-response","130","176606","0.0-6.0-0.62","SOBA","3","f","rechts","21","","fixation","","","",""
"977","img/90_240.png","74","image-keyboard-response","131","177595","0.0-6.0-1.62","SOBA","3","f","rechts","21","","","self","j","90","true"
"null","<div style=""font-size:60px;"">+</div>","null","html-keyboard-response","132","178107","0.0-6.0-0.63","SOBA","3","f","rechts","21","","fixation","","","",""
"711","img/0_120.png","74","image-keyboard-response","133","178831","0.0-6.0-1.63","SOBA","3","f","rechts","21","","","self","j","0","true"
"null","<div style=""font-size:60px;"">+</div>","null","html-keyboard-response","134","179356","0.0-6.0-0.64","SOBA","3","f","rechts","21","","fixation","","","",""
"1400","img/L120_180.png","70","image-keyboard-response","135","180765","0.0-6.0-1.64","SOBA","3","f","rechts","21","","","self","f","120","true"
"null","<div style=""font-size:60px;"">+</div>","null","html-keyboard-response","136","181185","0.0-6.0-0.65","SOBA","3","f","rechts","21","","fixation","","","",""
"1313","img/90_330.png","70","image-keyboard-response","137","182507","0.0-6.0-1.65","SOBA","3","f","rechts","21","","","self","f","90","true"
"null","<div style=""font-size:60px;"">+</div>","null","html-keyboard-response","138","182818","0.0-6.0-0.66","SOBA","3","f","rechts","21","","fixation","","","",""
"1310","img/60_210.png","74","image-keyboard-response","139","184142","0.0-6.0-1.66","SOBA","3","f","rechts","21","","","self","j","60","true"
"null","<div style=""font-size:60px;"">+</div>","null","html-keyboard-response","140","184552","0.0-6.0-0.67","SOBA","3","f","rechts","21","","fixation","","","",""
"882","img/60_330.png","70","image-keyboard-response","141","185445","0.0-6.0-1.67","SOBA","3","f","rechts","21","","","self","f","60","true"
"null","<div style=""font-size:60px;"">+</div>","null","html-keyboard-response","142","185896","0.0-6.0-0.68","SOBA","3","f","rechts","21","","fixation","","","",""
"2667","img/90_60.png","74","image-keyboard-response","143","188576","0.0-6.0-1.68","SOBA","3","f","rechts","21","","","self","j","90","true"
"null","<div style=""font-size:60px;"">+</div>","null","html-keyboard-response","144","188900","0.0-6.0-0.69","SOBA","3","f","rechts","21","","fixation","","","",""
"1047","img/0_60.png","74","image-keyboard-response","145","189957","0.0-6.0-1.69","SOBA","3","f","rechts","21","","","self","j","0","true"
"null","<div style=""font-size:60px;"">+</div>","null","html-keyboard-response","146","190478","0.0-6.0-0.70","SOBA","3","f","rechts","21","","fixation","","","",""
"1130","img/0_240.png","70","image-keyboard-response","147","191611","0.0-6.0-1.70","SOBA","3","f","rechts","21","","","self","f","0","true"
"null","<div style=""font-size:60px;"">+</div>","null","html-keyboard-response","148","192026","0.0-6.0-0.71","SOBA","3","f","rechts","21","","fixation","","","",""
"1700","img/150_300.png","74","image-keyboard-response","149","193738","0.0-6.0-1.71","SOBA","3","f","rechts","21","","","self","j","150","true"
"null","<div style=""font-size:60px;"">+</div>","null","html-keyboard-response","150","194244","0.0-6.0-0.72","SOBA","3","f","rechts","21","","fixation","","","",""
"1104","img/120_90.png","70","image-keyboard-response","151","195357","0.0-6.0-1.72","SOBA","3","f","rechts","21","","","self","f","120","true"
"null","<div style=""font-size:60px;"">+</div>","null","html-keyboard-response","152","195666","0.0-6.0-0.73","SOBA","3","f","rechts","21","","fixation","","","",""
"1119","img/0_270.png","70","image-keyboard-response","153","196798","0.0-6.0-1.73","SOBA","3","f","rechts","21","","","self","f","0","true"
"null","<div style=""font-size:60px;"">+</div>","null","html-keyboard-response","154","197106","0.0-6.0-0.74","SOBA","3","f","rechts","21","","fixation","","","",""
"1174","img/L30_180.png","70","image-keyboard-response","155","198294","0.0-6.0-1.74","SOBA","3","f","rechts","21","","","self","f","30","true"
"null","<div style=""font-size:60px;"">+</div>","null","html-keyboard-response","156","198809","0.0-6.0-0.75","SOBA","3","f","rechts","21","","fixation","","","",""
"2209","img/60_150.png","70","image-keyboard-response","157","201032","0.0-6.0-1.75","SOBA","3","f","rechts","21","","","self","f","60","true"
"null","<div style=""font-size:60px;"">+</div>","null","html-keyboard-response","158","201403","0.0-6.0-0.76","SOBA","3","f","rechts","21","","fixation","","","",""
"938","img/90_120.png","70","image-keyboard-response","159","202355","0.0-6.0-1.76","SOBA","3","f","rechts","21","","","self","f","90","true"
"null","<div style=""font-size:60px;"">+</div>","null","html-keyboard-response","160","202670","0.0-6.0-0.77","SOBA","3","f","rechts","21","","fixation","","","",""
"1360","img/60_30.png","74","image-keyboard-response","161","204043","0.0-6.0-1.77","SOBA","3","f","rechts","21","","","self","j","60","true"
"null","<div style=""font-size:60px;"">+</div>","null","html-keyboard-response","162","204559","0.0-6.0-0.78","SOBA","3","f","rechts","21","","fixation","","","",""
"1090","img/L90_180.png","70","image-keyboard-response","163","205662","0.0-6.0-1.78","SOBA","3","f","rechts","21","","","self","f","90","true"
"null","<div style=""font-size:60px;"">+</div>","null","html-keyboard-response","164","206075","0.0-6.0-0.79","SOBA","3","f","rechts","21","","fixation","","","",""
"804","img/120_150.png","70","image-keyboard-response","165","206889","0.0-6.0-1.79","SOBA","3","f","rechts","21","","","self","f","120","true"
"null","<div style=""font-size:60px;"">+</div>","null","html-keyboard-response","166","207262","0.0-6.0-0.80","SOBA","3","f","rechts","21","","fixation","","","",""
"907","img/0_330.png","70","image-keyboard-response","167","208182","0.0-6.0-1.80","SOBA","3","f","rechts","21","","","self","f","0","true"
"null","<div style=""font-size:60px;"">+</div>","null","html-keyboard-response","168","208589","0.0-6.0-0.81","SOBA","3","f","rechts","21","","fixation","","","",""
"1556","img/150_240.png","74","image-keyboard-response","169","210150","0.0-6.0-1.81","SOBA","3","f","rechts","21","","","self","j","150","true"
"null","<div style=""font-size:60px;"">+</div>","null","html-keyboard-response","170","210621","0.0-6.0-0.82","SOBA","3","f","rechts","21","","fixation","","","",""
"1196","img/150_180.png","74","image-keyboard-response","171","211828","0.0-6.0-1.82","SOBA","3","f","rechts","21","","","self","j","150","true"
"null","<div style=""font-size:60px;"">+</div>","null","html-keyboard-response","172","212248","0.0-6.0-0.83","SOBA","3","f","rechts","21","","fixation","","","",""
"1884","img/30_240.png","70","image-keyboard-response","173","214145","0.0-6.0-1.83","SOBA","3","f","rechts","21","","","self","f","30","true"
"null","<div style=""font-size:60px;"">+</div>","null","html-keyboard-response","174","214560","0.0-6.0-0.84","SOBA","3","f","rechts","21","","fixation","","","",""
"2511","img/90_300.png","70","image-keyboard-response","175","217075","0.0-6.0-1.84","SOBA","3","f","rechts","21","","","self","f","90","true"
"null","<div style=""font-size:60px;"">+</div>","null","html-keyboard-response","176","217524","0.0-6.0-0.85","SOBA","3","f","rechts","21","","fixation","","","",""
"711","img/0_90.png","74","image-keyboard-response","177","218240","0.0-6.0-1.85","SOBA","3","f","rechts","21","","","self","j","0","true"
"null","<div style=""font-size:60px;"">+</div>","null","html-keyboard-response","178","218744","0.0-6.0-0.86","SOBA","3","f","rechts","21","","fixation","","","",""
"1597","img/30_90.png","74","image-keyboard-response","179","220356","0.0-6.0-1.86","SOBA","3","f","rechts","21","","","self","j","30","true"
"null","<div style=""font-size:60px;"">+</div>","null","html-keyboard-response","180","220883","0.0-6.0-0.87","SOBA","3","f","rechts","21","","fixation","","","",""
"903","img/90_30.png","74","image-keyboard-response","181","221795","0.0-6.0-1.87","SOBA","3","f","rechts","21","","","self","j","90","true"
"null","<div style=""font-size:60px;"">+</div>","null","html-keyboard-response","182","222119","0.0-6.0-0.88","SOBA","3","f","rechts","21","","fixation","","","",""
"1228","img/120_330.png","70","image-keyboard-response","183","223359","0.0-6.0-1.88","SOBA","3","f","rechts","21","","","self","f","120","true"
"null","<div style=""font-size:60px;"">+</div>","null","html-keyboard-response","184","223664","0.0-6.0-0.89","SOBA","3","f","rechts","21","","fixation","","","",""
"998","img/120_210.png","74","image-keyboard-response","185","224675","0.0-6.0-1.89","SOBA","3","f","rechts","21","","","self","j","120","true"
"null","<div style=""font-size:60px;"">+</div>","null","html-keyboard-response","186","225102","0.0-6.0-0.90","SOBA","3","f","rechts","21","","fixation","","","",""
"1178","img/30_60.png","74","image-keyboard-response","187","226293","0.0-6.0-1.90","SOBA","3","f","rechts","21","","","self","j","30","true"
"null","<div style=""font-size:60px;"">+</div>","null","html-keyboard-response","188","226741","0.0-6.0-0.91","SOBA","3","f","rechts","21","","fixation","","","",""
"785","img/0_210.png","70","image-keyboard-response","189","227531","0.0-6.0-1.91","SOBA","3","f","rechts","21","","","self","f","0","true"
"null","<div style=""font-size:60px;"">+</div>","null","html-keyboard-response","190","228040","0.0-6.0-0.92","SOBA","3","f","rechts","21","","fixation","","","",""
"976","img/90_150.png","70","image-keyboard-response","191","229030","0.0-6.0-1.92","SOBA","3","f","rechts","21","","","self","f","90","true"
"null","<div style=""font-size:60px;"">+</div>","null","html-keyboard-response","192","229337","0.0-6.0-0.93","SOBA","3","f","rechts","21","","fixation","","","",""
"894","img/120_180.png","74","image-keyboard-response","193","230245","0.0-6.0-1.93","SOBA","3","f","rechts","21","","","self","j","120","true"
"null","<div style=""font-size:60px;"">+</div>","null","html-keyboard-response","194","230618","0.0-6.0-0.94","SOBA","3","f","rechts","21","","fixation","","","",""
"1005","img/150_60.png","70","image-keyboard-response","195","231628","0.0-6.0-1.94","SOBA","3","f","rechts","21","","","self","f","150","true"
"null","<div style=""font-size:60px;"">+</div>","null","html-keyboard-response","196","232134","0.0-6.0-0.95","SOBA","3","f","rechts","21","","fixation","","","",""
"784","img/150_120.png","70","image-keyboard-response","197","232932","0.0-6.0-1.95","SOBA","3","f","rechts","21","","","self","f","150","true"
"null","<div style=""font-size:60px;"">+</div>","null","html-keyboard-response","198","233337","0.0-6.0-0.96","SOBA","3","f","rechts","21","","fixation","","","",""
"686","img/0_30.png","74","image-keyboard-response","199","234036","0.0-6.0-1.96","SOBA","3","f","rechts","21","","","self","j","0","true"
"null","<div style=""font-size:60px;"">+</div>","null","html-keyboard-response","200","234446","0.0-6.0-0.97","SOBA","3","f","rechts","21","","fixation","","","",""
"679","img/L60_180.png","70","image-keyboard-response","201","235138","0.0-6.0-1.97","SOBA","3","f","rechts","21","","","self","f","60","true"
"null","<div style=""font-size:60px;"">+</div>","null","html-keyboard-response","202","235555","0.0-6.0-0.98","SOBA","3","f","rechts","21","","fixation","","","",""
"917","img/30_270.png","70","image-keyboard-response","203","236477","0.0-6.0-1.98","SOBA","3","f","rechts","21","","","self","f","30","true"
"null","<div style=""font-size:60px;"">+</div>","null","html-keyboard-response","204","236791","0.0-6.0-0.99","SOBA","3","f","rechts","21","","fixation","","","",""
"806","img/120_270.png","74","image-keyboard-response","205","237610","0.0-6.0-1.99","SOBA","3","f","rechts","21","","","self","j","120","true"
"null","<div style=""font-size:60px;"">+</div>","null","html-keyboard-response","206","237979","0.0-6.0-0.100","SOBA","3","f","rechts","21","","fixation","","","",""
"958","img/30_300.png","70","image-keyboard-response","207","238950","0.0-6.0-1.100","SOBA","3","f","rechts","21","","","self","f","30","true"
"null","<div style=""font-size:60px;"">+</div>","null","html-keyboard-response","208","239260","0.0-6.0-0.101","SOBA","3","f","rechts","21","","fixation","","","",""
"735","img/0_150.png","74","image-keyboard-response","209","240009","0.0-6.0-1.101","SOBA","3","f","rechts","21","","","self","j","0","true"
"null","<div style=""font-size:60px;"">+</div>","null","html-keyboard-response","210","240525","0.0-6.0-0.102","SOBA","3","f","rechts","21","","fixation","","","",""
"1008","img/60_90.png","70","image-keyboard-response","211","241537","0.0-6.0-1.102","SOBA","3","f","rechts","21","","","self","j","60","false"
"null","<div style=""font-size:60px;"">+</div>","null","html-keyboard-response","212","241853","0.0-6.0-0.103","SOBA","3","f","rechts","21","","fixation","","","",""
"989","img/90_210.png","74","image-keyboard-response","213","242855","0.0-6.0-1.103","SOBA","3","f","rechts","21","","","self","j","90","true"
"null","<div style=""font-size:60px;"">+</div>","null","html-keyboard-response","214","243166","0.0-6.0-0.104","SOBA","3","f","rechts","21","","fixation","","","",""
"1054","img/60_90.png","74","image-keyboard-response","215","244230","0.0-6.0-1.104","SOBA","3","f","rechts","21","","","self","j","60","true"
"null","<div style=""font-size:60px;"">+</div>","null","html-keyboard-response","216","244760","0.0-6.0-0.105","SOBA","3","f","rechts","21","","fixation","","","",""
"884","img/60_180.png","74","image-keyboard-response","217","245656","0.0-6.0-1.105","SOBA","3","f","rechts","21","","","self","j","60","true"
"null","<div style=""font-size:60px;"">+</div>","null","html-keyboard-response","218","245979","0.0-6.0-0.106","SOBA","3","f","rechts","21","","fixation","","","",""
"1432","img/60_270.png","70","image-keyboard-response","219","247424","0.0-6.0-1.106","SOBA","3","f","rechts","21","","","self","f","60","true"
"null","<div style=""font-size:60px;"">+</div>","null","html-keyboard-response","220","247934","0.0-6.0-0.107","SOBA","3","f","rechts","21","","fixation","","","",""
"941","img/150_300.png","74","image-keyboard-response","221","248886","0.0-6.0-1.107","SOBA","3","f","rechts","21","","","self","j","150","true"
"null","<div style=""font-size:60px;"">+</div>","null","html-keyboard-response","222","249247","0.0-6.0-0.108","SOBA","3","f","rechts","21","","fixation","","","",""
"845","img/90_210.png","74","image-keyboard-response","223","250101","0.0-6.0-1.108","SOBA","3","f","rechts","21","","","self","j","90","true"
"null","<div style=""font-size:60px;"">+</div>","null","html-keyboard-response","224","250417","0.0-6.0-0.109","SOBA","3","f","rechts","21","","fixation","","","",""
"953","img/120_150.png","70","image-keyboard-response","225","251383","0.0-6.0-1.109","SOBA","3","f","rechts","21","","","self","f","120","true"
"null","<div style=""font-size:60px;"">+</div>","null","html-keyboard-response","226","251793","0.0-6.0-0.110","SOBA","3","f","rechts","21","","fixation","","","",""
"791","img/0_240.png","70","image-keyboard-response","227","252596","0.0-6.0-1.110","SOBA","3","f","rechts","21","","","self","f","0","true"
"null","<div style=""font-size:60px;"">+</div>","null","html-keyboard-response","228","252918","0.0-6.0-0.111","SOBA","3","f","rechts","21","","fixation","","","",""
"703","img/0_30.png","74","image-keyboard-response","229","253630","0.0-6.0-1.111","SOBA","3","f","rechts","21","","","self","j","0","true"
"null","<div style=""font-size:60px;"">+</div>","null","html-keyboard-response","230","253996","0.0-6.0-0.112","SOBA","3","f","rechts","21","","fixation","","","",""
"922","img/30_270.png","70","image-keyboard-response","231","254927","0.0-6.0-1.112","SOBA","3","f","rechts","21","","","self","f","30","true"
"null","<div style=""font-size:60px;"">+</div>","null","html-keyboard-response","232","255355","0.0-6.0-0.113","SOBA","3","f","rechts","21","","fixation","","","",""
"946","img/30_60.png","74","image-keyboard-response","233","256311","0.0-6.0-1.113","SOBA","3","f","rechts","21","","","self","j","30","true"
"null","<div style=""font-size:60px;"">+</div>","null","html-keyboard-response","234","256778","0.0-6.0-0.114","SOBA","3","f","rechts","21","","fixation","","","",""
"740","img/30_90.png","74","image-keyboard-response","235","257526","0.0-6.0-1.114","SOBA","3","f","rechts","21","","","self","j","30","true"
"null","<div style=""font-size:60px;"">+</div>","null","html-keyboard-response","236","257933","0.0-6.0-0.115","SOBA","3","f","rechts","21","","fixation","","","",""
"989","img/90_60.png","74","image-keyboard-response","237","258932","0.0-6.0-1.115","SOBA","3","f","rechts","21","","","self","j","90","true"
"null","<div style=""font-size:60px;"">+</div>","null","html-keyboard-response","238","259387","0.0-6.0-0.116","SOBA","3","f","rechts","21","","fixation","","","",""
"1018","img/90_330.png","70","image-keyboard-response","239","260418","0.0-6.0-1.116","SOBA","3","f","rechts","21","","","self","f","90","true"
"null","<div style=""font-size:60px;"">+</div>","null","html-keyboard-response","240","260824","0.0-6.0-0.117","SOBA","3","f","rechts","21","","fixation","","","",""
"969","img/150_240.png","74","image-keyboard-response","241","261802","0.0-6.0-1.117","SOBA","3","f","rechts","21","","","self","j","150","true"
"null","<div style=""font-size:60px;"">+</div>","null","html-keyboard-response","242","262279","0.0-6.0-0.118","SOBA","3","f","rechts","21","","fixation","","","",""
"914","img/120_90.png","70","image-keyboard-response","243","263207","0.0-6.0-1.118","SOBA","3","f","rechts","21","","","self","f","120","true"
"null","<div style=""font-size:60px;"">+</div>","null","html-keyboard-response","244","263671","0.0-6.0-0.119","SOBA","3","f","rechts","21","","fixation","","","",""
"829","img/0_270.png","70","image-keyboard-response","245","264511","0.0-6.0-1.119","SOBA","3","f","rechts","21","","","self","f","0","true"
"null","<div style=""font-size:60px;"">+</div>","null","html-keyboard-response","246","264919","0.0-6.0-0.120","SOBA","3","f","rechts","21","","fixation","","","",""
"852","img/L30_180.png","70","image-keyboard-response","247","265782","0.0-6.0-1.120","SOBA","3","f","rechts","21","","","self","f","30","true"
"null","<div style=""font-size:60px;"">+</div>","null","html-keyboard-response","248","266247","0.0-6.0-0.121","SOBA","3","f","rechts","21","","fixation","","","",""
"839","img/150_180.png","74","image-keyboard-response","249","267099","0.0-6.0-1.121","SOBA","3","f","rechts","21","","","self","j","150","true"
"null","<div style=""font-size:60px;"">+</div>","null","html-keyboard-response","250","267527","0.0-6.0-0.122","SOBA","3","f","rechts","21","","fixation","","","",""
"897","img/120_270.png","74","image-keyboard-response","251","268428","0.0-6.0-1.122","SOBA","3","f","rechts","21","","","self","j","120","true"
"null","<div style=""font-size:60px;"">+</div>","null","html-keyboard-response","252","268888","0.0-6.0-0.123","SOBA","3","f","rechts","21","","fixation","","","",""
"764","img/0_60.png","74","image-keyboard-response","253","269664","0.0-6.0-1.123","SOBA","3","f","rechts","21","","","self","j","0","true"
"null","<div style=""font-size:60px;"">+</div>","null","html-keyboard-response","254","270137","0.0-6.0-0.124","SOBA","3","f","rechts","21","","fixation","","","",""
"732","img/L60_180.png","70","image-keyboard-response","255","270880","0.0-6.0-1.124","SOBA","3","f","rechts","21","","","self","f","60","true"
"null","<div style=""font-size:60px;"">+</div>","null","html-keyboard-response","256","271340","0.0-6.0-0.125","SOBA","3","f","rechts","21","","fixation","","","",""
"1272","img/90_30.png","74","image-keyboard-response","257","272621","0.0-6.0-1.125","SOBA","3","f","rechts","21","","","self","j","90","true"
"null","<div style=""font-size:60px;"">+</div>","null","html-keyboard-response","258","273124","0.0-6.0-0.126","SOBA","3","f","rechts","21","","fixation","","","",""
"1128","img/150_270.png","74","image-keyboard-response","259","274265","0.0-6.0-1.126","SOBA","3","f","rechts","21","","","self","j","150","true"
"null","<div style=""font-size:60px;"">+</div>","null","html-keyboard-response","260","274717","0.0-6.0-0.127","SOBA","3","f","rechts","21","","fixation","","","",""
"820","img/30_240.png","70","image-keyboard-response","261","275546","0.0-6.0-1.127","SOBA","3","f","rechts","21","","","self","f","30","true"
"null","<div style=""font-size:60px;"">+</div>","null","html-keyboard-response","262","275951","0.0-6.0-0.128","SOBA","3","f","rechts","21","","fixation","","","",""
"923","img/L120_180.png","70","image-keyboard-response","263","276888","0.0-6.0-1.128","SOBA","3","f","rechts","21","","","self","f","120","true"
"null","<div style=""font-size:60px;"">+</div>","null","html-keyboard-response","264","277404","0.0-6.0-0.129","SOBA","3","f","rechts","21","","fixation","","","",""
"854","img/0_120.png","74","image-keyboard-response","265","278272","0.0-6.0-1.129","SOBA","3","f","rechts","21","","","self","j","0","true"
"null","<div style=""font-size:60px;"">+</div>","null","html-keyboard-response","266","278685","0.0-6.0-0.130","SOBA","3","f","rechts","21","","fixation","","","",""
"1114","img/60_210.png","74","image-keyboard-response","267","279813","0.0-6.0-1.130","SOBA","3","f","rechts","21","","","self","j","60","true"
"null","<div style=""font-size:60px;"">+</div>","null","html-keyboard-response","268","280139","0.0-6.0-0.131","SOBA","3","f","rechts","21","","fixation","","","",""
"1336","img/90_300.png","70","image-keyboard-response","269","281488","0.0-6.0-1.131","SOBA","3","f","rechts","21","","","self","f","90","true"
"null","<div style=""font-size:60px;"">+</div>","null","html-keyboard-response","270","281844","0.0-6.0-0.132","SOBA","3","f","rechts","21","","fixation","","","",""
"1118","img/90_150.png","70","image-keyboard-response","271","282974","0.0-6.0-1.132","SOBA","3","f","rechts","21","","","self","f","90","true"
"null","<div style=""font-size:60px;"">+</div>","null","html-keyboard-response","272","283484","0.0-6.0-0.133","SOBA","3","f","rechts","21","","fixation","","","",""
"962","img/120_330.png","74","image-keyboard-response","273","284459","0.0-6.0-1.133","SOBA","3","f","rechts","21","","","self","f","120","false"
"null","<div style=""font-size:60px;"">+</div>","null","html-keyboard-response","274","284764","0.0-6.0-0.134","SOBA","3","f","rechts","21","","fixation","","","",""
"1122","img/90_180.png","74","image-keyboard-response","275","285900","0.0-6.0-1.134","SOBA","3","f","rechts","21","","","self","j","90","true"
"null","<div style=""font-size:60px;"">+</div>","null","html-keyboard-response","276","286274","0.0-6.0-0.135","SOBA","3","f","rechts","21","","fixation","","","",""
"759","img/0_210.png","70","image-keyboard-response","277","287046","0.0-6.0-1.135","SOBA","3","f","rechts","21","","","self","f","0","true"
"null","<div style=""font-size:60px;"">+</div>","null","html-keyboard-response","278","287508","0.0-6.0-0.136","SOBA","3","f","rechts","21","","fixation","","","",""
"663","img/0_150.png","74","image-keyboard-response","279","288183","0.0-6.0-1.136","SOBA","3","f","rechts","21","","","self","j","0","true"
"null","<div style=""font-size:60px;"">+</div>","null","html-keyboard-response","280","288602","0.0-6.0-0.137","SOBA","3","f","rechts","21","","fixation","","","",""
"2528","img/30_120.png","74","image-keyboard-response","281","291134","0.0-6.0-1.137","SOBA","3","f","rechts","21","","","self","j","30","true"
"null","<div style=""font-size:60px;"">+</div>","null","html-keyboard-response","282","291536","0.0-6.0-0.138","SOBA","3","f","rechts","21","","fixation","","","",""
"744","img/0_90.png","74","image-keyboard-response","283","292288","0.0-6.0-1.138","SOBA","3","f","rechts","21","","","self","j","0","true"
"null","<div style=""font-size:60px;"">+</div>","null","html-keyboard-response","284","292650","0.0-6.0-0.139","SOBA","3","f","rechts","21","","fixation","","","",""
"940","img/60_30.png","74","image-keyboard-response","285","293603","0.0-6.0-1.139","SOBA","3","f","rechts","21","","","self","j","60","true"
"null","<div style=""font-size:60px;"">+</div>","null","html-keyboard-response","286","294135","0.0-6.0-0.140","SOBA","3","f","rechts","21","","fixation","","","",""
"1030","img/90_120.png","70","image-keyboard-response","287","295180","0.0-6.0-1.140","SOBA","3","f","rechts","21","","","self","f","90","true"
"null","<div style=""font-size:60px;"">+</div>","null","html-keyboard-response","288","295603","0.0-6.0-0.141","SOBA","3","f","rechts","21","","fixation","","","",""
"977","img/L90_180.png","70","image-keyboard-response","289","296585","0.0-6.0-1.141","SOBA","3","f","rechts","21","","","self","f","90","true"
"null","<div style=""font-size:60px;"">+</div>","null","html-keyboard-response","290","296994","0.0-6.0-0.142","SOBA","3","f","rechts","21","","fixation","","","",""
"839","img/0_300.png","70","image-keyboard-response","291","297846","0.0-6.0-1.142","SOBA","3","f","rechts","21","","","self","f","0","true"
"null","<div style=""font-size:60px;"">+</div>","null","html-keyboard-response","292","298369","0.0-6.0-0.143","SOBA","3","f","rechts","21","","fixation","","","",""
"1038","img/30_180.png","74","image-keyboard-response","293","299421","0.0-6.0-1.143","SOBA","3","f","rechts","21","","","self","j","30","true"
"null","<div style=""font-size:60px;"">+</div>","null","html-keyboard-response","294","299837","0.0-6.0-0.144","SOBA","3","f","rechts","21","","fixation","","","",""
"1146","img/150_90.png","70","image-keyboard-response","295","300996","0.0-6.0-1.144","SOBA","3","f","rechts","21","","","self","f","150","true"
"null","<div style=""font-size:60px;"">+</div>","null","html-keyboard-response","296","301478","0.0-6.0-0.145","SOBA","3","f","rechts","21","","fixation","","","",""
"1609","img/60_330.png","70","image-keyboard-response","297","303101","0.0-6.0-1.145","SOBA","3","f","rechts","21","","","self","f","60","true"
"null","<div style=""font-size:60px;"">+</div>","null","html-keyboard-response","298","303479","0.0-6.0-0.146","SOBA","3","f","rechts","21","","fixation","","","",""
"1012","img/150_120.png","70","image-keyboard-response","299","304506","0.0-6.0-1.146","SOBA","3","f","rechts","21","","","self","f","150","true"
"null","<div style=""font-size:60px;"">+</div>","null","html-keyboard-response","300","304964","0.0-6.0-0.147","SOBA","3","f","rechts","21","","fixation","","","",""
"990","img/120_210.png","74","image-keyboard-response","301","305970","0.0-6.0-1.147","SOBA","3","f","rechts","21","","","self","j","120","true"
"null","<div style=""font-size:60px;"">+</div>","null","html-keyboard-response","302","306479","0.0-6.0-0.148","SOBA","3","f","rechts","21","","fixation","","","",""
"949","img/L150_180.png","70","image-keyboard-response","303","307443","0.0-6.0-1.148","SOBA","3","f","rechts","21","","","self","f","150","true"
"null","<div style=""font-size:60px;"">+</div>","null","html-keyboard-response","304","307854","0.0-6.0-0.149","SOBA","3","f","rechts","21","","fixation","","","",""
"1027","img/60_150.png","70","image-keyboard-response","305","308894","0.0-6.0-1.149","SOBA","3","f","rechts","21","","","self","f","60","true"
"null","<div style=""font-size:60px;"">+</div>","null","html-keyboard-response","306","309261","0.0-6.0-0.150","SOBA","3","f","rechts","21","","fixation","","","",""
"1004","img/120_180.png","74","image-keyboard-response","307","310277","0.0-6.0-1.150","SOBA","3","f","rechts","21","","","self","j","120","true"
"null","<div style=""font-size:60px;"">+</div>","null","html-keyboard-response","308","310745","0.0-6.0-0.151","SOBA","3","f","rechts","21","","fixation","","","",""
"915","img/0_330.png","70","image-keyboard-response","309","311673","0.0-6.0-1.151","SOBA","3","f","rechts","21","","","self","f","0","true"
"null","<div style=""font-size:60px;"">+</div>","null","html-keyboard-response","310","312088","0.0-6.0-0.152","SOBA","3","f","rechts","21","","fixation","","","",""
"1157","img/150_60.png","70","image-keyboard-response","311","313259","0.0-6.0-1.152","SOBA","3","f","rechts","21","","","self","f","150","true"
"null","<div style=""font-size:60px;"">+</div>","null","html-keyboard-response","312","313572","0.0-6.0-0.153","SOBA","3","f","rechts","21","","fixation","","","",""
"2373","img/120_30.png","74","image-keyboard-response","313","315950","0.0-6.0-1.153","SOBA","3","f","rechts","21","","","self","j","120","true"
"null","<div style=""font-size:60px;"">+</div>","null","html-keyboard-response","314","316477","0.0-6.0-0.154","SOBA","3","f","rechts","21","","fixation","","","",""
"1091","img/30_300.png","70","image-keyboard-response","315","317586","0.0-6.0-1.154","SOBA","3","f","rechts","21","","","self","f","30","true"
"null","<div style=""font-size:60px;"">+</div>","null","html-keyboard-response","316","318043","0.0-6.0-0.155","SOBA","3","f","rechts","21","","fixation","","","",""
"1639","img/90_240.png","74","image-keyboard-response","317","319696","0.0-6.0-1.155","SOBA","3","f","rechts","21","","","self","j","90","true"
"null","<div style=""font-size:60px;"">+</div>","null","html-keyboard-response","318","320208","0.0-6.0-0.156","SOBA","3","f","rechts","21","","fixation","","","",""
"975","img/150_120.png","70","image-keyboard-response","319","321191","0.0-6.0-1.156","SOBA","3","f","rechts","21","","","self","f","150","true"
"null","<div style=""font-size:60px;"">+</div>","null","html-keyboard-response","320","321693","0.0-6.0-0.157","SOBA","3","f","rechts","21","","fixation","","","",""
"1490","img/30_300.png","70","image-keyboard-response","321","323193","0.0-6.0-1.157","SOBA","3","f","rechts","21","","","self","f","30","true"
"null","<div style=""font-size:60px;"">+</div>","null","html-keyboard-response","322","323654","0.0-6.0-0.158","SOBA","3","f","rechts","21","","fixation","","","",""
"946","img/L90_180.png","70","image-keyboard-response","323","324608","0.0-6.0-1.158","SOBA","3","f","rechts","21","","","self","f","90","true"
"null","<div style=""font-size:60px;"">+</div>","null","html-keyboard-response","324","325029","0.0-6.0-0.159","SOBA","3","f","rechts","21","","fixation","","","",""
"1001","img/30_180.png","74","image-keyboard-response","325","326040","0.0-6.0-1.159","SOBA","3","f","rechts","21","","","self","j","30","true"
"null","<div style=""font-size:60px;"">+</div>","null","html-keyboard-response","326","326403","0.0-6.0-0.160","SOBA","3","f","rechts","21","","fixation","","","",""
"784","img/0_240.png","70","image-keyboard-response","327","327198","0.0-6.0-1.160","SOBA","3","f","rechts","21","","","self","f","0","true"
"null","<div style=""font-size:60px;"">+</div>","null","html-keyboard-response","328","327512","0.0-6.0-0.161","SOBA","3","f","rechts","21","","fixation","","","",""
"1157","img/150_300.png","74","image-keyboard-response","329","328684","0.0-6.0-1.161","SOBA","3","f","rechts","21","","","self","j","150","true"
"null","<div style=""font-size:60px;"">+</div>","null","html-keyboard-response","330","329106","0.0-6.0-0.162","SOBA","3","f","rechts","21","","fixation","","","",""
"940","img/90_180.png","74","image-keyboard-response","331","330055","0.0-6.0-1.162","SOBA","3","f","rechts","21","","","self","j","90","true"
"null","<div style=""font-size:60px;"">+</div>","null","html-keyboard-response","332","330435","0.0-6.0-0.163","SOBA","3","f","rechts","21","","fixation","","","",""
"1456","img/120_90.png","70","image-keyboard-response","333","331901","0.0-6.0-1.163","SOBA","3","f","rechts","21","","","self","f","120","true"
"null","<div style=""font-size:60px;"">+</div>","null","html-keyboard-response","334","332358","0.0-6.0-0.164","SOBA","3","f","rechts","21","","fixation","","","",""
"838","img/60_150.png","70","image-keyboard-response","335","333206","0.0-6.0-1.164","SOBA","3","f","rechts","21","","","self","f","60","true"
"null","<div style=""font-size:60px;"">+</div>","null","html-keyboard-response","336","333623","0.0-6.0-0.165","SOBA","3","f","rechts","21","","fixation","","","",""
"927","img/90_210.png","74","image-keyboard-response","337","334555","0.0-6.0-1.165","SOBA","3","f","rechts","21","","","self","j","90","true"
"null","<div style=""font-size:60px;"">+</div>","null","html-keyboard-response","338","334983","0.0-6.0-0.166","SOBA","3","f","rechts","21","","fixation","","","",""
"943","img/L30_180.png","70","image-keyboard-response","339","335939","0.0-6.0-1.166","SOBA","3","f","rechts","21","","","self","f","30","true"
"null","<div style=""font-size:60px;"">+</div>","null","html-keyboard-response","340","336358","0.0-6.0-0.167","SOBA","3","f","rechts","21","","fixation","","","",""
"946","img/90_120.png","70","image-keyboard-response","341","337313","0.0-6.0-1.167","SOBA","3","f","rechts","21","","","self","f","90","true"
"null","<div style=""font-size:60px;"">+</div>","null","html-keyboard-response","342","337827","0.0-6.0-0.168","SOBA","3","f","rechts","21","","fixation","","","",""
"711","img/L120_180.png","70","image-keyboard-response","343","338547","0.0-6.0-1.168","SOBA","3","f","rechts","21","","","self","f","120","true"
"null","<div style=""font-size:60px;"">+</div>","null","html-keyboard-response","344","339061","0.0-6.0-0.169","SOBA","3","f","rechts","21","","fixation","","","",""
"1414","img/60_30.png","74","image-keyboard-response","345","340485","0.0-6.0-1.169","SOBA","3","f","rechts","21","","","self","j","60","true"
"null","<div style=""font-size:60px;"">+</div>","null","html-keyboard-response","346","340936","0.0-6.0-0.170","SOBA","3","f","rechts","21","","fixation","","","",""
"1189","img/90_330.png","70","image-keyboard-response","347","342138","0.0-6.0-1.170","SOBA","3","f","rechts","21","","","self","f","90","true"
"null","<div style=""font-size:60px;"">+</div>","null","html-keyboard-response","348","342547","0.0-6.0-0.171","SOBA","3","f","rechts","21","","fixation","","","",""
"2013","img/150_240.png","74","image-keyboard-response","349","344570","0.0-6.0-1.171","SOBA","3","f","rechts","21","","","self","j","150","true"
"null","<div style=""font-size:60px;"">+</div>","null","html-keyboard-response","350","344929","0.0-6.0-0.172","SOBA","3","f","rechts","21","","fixation","","","",""
"2248","img/90_240.png","74","image-keyboard-response","351","347186","0.0-6.0-1.172","SOBA","3","f","rechts","21","","","self","j","90","true"
"null","<div style=""font-size:60px;"">+</div>","null","html-keyboard-response","352","347591","0.0-6.0-0.173","SOBA","3","f","rechts","21","","fixation","","","",""
"831","img/0_210.png","70","image-keyboard-response","353","348427","0.0-6.0-1.173","SOBA","3","f","rechts","21","","","self","f","0","true"
"null","<div style=""font-size:60px;"">+</div>","null","html-keyboard-response","354","348935","0.0-6.0-0.174","SOBA","3","f","rechts","21","","fixation","","","",""
"963","img/30_240.png","70","image-keyboard-response","355","349912","0.0-6.0-1.174","SOBA","3","f","rechts","21","","","self","f","30","true"
"null","<div style=""font-size:60px;"">+</div>","null","html-keyboard-response","356","350326","0.0-6.0-0.175","SOBA","3","f","rechts","21","","fixation","","","",""
"833","img/0_60.png","74","image-keyboard-response","357","351172","0.0-6.0-1.175","SOBA","3","f","rechts","21","","","self","j","0","true"
"null","<div style=""font-size:60px;"">+</div>","null","html-keyboard-response","358","351591","0.0-6.0-0.176","SOBA","3","f","rechts","21","","fixation","","","",""
"747","img/0_150.png","74","image-keyboard-response","359","352342","0.0-6.0-1.176","SOBA","3","f","rechts","21","","","self","j","0","true"
"null","<div style=""font-size:60px;"">+</div>","null","html-keyboard-response","360","352805","0.0-6.0-0.177","SOBA","3","f","rechts","21","","fixation","","","",""
"896","img/L60_180.png","70","image-keyboard-response","361","353714","0.0-6.0-1.177","SOBA","3","f","rechts","21","","","self","f","60","true"
"null","<div style=""font-size:60px;"">+</div>","null","html-keyboard-response","362","354171","0.0-6.0-0.178","SOBA","3","f","rechts","21","","fixation","","","",""
"1129","img/150_60.png","70","image-keyboard-response","363","355311","0.0-6.0-1.178","SOBA","3","f","rechts","21","","","self","f","150","true"
"null","<div style=""font-size:60px;"">+</div>","null","html-keyboard-response","364","355843","0.0-6.0-0.179","SOBA","3","f","rechts","21","","fixation","","","",""
"1303","img/90_300.png","70","image-keyboard-response","365","357157","0.0-6.0-1.179","SOBA","3","f","rechts","21","","","self","f","90","true"
"null","<div style=""font-size:60px;"">+</div>","null","html-keyboard-response","366","357525","0.0-6.0-0.180","SOBA","3","f","rechts","21","","fixation","","","",""
"1384","img/150_180.png","74","image-keyboard-response","367","358924","0.0-6.0-1.180","SOBA","3","f","rechts","21","","","self","j","150","true"
"null","<div style=""font-size:60px;"">+</div>","null","html-keyboard-response","368","359431","0.0-6.0-0.181","SOBA","3","f","rechts","21","","fixation","","","",""
"1010","img/120_150.png","70","image-keyboard-response","369","360453","0.0-6.0-1.181","SOBA","3","f","rechts","21","","","self","f","120","true"
"null","<div style=""font-size:60px;"">+</div>","null","html-keyboard-response","370","360867","0.0-6.0-0.182","SOBA","3","f","rechts","21","","fixation","","","",""
"1069","img/30_270.png","70","image-keyboard-response","371","361951","0.0-6.0-1.182","SOBA","3","f","rechts","21","","","self","f","30","true"
"null","<div style=""font-size:60px;"">+</div>","null","html-keyboard-response","372","362305","0.0-6.0-0.183","SOBA","3","f","rechts","21","","fixation","","","",""
"891","img/60_270.png","70","image-keyboard-response","373","363209","0.0-6.0-1.183","SOBA","3","f","rechts","21","","","self","f","60","true"
"null","<div style=""font-size:60px;"">+</div>","null","html-keyboard-response","374","363539","0.0-6.0-0.184","SOBA","3","f","rechts","21","","fixation","","","",""
"1048","img/30_120.png","74","image-keyboard-response","375","364603","0.0-6.0-1.184","SOBA","3","f","rechts","21","","","self","j","30","true"
"null","<div style=""font-size:60px;"">+</div>","null","html-keyboard-response","376","364961","0.0-6.0-0.185","SOBA","3","f","rechts","21","","fixation","","","",""
"811","img/0_90.png","74","image-keyboard-response","377","365785","0.0-6.0-1.185","SOBA","3","f","rechts","21","","","self","j","0","true"
"null","<div style=""font-size:60px;"">+</div>","null","html-keyboard-response","378","366196","0.0-6.0-0.186","SOBA","3","f","rechts","21","","fixation","","","",""
"953","img/0_300.png","70","image-keyboard-response","379","367159","0.0-6.0-1.186","SOBA","3","f","rechts","21","","","self","f","0","true"
"null","<div style=""font-size:60px;"">+</div>","null","html-keyboard-response","380","367588","0.0-6.0-0.187","SOBA","3","f","rechts","21","","fixation","","","",""
"956","img/150_270.png","74","image-keyboard-response","381","368553","0.0-6.0-1.187","SOBA","3","f","rechts","21","","","self","j","150","true"
"null","<div style=""font-size:60px;"">+</div>","null","html-keyboard-response","382","368979","0.0-6.0-0.188","SOBA","3","f","rechts","21","","fixation","","","",""
"1140","img/120_210.png","74","image-keyboard-response","383","370130","0.0-6.0-1.188","SOBA","3","f","rechts","21","","","self","j","120","true"
"null","<div style=""font-size:60px;"">+</div>","null","html-keyboard-response","384","370634","0.0-6.0-0.189","SOBA","3","f","rechts","21","","fixation","","","",""
"962","img/60_210.png","74","image-keyboard-response","385","371600","0.0-6.0-1.189","SOBA","3","f","rechts","21","","","self","j","60","true"
"null","<div style=""font-size:60px;"">+</div>","null","html-keyboard-response","386","371979","0.0-6.0-0.190","SOBA","3","f","rechts","21","","fixation","","","",""
"758","img/60_180.png","74","image-keyboard-response","387","372750","0.0-6.0-1.190","SOBA","3","f","rechts","21","","","self","j","60","true"
"null","<div style=""font-size:60px;"">+</div>","null","html-keyboard-response","388","373166","0.0-6.0-0.191","SOBA","3","f","rechts","21","","fixation","","","",""
"1134","img/120_330.png","70","image-keyboard-response","389","374314","0.0-6.0-1.191","SOBA","3","f","rechts","21","","","self","f","120","true"
"null","<div style=""font-size:60px;"">+</div>","null","html-keyboard-response","390","374634","0.0-6.0-0.192","SOBA","3","f","rechts","21","","fixation","","","",""
"856","img/0_270.png","70","image-keyboard-response","391","375495","0.0-6.0-1.192","SOBA","3","f","rechts","21","","","self","f","0","true"
"null","<div style=""font-size:60px;"">+</div>","null","html-keyboard-response","392","375853","0.0-6.0-0.193","SOBA","3","f","rechts","21","","fixation","","","",""
"863","img/120_270.png","74","image-keyboard-response","393","376731","0.0-6.0-1.193","SOBA","3","f","rechts","21","","","self","j","120","true"
"null","<div style=""font-size:60px;"">+</div>","null","html-keyboard-response","394","377245","0.0-6.0-0.194","SOBA","3","f","rechts","21","","fixation","","","",""
"1385","img/60_330.png","70","image-keyboard-response","395","378643","0.0-6.0-1.194","SOBA","3","f","rechts","21","","","self","f","60","true"
"null","<div style=""font-size:60px;"">+</div>","null","html-keyboard-response","396","379012","0.0-6.0-0.195","SOBA","3","f","rechts","21","","fixation","","","",""
"721","img/0_120.png","74","image-keyboard-response","397","379748","0.0-6.0-1.195","SOBA","3","f","rechts","21","","","self","j","0","true"
"null","<div style=""font-size:60px;"">+</div>","null","html-keyboard-response","398","380168","0.0-6.0-0.196","SOBA","3","f","rechts","21","","fixation","","","",""
"1368","img/30_90.png","74","image-keyboard-response","399","381548","0.0-6.0-1.196","SOBA","3","f","rechts","21","","","self","j","30","true"
"null","<div style=""font-size:60px;"">+</div>","null","html-keyboard-response","400","382012","0.0-6.0-0.197","SOBA","3","f","rechts","21","","fixation","","","",""
"985","img/60_90.png","74","image-keyboard-response","401","383010","0.0-6.0-1.197","SOBA","3","f","rechts","21","","","self","j","60","true"
"null","<div style=""font-size:60px;"">+</div>","null","html-keyboard-response","402","383464","0.0-6.0-0.198","SOBA","3","f","rechts","21","","fixation","","","",""
"1006","img/90_150.png","70","image-keyboard-response","403","384484","0.0-6.0-1.198","SOBA","3","f","rechts","21","","","self","f","90","true"
"null","<div style=""font-size:60px;"">+</div>","null","html-keyboard-response","404","384995","0.0-6.0-0.199","SOBA","3","f","rechts","21","","fixation","","","",""
"982","img/150_90.png","70","image-keyboard-response","405","385991","0.0-6.0-1.199","SOBA","3","f","rechts","21","","","self","f","150","true"
"null","<div style=""font-size:60px;"">+</div>","null","html-keyboard-response","406","386402","0.0-6.0-0.200","SOBA","3","f","rechts","21","","fixation","","","",""
"838","img/0_330.png","70","image-keyboard-response","407","387252","0.0-6.0-1.200","SOBA","3","f","rechts","21","","","self","f","0","true"
"null","<div style=""font-size:60px;"">+</div>","null","html-keyboard-response","408","387762","0.0-6.0-0.201","SOBA","3","f","rechts","21","","fixation","","","",""
"833","img/30_60.png","74","image-keyboard-response","409","388609","0.0-6.0-1.201","SOBA","3","f","rechts","21","","","self","j","30","true"
"null","<div style=""font-size:60px;"">+</div>","null","html-keyboard-response","410","388970","0.0-6.0-0.202","SOBA","3","f","rechts","21","","fixation","","","",""
"1180","img/L150_180.png","70","image-keyboard-response","411","390163","0.0-6.0-1.202","SOBA","3","f","rechts","21","","","self","f","150","true"
"null","<div style=""font-size:60px;"">+</div>","null","html-keyboard-response","412","390532","0.0-6.0-0.203","SOBA","3","f","rechts","21","","fixation","","","",""
"1181","img/120_30.png","74","image-keyboard-response","413","391728","0.0-6.0-1.203","SOBA","3","f","rechts","21","","","self","j","120","true"
"null","<div style=""font-size:60px;"">+</div>","null","html-keyboard-response","414","392204","0.0-6.0-0.204","SOBA","3","f","rechts","21","","fixation","","","",""
"1188","img/90_30.png","74","image-keyboard-response","415","393405","0.0-6.0-1.204","SOBA","3","f","rechts","21","","","self","j","90","true"
"null","<div style=""font-size:60px;"">+</div>","null","html-keyboard-response","416","393783","0.0-6.0-0.205","SOBA","3","f","rechts","21","","fixation","","","",""
"1195","img/120_180.png","74","image-keyboard-response","417","394991","0.0-6.0-1.205","SOBA","3","f","rechts","21","","","self","j","120","true"
"null","<div style=""font-size:60px;"">+</div>","null","html-keyboard-response","418","395454","0.0-6.0-0.206","SOBA","3","f","rechts","21","","fixation","","","",""
"885","img/0_30.png","74","image-keyboard-response","419","396353","0.0-6.0-1.206","SOBA","3","f","rechts","21","","","self","j","0","true"
"null","<div style=""font-size:60px;"">+</div>","null","html-keyboard-response","420","396782","0.0-6.0-0.207","SOBA","3","f","rechts","21","","fixation","","","",""
"1245","img/90_60.png","74","image-keyboard-response","421","398040","0.0-6.0-1.207","SOBA","3","f","rechts","21","","","self","j","90","true"
"40049","<p>Du hast in 96% der Versuche korrekt entschieden.</p><p>Deine durchschnittliche Reaktionszeit war  1090ms.</p><p>Dr&uuml;cke eine beliebige Taste, um die Session zu beenden. Vielen Dank!</p>","32","html-keyboard-response","422","438095","0.0-7.0","SOBA","3","f","rechts","21","","","","","",""
