"rt","stimulus","key_press","trial_type","trial_index","time_elapsed","internal_node_id","subject","session","sex","handedness","age","responses","test_part","condition","correct_response","angle","correct"
"801","<p>Mental Rotation Experiment.</p> <p>Dr&uuml;cke eine beliebige Taste, um anzufangen.</p>","13","html-keyboard-response","0","837","0.0-0.0","SOBA","4","f","rechts","21","","","","","",""
"3033","","","survey-text","1","3872","0.0-1.0","SOBA","4","f","rechts","21","{""Q0"":""SOBA""}","","","","",""
"3602","","","survey-text","2","7476","0.0-2.0","SOBA","4","f","rechts","21","{""Q0"":""4""}","","","","",""
"3770","","","survey-multi-choice","3","11255","0.0-3.0","SOBA","4","f","rechts","21","{""Q0"":""f"",""Q1"":""rechts""}","","","","",""
"8031","","","survey-text","4","19288","0.0-4.0","SOBA","4","f","rechts","21","{""Q0"":""21""}","","","","",""
"98057","<p> Stell dir vor, dass du vor einem runden Tisch stehst, auf dem sich ein blauer Ball am Tischrand befindet. Entlang des Tischrands ist jeweils ein verschieden langer Pfeil. Nun bewegst du dich entlang dieses Pfeils bis an seine Spitze. Wenn du am Ende des Pfeils angekommen bist, schau zur Tischmitte. </p> <img src='img/90_180.png'></img> <br> <p>Entscheide dann, ob der Ball von deiner neuen (vorgestellten) Position links oder rechts von dir liegt.</p> <p>Dr&uuml;cke die <strong>'f'</strong>-Taste f&uuml;r links, die <strong>'j'</strong>-Taste f&uuml;r rechts.</p> <br><p> Das Bild wird jeweils 1 Sekunde lang pr&auml;sentiert. Du hast 3 Sekunden Zeit eine Entscheidung zu treffen.</p>","32","html-keyboard-response","5","117353","0.0-5.0","SOBA","4","f","rechts","21","","","","","",""
"null","<div style=""font-size:60px;"">+</div>","null","html-keyboard-response","6","118909","0.0-6.0-0.0","SOBA","4","f","rechts","21","","fixation","","","",""
"1965","img/120_330.png","70","image-keyboard-response","7","120896","0.0-6.0-1.0","SOBA","4","f","rechts","21","","","self","f","120","true"
"null","<div style=""font-size:60px;"">+</div>","null","html-keyboard-response","8","121265","0.0-6.0-0.1","SOBA","4","f","rechts","21","","fixation","","","",""
"1341","img/90_60.png","74","image-keyboard-response","9","122623","0.0-6.0-1.1","SOBA","4","f","rechts","21","","","self","j","90","true"
"null","<div style=""font-size:60px;"">+</div>","null","html-keyboard-response","10","122985","0.0-6.0-0.2","SOBA","4","f","rechts","21","","fixation","","","",""
"832","img/120_210.png","74","image-keyboard-response","11","123835","0.0-6.0-1.2","SOBA","4","f","rechts","21","","","self","j","120","true"
"null","<div style=""font-size:60px;"">+</div>","null","html-keyboard-response","12","124297","0.0-6.0-0.3","SOBA","4","f","rechts","21","","fixation","","","",""
"806","img/120_270.png","74","image-keyboard-response","13","125121","0.0-6.0-1.3","SOBA","4","f","rechts","21","","","self","j","120","true"
"null","<div style=""font-size:60px;"">+</div>","null","html-keyboard-response","14","125423","0.0-6.0-0.4","SOBA","4","f","rechts","21","","fixation","","","",""
"974","img/60_150.png","70","image-keyboard-response","15","126415","0.0-6.0-1.4","SOBA","4","f","rechts","21","","","self","f","60","true"
"null","<div style=""font-size:60px;"">+</div>","null","html-keyboard-response","16","126782","0.0-6.0-0.5","SOBA","4","f","rechts","21","","fixation","","","",""
"849","img/L150_180.png","70","image-keyboard-response","17","127641","0.0-6.0-1.5","SOBA","4","f","rechts","21","","","self","f","150","true"
"null","<div style=""font-size:60px;"">+</div>","null","html-keyboard-response","18","128172","0.0-6.0-0.6","SOBA","4","f","rechts","21","","fixation","","","",""
"1017","img/30_120.png","74","image-keyboard-response","19","129206","0.0-6.0-1.6","SOBA","4","f","rechts","21","","","self","j","30","true"
"null","<div style=""font-size:60px;"">+</div>","null","html-keyboard-response","20","129671","0.0-6.0-0.7","SOBA","4","f","rechts","21","","fixation","","","",""
"933","img/150_90.png","70","image-keyboard-response","21","130622","0.0-6.0-1.7","SOBA","4","f","rechts","21","","","self","f","150","true"
"null","<div style=""font-size:60px;"">+</div>","null","html-keyboard-response","22","130953","0.0-6.0-0.8","SOBA","4","f","rechts","21","","fixation","","","",""
"719","img/0_30.png","74","image-keyboard-response","23","131692","0.0-6.0-1.8","SOBA","4","f","rechts","21","","","self","j","0","true"
"null","<div style=""font-size:60px;"">+</div>","null","html-keyboard-response","24","132159","0.0-6.0-0.9","SOBA","4","f","rechts","21","","fixation","","","",""
"797","img/0_300.png","70","image-keyboard-response","25","132973","0.0-6.0-1.9","SOBA","4","f","rechts","21","","","self","f","0","true"
"null","<div style=""font-size:60px;"">+</div>","null","html-keyboard-response","26","133284","0.0-6.0-0.10","SOBA","4","f","rechts","21","","fixation","","","",""
"979","img/150_270.png","74","image-keyboard-response","27","134280","0.0-6.0-1.10","SOBA","4","f","rechts","21","","","self","j","150","true"
"null","<div style=""font-size:60px;"">+</div>","null","html-keyboard-response","28","134643","0.0-6.0-0.11","SOBA","4","f","rechts","21","","fixation","","","",""
"1001","img/150_60.png","70","image-keyboard-response","29","135662","0.0-6.0-1.11","SOBA","4","f","rechts","21","","","self","f","150","true"
"null","<div style=""font-size:60px;"">+</div>","null","html-keyboard-response","30","136018","0.0-6.0-0.12","SOBA","4","f","rechts","21","","fixation","","","",""
"761","img/L90_180.png","70","image-keyboard-response","31","136797","0.0-6.0-1.12","SOBA","4","f","rechts","21","","","self","f","90","true"
"null","<div style=""font-size:60px;"">+</div>","null","html-keyboard-response","32","137299","0.0-6.0-0.13","SOBA","4","f","rechts","21","","fixation","","","",""
"878","img/150_240.png","74","image-keyboard-response","33","138194","0.0-6.0-1.13","SOBA","4","f","rechts","21","","","self","j","150","true"
"null","<div style=""font-size:60px;"">+</div>","null","html-keyboard-response","34","138658","0.0-6.0-0.14","SOBA","4","f","rechts","21","","fixation","","","",""
"809","img/120_180.png","74","image-keyboard-response","35","139489","0.0-6.0-1.14","SOBA","4","f","rechts","21","","","self","j","120","true"
"null","<div style=""font-size:60px;"">+</div>","null","html-keyboard-response","36","139956","0.0-6.0-0.15","SOBA","4","f","rechts","21","","fixation","","","",""
"862","img/150_120.png","70","image-keyboard-response","37","140835","0.0-6.0-1.15","SOBA","4","f","rechts","21","","","self","f","150","true"
"null","<div style=""font-size:60px;"">+</div>","null","html-keyboard-response","38","141191","0.0-6.0-0.16","SOBA","4","f","rechts","21","","fixation","","","",""
"817","img/L60_180.png","70","image-keyboard-response","39","142030","0.0-6.0-1.16","SOBA","4","f","rechts","21","","","self","f","60","true"
"null","<div style=""font-size:60px;"">+</div>","null","html-keyboard-response","40","142441","0.0-6.0-0.17","SOBA","4","f","rechts","21","","fixation","","","",""
"740","img/0_330.png","70","image-keyboard-response","41","143199","0.0-6.0-1.17","SOBA","4","f","rechts","21","","","self","f","0","true"
"null","<div style=""font-size:60px;"">+</div>","null","html-keyboard-response","42","143708","0.0-6.0-0.18","SOBA","4","f","rechts","21","","fixation","","","",""
"894","img/60_270.png","70","image-keyboard-response","43","144618","0.0-6.0-1.18","SOBA","4","f","rechts","21","","","self","f","60","true"
"null","<div style=""font-size:60px;"">+</div>","null","html-keyboard-response","44","145082","0.0-6.0-0.19","SOBA","4","f","rechts","21","","fixation","","","",""
"856","img/30_300.png","70","image-keyboard-response","45","145955","0.0-6.0-1.19","SOBA","4","f","rechts","21","","","self","f","30","true"
"null","<div style=""font-size:60px;"">+</div>","null","html-keyboard-response","46","146424","0.0-6.0-0.20","SOBA","4","f","rechts","21","","fixation","","","",""
"728","img/0_270.png","70","image-keyboard-response","47","147171","0.0-6.0-1.20","SOBA","4","f","rechts","21","","","self","f","0","true"
"null","<div style=""font-size:60px;"">+</div>","null","html-keyboard-response","48","147597","0.0-6.0-0.21","SOBA","4","f","rechts","21","","fixation","","","",""
"1086","img/120_30.png","74","image-keyboard-response","49","148701","0.0-6.0-1.21","SOBA","4","f","rechts","21","","","self","j","120","true"
"null","<div style=""font-size:60px;"">+</div>","null","html-keyboard-response","50","149117","0.0-6.0-0.22","SOBA","4","f","rechts","21","","fixation","","","",""
"883","img/L30_180.png","70","image-keyboard-response","51","150017","0.0-6.0-1.22","SOBA","4","f","rechts","21","","","self","f","30","true"
"null","<div style=""font-size:60px;"">+</div>","null","html-keyboard-response","52","150320","0.0-6.0-0.23","SOBA","4","f","rechts","21","","fixation","","","",""
"927","img/30_240.png","70","image-keyboard-response","53","151265","0.0-6.0-1.23","SOBA","4","f","rechts","21","","","self","f","30","true"
"null","<div style=""font-size:60px;"">+</div>","null","html-keyboard-response","54","151679","0.0-6.0-0.24","SOBA","4","f","rechts","21","","fixation","","","",""
"705","img/0_90.png","74","image-keyboard-response","55","152403","0.0-6.0-1.24","SOBA","4","f","rechts","21","","","self","j","0","true"
"null","<div style=""font-size:60px;"">+</div>","null","html-keyboard-response","56","152821","0.0-6.0-0.25","SOBA","4","f","rechts","21","","fixation","","","",""
"836","img/120_90.png","70","image-keyboard-response","57","153662","0.0-6.0-1.25","SOBA","4","f","rechts","21","","","self","f","120","true"
"null","<div style=""font-size:60px;"">+</div>","null","html-keyboard-response","58","154180","0.0-6.0-0.26","SOBA","4","f","rechts","21","","fixation","","","",""
"859","img/90_210.png","74","image-keyboard-response","59","155057","0.0-6.0-1.26","SOBA","4","f","rechts","21","","","self","j","90","true"
"null","<div style=""font-size:60px;"">+</div>","null","html-keyboard-response","60","155539","0.0-6.0-0.27","SOBA","4","f","rechts","21","","fixation","","","",""
"695","img/0_120.png","74","image-keyboard-response","61","156250","0.0-6.0-1.27","SOBA","4","f","rechts","21","","","self","j","0","true"
"null","<div style=""font-size:60px;"">+</div>","null","html-keyboard-response","62","156557","0.0-6.0-0.28","SOBA","4","f","rechts","21","","fixation","","","",""
"1226","img/30_90.png","74","image-keyboard-response","63","157801","0.0-6.0-1.28","SOBA","4","f","rechts","21","","","self","j","30","true"
"null","<div style=""font-size:60px;"">+</div>","null","html-keyboard-response","64","158167","0.0-6.0-0.29","SOBA","4","f","rechts","21","","fixation","","","",""
"869","img/60_180.png","74","image-keyboard-response","65","159052","0.0-6.0-1.29","SOBA","4","f","rechts","21","","","self","j","60","true"
"null","<div style=""font-size:60px;"">+</div>","null","html-keyboard-response","66","159510","0.0-6.0-0.30","SOBA","4","f","rechts","21","","fixation","","","",""
"896","img/30_270.png","70","image-keyboard-response","67","160424","0.0-6.0-1.30","SOBA","4","f","rechts","21","","","self","f","30","true"
"null","<div style=""font-size:60px;"">+</div>","null","html-keyboard-response","68","160853","0.0-6.0-0.31","SOBA","4","f","rechts","21","","fixation","","","",""
"657","img/0_150.png","74","image-keyboard-response","69","161515","0.0-6.0-1.31","SOBA","4","f","rechts","21","","","self","j","0","true"
"null","<div style=""font-size:60px;"">+</div>","null","html-keyboard-response","70","161868","0.0-6.0-0.32","SOBA","4","f","rechts","21","","fixation","","","",""
"700","img/0_210.png","70","image-keyboard-response","71","162574","0.0-6.0-1.32","SOBA","4","f","rechts","21","","","self","f","0","true"
"null","<div style=""font-size:60px;"">+</div>","null","html-keyboard-response","72","163040","0.0-6.0-0.33","SOBA","4","f","rechts","21","","fixation","","","",""
"877","img/30_180.png","74","image-keyboard-response","73","163934","0.0-6.0-1.33","SOBA","4","f","rechts","21","","","self","j","30","true"
"null","<div style=""font-size:60px;"">+</div>","null","html-keyboard-response","74","164447","0.0-6.0-0.34","SOBA","4","f","rechts","21","","fixation","","","",""
"978","img/150_300.png","74","image-keyboard-response","75","165441","0.0-6.0-1.34","SOBA","4","f","rechts","21","","","self","j","150","true"
"null","<div style=""font-size:60px;"">+</div>","null","html-keyboard-response","76","165758","0.0-6.0-0.35","SOBA","4","f","rechts","21","","fixation","","","",""
"948","img/90_180.png","74","image-keyboard-response","77","166713","0.0-6.0-1.35","SOBA","4","f","rechts","21","","","self","j","90","true"
"null","<div style=""font-size:60px;"">+</div>","null","html-keyboard-response","78","167121","0.0-6.0-0.36","SOBA","4","f","rechts","21","","fixation","","","",""
"971","img/60_210.png","74","image-keyboard-response","79","168108","0.0-6.0-1.36","SOBA","4","f","rechts","21","","","self","j","60","true"
"null","<div style=""font-size:60px;"">+</div>","null","html-keyboard-response","80","168636","0.0-6.0-0.37","SOBA","4","f","rechts","21","","fixation","","","",""
"856","img/90_150.png","70","image-keyboard-response","81","169514","0.0-6.0-1.37","SOBA","4","f","rechts","21","","","self","f","90","true"
"null","<div style=""font-size:60px;"">+</div>","null","html-keyboard-response","82","169886","0.0-6.0-0.38","SOBA","4","f","rechts","21","","fixation","","","",""
"804","img/150_180.png","74","image-keyboard-response","83","170696","0.0-6.0-1.38","SOBA","4","f","rechts","21","","","self","j","150","true"
"null","<div style=""font-size:60px;"">+</div>","null","html-keyboard-response","84","171011","0.0-6.0-0.39","SOBA","4","f","rechts","21","","fixation","","","",""
"904","img/90_240.png","74","image-keyboard-response","85","171934","0.0-6.0-1.39","SOBA","4","f","rechts","21","","","self","j","90","true"
"null","<div style=""font-size:60px;"">+</div>","null","html-keyboard-response","86","172293","0.0-6.0-0.40","SOBA","4","f","rechts","21","","fixation","","","",""
"1097","img/90_30.png","74","image-keyboard-response","87","173405","0.0-6.0-1.40","SOBA","4","f","rechts","21","","","self","j","90","true"
"null","<div style=""font-size:60px;"">+</div>","null","html-keyboard-response","88","173761","0.0-6.0-0.41","SOBA","4","f","rechts","21","","fixation","","","",""
"906","img/30_60.png","74","image-keyboard-response","89","174688","0.0-6.0-1.41","SOBA","4","f","rechts","21","","","self","j","30","true"
"null","<div style=""font-size:60px;"">+</div>","null","html-keyboard-response","90","174996","0.0-6.0-0.42","SOBA","4","f","rechts","21","","fixation","","","",""
"778","img/0_60.png","74","image-keyboard-response","91","175791","0.0-6.0-1.42","SOBA","4","f","rechts","21","","","self","j","0","true"
"null","<div style=""font-size:60px;"">+</div>","null","html-keyboard-response","92","176310","0.0-6.0-0.43","SOBA","4","f","rechts","21","","fixation","","","",""
"881","img/90_330.png","70","image-keyboard-response","93","177208","0.0-6.0-1.43","SOBA","4","f","rechts","21","","","self","f","90","true"
"null","<div style=""font-size:60px;"">+</div>","null","html-keyboard-response","94","177558","0.0-6.0-0.44","SOBA","4","f","rechts","21","","fixation","","","",""
"813","img/0_240.png","70","image-keyboard-response","95","178390","0.0-6.0-1.44","SOBA","4","f","rechts","21","","","self","f","0","true"
"null","<div style=""font-size:60px;"">+</div>","null","html-keyboard-response","96","178857","0.0-6.0-0.45","SOBA","4","f","rechts","21","","fixation","","","",""
"844","img/60_330.png","70","image-keyboard-response","97","179706","0.0-6.0-1.45","SOBA","4","f","rechts","21","","","self","f","60","true"
"null","<div style=""font-size:60px;"">+</div>","null","html-keyboard-response","98","180121","0.0-6.0-0.46","SOBA","4","f","rechts","21","","fixation","","","",""
"961","img/90_300.png","70","image-keyboard-response","99","181100","0.0-6.0-1.46","SOBA","4","f","rechts","21","","","self","f","90","true"
"null","<div style=""font-size:60px;"">+</div>","null","html-keyboard-response","100","181480","0.0-6.0-0.47","SOBA","4","f","rechts","21","","fixation","","","",""
"986","img/L120_180.png","70","image-keyboard-response","101","182484","0.0-6.0-1.47","SOBA","4","f","rechts","21","","","self","f","120","true"
"null","<div style=""font-size:60px;"">+</div>","null","html-keyboard-response","102","182809","0.0-6.0-0.48","SOBA","4","f","rechts","21","","fixation","","","",""
"878","img/90_120.png","70","image-keyboard-response","103","183701","0.0-6.0-1.48","SOBA","4","f","rechts","21","","","self","f","90","true"
"null","<div style=""font-size:60px;"">+</div>","null","html-keyboard-response","104","184212","0.0-6.0-0.49","SOBA","4","f","rechts","21","","fixation","","","",""
"1034","img/60_90.png","74","image-keyboard-response","105","185264","0.0-6.0-1.49","SOBA","4","f","rechts","21","","","self","j","60","true"
"null","<div style=""font-size:60px;"">+</div>","null","html-keyboard-response","106","185680","0.0-6.0-0.50","SOBA","4","f","rechts","21","","fixation","","","",""
"851","img/120_150.png","70","image-keyboard-response","107","186548","0.0-6.0-1.50","SOBA","4","f","rechts","21","","","self","f","120","true"
"null","<div style=""font-size:60px;"">+</div>","null","html-keyboard-response","108","186951","0.0-6.0-0.51","SOBA","4","f","rechts","21","","fixation","","","",""
"1481","img/60_30.png","74","image-keyboard-response","109","188447","0.0-6.0-1.51","SOBA","4","f","rechts","21","","","self","j","60","true"
"null","<div style=""font-size:60px;"">+</div>","null","html-keyboard-response","110","188857","0.0-6.0-0.52","SOBA","4","f","rechts","21","","fixation","","","",""
"991","img/120_270.png","74","image-keyboard-response","111","189852","0.0-6.0-1.52","SOBA","4","f","rechts","21","","","self","j","120","true"
"null","<div style=""font-size:60px;"">+</div>","null","html-keyboard-response","112","190216","0.0-6.0-0.53","SOBA","4","f","rechts","21","","fixation","","","",""
"795","img/150_270.png","74","image-keyboard-response","113","191025","0.0-6.0-1.53","SOBA","4","f","rechts","21","","","self","j","150","true"
"null","<div style=""font-size:60px;"">+</div>","null","html-keyboard-response","114","191544","0.0-6.0-0.54","SOBA","4","f","rechts","21","","fixation","","","",""
"816","img/150_60.png","70","image-keyboard-response","115","192375","0.0-6.0-1.54","SOBA","4","f","rechts","21","","","self","f","150","true"
"null","<div style=""font-size:60px;"">+</div>","null","html-keyboard-response","116","192887","0.0-6.0-0.55","SOBA","4","f","rechts","21","","fixation","","","",""
"912","img/90_210.png","74","image-keyboard-response","117","193804","0.0-6.0-1.55","SOBA","4","f","rechts","21","","","self","j","90","true"
"null","<div style=""font-size:60px;"">+</div>","null","html-keyboard-response","118","194325","0.0-6.0-0.56","SOBA","4","f","rechts","21","","fixation","","","",""
"838","img/L150_180.png","70","image-keyboard-response","119","195177","0.0-6.0-1.56","SOBA","4","f","rechts","21","","","self","f","150","true"
"null","<div style=""font-size:60px;"">+</div>","null","html-keyboard-response","120","195637","0.0-6.0-0.57","SOBA","4","f","rechts","21","","fixation","","","",""
"1194","img/120_90.png","70","image-keyboard-response","121","196840","0.0-6.0-1.57","SOBA","4","f","rechts","21","","","self","f","120","true"
"null","<div style=""font-size:60px;"">+</div>","null","html-keyboard-response","122","197219","0.0-6.0-0.58","SOBA","4","f","rechts","21","","fixation","","","",""
"928","img/60_330.png","70","image-keyboard-response","123","198158","0.0-6.0-1.58","SOBA","4","f","rechts","21","","","self","f","60","true"
"null","<div style=""font-size:60px;"">+</div>","null","html-keyboard-response","124","198623","0.0-6.0-0.59","SOBA","4","f","rechts","21","","fixation","","","",""
"737","img/150_180.png","74","image-keyboard-response","125","199369","0.0-6.0-1.59","SOBA","4","f","rechts","21","","","self","j","150","true"
"null","<div style=""font-size:60px;"">+</div>","null","html-keyboard-response","126","199734","0.0-6.0-0.60","SOBA","4","f","rechts","21","","fixation","","","",""
"833","img/0_240.png","70","image-keyboard-response","127","200576","0.0-6.0-1.60","SOBA","4","f","rechts","21","","","self","f","0","true"
"null","<div style=""font-size:60px;"">+</div>","null","html-keyboard-response","128","201092","0.0-6.0-0.61","SOBA","4","f","rechts","21","","fixation","","","",""
"811","img/30_180.png","74","image-keyboard-response","129","201913","0.0-6.0-1.61","SOBA","4","f","rechts","21","","","self","j","30","true"
"null","<div style=""font-size:60px;"">+</div>","null","html-keyboard-response","130","202327","0.0-6.0-0.62","SOBA","4","f","rechts","21","","fixation","","","",""
"916","img/60_210.png","74","image-keyboard-response","131","203254","0.0-6.0-1.62","SOBA","4","f","rechts","21","","","self","j","60","true"
"null","<div style=""font-size:60px;"">+</div>","null","html-keyboard-response","132","203623","0.0-6.0-0.63","SOBA","4","f","rechts","21","","fixation","","","",""
"832","img/150_120.png","70","image-keyboard-response","133","204468","0.0-6.0-1.63","SOBA","4","f","rechts","21","","","self","f","150","true"
"null","<div style=""font-size:60px;"">+</div>","null","html-keyboard-response","134","204983","0.0-6.0-0.64","SOBA","4","f","rechts","21","","fixation","","","",""
"680","img/120_150.png","70","image-keyboard-response","135","205672","0.0-6.0-1.64","SOBA","4","f","rechts","21","","","self","f","120","true"
"null","<div style=""font-size:60px;"">+</div>","null","html-keyboard-response","136","205983","0.0-6.0-0.65","SOBA","4","f","rechts","21","","fixation","","","",""
"822","img/L60_180.png","70","image-keyboard-response","137","206819","0.0-6.0-1.65","SOBA","4","f","rechts","21","","","self","f","60","true"
"null","<div style=""font-size:60px;"">+</div>","null","html-keyboard-response","138","207297","0.0-6.0-0.66","SOBA","4","f","rechts","21","","fixation","","","",""
"758","img/150_240.png","74","image-keyboard-response","139","208068","0.0-6.0-1.66","SOBA","4","f","rechts","21","","","self","j","150","true"
"null","<div style=""font-size:60px;"">+</div>","null","html-keyboard-response","140","208548","0.0-6.0-0.67","SOBA","4","f","rechts","21","","fixation","","","",""
"833","img/60_150.png","70","image-keyboard-response","141","209395","0.0-6.0-1.67","SOBA","4","f","rechts","21","","","self","f","60","true"
"null","<div style=""font-size:60px;"">+</div>","null","html-keyboard-response","142","209797","0.0-6.0-0.68","SOBA","4","f","rechts","21","","fixation","","","",""
"870","img/30_270.png","70","image-keyboard-response","143","210678","0.0-6.0-1.68","SOBA","4","f","rechts","21","","","self","f","30","true"
"null","<div style=""font-size:60px;"">+</div>","null","html-keyboard-response","144","211095","0.0-6.0-0.69","SOBA","4","f","rechts","21","","fixation","","","",""
"762","img/0_300.png","70","image-keyboard-response","145","211869","0.0-6.0-1.69","SOBA","4","f","rechts","21","","","self","f","0","true"
"null","<div style=""font-size:60px;"">+</div>","null","html-keyboard-response","146","212375","0.0-6.0-0.70","SOBA","4","f","rechts","21","","fixation","","","",""
"711","img/0_210.png","70","image-keyboard-response","147","213096","0.0-6.0-1.70","SOBA","4","f","rechts","21","","","self","f","0","true"
"null","<div style=""font-size:60px;"">+</div>","null","html-keyboard-response","148","213501","0.0-6.0-0.71","SOBA","4","f","rechts","21","","fixation","","","",""
"724","img/0_60.png","74","image-keyboard-response","149","214233","0.0-6.0-1.71","SOBA","4","f","rechts","21","","","self","j","0","true"
"null","<div style=""font-size:60px;"">+</div>","null","html-keyboard-response","150","214546","0.0-6.0-0.72","SOBA","4","f","rechts","21","","fixation","","","",""
"791","img/90_120.png","70","image-keyboard-response","151","215347","0.0-6.0-1.72","SOBA","4","f","rechts","21","","","self","f","90","true"
"null","<div style=""font-size:60px;"">+</div>","null","html-keyboard-response","152","215827","0.0-6.0-0.73","SOBA","4","f","rechts","21","","fixation","","","",""
"873","img/30_90.png","74","image-keyboard-response","153","216709","0.0-6.0-1.73","SOBA","4","f","rechts","21","","","self","j","30","true"
"null","<div style=""font-size:60px;"">+</div>","null","html-keyboard-response","154","217159","0.0-6.0-0.74","SOBA","4","f","rechts","21","","fixation","","","",""
"760","img/0_30.png","74","image-keyboard-response","155","217934","0.0-6.0-1.74","SOBA","4","f","rechts","21","","","self","j","0","true"
"null","<div style=""font-size:60px;"">+</div>","null","html-keyboard-response","156","218237","0.0-6.0-0.75","SOBA","4","f","rechts","21","","fixation","","","",""
"798","img/60_270.png","70","image-keyboard-response","157","219048","0.0-6.0-1.75","SOBA","4","f","rechts","21","","","self","f","60","true"
"null","<div style=""font-size:60px;"">+</div>","null","html-keyboard-response","158","219476","0.0-6.0-0.76","SOBA","4","f","rechts","21","","fixation","","","",""
"773","img/0_150.png","74","image-keyboard-response","159","220263","0.0-6.0-1.76","SOBA","4","f","rechts","21","","","self","j","0","true"
"null","<div style=""font-size:60px;"">+</div>","null","html-keyboard-response","160","220632","0.0-6.0-0.77","SOBA","4","f","rechts","21","","fixation","","","",""
"924","img/60_180.png","74","image-keyboard-response","161","221568","0.0-6.0-1.77","SOBA","4","f","rechts","21","","","self","j","60","true"
"null","<div style=""font-size:60px;"">+</div>","null","html-keyboard-response","162","222069","0.0-6.0-0.78","SOBA","4","f","rechts","21","","fixation","","","",""
"970","img/150_90.png","70","image-keyboard-response","163","223052","0.0-6.0-1.78","SOBA","4","f","rechts","21","","","self","f","150","true"
"null","<div style=""font-size:60px;"">+</div>","null","html-keyboard-response","164","223459","0.0-6.0-0.79","SOBA","4","f","rechts","21","","fixation","","","",""
"1074","img/120_30.png","74","image-keyboard-response","165","224549","0.0-6.0-1.79","SOBA","4","f","rechts","21","","","self","j","120","true"
"null","<div style=""font-size:60px;"">+</div>","null","html-keyboard-response","166","225069","0.0-6.0-0.80","SOBA","4","f","rechts","21","","fixation","","","",""
"721","img/60_90.png","74","image-keyboard-response","167","225799","0.0-6.0-1.80","SOBA","4","f","rechts","21","","","self","j","60","true"
"null","<div style=""font-size:60px;"">+</div>","null","html-keyboard-response","168","226258","0.0-6.0-0.81","SOBA","4","f","rechts","21","","fixation","","","",""
"683","img/0_120.png","74","image-keyboard-response","169","226955","0.0-6.0-1.81","SOBA","4","f","rechts","21","","","self","j","0","true"
"null","<div style=""font-size:60px;"">+</div>","null","html-keyboard-response","170","227476","0.0-6.0-0.82","SOBA","4","f","rechts","21","","fixation","","","",""
"1170","img/90_240.png","74","image-keyboard-response","171","228658","0.0-6.0-1.82","SOBA","4","f","rechts","21","","","self","j","90","true"
"null","<div style=""font-size:60px;"">+</div>","null","html-keyboard-response","172","229039","0.0-6.0-0.83","SOBA","4","f","rechts","21","","fixation","","","",""
"1081","img/30_60.png","74","image-keyboard-response","173","230130","0.0-6.0-1.83","SOBA","4","f","rechts","21","","","self","j","30","true"
"null","<div style=""font-size:60px;"">+</div>","null","html-keyboard-response","174","230537","0.0-6.0-0.84","SOBA","4","f","rechts","21","","fixation","","","",""
"969","img/90_180.png","74","image-keyboard-response","175","231514","0.0-6.0-1.84","SOBA","4","f","rechts","21","","","self","j","90","true"
"null","<div style=""font-size:60px;"">+</div>","null","html-keyboard-response","176","231991","0.0-6.0-0.85","SOBA","4","f","rechts","21","","fixation","","","",""
"927","img/30_240.png","70","image-keyboard-response","177","232931","0.0-6.0-1.85","SOBA","4","f","rechts","21","","","self","f","30","true"
"null","<div style=""font-size:60px;"">+</div>","null","html-keyboard-response","178","233350","0.0-6.0-0.86","SOBA","4","f","rechts","21","","fixation","","","",""
"736","img/0_90.png","74","image-keyboard-response","179","234103","0.0-6.0-1.86","SOBA","4","f","rechts","21","","","self","j","0","true"
"null","<div style=""font-size:60px;"">+</div>","null","html-keyboard-response","180","234615","0.0-6.0-0.87","SOBA","4","f","rechts","21","","fixation","","","",""
"756","img/L120_180.png","70","image-keyboard-response","181","235384","0.0-6.0-1.87","SOBA","4","f","rechts","21","","","self","f","120","true"
"null","<div style=""font-size:60px;"">+</div>","null","html-keyboard-response","182","235695","0.0-6.0-0.88","SOBA","4","f","rechts","21","","fixation","","","",""
"1204","img/30_120.png","74","image-keyboard-response","183","236913","0.0-6.0-1.88","SOBA","4","f","rechts","21","","","self","j","30","true"
"null","<div style=""font-size:60px;"">+</div>","null","html-keyboard-response","184","237242","0.0-6.0-0.89","SOBA","4","f","rechts","21","","fixation","","","",""
"951","img/L90_180.png","70","image-keyboard-response","185","238207","0.0-6.0-1.89","SOBA","4","f","rechts","21","","","self","f","90","true"
"null","<div style=""font-size:60px;"">+</div>","null","html-keyboard-response","186","238509","0.0-6.0-0.90","SOBA","4","f","rechts","21","","fixation","","","",""
"881","img/90_60.png","74","image-keyboard-response","187","239401","0.0-6.0-1.90","SOBA","4","f","rechts","21","","","self","j","90","true"
"null","<div style=""font-size:60px;"">+</div>","null","html-keyboard-response","188","239805","0.0-6.0-0.91","SOBA","4","f","rechts","21","","fixation","","","",""
"814","img/60_30.png","74","image-keyboard-response","189","240626","0.0-6.0-1.91","SOBA","4","f","rechts","21","","","self","j","60","true"
"null","<div style=""font-size:60px;"">+</div>","null","html-keyboard-response","190","241086","0.0-6.0-0.92","SOBA","4","f","rechts","21","","fixation","","","",""
"857","img/90_300.png","70","image-keyboard-response","191","241953","0.0-6.0-1.92","SOBA","4","f","rechts","21","","","self","f","90","true"
"null","<div style=""font-size:60px;"">+</div>","null","html-keyboard-response","192","242323","0.0-6.0-0.93","SOBA","4","f","rechts","21","","fixation","","","",""
"846","img/120_210.png","74","image-keyboard-response","193","243180","0.0-6.0-1.93","SOBA","4","f","rechts","21","","","self","j","120","true"
"null","<div style=""font-size:60px;"">+</div>","null","html-keyboard-response","194","243697","0.0-6.0-0.94","SOBA","4","f","rechts","21","","fixation","","","",""
"840","img/150_300.png","74","image-keyboard-response","195","244554","0.0-6.0-1.94","SOBA","4","f","rechts","21","","","self","j","150","true"
"null","<div style=""font-size:60px;"">+</div>","null","html-keyboard-response","196","245070","0.0-6.0-0.95","SOBA","4","f","rechts","21","","fixation","","","",""
"984","img/90_330.png","70","image-keyboard-response","197","246072","0.0-6.0-1.95","SOBA","4","f","rechts","21","","","self","f","90","true"
"null","<div style=""font-size:60px;"">+</div>","null","html-keyboard-response","198","246552","0.0-6.0-0.96","SOBA","4","f","rechts","21","","fixation","","","",""
"1171","img/0_270.png","70","image-keyboard-response","199","247736","0.0-6.0-1.96","SOBA","4","f","rechts","21","","","self","f","0","true"
"null","<div style=""font-size:60px;"">+</div>","null","html-keyboard-response","200","248262","0.0-6.0-0.97","SOBA","4","f","rechts","21","","fixation","","","",""
"822","img/90_150.png","70","image-keyboard-response","201","249096","0.0-6.0-1.97","SOBA","4","f","rechts","21","","","self","f","90","true"
"null","<div style=""font-size:60px;"">+</div>","null","html-keyboard-response","202","249559","0.0-6.0-0.98","SOBA","4","f","rechts","21","","fixation","","","",""
"842","img/30_300.png","70","image-keyboard-response","203","250415","0.0-6.0-1.98","SOBA","4","f","rechts","21","","","self","f","30","true"
"null","<div style=""font-size:60px;"">+</div>","null","html-keyboard-response","204","250827","0.0-6.0-0.99","SOBA","4","f","rechts","21","","fixation","","","",""
"827","img/0_330.png","70","image-keyboard-response","205","251662","0.0-6.0-1.99","SOBA","4","f","rechts","21","","","self","f","0","true"
"null","<div style=""font-size:60px;"">+</div>","null","html-keyboard-response","206","252069","0.0-6.0-0.100","SOBA","4","f","rechts","21","","fixation","","","",""
"1191","img/120_330.png","70","image-keyboard-response","207","253273","0.0-6.0-1.100","SOBA","4","f","rechts","21","","","self","f","120","true"
"null","<div style=""font-size:60px;"">+</div>","null","html-keyboard-response","208","253592","0.0-6.0-0.101","SOBA","4","f","rechts","21","","fixation","","","",""
"1063","img/120_180.png","74","image-keyboard-response","209","254667","0.0-6.0-1.101","SOBA","4","f","rechts","21","","","self","j","120","true"
"null","<div style=""font-size:60px;"">+</div>","null","html-keyboard-response","210","255095","0.0-6.0-0.102","SOBA","4","f","rechts","21","","fixation","","","",""
"909","img/90_30.png","74","image-keyboard-response","211","256018","0.0-6.0-1.102","SOBA","4","f","rechts","21","","","self","j","90","true"
"null","<div style=""font-size:60px;"">+</div>","null","html-keyboard-response","212","256470","0.0-6.0-0.103","SOBA","4","f","rechts","21","","fixation","","","",""
"984","img/L30_180.png","70","image-keyboard-response","213","257467","0.0-6.0-1.103","SOBA","4","f","rechts","21","","","self","f","30","true"
"null","<div style=""font-size:60px;"">+</div>","null","html-keyboard-response","214","257874","0.0-6.0-0.104","SOBA","4","f","rechts","21","","fixation","","","",""
"1603","img/30_60.png","74","image-keyboard-response","215","259481","0.0-6.0-1.104","SOBA","4","f","rechts","21","","","self","j","30","true"
"null","<div style=""font-size:60px;"">+</div>","null","html-keyboard-response","216","259960","0.0-6.0-0.105","SOBA","4","f","rechts","21","","fixation","","","",""
"766","img/30_300.png","70","image-keyboard-response","217","260731","0.0-6.0-1.105","SOBA","4","f","rechts","21","","","self","f","30","true"
"null","<div style=""font-size:60px;"">+</div>","null","html-keyboard-response","218","261251","0.0-6.0-0.106","SOBA","4","f","rechts","21","","fixation","","","",""
"708","img/0_270.png","70","image-keyboard-response","219","261968","0.0-6.0-1.106","SOBA","4","f","rechts","21","","","self","f","0","true"
"null","<div style=""font-size:60px;"">+</div>","null","html-keyboard-response","220","262493","0.0-6.0-0.107","SOBA","4","f","rechts","21","","fixation","","","",""
"723","img/0_90.png","74","image-keyboard-response","221","263226","0.0-6.0-1.107","SOBA","4","f","rechts","21","","","self","j","0","true"
"null","<div style=""font-size:60px;"">+</div>","null","html-keyboard-response","222","263741","0.0-6.0-0.108","SOBA","4","f","rechts","21","","fixation","","","",""
"915","img/L150_180.png","70","image-keyboard-response","223","264667","0.0-6.0-1.108","SOBA","4","f","rechts","21","","","self","f","150","true"
"null","<div style=""font-size:60px;"">+</div>","null","html-keyboard-response","224","264987","0.0-6.0-0.109","SOBA","4","f","rechts","21","","fixation","","","",""
"1034","img/90_60.png","74","image-keyboard-response","225","266030","0.0-6.0-1.109","SOBA","4","f","rechts","21","","","self","j","90","true"
"null","<div style=""font-size:60px;"">+</div>","null","html-keyboard-response","226","266559","0.0-6.0-0.110","SOBA","4","f","rechts","21","","fixation","","","",""
"1485","img/30_120.png","74","image-keyboard-response","227","268053","0.0-6.0-1.110","SOBA","4","f","rechts","21","","","self","j","30","true"
"null","<div style=""font-size:60px;"">+</div>","null","html-keyboard-response","228","268420","0.0-6.0-0.111","SOBA","4","f","rechts","21","","fixation","","","",""
"1038","img/60_90.png","74","image-keyboard-response","229","269472","0.0-6.0-1.111","SOBA","4","f","rechts","21","","","self","j","60","true"
"null","<div style=""font-size:60px;"">+</div>","null","html-keyboard-response","230","269826","0.0-6.0-0.112","SOBA","4","f","rechts","21","","fixation","","","",""
"840","img/60_30.png","74","image-keyboard-response","231","270675","0.0-6.0-1.112","SOBA","4","f","rechts","21","","","self","j","60","true"
"null","<div style=""font-size:60px;"">+</div>","null","html-keyboard-response","232","271044","0.0-6.0-0.113","SOBA","4","f","rechts","21","","fixation","","","",""
"913","img/60_270.png","70","image-keyboard-response","233","271968","0.0-6.0-1.113","SOBA","4","f","rechts","21","","","self","f","60","true"
"null","<div style=""font-size:60px;"">+</div>","null","html-keyboard-response","234","272325","0.0-6.0-0.114","SOBA","4","f","rechts","21","","fixation","","","",""
"895","img/L90_180.png","70","image-keyboard-response","235","273229","0.0-6.0-1.114","SOBA","4","f","rechts","21","","","self","f","90","true"
"null","<div style=""font-size:60px;"">+</div>","null","html-keyboard-response","236","273700","0.0-6.0-0.115","SOBA","4","f","rechts","21","","fixation","","","",""
"711","img/0_120.png","74","image-keyboard-response","237","274421","0.0-6.0-1.115","SOBA","4","f","rechts","21","","","self","j","0","true"
"null","<div style=""font-size:60px;"">+</div>","null","html-keyboard-response","238","274887","0.0-6.0-0.116","SOBA","4","f","rechts","21","","fixation","","","",""
"735","img/90_150.png","70","image-keyboard-response","239","275626","0.0-6.0-1.116","SOBA","4","f","rechts","21","","","self","f","90","true"
"null","<div style=""font-size:60px;"">+</div>","null","html-keyboard-response","240","276029","0.0-6.0-0.117","SOBA","4","f","rechts","21","","fixation","","","",""
"781","img/120_180.png","74","image-keyboard-response","241","276818","0.0-6.0-1.117","SOBA","4","f","rechts","21","","","self","j","120","true"
"null","<div style=""font-size:60px;"">+</div>","null","html-keyboard-response","242","277234","0.0-6.0-0.118","SOBA","4","f","rechts","21","","fixation","","","",""
"948","img/90_330.png","70","image-keyboard-response","243","278190","0.0-6.0-1.118","SOBA","4","f","rechts","21","","","self","f","90","true"
"null","<div style=""font-size:60px;"">+</div>","null","html-keyboard-response","244","278561","0.0-6.0-0.119","SOBA","4","f","rechts","21","","fixation","","","",""
"810","img/150_90.png","70","image-keyboard-response","245","279382","0.0-6.0-1.119","SOBA","4","f","rechts","21","","","self","f","150","true"
"null","<div style=""font-size:60px;"">+</div>","null","html-keyboard-response","246","279842","0.0-6.0-0.120","SOBA","4","f","rechts","21","","fixation","","","",""
"930","img/150_270.png","74","image-keyboard-response","247","280779","0.0-6.0-1.120","SOBA","4","f","rechts","21","","","self","j","150","true"
"null","<div style=""font-size:60px;"">+</div>","null","html-keyboard-response","248","281281","0.0-6.0-0.121","SOBA","4","f","rechts","21","","fixation","","","",""
"666","img/150_240.png","74","image-keyboard-response","249","281956","0.0-6.0-1.121","SOBA","4","f","rechts","21","","","self","j","150","true"
"null","<div style=""font-size:60px;"">+</div>","null","html-keyboard-response","250","282328","0.0-6.0-0.122","SOBA","4","f","rechts","21","","fixation","","","",""
"801","img/90_180.png","74","image-keyboard-response","251","283138","0.0-6.0-1.122","SOBA","4","f","rechts","21","","","self","j","90","true"
"null","<div style=""font-size:60px;"">+</div>","null","html-keyboard-response","252","283548","0.0-6.0-0.123","SOBA","4","f","rechts","21","","fixation","","","",""
"764","img/0_30.png","74","image-keyboard-response","253","284321","0.0-6.0-1.123","SOBA","4","f","rechts","21","","","self","j","0","true"
"null","<div style=""font-size:60px;"">+</div>","null","html-keyboard-response","254","284688","0.0-6.0-0.124","SOBA","4","f","rechts","21","","fixation","","","",""
"849","img/0_60.png","74","image-keyboard-response","255","285550","0.0-6.0-1.124","SOBA","4","f","rechts","21","","","self","j","0","true"
"null","<div style=""font-size:60px;"">+</div>","null","html-keyboard-response","256","285922","0.0-6.0-0.125","SOBA","4","f","rechts","21","","fixation","","","",""
"814","img/90_120.png","70","image-keyboard-response","257","286740","0.0-6.0-1.125","SOBA","4","f","rechts","21","","","self","f","90","true"
"null","<div style=""font-size:60px;"">+</div>","null","html-keyboard-response","258","287156","0.0-6.0-0.126","SOBA","4","f","rechts","21","","fixation","","","",""
"796","img/60_330.png","70","image-keyboard-response","259","287965","0.0-6.0-1.126","SOBA","4","f","rechts","21","","","self","f","60","true"
"null","<div style=""font-size:60px;"">+</div>","null","html-keyboard-response","260","288438","0.0-6.0-0.127","SOBA","4","f","rechts","21","","fixation","","","",""
"718","img/0_240.png","70","image-keyboard-response","261","289160","0.0-6.0-1.127","SOBA","4","f","rechts","21","","","self","f","0","true"
"null","<div style=""font-size:60px;"">+</div>","null","html-keyboard-response","262","289485","0.0-6.0-0.128","SOBA","4","f","rechts","21","","fixation","","","",""
"955","img/120_90.png","70","image-keyboard-response","263","290455","0.0-6.0-1.128","SOBA","4","f","rechts","21","","","self","f","120","true"
"null","<div style=""font-size:60px;"">+</div>","null","html-keyboard-response","264","290814","0.0-6.0-0.129","SOBA","4","f","rechts","21","","fixation","","","",""
"796","img/90_210.png","74","image-keyboard-response","265","291623","0.0-6.0-1.129","SOBA","4","f","rechts","21","","","self","j","90","true"
"null","<div style=""font-size:60px;"">+</div>","null","html-keyboard-response","266","291986","0.0-6.0-0.130","SOBA","4","f","rechts","21","","fixation","","","",""
"704","img/0_150.png","74","image-keyboard-response","267","292692","0.0-6.0-1.130","SOBA","4","f","rechts","21","","","self","j","0","true"
"null","<div style=""font-size:60px;"">+</div>","null","html-keyboard-response","268","293158","0.0-6.0-0.131","SOBA","4","f","rechts","21","","fixation","","","",""
"734","img/L60_180.png","70","image-keyboard-response","269","293905","0.0-6.0-1.131","SOBA","4","f","rechts","21","","","self","f","60","true"
"null","<div style=""font-size:60px;"">+</div>","null","html-keyboard-response","270","294220","0.0-6.0-0.132","SOBA","4","f","rechts","21","","fixation","","","",""
"810","img/90_240.png","74","image-keyboard-response","271","295043","0.0-6.0-1.132","SOBA","4","f","rechts","21","","","self","j","90","true"
"null","<div style=""font-size:60px;"">+</div>","null","html-keyboard-response","272","295502","0.0-6.0-0.133","SOBA","4","f","rechts","21","","fixation","","","",""
"788","img/60_210.png","74","image-keyboard-response","273","296303","0.0-6.0-1.133","SOBA","4","f","rechts","21","","","self","j","60","true"
"null","<div style=""font-size:60px;"">+</div>","null","html-keyboard-response","274","296719","0.0-6.0-0.134","SOBA","4","f","rechts","21","","fixation","","","",""
"685","img/0_210.png","70","image-keyboard-response","275","297418","0.0-6.0-1.134","SOBA","4","f","rechts","21","","","self","f","0","true"
"null","<div style=""font-size:60px;"">+</div>","null","html-keyboard-response","276","297875","0.0-6.0-0.135","SOBA","4","f","rechts","21","","fixation","","","",""
"1020","img/30_180.png","74","image-keyboard-response","277","298899","0.0-6.0-1.135","SOBA","4","f","rechts","21","","","self","j","30","true"
"null","<div style=""font-size:60px;"">+</div>","null","html-keyboard-response","278","299362","0.0-6.0-0.136","SOBA","4","f","rechts","21","","fixation","","","",""
"838","img/120_210.png","74","image-keyboard-response","279","300208","0.0-6.0-1.136","SOBA","4","f","rechts","21","","","self","j","120","true"
"null","<div style=""font-size:60px;"">+</div>","null","html-keyboard-response","280","300515","0.0-6.0-0.137","SOBA","4","f","rechts","21","","fixation","","","",""
"814","img/150_180.png","74","image-keyboard-response","281","301343","0.0-6.0-1.137","SOBA","4","f","rechts","21","","","self","j","150","true"
"null","<div style=""font-size:60px;"">+</div>","null","html-keyboard-response","282","301705","0.0-6.0-0.138","SOBA","4","f","rechts","21","","fixation","","","",""
"784","img/0_300.png","70","image-keyboard-response","283","302502","0.0-6.0-1.138","SOBA","4","f","rechts","21","","","self","f","0","true"
"null","<div style=""font-size:60px;"">+</div>","null","html-keyboard-response","284","303017","0.0-6.0-0.139","SOBA","4","f","rechts","21","","fixation","","","",""
"790","img/30_240.png","70","image-keyboard-response","285","303817","0.0-6.0-1.139","SOBA","4","f","rechts","21","","","self","f","30","true"
"null","<div style=""font-size:60px;"">+</div>","null","html-keyboard-response","286","304174","0.0-6.0-0.140","SOBA","4","f","rechts","21","","fixation","","","",""
"762","img/120_270.png","74","image-keyboard-response","287","304952","0.0-6.0-1.140","SOBA","4","f","rechts","21","","","self","j","120","true"
"null","<div style=""font-size:60px;"">+</div>","null","html-keyboard-response","288","305424","0.0-6.0-0.141","SOBA","4","f","rechts","21","","fixation","","","",""
"1580","img/120_330.png","70","image-keyboard-response","289","307014","0.0-6.0-1.141","SOBA","4","f","rechts","21","","","self","f","120","true"
"null","<div style=""font-size:60px;"">+</div>","null","html-keyboard-response","290","307424","0.0-6.0-0.142","SOBA","4","f","rechts","21","","fixation","","","",""
"948","img/150_120.png","70","image-keyboard-response","291","308385","0.0-6.0-1.142","SOBA","4","f","rechts","21","","","self","f","150","true"
"null","<div style=""font-size:60px;"">+</div>","null","html-keyboard-response","292","308799","0.0-6.0-0.143","SOBA","4","f","rechts","21","","fixation","","","",""
"843","img/60_180.png","74","image-keyboard-response","293","309658","0.0-6.0-1.143","SOBA","4","f","rechts","21","","","self","j","60","true"
"null","<div style=""font-size:60px;"">+</div>","null","html-keyboard-response","294","310113","0.0-6.0-0.144","SOBA","4","f","rechts","21","","fixation","","","",""
"787","img/60_150.png","70","image-keyboard-response","295","310913","0.0-6.0-1.144","SOBA","4","f","rechts","21","","","self","f","60","true"
"null","<div style=""font-size:60px;"">+</div>","null","html-keyboard-response","296","311223","0.0-6.0-0.145","SOBA","4","f","rechts","21","","fixation","","","",""
"953","img/150_60.png","70","image-keyboard-response","297","312190","0.0-6.0-1.145","SOBA","4","f","rechts","21","","","self","f","150","true"
"null","<div style=""font-size:60px;"">+</div>","null","html-keyboard-response","298","312505","0.0-6.0-0.146","SOBA","4","f","rechts","21","","fixation","","","",""
"820","img/90_300.png","70","image-keyboard-response","299","313336","0.0-6.0-1.146","SOBA","4","f","rechts","21","","","self","f","90","true"
"null","<div style=""font-size:60px;"">+</div>","null","html-keyboard-response","300","313848","0.0-6.0-0.147","SOBA","4","f","rechts","21","","fixation","","","",""
"673","img/120_150.png","70","image-keyboard-response","301","314528","0.0-6.0-1.147","SOBA","4","f","rechts","21","","","self","f","120","true"
"null","<div style=""font-size:60px;"">+</div>","null","html-keyboard-response","302","314909","0.0-6.0-0.148","SOBA","4","f","rechts","21","","fixation","","","",""
"774","img/L120_180.png","70","image-keyboard-response","303","315688","0.0-6.0-1.148","SOBA","4","f","rechts","21","","","self","f","120","true"
"null","<div style=""font-size:60px;"">+</div>","null","html-keyboard-response","304","316143","0.0-6.0-0.149","SOBA","4","f","rechts","21","","fixation","","","",""
"1208","img/30_270.png","70","image-keyboard-response","305","317364","0.0-6.0-1.149","SOBA","4","f","rechts","21","","","self","f","30","true"
"null","<div style=""font-size:60px;"">+</div>","null","html-keyboard-response","306","317691","0.0-6.0-0.150","SOBA","4","f","rechts","21","","fixation","","","",""
"831","img/0_330.png","70","image-keyboard-response","307","318532","0.0-6.0-1.150","SOBA","4","f","rechts","21","","","self","f","0","true"
"null","<div style=""font-size:60px;"">+</div>","null","html-keyboard-response","308","318847","0.0-6.0-0.151","SOBA","4","f","rechts","21","","fixation","","","",""
"1017","img/L30_180.png","70","image-keyboard-response","309","319870","0.0-6.0-1.151","SOBA","4","f","rechts","21","","","self","f","30","true"
"null","<div style=""font-size:60px;"">+</div>","null","html-keyboard-response","310","320347","0.0-6.0-0.152","SOBA","4","f","rechts","21","","fixation","","","",""
"1502","img/30_90.png","74","image-keyboard-response","311","321862","0.0-6.0-1.152","SOBA","4","f","rechts","21","","","self","j","30","true"
"null","<div style=""font-size:60px;"">+</div>","null","html-keyboard-response","312","322381","0.0-6.0-0.153","SOBA","4","f","rechts","21","","fixation","","","",""
"978","img/90_30.png","74","image-keyboard-response","313","323369","0.0-6.0-1.153","SOBA","4","f","rechts","21","","","self","j","90","true"
"null","<div style=""font-size:60px;"">+</div>","null","html-keyboard-response","314","323892","0.0-6.0-0.154","SOBA","4","f","rechts","21","","fixation","","","",""
"1002","img/150_300.png","74","image-keyboard-response","315","324899","0.0-6.0-1.154","SOBA","4","f","rechts","21","","","self","j","150","true"
"null","<div style=""font-size:60px;"">+</div>","null","html-keyboard-response","316","325206","0.0-6.0-0.155","SOBA","4","f","rechts","21","","fixation","","","",""
"987","img/120_30.png","70","image-keyboard-response","317","326206","0.0-6.0-1.155","SOBA","4","f","rechts","21","","","self","j","120","false"
"null","<div style=""font-size:60px;"">+</div>","null","html-keyboard-response","318","326631","0.0-6.0-0.156","SOBA","4","f","rechts","21","","fixation","","","",""
"832","img/90_150.png","70","image-keyboard-response","319","327477","0.0-6.0-1.156","SOBA","4","f","rechts","21","","","self","f","90","true"
"null","<div style=""font-size:60px;"">+</div>","null","html-keyboard-response","320","327943","0.0-6.0-0.157","SOBA","4","f","rechts","21","","fixation","","","",""
"734","img/120_270.png","74","image-keyboard-response","321","328680","0.0-6.0-1.157","SOBA","4","f","rechts","21","","","self","j","120","true"
"null","<div style=""font-size:60px;"">+</div>","null","html-keyboard-response","322","329147","0.0-6.0-0.158","SOBA","4","f","rechts","21","","fixation","","","",""
"974","img/30_300.png","70","image-keyboard-response","323","330134","0.0-6.0-1.158","SOBA","4","f","rechts","21","","","self","f","30","true"
"null","<div style=""font-size:60px;"">+</div>","null","html-keyboard-response","324","330490","0.0-6.0-0.159","SOBA","4","f","rechts","21","","fixation","","","",""
"1437","img/30_120.png","74","image-keyboard-response","325","331940","0.0-6.0-1.159","SOBA","4","f","rechts","21","","","self","j","30","true"
"null","<div style=""font-size:60px;"">+</div>","null","html-keyboard-response","326","332444","0.0-6.0-0.160","SOBA","4","f","rechts","21","","fixation","","","",""
"704","img/0_270.png","70","image-keyboard-response","327","333159","0.0-6.0-1.160","SOBA","4","f","rechts","21","","","self","f","0","true"
"null","<div style=""font-size:60px;"">+</div>","null","html-keyboard-response","328","333490","0.0-6.0-0.161","SOBA","4","f","rechts","21","","fixation","","","",""
"877","img/90_60.png","74","image-keyboard-response","329","334384","0.0-6.0-1.161","SOBA","4","f","rechts","21","","","self","j","90","true"
"null","<div style=""font-size:60px;"">+</div>","null","html-keyboard-response","330","334692","0.0-6.0-0.162","SOBA","4","f","rechts","21","","fixation","","","",""
"718","img/0_150.png","74","image-keyboard-response","331","335420","0.0-6.0-1.162","SOBA","4","f","rechts","21","","","self","j","0","true"
"null","<div style=""font-size:60px;"">+</div>","null","html-keyboard-response","332","335803","0.0-6.0-0.163","SOBA","4","f","rechts","21","","fixation","","","",""
"745","img/L120_180.png","70","image-keyboard-response","333","336558","0.0-6.0-1.163","SOBA","4","f","rechts","21","","","self","f","120","true"
"null","<div style=""font-size:60px;"">+</div>","null","html-keyboard-response","334","336913","0.0-6.0-0.164","SOBA","4","f","rechts","21","","fixation","","","",""
"753","img/90_120.png","70","image-keyboard-response","335","337671","0.0-6.0-1.164","SOBA","4","f","rechts","21","","","self","f","90","true"
"null","<div style=""font-size:60px;"">+</div>","null","html-keyboard-response","336","338086","0.0-6.0-0.165","SOBA","4","f","rechts","21","","fixation","","","",""
"879","img/150_300.png","74","image-keyboard-response","337","338973","0.0-6.0-1.165","SOBA","4","f","rechts","21","","","self","j","150","true"
"null","<div style=""font-size:60px;"">+</div>","null","html-keyboard-response","338","339428","0.0-6.0-0.166","SOBA","4","f","rechts","21","","fixation","","","",""
"671","img/L90_180.png","70","image-keyboard-response","339","340112","0.0-6.0-1.166","SOBA","4","f","rechts","21","","","self","f","90","true"
"null","<div style=""font-size:60px;"">+</div>","null","html-keyboard-response","340","340584","0.0-6.0-0.167","SOBA","4","f","rechts","21","","fixation","","","",""
"696","img/L150_180.png","70","image-keyboard-response","341","341293","0.0-6.0-1.167","SOBA","4","f","rechts","21","","","self","f","150","true"
"null","<div style=""font-size:60px;"">+</div>","null","html-keyboard-response","342","341617","0.0-6.0-0.168","SOBA","4","f","rechts","21","","fixation","","","",""
"1366","img/30_90.png","74","image-keyboard-response","343","342992","0.0-6.0-1.168","SOBA","4","f","rechts","21","","","self","j","30","true"
"null","<div style=""font-size:60px;"">+</div>","null","html-keyboard-response","344","343523","0.0-6.0-0.169","SOBA","4","f","rechts","21","","fixation","","","",""
"794","img/60_90.png","74","image-keyboard-response","345","344329","0.0-6.0-1.169","SOBA","4","f","rechts","21","","","self","j","60","true"
"null","<div style=""font-size:60px;"">+</div>","null","html-keyboard-response","346","344646","0.0-6.0-0.170","SOBA","4","f","rechts","21","","fixation","","","",""
"1166","img/120_90.png","70","image-keyboard-response","347","345825","0.0-6.0-1.170","SOBA","4","f","rechts","21","","","self","f","120","true"
"null","<div style=""font-size:60px;"">+</div>","null","html-keyboard-response","348","346180","0.0-6.0-0.171","SOBA","4","f","rechts","21","","fixation","","","",""
"836","img/150_120.png","70","image-keyboard-response","349","347020","0.0-6.0-1.171","SOBA","4","f","rechts","21","","","self","f","150","true"
"null","<div style=""font-size:60px;"">+</div>","null","html-keyboard-response","350","347431","0.0-6.0-0.172","SOBA","4","f","rechts","21","","fixation","","","",""
"1005","img/30_240.png","70","image-keyboard-response","351","348446","0.0-6.0-1.172","SOBA","4","f","rechts","21","","","self","f","30","true"
"null","<div style=""font-size:60px;"">+</div>","null","html-keyboard-response","352","348913","0.0-6.0-0.173","SOBA","4","f","rechts","21","","fixation","","","",""
"801","img/L60_180.png","70","image-keyboard-response","353","349719","0.0-6.0-1.173","SOBA","4","f","rechts","21","","","self","f","60","true"
"null","<div style=""font-size:60px;"">+</div>","null","html-keyboard-response","354","350039","0.0-6.0-0.174","SOBA","4","f","rechts","21","","fixation","","","",""
"1023","img/90_300.png","70","image-keyboard-response","355","351072","0.0-6.0-1.174","SOBA","4","f","rechts","21","","","self","f","90","true"
"null","<div style=""font-size:60px;"">+</div>","null","html-keyboard-response","356","351524","0.0-6.0-0.175","SOBA","4","f","rechts","21","","fixation","","","",""
"904","img/0_60.png","74","image-keyboard-response","357","352441","0.0-6.0-1.175","SOBA","4","f","rechts","21","","","self","j","0","true"
"null","<div style=""font-size:60px;"">+</div>","null","html-keyboard-response","358","352897","0.0-6.0-0.176","SOBA","4","f","rechts","21","","fixation","","","",""
"857","img/0_90.png","74","image-keyboard-response","359","353758","0.0-6.0-1.176","SOBA","4","f","rechts","21","","","self","j","0","true"
"null","<div style=""font-size:60px;"">+</div>","null","html-keyboard-response","360","354069","0.0-6.0-0.177","SOBA","4","f","rechts","21","","fixation","","","",""
"994","img/150_180.png","74","image-keyboard-response","361","355073","0.0-6.0-1.177","SOBA","4","f","rechts","21","","","self","j","150","true"
"null","<div style=""font-size:60px;"">+</div>","null","html-keyboard-response","362","355381","0.0-6.0-0.178","SOBA","4","f","rechts","21","","fixation","","","",""
"905","img/150_240.png","74","image-keyboard-response","363","356299","0.0-6.0-1.178","SOBA","4","f","rechts","21","","","self","j","150","true"
"null","<div style=""font-size:60px;"">+</div>","null","html-keyboard-response","364","356757","0.0-6.0-0.179","SOBA","4","f","rechts","21","","fixation","","","",""
"788","img/60_330.png","70","image-keyboard-response","365","357558","0.0-6.0-1.179","SOBA","4","f","rechts","21","","","self","f","60","true"
"null","<div style=""font-size:60px;"">+</div>","null","html-keyboard-response","366","358077","0.0-6.0-0.180","SOBA","4","f","rechts","21","","fixation","","","",""
"794","img/120_210.png","74","image-keyboard-response","367","358875","0.0-6.0-1.180","SOBA","4","f","rechts","21","","","self","j","120","true"
"null","<div style=""font-size:60px;"">+</div>","null","html-keyboard-response","368","359233","0.0-6.0-0.181","SOBA","4","f","rechts","21","","fixation","","","",""
"883","img/30_270.png","70","image-keyboard-response","369","360125","0.0-6.0-1.181","SOBA","4","f","rechts","21","","","self","f","30","true"
"null","<div style=""font-size:60px;"">+</div>","null","html-keyboard-response","370","360437","0.0-6.0-0.182","SOBA","4","f","rechts","21","","fixation","","","",""
"2360","img/90_30.png","74","image-keyboard-response","371","362808","0.0-6.0-1.182","SOBA","4","f","rechts","21","","","self","j","90","true"
"null","<div style=""font-size:60px;"">+</div>","null","html-keyboard-response","372","363225","0.0-6.0-0.183","SOBA","4","f","rechts","21","","fixation","","","",""
"814","img/60_270.png","70","image-keyboard-response","373","364052","0.0-6.0-1.183","SOBA","4","f","rechts","21","","","self","f","60","true"
"null","<div style=""font-size:60px;"">+</div>","null","html-keyboard-response","374","364367","0.0-6.0-0.184","SOBA","4","f","rechts","21","","fixation","","","",""
"875","img/90_210.png","74","image-keyboard-response","375","365255","0.0-6.0-1.184","SOBA","4","f","rechts","21","","","self","j","90","true"
"null","<div style=""font-size:60px;"">+</div>","null","html-keyboard-response","376","365679","0.0-6.0-0.185","SOBA","4","f","rechts","21","","fixation","","","",""
"896","img/0_210.png","70","image-keyboard-response","377","366585","0.0-6.0-1.185","SOBA","4","f","rechts","21","","","self","f","0","true"
"null","<div style=""font-size:60px;"">+</div>","null","html-keyboard-response","378","367000","0.0-6.0-0.186","SOBA","4","f","rechts","21","","fixation","","","",""
"1149","img/150_60.png","70","image-keyboard-response","379","368159","0.0-6.0-1.186","SOBA","4","f","rechts","21","","","self","f","150","true"
"null","<div style=""font-size:60px;"">+</div>","null","html-keyboard-response","380","368515","0.0-6.0-0.187","SOBA","4","f","rechts","21","","fixation","","","",""
"1000","img/30_60.png","74","image-keyboard-response","381","369528","0.0-6.0-1.187","SOBA","4","f","rechts","21","","","self","j","30","true"
"null","<div style=""font-size:60px;"">+</div>","null","html-keyboard-response","382","369857","0.0-6.0-0.188","SOBA","4","f","rechts","21","","fixation","","","",""
"932","img/60_150.png","70","image-keyboard-response","383","370803","0.0-6.0-1.188","SOBA","4","f","rechts","21","","","self","f","60","true"
"null","<div style=""font-size:60px;"">+</div>","null","html-keyboard-response","384","371327","0.0-6.0-0.189","SOBA","4","f","rechts","21","","fixation","","","",""
"888","img/90_330.png","74","image-keyboard-response","385","372230","0.0-6.0-1.189","SOBA","4","f","rechts","21","","","self","f","90","false"
"null","<div style=""font-size:60px;"">+</div>","null","html-keyboard-response","386","372702","0.0-6.0-0.190","SOBA","4","f","rechts","21","","fixation","","","",""
"1052","img/90_240.png","74","image-keyboard-response","387","373771","0.0-6.0-1.190","SOBA","4","f","rechts","21","","","self","j","90","true"
"null","<div style=""font-size:60px;"">+</div>","null","html-keyboard-response","388","374077","0.0-6.0-0.191","SOBA","4","f","rechts","21","","fixation","","","",""
"941","img/0_30.png","74","image-keyboard-response","389","375031","0.0-6.0-1.191","SOBA","4","f","rechts","21","","","self","j","0","true"
"null","<div style=""font-size:60px;"">+</div>","null","html-keyboard-response","390","375500","0.0-6.0-0.192","SOBA","4","f","rechts","21","","fixation","","","",""
"1002","img/60_210.png","74","image-keyboard-response","391","376515","0.0-6.0-1.192","SOBA","4","f","rechts","21","","","self","j","60","true"
"null","<div style=""font-size:60px;"">+</div>","null","html-keyboard-response","392","376938","0.0-6.0-0.193","SOBA","4","f","rechts","21","","fixation","","","",""
"1037","img/60_180.png","74","image-keyboard-response","393","377978","0.0-6.0-1.193","SOBA","4","f","rechts","21","","","self","j","60","true"
"null","<div style=""font-size:60px;"">+</div>","null","html-keyboard-response","394","378359","0.0-6.0-0.194","SOBA","4","f","rechts","21","","fixation","","","",""
"870","img/120_150.png","70","image-keyboard-response","395","379239","0.0-6.0-1.194","SOBA","4","f","rechts","21","","","self","f","120","true"
"null","<div style=""font-size:60px;"">+</div>","null","html-keyboard-response","396","379766","0.0-6.0-0.195","SOBA","4","f","rechts","21","","fixation","","","",""
"1069","img/120_330.png","70","image-keyboard-response","397","380848","0.0-6.0-1.195","SOBA","4","f","rechts","21","","","self","f","120","true"
"null","<div style=""font-size:60px;"">+</div>","null","html-keyboard-response","398","381220","0.0-6.0-0.196","SOBA","4","f","rechts","21","","fixation","","","",""
"820","img/90_180.png","74","image-keyboard-response","399","382052","0.0-6.0-1.196","SOBA","4","f","rechts","21","","","self","j","90","true"
"null","<div style=""font-size:60px;"">+</div>","null","html-keyboard-response","400","382376","0.0-6.0-0.197","SOBA","4","f","rechts","21","","fixation","","","",""
"843","img/0_300.png","70","image-keyboard-response","401","383233","0.0-6.0-1.197","SOBA","4","f","rechts","21","","","self","f","0","true"
"null","<div style=""font-size:60px;"">+</div>","null","html-keyboard-response","402","383548","0.0-6.0-0.198","SOBA","4","f","rechts","21","","fixation","","","",""
"864","img/0_240.png","70","image-keyboard-response","403","384427","0.0-6.0-1.198","SOBA","4","f","rechts","21","","","self","f","0","true"
"null","<div style=""font-size:60px;"">+</div>","null","html-keyboard-response","404","384890","0.0-6.0-0.199","SOBA","4","f","rechts","21","","fixation","","","",""
"890","img/150_90.png","70","image-keyboard-response","405","385788","0.0-6.0-1.199","SOBA","4","f","rechts","21","","","self","f","150","true"
"null","<div style=""font-size:60px;"">+</div>","null","html-keyboard-response","406","386094","0.0-6.0-0.200","SOBA","4","f","rechts","21","","fixation","","","",""
"1068","img/120_30.png","74","image-keyboard-response","407","387172","0.0-6.0-1.200","SOBA","4","f","rechts","21","","","self","j","120","true"
"null","<div style=""font-size:60px;"">+</div>","null","html-keyboard-response","408","387533","0.0-6.0-0.201","SOBA","4","f","rechts","21","","fixation","","","",""
"874","img/150_270.png","70","image-keyboard-response","409","388421","0.0-6.0-1.201","SOBA","4","f","rechts","21","","","self","j","150","false"
"null","<div style=""font-size:60px;"">+</div>","null","html-keyboard-response","410","388736","0.0-6.0-0.202","SOBA","4","f","rechts","21","","fixation","","","",""
"975","img/0_330.png","70","image-keyboard-response","411","389724","0.0-6.0-1.202","SOBA","4","f","rechts","21","","","self","f","0","true"
"null","<div style=""font-size:60px;"">+</div>","null","html-keyboard-response","412","390142","0.0-6.0-0.203","SOBA","4","f","rechts","21","","fixation","","","",""
"871","img/L30_180.png","70","image-keyboard-response","413","391027","0.0-6.0-1.203","SOBA","4","f","rechts","21","","","self","f","30","true"
"null","<div style=""font-size:60px;"">+</div>","null","html-keyboard-response","414","391502","0.0-6.0-0.204","SOBA","4","f","rechts","21","","fixation","","","",""
"742","img/0_120.png","74","image-keyboard-response","415","392258","0.0-6.0-1.204","SOBA","4","f","rechts","21","","","self","j","0","true"
"null","<div style=""font-size:60px;"">+</div>","null","html-keyboard-response","416","392614","0.0-6.0-0.205","SOBA","4","f","rechts","21","","fixation","","","",""
"808","img/60_30.png","74","image-keyboard-response","417","393436","0.0-6.0-1.205","SOBA","4","f","rechts","21","","","self","j","60","true"
"null","<div style=""font-size:60px;"">+</div>","null","html-keyboard-response","418","393737","0.0-6.0-0.206","SOBA","4","f","rechts","21","","fixation","","","",""
"856","img/120_180.png","74","image-keyboard-response","419","394606","0.0-6.0-1.206","SOBA","4","f","rechts","21","","","self","j","120","true"
"null","<div style=""font-size:60px;"">+</div>","null","html-keyboard-response","420","394940","0.0-6.0-0.207","SOBA","4","f","rechts","21","","fixation","","","",""
"1034","img/30_180.png","74","image-keyboard-response","421","395978","0.0-6.0-1.207","SOBA","4","f","rechts","21","","","self","j","30","true"
"35271","<p>Du hast in 96% der Versuche korrekt entschieden.</p><p>Deine durchschnittliche Reaktionszeit war  909ms.</p><p>Dr&uuml;cke eine beliebige Taste, um die Session zu beenden. Vielen Dank!</p>","32","html-keyboard-response","422","431252","0.0-7.0","SOBA","4","f","rechts","21","","","","","",""
