"rt","stimulus","key_press","trial_type","trial_index","time_elapsed","internal_node_id","subject","session","sex","handedness","age","responses","test_part","condition","correct_response","angle","correct"
"1954","<p>Mental Rotation Experiment.</p> <p>Dr&uuml;cke eine beliebige Taste, um anzufangen.</p>","71","html-keyboard-response","0","1957","0.0-0.0","REGA","1","f","rechts","23","","","","","",""
"3639","","","survey-text","1","5599","0.0-1.0","REGA","1","f","rechts","23","{""Q0"":""REGA""}","","","","",""
"2525","","","survey-text","2","8124","0.0-2.0","REGA","1","f","rechts","23","{""Q0"":""1""}","","","","",""
"4024","","","survey-multi-choice","3","12151","0.0-3.0","REGA","1","f","rechts","23","{""Q0"":""f"",""Q1"":""rechts""}","","","","",""
"3712","","","survey-text","4","15864","0.0-4.0","REGA","1","f","rechts","23","{""Q0"":""23""}","","","","",""
"4000","<p>Stell dir vor, dass du vor einem runden Tisch stehst, auf dem sich ein blauer Ball am Tischrand befindet. Entlang des Tischrands ist jeweils ein verschieden langer Pfeil. Nun bleibst du an deinem Platz vor dem Tisch und rotierst den Tisch entlang des Pfeils (gleiche Richtung und Länge). </p> <img src='img/30_180.png'></img> <br><p> Nachdem du diese (vorgestellte) Rotation durchgef&uuml;hrt hast, schau in Richtung der Tischmitte, und entscheide dann, ob der Ball links oder rechts von dir liegt.</p> <p>Dr&uuml;cke die <strong>'f'</strong>-Taste f&uuml;r links, die <strong>'j'</strong>-Taste f&uuml;r rechts.</p><br><p> Das Bild wird jeweils 1 Sekunde lang pr&auml;sentiert. Du hast 3 Sekunden Zeit eine Entscheidung zu treffen.</p>","70","html-keyboard-response","5","19865","0.0-5.0","REGA","1","f","rechts","23","","","","","",""
"null","<div style=""font-size:60px;"">+</div>","null","html-keyboard-response","6","21174","0.0-6.0-0.0","REGA","1","f","rechts","23","","fixation","","","",""
"2159","img/60_180.png","70","image-keyboard-response","7","23335","0.0-6.0-1.0","REGA","1","f","rechts","23","","","object","f","60","true"
"null","<div style=""font-size:60px;"">+</div>","null","html-keyboard-response","8","23740","0.0-6.0-0.1","REGA","1","f","rechts","23","","fixation","","","",""
"null","img/150_60.png","null","image-keyboard-response","9","26742","0.0-6.0-1.1","REGA","1","f","rechts","23","","","object","f","150","false"
"null","<div style=""font-size:60px;"">+</div>","null","html-keyboard-response","10","27095","0.0-6.0-0.2","REGA","1","f","rechts","23","","fixation","","","",""
"1617","img/L120_180.png","74","image-keyboard-response","11","28712","0.0-6.0-1.2","REGA","1","f","rechts","23","","","object","j","120","true"
"null","<div style=""font-size:60px;"">+</div>","null","html-keyboard-response","12","29068","0.0-6.0-0.3","REGA","1","f","rechts","23","","fixation","","","",""
"1809","img/150_120.png","70","image-keyboard-response","13","30878","0.0-6.0-1.3","REGA","1","f","rechts","23","","","object","f","150","true"
"null","<div style=""font-size:60px;"">+</div>","null","html-keyboard-response","14","31382","0.0-6.0-0.4","REGA","1","f","rechts","23","","fixation","","","",""
"2469","img/30_120.png","74","image-keyboard-response","15","33851","0.0-6.0-1.4","REGA","1","f","rechts","23","","","object","j","30","true"
"null","<div style=""font-size:60px;"">+</div>","null","html-keyboard-response","16","34307","0.0-6.0-0.5","REGA","1","f","rechts","23","","fixation","","","",""
"2340","img/150_270.png","74","image-keyboard-response","17","36648","0.0-6.0-1.5","REGA","1","f","rechts","23","","","object","j","150","true"
"null","<div style=""font-size:60px;"">+</div>","null","html-keyboard-response","18","37104","0.0-6.0-0.6","REGA","1","f","rechts","23","","fixation","","","",""
"1539","img/60_30.png","70","image-keyboard-response","19","38644","0.0-6.0-1.6","REGA","1","f","rechts","23","","","object","f","60","true"
"null","<div style=""font-size:60px;"">+</div>","null","html-keyboard-response","20","38997","0.0-6.0-0.7","REGA","1","f","rechts","23","","fixation","","","",""
"853","img/0_90.png","74","image-keyboard-response","21","39852","0.0-6.0-1.7","REGA","1","f","rechts","23","","","object","j","0","true"
"null","<div style=""font-size:60px;"">+</div>","null","html-keyboard-response","22","40157","0.0-6.0-0.8","REGA","1","f","rechts","23","","fixation","","","",""
"1700","img/120_210.png","74","image-keyboard-response","23","41857","0.0-6.0-1.8","REGA","1","f","rechts","23","","","object","f","120","false"
"null","<div style=""font-size:60px;"">+</div>","null","html-keyboard-response","24","42258","0.0-6.0-0.9","REGA","1","f","rechts","23","","fixation","","","",""
"1698","img/120_330.png","74","image-keyboard-response","25","43958","0.0-6.0-1.9","REGA","1","f","rechts","23","","","object","j","120","true"
"null","<div style=""font-size:60px;"">+</div>","null","html-keyboard-response","26","44459","0.0-6.0-0.10","REGA","1","f","rechts","23","","fixation","","","",""
"1513","img/30_90.png","70","image-keyboard-response","27","45973","0.0-6.0-1.10","REGA","1","f","rechts","23","","","object","j","30","false"
"null","<div style=""font-size:60px;"">+</div>","null","html-keyboard-response","28","46328","0.0-6.0-0.11","REGA","1","f","rechts","23","","fixation","","","",""
"1412","img/90_60.png","70","image-keyboard-response","29","47740","0.0-6.0-1.11","REGA","1","f","rechts","23","","","object","f","90","true"
"null","<div style=""font-size:60px;"">+</div>","null","html-keyboard-response","30","48144","0.0-6.0-0.12","REGA","1","f","rechts","23","","fixation","","","",""
"823","img/0_210.png","70","image-keyboard-response","31","48968","0.0-6.0-1.12","REGA","1","f","rechts","23","","","object","f","0","true"
"null","<div style=""font-size:60px;"">+</div>","null","html-keyboard-response","32","49425","0.0-6.0-0.13","REGA","1","f","rechts","23","","fixation","","","",""
"2073","img/150_300.png","74","image-keyboard-response","33","51498","0.0-6.0-1.13","REGA","1","f","rechts","23","","","object","j","150","true"
"null","<div style=""font-size:60px;"">+</div>","null","html-keyboard-response","34","51853","0.0-6.0-0.14","REGA","1","f","rechts","23","","fixation","","","",""
"1557","img/60_210.png","70","image-keyboard-response","35","53410","0.0-6.0-1.14","REGA","1","f","rechts","23","","","object","f","60","true"
"null","<div style=""font-size:60px;"">+</div>","null","html-keyboard-response","36","53711","0.0-6.0-0.15","REGA","1","f","rechts","23","","fixation","","","",""
"2092","img/30_300.png","74","image-keyboard-response","37","55803","0.0-6.0-1.15","REGA","1","f","rechts","23","","","object","f","30","false"
"null","<div style=""font-size:60px;"">+</div>","null","html-keyboard-response","38","56207","0.0-6.0-0.16","REGA","1","f","rechts","23","","fixation","","","",""
"2525","img/L30_180.png","74","image-keyboard-response","39","58732","0.0-6.0-1.16","REGA","1","f","rechts","23","","","object","j","30","true"
"null","<div style=""font-size:60px;"">+</div>","null","html-keyboard-response","40","59188","0.0-6.0-0.17","REGA","1","f","rechts","23","","fixation","","","",""
"1281","img/90_30.png","70","image-keyboard-response","41","60469","0.0-6.0-1.17","REGA","1","f","rechts","23","","","object","f","90","true"
"null","<div style=""font-size:60px;"">+</div>","null","html-keyboard-response","42","60874","0.0-6.0-0.18","REGA","1","f","rechts","23","","fixation","","","",""
"1178","img/90_300.png","74","image-keyboard-response","43","62053","0.0-6.0-1.18","REGA","1","f","rechts","23","","","object","j","90","true"
"null","<div style=""font-size:60px;"">+</div>","null","html-keyboard-response","44","62505","0.0-6.0-0.19","REGA","1","f","rechts","23","","fixation","","","",""
"1760","img/150_180.png","70","image-keyboard-response","45","64265","0.0-6.0-1.19","REGA","1","f","rechts","23","","","object","f","150","true"
"null","<div style=""font-size:60px;"">+</div>","null","html-keyboard-response","46","64571","0.0-6.0-0.20","REGA","1","f","rechts","23","","fixation","","","",""
"2097","img/120_30.png","70","image-keyboard-response","47","66668","0.0-6.0-1.20","REGA","1","f","rechts","23","","","object","f","120","true"
"null","<div style=""font-size:60px;"">+</div>","null","html-keyboard-response","48","67124","0.0-6.0-0.21","REGA","1","f","rechts","23","","fixation","","","",""
"2179","img/30_270.png","74","image-keyboard-response","49","69304","0.0-6.0-1.21","REGA","1","f","rechts","23","","","object","f","30","false"
"null","<div style=""font-size:60px;"">+</div>","null","html-keyboard-response","50","69760","0.0-6.0-0.22","REGA","1","f","rechts","23","","fixation","","","",""
"749","img/0_150.png","74","image-keyboard-response","51","70510","0.0-6.0-1.22","REGA","1","f","rechts","23","","","object","j","0","true"
"null","<div style=""font-size:60px;"">+</div>","null","html-keyboard-response","52","70812","0.0-6.0-0.23","REGA","1","f","rechts","23","","fixation","","","",""
"810","img/0_330.png","70","image-keyboard-response","53","71622","0.0-6.0-1.23","REGA","1","f","rechts","23","","","object","f","0","true"
"null","<div style=""font-size:60px;"">+</div>","null","html-keyboard-response","54","71977","0.0-6.0-0.24","REGA","1","f","rechts","23","","fixation","","","",""
"1715","img/90_150.png","70","image-keyboard-response","55","73692","0.0-6.0-1.24","REGA","1","f","rechts","23","","","object","j","90","false"
"null","<div style=""font-size:60px;"">+</div>","null","html-keyboard-response","56","74149","0.0-6.0-0.25","REGA","1","f","rechts","23","","fixation","","","",""
"707","img/0_270.png","70","image-keyboard-response","57","74856","0.0-6.0-1.25","REGA","1","f","rechts","23","","","object","f","0","true"
"null","<div style=""font-size:60px;"">+</div>","null","html-keyboard-response","58","75158","0.0-6.0-0.26","REGA","1","f","rechts","23","","fixation","","","",""
"1320","img/60_330.png","74","image-keyboard-response","59","76479","0.0-6.0-1.26","REGA","1","f","rechts","23","","","object","j","60","true"
"null","<div style=""font-size:60px;"">+</div>","null","html-keyboard-response","60","76981","0.0-6.0-0.27","REGA","1","f","rechts","23","","fixation","","","",""
"1903","img/150_240.png","74","image-keyboard-response","61","78884","0.0-6.0-1.27","REGA","1","f","rechts","23","","","object","j","150","true"
"null","<div style=""font-size:60px;"">+</div>","null","html-keyboard-response","62","79337","0.0-6.0-0.28","REGA","1","f","rechts","23","","fixation","","","",""
"1871","img/L90_180.png","74","image-keyboard-response","63","81208","0.0-6.0-1.28","REGA","1","f","rechts","23","","","object","j","90","true"
"null","<div style=""font-size:60px;"">+</div>","null","html-keyboard-response","64","81513","0.0-6.0-0.29","REGA","1","f","rechts","23","","fixation","","","",""
"1956","img/150_90.png","70","image-keyboard-response","65","83470","0.0-6.0-1.29","REGA","1","f","rechts","23","","","object","f","150","true"
"null","<div style=""font-size:60px;"">+</div>","null","html-keyboard-response","66","83875","0.0-6.0-0.30","REGA","1","f","rechts","23","","fixation","","","",""
"1731","img/120_150.png","70","image-keyboard-response","67","85608","0.0-6.0-1.30","REGA","1","f","rechts","23","","","object","j","120","false"
"null","<div style=""font-size:60px;"">+</div>","null","html-keyboard-response","68","86063","0.0-6.0-0.31","REGA","1","f","rechts","23","","fixation","","","",""
"1406","img/L60_180.png","74","image-keyboard-response","69","87474","0.0-6.0-1.31","REGA","1","f","rechts","23","","","object","j","60","true"
"null","<div style=""font-size:60px;"">+</div>","null","html-keyboard-response","70","87928","0.0-6.0-0.32","REGA","1","f","rechts","23","","fixation","","","",""
"770","img/0_30.png","74","image-keyboard-response","71","88698","0.0-6.0-1.32","REGA","1","f","rechts","23","","","object","j","0","true"
"null","<div style=""font-size:60px;"">+</div>","null","html-keyboard-response","72","89199","0.0-6.0-0.33","REGA","1","f","rechts","23","","fixation","","","",""
"1720","img/30_180.png","70","image-keyboard-response","73","90920","0.0-6.0-1.33","REGA","1","f","rechts","23","","","object","f","30","true"
"null","<div style=""font-size:60px;"">+</div>","null","html-keyboard-response","74","91426","0.0-6.0-0.34","REGA","1","f","rechts","23","","fixation","","","",""
"985","img/90_330.png","74","image-keyboard-response","75","92411","0.0-6.0-1.34","REGA","1","f","rechts","23","","","object","j","90","true"
"null","<div style=""font-size:60px;"">+</div>","null","html-keyboard-response","76","92716","0.0-6.0-0.35","REGA","1","f","rechts","23","","fixation","","","",""
"684","img/0_120.png","74","image-keyboard-response","77","93402","0.0-6.0-1.35","REGA","1","f","rechts","23","","","object","j","0","true"
"null","<div style=""font-size:60px;"">+</div>","null","html-keyboard-response","78","93855","0.0-6.0-0.36","REGA","1","f","rechts","23","","fixation","","","",""
"671","img/0_240.png","70","image-keyboard-response","79","94527","0.0-6.0-1.36","REGA","1","f","rechts","23","","","object","f","0","true"
"null","<div style=""font-size:60px;"">+</div>","null","html-keyboard-response","80","94981","0.0-6.0-0.37","REGA","1","f","rechts","23","","fixation","","","",""
"1014","img/L150_180.png","74","image-keyboard-response","81","95995","0.0-6.0-1.37","REGA","1","f","rechts","23","","","object","j","150","true"
"null","<div style=""font-size:60px;"">+</div>","null","html-keyboard-response","82","96449","0.0-6.0-0.38","REGA","1","f","rechts","23","","fixation","","","",""
"1486","img/30_240.png","70","image-keyboard-response","83","97936","0.0-6.0-1.38","REGA","1","f","rechts","23","","","object","f","30","true"
"null","<div style=""font-size:60px;"">+</div>","null","html-keyboard-response","84","98289","0.0-6.0-0.39","REGA","1","f","rechts","23","","fixation","","","",""
"1658","img/60_150.png","74","image-keyboard-response","85","99947","0.0-6.0-1.39","REGA","1","f","rechts","23","","","object","j","60","true"
"null","<div style=""font-size:60px;"">+</div>","null","html-keyboard-response","86","100302","0.0-6.0-0.40","REGA","1","f","rechts","23","","fixation","","","",""
"1683","img/30_60.png","74","image-keyboard-response","87","101987","0.0-6.0-1.40","REGA","1","f","rechts","23","","","object","j","30","true"
"null","<div style=""font-size:60px;"">+</div>","null","html-keyboard-response","88","102489","0.0-6.0-0.41","REGA","1","f","rechts","23","","fixation","","","",""
"1337","img/90_120.png","70","image-keyboard-response","89","103827","0.0-6.0-1.41","REGA","1","f","rechts","23","","","object","j","90","false"
"null","<div style=""font-size:60px;"">+</div>","null","html-keyboard-response","90","104331","0.0-6.0-0.42","REGA","1","f","rechts","23","","fixation","","","",""
"1100","img/120_90.png","70","image-keyboard-response","91","105432","0.0-6.0-1.42","REGA","1","f","rechts","23","","","object","f","120","true"
"null","<div style=""font-size:60px;"">+</div>","null","html-keyboard-response","92","105838","0.0-6.0-0.43","REGA","1","f","rechts","23","","fixation","","","",""
"2345","img/120_180.png","70","image-keyboard-response","93","108184","0.0-6.0-1.43","REGA","1","f","rechts","23","","","object","f","120","true"
"null","<div style=""font-size:60px;"">+</div>","null","html-keyboard-response","94","108590","0.0-6.0-0.44","REGA","1","f","rechts","23","","fixation","","","",""
"1080","img/120_270.png","74","image-keyboard-response","95","109671","0.0-6.0-1.44","REGA","1","f","rechts","23","","","object","j","120","true"
"null","<div style=""font-size:60px;"">+</div>","null","html-keyboard-response","96","109974","0.0-6.0-0.45","REGA","1","f","rechts","23","","fixation","","","",""
"2059","img/90_180.png","70","image-keyboard-response","97","112034","0.0-6.0-1.45","REGA","1","f","rechts","23","","","object","f","90","true"
"null","<div style=""font-size:60px;"">+</div>","null","html-keyboard-response","98","112435","0.0-6.0-0.46","REGA","1","f","rechts","23","","fixation","","","",""
"1351","img/90_240.png","74","image-keyboard-response","99","113786","0.0-6.0-1.46","REGA","1","f","rechts","23","","","object","f","90","false"
"null","<div style=""font-size:60px;"">+</div>","null","html-keyboard-response","100","114291","0.0-6.0-0.47","REGA","1","f","rechts","23","","fixation","","","",""
"1558","img/60_90.png","70","image-keyboard-response","101","115849","0.0-6.0-1.47","REGA","1","f","rechts","23","","","object","j","60","false"
"null","<div style=""font-size:60px;"">+</div>","null","html-keyboard-response","102","116154","0.0-6.0-0.48","REGA","1","f","rechts","23","","fixation","","","",""
"2242","img/60_270.png","74","image-keyboard-response","103","118397","0.0-6.0-1.48","REGA","1","f","rechts","23","","","object","f","60","false"
"null","<div style=""font-size:60px;"">+</div>","null","html-keyboard-response","104","118902","0.0-6.0-0.49","REGA","1","f","rechts","23","","fixation","","","",""
"2222","img/90_210.png","70","image-keyboard-response","105","121125","0.0-6.0-1.49","REGA","1","f","rechts","23","","","object","f","90","true"
"null","<div style=""font-size:60px;"">+</div>","null","html-keyboard-response","106","121430","0.0-6.0-0.50","REGA","1","f","rechts","23","","fixation","","","",""
"812","img/0_60.png","74","image-keyboard-response","107","122242","0.0-6.0-1.50","REGA","1","f","rechts","23","","","object","j","0","true"
"null","<div style=""font-size:60px;"">+</div>","null","html-keyboard-response","108","122699","0.0-6.0-0.51","REGA","1","f","rechts","23","","fixation","","","",""
"670","img/0_300.png","70","image-keyboard-response","109","123369","0.0-6.0-1.51","REGA","1","f","rechts","23","","","object","f","0","true"
"null","<div style=""font-size:60px;"">+</div>","null","html-keyboard-response","110","123776","0.0-6.0-0.52","REGA","1","f","rechts","23","","fixation","","","",""
"1167","img/60_150.png","74","image-keyboard-response","111","124943","0.0-6.0-1.52","REGA","1","f","rechts","23","","","object","j","60","true"
"null","<div style=""font-size:60px;"">+</div>","null","html-keyboard-response","112","125244","0.0-6.0-0.53","REGA","1","f","rechts","23","","fixation","","","",""
"858","img/0_30.png","74","image-keyboard-response","113","126104","0.0-6.0-1.53","REGA","1","f","rechts","23","","","object","j","0","true"
"null","<div style=""font-size:60px;"">+</div>","null","html-keyboard-response","114","126556","0.0-6.0-0.54","REGA","1","f","rechts","23","","fixation","","","",""
"1824","img/L30_180.png","74","image-keyboard-response","115","128380","0.0-6.0-1.54","REGA","1","f","rechts","23","","","object","j","30","true"
"null","<div style=""font-size:60px;"">+</div>","null","html-keyboard-response","116","128887","0.0-6.0-0.55","REGA","1","f","rechts","23","","fixation","","","",""
"1886","img/30_300.png","74","image-keyboard-response","117","130773","0.0-6.0-1.55","REGA","1","f","rechts","23","","","object","f","30","false"
"null","<div style=""font-size:60px;"">+</div>","null","html-keyboard-response","118","131274","0.0-6.0-0.56","REGA","1","f","rechts","23","","fixation","","","",""
"2056","img/L150_180.png","74","image-keyboard-response","119","133330","0.0-6.0-1.56","REGA","1","f","rechts","23","","","object","j","150","true"
"null","<div style=""font-size:60px;"">+</div>","null","html-keyboard-response","120","133835","0.0-6.0-0.57","REGA","1","f","rechts","23","","fixation","","","",""
"1757","img/120_90.png","70","image-keyboard-response","121","135593","0.0-6.0-1.57","REGA","1","f","rechts","23","","","object","f","120","true"
"null","<div style=""font-size:60px;"">+</div>","null","html-keyboard-response","122","135948","0.0-6.0-0.58","REGA","1","f","rechts","23","","fixation","","","",""
"1792","img/90_30.png","70","image-keyboard-response","123","137740","0.0-6.0-1.58","REGA","1","f","rechts","23","","","object","f","90","true"
"null","<div style=""font-size:60px;"">+</div>","null","html-keyboard-response","124","138141","0.0-6.0-0.59","REGA","1","f","rechts","23","","fixation","","","",""
"1671","img/30_60.png","70","image-keyboard-response","125","139813","0.0-6.0-1.59","REGA","1","f","rechts","23","","","object","j","30","false"
"null","<div style=""font-size:60px;"">+</div>","null","html-keyboard-response","126","140219","0.0-6.0-0.60","REGA","1","f","rechts","23","","fixation","","","",""
"1359","img/150_60.png","70","image-keyboard-response","127","141579","0.0-6.0-1.60","REGA","1","f","rechts","23","","","object","f","150","true"
"null","<div style=""font-size:60px;"">+</div>","null","html-keyboard-response","128","142033","0.0-6.0-0.61","REGA","1","f","rechts","23","","fixation","","","",""
"1055","img/120_270.png","74","image-keyboard-response","129","143088","0.0-6.0-1.61","REGA","1","f","rechts","23","","","object","j","120","true"
"null","<div style=""font-size:60px;"">+</div>","null","html-keyboard-response","130","143595","0.0-6.0-0.62","REGA","1","f","rechts","23","","fixation","","","",""
"696","img/0_120.png","74","image-keyboard-response","131","144291","0.0-6.0-1.62","REGA","1","f","rechts","23","","","object","j","0","true"
"null","<div style=""font-size:60px;"">+</div>","null","html-keyboard-response","132","144695","0.0-6.0-0.63","REGA","1","f","rechts","23","","fixation","","","",""
"1579","img/30_90.png","74","image-keyboard-response","133","146275","0.0-6.0-1.63","REGA","1","f","rechts","23","","","object","j","30","true"
"null","<div style=""font-size:60px;"">+</div>","null","html-keyboard-response","134","146778","0.0-6.0-0.64","REGA","1","f","rechts","23","","fixation","","","",""
"839","img/30_270.png","74","image-keyboard-response","135","147617","0.0-6.0-1.64","REGA","1","f","rechts","23","","","object","f","30","false"
"null","<div style=""font-size:60px;"">+</div>","null","html-keyboard-response","136","148122","0.0-6.0-0.65","REGA","1","f","rechts","23","","fixation","","","",""
"1535","img/150_90.png","70","image-keyboard-response","137","149658","0.0-6.0-1.65","REGA","1","f","rechts","23","","","object","f","150","true"
"null","<div style=""font-size:60px;"">+</div>","null","html-keyboard-response","138","150064","0.0-6.0-0.66","REGA","1","f","rechts","23","","fixation","","","",""
"1509","img/60_330.png","74","image-keyboard-response","139","151573","0.0-6.0-1.66","REGA","1","f","rechts","23","","","object","j","60","true"
"null","<div style=""font-size:60px;"">+</div>","null","html-keyboard-response","140","152029","0.0-6.0-0.67","REGA","1","f","rechts","23","","fixation","","","",""
"2332","img/150_270.png","74","image-keyboard-response","141","154362","0.0-6.0-1.67","REGA","1","f","rechts","23","","","object","j","150","true"
"null","<div style=""font-size:60px;"">+</div>","null","html-keyboard-response","142","154866","0.0-6.0-0.68","REGA","1","f","rechts","23","","fixation","","","",""
"2601","img/120_210.png","74","image-keyboard-response","143","157468","0.0-6.0-1.68","REGA","1","f","rechts","23","","","object","f","120","false"
"null","<div style=""font-size:60px;"">+</div>","null","html-keyboard-response","144","157824","0.0-6.0-0.69","REGA","1","f","rechts","23","","fixation","","","",""
"1079","img/150_240.png","74","image-keyboard-response","145","158904","0.0-6.0-1.69","REGA","1","f","rechts","23","","","object","j","150","true"
"null","<div style=""font-size:60px;"">+</div>","null","html-keyboard-response","146","159357","0.0-6.0-0.70","REGA","1","f","rechts","23","","fixation","","","",""
"1548","img/150_120.png","70","image-keyboard-response","147","160906","0.0-6.0-1.70","REGA","1","f","rechts","23","","","object","f","150","true"
"null","<div style=""font-size:60px;"">+</div>","null","html-keyboard-response","148","161260","0.0-6.0-0.71","REGA","1","f","rechts","23","","fixation","","","",""
"783","img/0_270.png","70","image-keyboard-response","149","162044","0.0-6.0-1.71","REGA","1","f","rechts","23","","","object","f","0","true"
"null","<div style=""font-size:60px;"">+</div>","null","html-keyboard-response","150","162345","0.0-6.0-0.72","REGA","1","f","rechts","23","","fixation","","","",""
"1253","img/90_60.png","70","image-keyboard-response","151","163600","0.0-6.0-1.72","REGA","1","f","rechts","23","","","object","f","90","true"
"null","<div style=""font-size:60px;"">+</div>","null","html-keyboard-response","152","164006","0.0-6.0-0.73","REGA","1","f","rechts","23","","fixation","","","",""
"715","img/0_60.png","74","image-keyboard-response","153","164722","0.0-6.0-1.73","REGA","1","f","rechts","23","","","object","j","0","true"
"null","<div style=""font-size:60px;"">+</div>","null","html-keyboard-response","154","165127","0.0-6.0-0.74","REGA","1","f","rechts","23","","fixation","","","",""
"1194","img/90_300.png","74","image-keyboard-response","155","166321","0.0-6.0-1.74","REGA","1","f","rechts","23","","","object","j","90","true"
"null","<div style=""font-size:60px;"">+</div>","null","html-keyboard-response","156","166727","0.0-6.0-0.75","REGA","1","f","rechts","23","","fixation","","","",""
"1778","img/60_90.png","70","image-keyboard-response","157","168506","0.0-6.0-1.75","REGA","1","f","rechts","23","","","object","j","60","false"
"null","<div style=""font-size:60px;"">+</div>","null","html-keyboard-response","158","169009","0.0-6.0-0.76","REGA","1","f","rechts","23","","fixation","","","",""
"2178","img/90_210.png","74","image-keyboard-response","159","171187","0.0-6.0-1.76","REGA","1","f","rechts","23","","","object","f","90","false"
"null","<div style=""font-size:60px;"">+</div>","null","html-keyboard-response","160","171644","0.0-6.0-0.77","REGA","1","f","rechts","23","","fixation","","","",""
"739","img/0_300.png","70","image-keyboard-response","161","172383","0.0-6.0-1.77","REGA","1","f","rechts","23","","","object","f","0","true"
"null","<div style=""font-size:60px;"">+</div>","null","html-keyboard-response","162","172735","0.0-6.0-0.78","REGA","1","f","rechts","23","","fixation","","","",""
"745","img/0_210.png","70","image-keyboard-response","163","173481","0.0-6.0-1.78","REGA","1","f","rechts","23","","","object","f","0","true"
"null","<div style=""font-size:60px;"">+</div>","null","html-keyboard-response","164","173937","0.0-6.0-0.79","REGA","1","f","rechts","23","","fixation","","","",""
"2061","img/90_120.png","70","image-keyboard-response","165","175999","0.0-6.0-1.79","REGA","1","f","rechts","23","","","object","j","90","false"
"null","<div style=""font-size:60px;"">+</div>","null","html-keyboard-response","166","176404","0.0-6.0-0.80","REGA","1","f","rechts","23","","fixation","","","",""
"939","img/30_120.png","74","image-keyboard-response","167","177344","0.0-6.0-1.80","REGA","1","f","rechts","23","","","object","j","30","true"
"null","<div style=""font-size:60px;"">+</div>","null","html-keyboard-response","168","177701","0.0-6.0-0.81","REGA","1","f","rechts","23","","fixation","","","",""
"2513","img/60_180.png","70","image-keyboard-response","169","180215","0.0-6.0-1.81","REGA","1","f","rechts","23","","","object","f","60","true"
"null","<div style=""font-size:60px;"">+</div>","null","html-keyboard-response","170","180718","0.0-6.0-0.82","REGA","1","f","rechts","23","","fixation","","","",""
"2771","img/150_180.png","70","image-keyboard-response","171","183490","0.0-6.0-1.82","REGA","1","f","rechts","23","","","object","f","150","true"
"null","<div style=""font-size:60px;"">+</div>","null","html-keyboard-response","172","183892","0.0-6.0-0.83","REGA","1","f","rechts","23","","fixation","","","",""
"2301","img/30_180.png","70","image-keyboard-response","173","186193","0.0-6.0-1.83","REGA","1","f","rechts","23","","","object","f","30","true"
"null","<div style=""font-size:60px;"">+</div>","null","html-keyboard-response","174","186549","0.0-6.0-0.84","REGA","1","f","rechts","23","","fixation","","","",""
"null","img/L90_180.png","null","image-keyboard-response","175","189555","0.0-6.0-1.84","REGA","1","f","rechts","23","","","object","j","90","false"
"null","<div style=""font-size:60px;"">+</div>","null","html-keyboard-response","176","190009","0.0-6.0-0.85","REGA","1","f","rechts","23","","fixation","","","",""
"705","img/0_150.png","74","image-keyboard-response","177","190716","0.0-6.0-1.85","REGA","1","f","rechts","23","","","object","j","0","true"
"null","<div style=""font-size:60px;"">+</div>","null","html-keyboard-response","178","191221","0.0-6.0-0.86","REGA","1","f","rechts","23","","fixation","","","",""
"2127","img/120_180.png","70","image-keyboard-response","179","193349","0.0-6.0-1.86","REGA","1","f","rechts","23","","","object","f","120","true"
"null","<div style=""font-size:60px;"">+</div>","null","html-keyboard-response","180","193754","0.0-6.0-0.87","REGA","1","f","rechts","23","","fixation","","","",""
"698","img/0_240.png","70","image-keyboard-response","181","194453","0.0-6.0-1.87","REGA","1","f","rechts","23","","","object","f","0","true"
"null","<div style=""font-size:60px;"">+</div>","null","html-keyboard-response","182","194954","0.0-6.0-0.88","REGA","1","f","rechts","23","","fixation","","","",""
"646","img/0_330.png","70","image-keyboard-response","183","195602","0.0-6.0-1.88","REGA","1","f","rechts","23","","","object","f","0","true"
"null","<div style=""font-size:60px;"">+</div>","null","html-keyboard-response","184","196104","0.0-6.0-0.89","REGA","1","f","rechts","23","","fixation","","","",""
"1002","img/120_330.png","74","image-keyboard-response","185","197107","0.0-6.0-1.89","REGA","1","f","rechts","23","","","object","j","120","true"
"null","<div style=""font-size:60px;"">+</div>","null","html-keyboard-response","186","197509","0.0-6.0-0.90","REGA","1","f","rechts","23","","fixation","","","",""
"1707","img/L120_180.png","74","image-keyboard-response","187","199216","0.0-6.0-1.90","REGA","1","f","rechts","23","","","object","j","120","true"
"null","<div style=""font-size:60px;"">+</div>","null","html-keyboard-response","188","199668","0.0-6.0-0.91","REGA","1","f","rechts","23","","fixation","","","",""
"1649","img/120_30.png","70","image-keyboard-response","189","201318","0.0-6.0-1.91","REGA","1","f","rechts","23","","","object","f","120","true"
"null","<div style=""font-size:60px;"">+</div>","null","html-keyboard-response","190","201623","0.0-6.0-0.92","REGA","1","f","rechts","23","","fixation","","","",""
"1699","img/60_270.png","74","image-keyboard-response","191","203322","0.0-6.0-1.92","REGA","1","f","rechts","23","","","object","f","60","false"
"null","<div style=""font-size:60px;"">+</div>","null","html-keyboard-response","192","203777","0.0-6.0-0.93","REGA","1","f","rechts","23","","fixation","","","",""
"2483","img/60_30.png","70","image-keyboard-response","193","206262","0.0-6.0-1.93","REGA","1","f","rechts","23","","","object","f","60","true"
"null","<div style=""font-size:60px;"">+</div>","null","html-keyboard-response","194","206715","0.0-6.0-0.94","REGA","1","f","rechts","23","","fixation","","","",""
"735","img/0_90.png","74","image-keyboard-response","195","207450","0.0-6.0-1.94","REGA","1","f","rechts","23","","","object","j","0","true"
"null","<div style=""font-size:60px;"">+</div>","null","html-keyboard-response","196","207906","0.0-6.0-0.95","REGA","1","f","rechts","23","","fixation","","","",""
"1405","img/L60_180.png","74","image-keyboard-response","197","209311","0.0-6.0-1.95","REGA","1","f","rechts","23","","","object","j","60","true"
"null","<div style=""font-size:60px;"">+</div>","null","html-keyboard-response","198","209716","0.0-6.0-0.96","REGA","1","f","rechts","23","","fixation","","","",""
"1819","img/120_150.png","70","image-keyboard-response","199","211536","0.0-6.0-1.96","REGA","1","f","rechts","23","","","object","j","120","false"
"null","<div style=""font-size:60px;"">+</div>","null","html-keyboard-response","200","211839","0.0-6.0-0.97","REGA","1","f","rechts","23","","fixation","","","",""
"1941","img/150_300.png","74","image-keyboard-response","201","213781","0.0-6.0-1.97","REGA","1","f","rechts","23","","","object","j","150","true"
"null","<div style=""font-size:60px;"">+</div>","null","html-keyboard-response","202","214284","0.0-6.0-0.98","REGA","1","f","rechts","23","","fixation","","","",""
"1760","img/90_150.png","74","image-keyboard-response","203","216045","0.0-6.0-1.98","REGA","1","f","rechts","23","","","object","j","90","true"
"null","<div style=""font-size:60px;"">+</div>","null","html-keyboard-response","204","216448","0.0-6.0-0.99","REGA","1","f","rechts","23","","fixation","","","",""
"1227","img/30_240.png","70","image-keyboard-response","205","217676","0.0-6.0-1.99","REGA","1","f","rechts","23","","","object","f","30","true"
"null","<div style=""font-size:60px;"">+</div>","null","html-keyboard-response","206","218082","0.0-6.0-0.100","REGA","1","f","rechts","23","","fixation","","","",""
"1485","img/90_240.png","74","image-keyboard-response","207","219568","0.0-6.0-1.100","REGA","1","f","rechts","23","","","object","f","90","false"
"null","<div style=""font-size:60px;"">+</div>","null","html-keyboard-response","208","220070","0.0-6.0-0.101","REGA","1","f","rechts","23","","fixation","","","",""
"1739","img/90_180.png","70","image-keyboard-response","209","221809","0.0-6.0-1.101","REGA","1","f","rechts","23","","","object","f","90","true"
"null","<div style=""font-size:60px;"">+</div>","null","html-keyboard-response","210","222265","0.0-6.0-0.102","REGA","1","f","rechts","23","","fixation","","","",""
"1232","img/90_330.png","74","image-keyboard-response","211","223497","0.0-6.0-1.102","REGA","1","f","rechts","23","","","object","j","90","true"
"null","<div style=""font-size:60px;"">+</div>","null","html-keyboard-response","212","223850","0.0-6.0-0.103","REGA","1","f","rechts","23","","fixation","","","",""
"1102","img/60_210.png","70","image-keyboard-response","213","224953","0.0-6.0-1.103","REGA","1","f","rechts","23","","","object","f","60","true"
"null","<div style=""font-size:60px;"">+</div>","null","html-keyboard-response","214","225360","0.0-6.0-0.104","REGA","1","f","rechts","23","","fixation","","","",""
"642","img/0_90.png","74","image-keyboard-response","215","226002","0.0-6.0-1.104","REGA","1","f","rechts","23","","","object","j","0","true"
"null","<div style=""font-size:60px;"">+</div>","null","html-keyboard-response","216","226403","0.0-6.0-0.105","REGA","1","f","rechts","23","","fixation","","","",""
"1667","img/L90_180.png","74","image-keyboard-response","217","228071","0.0-6.0-1.105","REGA","1","f","rechts","23","","","object","j","90","true"
"null","<div style=""font-size:60px;"">+</div>","null","html-keyboard-response","218","228427","0.0-6.0-0.106","REGA","1","f","rechts","23","","fixation","","","",""
"1267","img/90_60.png","70","image-keyboard-response","219","229696","0.0-6.0-1.106","REGA","1","f","rechts","23","","","object","f","90","true"
"null","<div style=""font-size:60px;"">+</div>","null","html-keyboard-response","220","230199","0.0-6.0-0.107","REGA","1","f","rechts","23","","fixation","","","",""
"1438","img/120_210.png","74","image-keyboard-response","221","231640","0.0-6.0-1.107","REGA","1","f","rechts","23","","","object","f","120","false"
"null","<div style=""font-size:60px;"">+</div>","null","html-keyboard-response","222","232092","0.0-6.0-0.108","REGA","1","f","rechts","23","","fixation","","","",""
"668","img/0_270.png","70","image-keyboard-response","223","232760","0.0-6.0-1.108","REGA","1","f","rechts","23","","","object","f","0","true"
"null","<div style=""font-size:60px;"">+</div>","null","html-keyboard-response","224","233063","0.0-6.0-0.109","REGA","1","f","rechts","23","","fixation","","","",""
"1308","img/90_30.png","70","image-keyboard-response","225","234371","0.0-6.0-1.109","REGA","1","f","rechts","23","","","object","f","90","true"
"null","<div style=""font-size:60px;"">+</div>","null","html-keyboard-response","226","234674","0.0-6.0-0.110","REGA","1","f","rechts","23","","fixation","","","",""
"1228","img/90_240.png","74","image-keyboard-response","227","235904","0.0-6.0-1.110","REGA","1","f","rechts","23","","","object","f","90","false"
"null","<div style=""font-size:60px;"">+</div>","null","html-keyboard-response","228","236409","0.0-6.0-0.111","REGA","1","f","rechts","23","","fixation","","","",""
"1340","img/30_60.png","70","image-keyboard-response","229","237750","0.0-6.0-1.111","REGA","1","f","rechts","23","","","object","j","30","false"
"null","<div style=""font-size:60px;"">+</div>","null","html-keyboard-response","230","238105","0.0-6.0-0.112","REGA","1","f","rechts","23","","fixation","","","",""
"1446","img/150_60.png","70","image-keyboard-response","231","239552","0.0-6.0-1.112","REGA","1","f","rechts","23","","","object","f","150","true"
"null","<div style=""font-size:60px;"">+</div>","null","html-keyboard-response","232","240056","0.0-6.0-0.113","REGA","1","f","rechts","23","","fixation","","","",""
"1682","img/30_300.png","74","image-keyboard-response","233","241738","0.0-6.0-1.113","REGA","1","f","rechts","23","","","object","f","30","false"
"null","<div style=""font-size:60px;"">+</div>","null","html-keyboard-response","234","242040","0.0-6.0-0.114","REGA","1","f","rechts","23","","fixation","","","",""
"1896","img/60_90.png","70","image-keyboard-response","235","243937","0.0-6.0-1.114","REGA","1","f","rechts","23","","","object","j","60","false"
"null","<div style=""font-size:60px;"">+</div>","null","html-keyboard-response","236","244293","0.0-6.0-0.115","REGA","1","f","rechts","23","","fixation","","","",""
"1000","img/150_300.png","74","image-keyboard-response","237","245293","0.0-6.0-1.115","REGA","1","f","rechts","23","","","object","j","150","true"
"null","<div style=""font-size:60px;"">+</div>","null","html-keyboard-response","238","245649","0.0-6.0-0.116","REGA","1","f","rechts","23","","fixation","","","",""
"2743","img/120_180.png","70","image-keyboard-response","239","248393","0.0-6.0-1.116","REGA","1","f","rechts","23","","","object","f","120","true"
"null","<div style=""font-size:60px;"">+</div>","null","html-keyboard-response","240","248895","0.0-6.0-0.117","REGA","1","f","rechts","23","","fixation","","","",""
"750","img/0_240.png","70","image-keyboard-response","241","249646","0.0-6.0-1.117","REGA","1","f","rechts","23","","","object","f","0","true"
"null","<div style=""font-size:60px;"">+</div>","null","html-keyboard-response","242","249951","0.0-6.0-0.118","REGA","1","f","rechts","23","","fixation","","","",""
"1448","img/150_240.png","74","image-keyboard-response","243","251401","0.0-6.0-1.118","REGA","1","f","rechts","23","","","object","j","150","true"
"null","<div style=""font-size:60px;"">+</div>","null","html-keyboard-response","244","251901","0.0-6.0-0.119","REGA","1","f","rechts","23","","fixation","","","",""
"1084","img/30_270.png","70","image-keyboard-response","245","252987","0.0-6.0-1.119","REGA","1","f","rechts","23","","","object","f","30","true"
"null","<div style=""font-size:60px;"">+</div>","null","html-keyboard-response","246","253440","0.0-6.0-0.120","REGA","1","f","rechts","23","","fixation","","","",""
"1836","img/L120_180.png","74","image-keyboard-response","247","255276","0.0-6.0-1.120","REGA","1","f","rechts","23","","","object","j","120","true"
"null","<div style=""font-size:60px;"">+</div>","null","html-keyboard-response","248","255582","0.0-6.0-0.121","REGA","1","f","rechts","23","","fixation","","","",""
"2602","img/120_90.png","70","image-keyboard-response","249","258184","0.0-6.0-1.121","REGA","1","f","rechts","23","","","object","f","120","true"
"null","<div style=""font-size:60px;"">+</div>","null","html-keyboard-response","250","258634","0.0-6.0-0.122","REGA","1","f","rechts","23","","fixation","","","",""
"1655","img/60_270.png","70","image-keyboard-response","251","260290","0.0-6.0-1.122","REGA","1","f","rechts","23","","","object","f","60","true"
"null","<div style=""font-size:60px;"">+</div>","null","html-keyboard-response","252","260594","0.0-6.0-0.123","REGA","1","f","rechts","23","","fixation","","","",""
"1612","img/L60_180.png","74","image-keyboard-response","253","262206","0.0-6.0-1.123","REGA","1","f","rechts","23","","","object","j","60","true"
"null","<div style=""font-size:60px;"">+</div>","null","html-keyboard-response","254","262709","0.0-6.0-0.124","REGA","1","f","rechts","23","","fixation","","","",""
"1403","img/60_30.png","70","image-keyboard-response","255","264114","0.0-6.0-1.124","REGA","1","f","rechts","23","","","object","f","60","true"
"null","<div style=""font-size:60px;"">+</div>","null","html-keyboard-response","256","264417","0.0-6.0-0.125","REGA","1","f","rechts","23","","fixation","","","",""
"789","img/0_30.png","74","image-keyboard-response","257","265206","0.0-6.0-1.125","REGA","1","f","rechts","23","","","object","j","0","true"
"null","<div style=""font-size:60px;"">+</div>","null","html-keyboard-response","258","265661","0.0-6.0-0.126","REGA","1","f","rechts","23","","fixation","","","",""
"1790","img/60_210.png","70","image-keyboard-response","259","267452","0.0-6.0-1.126","REGA","1","f","rechts","23","","","object","f","60","true"
"null","<div style=""font-size:60px;"">+</div>","null","html-keyboard-response","260","267858","0.0-6.0-0.127","REGA","1","f","rechts","23","","fixation","","","",""
"699","img/0_300.png","70","image-keyboard-response","261","268559","0.0-6.0-1.127","REGA","1","f","rechts","23","","","object","f","0","true"
"null","<div style=""font-size:60px;"">+</div>","null","html-keyboard-response","262","268914","0.0-6.0-0.128","REGA","1","f","rechts","23","","fixation","","","",""
"2244","img/L30_180.png","74","image-keyboard-response","263","271159","0.0-6.0-1.128","REGA","1","f","rechts","23","","","object","j","30","true"
"null","<div style=""font-size:60px;"">+</div>","null","html-keyboard-response","264","271515","0.0-6.0-0.129","REGA","1","f","rechts","23","","fixation","","","",""
"777","img/0_150.png","74","image-keyboard-response","265","272292","0.0-6.0-1.129","REGA","1","f","rechts","23","","","object","j","0","true"
"null","<div style=""font-size:60px;"">+</div>","null","html-keyboard-response","266","272746","0.0-6.0-0.130","REGA","1","f","rechts","23","","fixation","","","",""
"1350","img/120_330.png","74","image-keyboard-response","267","274096","0.0-6.0-1.130","REGA","1","f","rechts","23","","","object","j","120","true"
"null","<div style=""font-size:60px;"">+</div>","null","html-keyboard-response","268","274499","0.0-6.0-0.131","REGA","1","f","rechts","23","","fixation","","","",""
"1365","img/120_30.png","70","image-keyboard-response","269","275864","0.0-6.0-1.131","REGA","1","f","rechts","23","","","object","f","120","true"
"null","<div style=""font-size:60px;"">+</div>","null","html-keyboard-response","270","276315","0.0-6.0-0.132","REGA","1","f","rechts","23","","fixation","","","",""
"1785","img/120_270.png","74","image-keyboard-response","271","278100","0.0-6.0-1.132","REGA","1","f","rechts","23","","","object","j","120","true"
"null","<div style=""font-size:60px;"">+</div>","null","html-keyboard-response","272","278556","0.0-6.0-0.133","REGA","1","f","rechts","23","","fixation","","","",""
"2146","img/150_180.png","74","image-keyboard-response","273","280702","0.0-6.0-1.133","REGA","1","f","rechts","23","","","object","f","150","false"
"null","<div style=""font-size:60px;"">+</div>","null","html-keyboard-response","274","281157","0.0-6.0-0.134","REGA","1","f","rechts","23","","fixation","","","",""
"2227","img/90_180.png","70","image-keyboard-response","275","283384","0.0-6.0-1.134","REGA","1","f","rechts","23","","","object","f","90","true"
"null","<div style=""font-size:60px;"">+</div>","null","html-keyboard-response","276","283889","0.0-6.0-0.135","REGA","1","f","rechts","23","","fixation","","","",""
"910","img/60_330.png","74","image-keyboard-response","277","284800","0.0-6.0-1.135","REGA","1","f","rechts","23","","","object","j","60","true"
"null","<div style=""font-size:60px;"">+</div>","null","html-keyboard-response","278","285306","0.0-6.0-0.136","REGA","1","f","rechts","23","","fixation","","","",""
"674","img/0_60.png","74","image-keyboard-response","279","285981","0.0-6.0-1.136","REGA","1","f","rechts","23","","","object","j","0","true"
"null","<div style=""font-size:60px;"">+</div>","null","html-keyboard-response","280","286385","0.0-6.0-0.137","REGA","1","f","rechts","23","","fixation","","","",""
"1358","img/90_300.png","74","image-keyboard-response","281","287744","0.0-6.0-1.137","REGA","1","f","rechts","23","","","object","j","90","true"
"null","<div style=""font-size:60px;"">+</div>","null","html-keyboard-response","282","288249","0.0-6.0-0.138","REGA","1","f","rechts","23","","fixation","","","",""
"1778","img/90_150.png","70","image-keyboard-response","283","290027","0.0-6.0-1.138","REGA","1","f","rechts","23","","","object","j","90","false"
"null","<div style=""font-size:60px;"">+</div>","null","html-keyboard-response","284","290379","0.0-6.0-0.139","REGA","1","f","rechts","23","","fixation","","","",""
"1786","img/90_210.png","74","image-keyboard-response","285","292166","0.0-6.0-1.139","REGA","1","f","rechts","23","","","object","f","90","false"
"null","<div style=""font-size:60px;"">+</div>","null","html-keyboard-response","286","292672","0.0-6.0-0.140","REGA","1","f","rechts","23","","fixation","","","",""
"1883","img/90_120.png","70","image-keyboard-response","287","294556","0.0-6.0-1.140","REGA","1","f","rechts","23","","","object","j","90","false"
"null","<div style=""font-size:60px;"">+</div>","null","html-keyboard-response","288","294906","0.0-6.0-0.141","REGA","1","f","rechts","23","","fixation","","","",""
"670","img/0_330.png","70","image-keyboard-response","289","295577","0.0-6.0-1.141","REGA","1","f","rechts","23","","","object","f","0","true"
"null","<div style=""font-size:60px;"">+</div>","null","html-keyboard-response","290","296083","0.0-6.0-0.142","REGA","1","f","rechts","23","","fixation","","","",""
"1853","img/150_90.png","70","image-keyboard-response","291","297937","0.0-6.0-1.142","REGA","1","f","rechts","23","","","object","f","150","true"
"null","<div style=""font-size:60px;"">+</div>","null","html-keyboard-response","292","298291","0.0-6.0-0.143","REGA","1","f","rechts","23","","fixation","","","",""
"1532","img/60_150.png","74","image-keyboard-response","293","299824","0.0-6.0-1.143","REGA","1","f","rechts","23","","","object","j","60","true"
"null","<div style=""font-size:60px;"">+</div>","null","html-keyboard-response","294","300125","0.0-6.0-0.144","REGA","1","f","rechts","23","","fixation","","","",""
"2105","img/L150_180.png","74","image-keyboard-response","295","302231","0.0-6.0-1.144","REGA","1","f","rechts","23","","","object","j","150","true"
"null","<div style=""font-size:60px;"">+</div>","null","html-keyboard-response","296","302537","0.0-6.0-0.145","REGA","1","f","rechts","23","","fixation","","","",""
"1352","img/90_330.png","74","image-keyboard-response","297","303890","0.0-6.0-1.145","REGA","1","f","rechts","23","","","object","j","90","true"
"null","<div style=""font-size:60px;"">+</div>","null","html-keyboard-response","298","304395","0.0-6.0-0.146","REGA","1","f","rechts","23","","fixation","","","",""
"1601","img/30_240.png","70","image-keyboard-response","299","305998","0.0-6.0-1.146","REGA","1","f","rechts","23","","","object","f","30","true"
"null","<div style=""font-size:60px;"">+</div>","null","html-keyboard-response","300","306504","0.0-6.0-0.147","REGA","1","f","rechts","23","","fixation","","","",""
"1416","img/150_270.png","74","image-keyboard-response","301","307920","0.0-6.0-1.147","REGA","1","f","rechts","23","","","object","j","150","true"
"null","<div style=""font-size:60px;"">+</div>","null","html-keyboard-response","302","308376","0.0-6.0-0.148","REGA","1","f","rechts","23","","fixation","","","",""
"778","img/0_120.png","74","image-keyboard-response","303","309156","0.0-6.0-1.148","REGA","1","f","rechts","23","","","object","j","0","true"
"null","<div style=""font-size:60px;"">+</div>","null","html-keyboard-response","304","309611","0.0-6.0-0.149","REGA","1","f","rechts","23","","fixation","","","",""
"1477","img/30_90.png","74","image-keyboard-response","305","311089","0.0-6.0-1.149","REGA","1","f","rechts","23","","","object","j","30","true"
"null","<div style=""font-size:60px;"">+</div>","null","html-keyboard-response","306","311490","0.0-6.0-0.150","REGA","1","f","rechts","23","","fixation","","","",""
"2221","img/30_180.png","70","image-keyboard-response","307","313712","0.0-6.0-1.150","REGA","1","f","rechts","23","","","object","f","30","true"
"null","<div style=""font-size:60px;"">+</div>","null","html-keyboard-response","308","314067","0.0-6.0-0.151","REGA","1","f","rechts","23","","fixation","","","",""
"1559","img/150_120.png","70","image-keyboard-response","309","315626","0.0-6.0-1.151","REGA","1","f","rechts","23","","","object","f","150","true"
"null","<div style=""font-size:60px;"">+</div>","null","html-keyboard-response","310","315928","0.0-6.0-0.152","REGA","1","f","rechts","23","","fixation","","","",""
"2773","img/60_180.png","70","image-keyboard-response","311","318701","0.0-6.0-1.152","REGA","1","f","rechts","23","","","object","f","60","true"
"null","<div style=""font-size:60px;"">+</div>","null","html-keyboard-response","312","319206","0.0-6.0-0.153","REGA","1","f","rechts","23","","fixation","","","",""
"1966","img/120_150.png","74","image-keyboard-response","313","321173","0.0-6.0-1.153","REGA","1","f","rechts","23","","","object","j","120","true"
"null","<div style=""font-size:60px;"">+</div>","null","html-keyboard-response","314","321526","0.0-6.0-0.154","REGA","1","f","rechts","23","","fixation","","","",""
"1478","img/30_120.png","74","image-keyboard-response","315","323005","0.0-6.0-1.154","REGA","1","f","rechts","23","","","object","j","30","true"
"null","<div style=""font-size:60px;"">+</div>","null","html-keyboard-response","316","323460","0.0-6.0-0.155","REGA","1","f","rechts","23","","fixation","","","",""
"811","img/0_210.png","70","image-keyboard-response","317","324273","0.0-6.0-1.155","REGA","1","f","rechts","23","","","object","f","0","true"
"null","<div style=""font-size:60px;"">+</div>","null","html-keyboard-response","318","324775","0.0-6.0-0.156","REGA","1","f","rechts","23","","fixation","","","",""
"1994","img/90_210.png","70","image-keyboard-response","319","326770","0.0-6.0-1.156","REGA","1","f","rechts","23","","","object","f","90","true"
"null","<div style=""font-size:60px;"">+</div>","null","html-keyboard-response","320","327226","0.0-6.0-0.157","REGA","1","f","rechts","23","","fixation","","","",""
"669","img/0_240.png","70","image-keyboard-response","321","327895","0.0-6.0-1.157","REGA","1","f","rechts","23","","","object","f","0","true"
"null","<div style=""font-size:60px;"">+</div>","null","html-keyboard-response","322","328299","0.0-6.0-0.158","REGA","1","f","rechts","23","","fixation","","","",""
"1070","img/30_240.png","70","image-keyboard-response","323","329370","0.0-6.0-1.158","REGA","1","f","rechts","23","","","object","f","30","true"
"null","<div style=""font-size:60px;"">+</div>","null","html-keyboard-response","324","329776","0.0-6.0-0.159","REGA","1","f","rechts","23","","fixation","","","",""
"1463","img/90_300.png","74","image-keyboard-response","325","331240","0.0-6.0-1.159","REGA","1","f","rechts","23","","","object","j","90","true"
"null","<div style=""font-size:60px;"">+</div>","null","html-keyboard-response","326","331646","0.0-6.0-0.160","REGA","1","f","rechts","23","","fixation","","","",""
"1374","img/120_330.png","74","image-keyboard-response","327","333021","0.0-6.0-1.160","REGA","1","f","rechts","23","","","object","j","120","true"
"null","<div style=""font-size:60px;"">+</div>","null","html-keyboard-response","328","333524","0.0-6.0-0.161","REGA","1","f","rechts","23","","fixation","","","",""
"789","img/0_60.png","74","image-keyboard-response","329","334313","0.0-6.0-1.161","REGA","1","f","rechts","23","","","object","j","0","true"
"null","<div style=""font-size:60px;"">+</div>","null","html-keyboard-response","330","334614","0.0-6.0-0.162","REGA","1","f","rechts","23","","fixation","","","",""
"1828","img/150_120.png","70","image-keyboard-response","331","336443","0.0-6.0-1.162","REGA","1","f","rechts","23","","","object","f","150","true"
"null","<div style=""font-size:60px;"">+</div>","null","html-keyboard-response","332","336848","0.0-6.0-0.163","REGA","1","f","rechts","23","","fixation","","","",""
"1540","img/150_90.png","70","image-keyboard-response","333","338389","0.0-6.0-1.163","REGA","1","f","rechts","23","","","object","f","150","true"
"null","<div style=""font-size:60px;"">+</div>","null","html-keyboard-response","334","338840","0.0-6.0-0.164","REGA","1","f","rechts","23","","fixation","","","",""
"804","img/90_330.png","74","image-keyboard-response","335","339645","0.0-6.0-1.164","REGA","1","f","rechts","23","","","object","j","90","true"
"null","<div style=""font-size:60px;"">+</div>","null","html-keyboard-response","336","340099","0.0-6.0-0.165","REGA","1","f","rechts","23","","fixation","","","",""
"1816","img/L60_180.png","74","image-keyboard-response","337","341916","0.0-6.0-1.165","REGA","1","f","rechts","23","","","object","j","60","true"
"null","<div style=""font-size:60px;"">+</div>","null","html-keyboard-response","338","342421","0.0-6.0-0.166","REGA","1","f","rechts","23","","fixation","","","",""
"1348","img/L120_180.png","74","image-keyboard-response","339","343770","0.0-6.0-1.166","REGA","1","f","rechts","23","","","object","j","120","true"
"null","<div style=""font-size:60px;"">+</div>","null","html-keyboard-response","340","344075","0.0-6.0-0.167","REGA","1","f","rechts","23","","fixation","","","",""
"2051","img/90_120.png","74","image-keyboard-response","341","346127","0.0-6.0-1.167","REGA","1","f","rechts","23","","","object","j","90","true"
"null","<div style=""font-size:60px;"">+</div>","null","html-keyboard-response","342","346583","0.0-6.0-0.168","REGA","1","f","rechts","23","","fixation","","","",""
"1330","img/90_60.png","70","image-keyboard-response","343","347914","0.0-6.0-1.168","REGA","1","f","rechts","23","","","object","f","90","true"
"null","<div style=""font-size:60px;"">+</div>","null","html-keyboard-response","344","348370","0.0-6.0-0.169","REGA","1","f","rechts","23","","fixation","","","",""
"737","img/0_150.png","74","image-keyboard-response","345","349108","0.0-6.0-1.169","REGA","1","f","rechts","23","","","object","j","0","true"
"null","<div style=""font-size:60px;"">+</div>","null","html-keyboard-response","346","349561","0.0-6.0-0.170","REGA","1","f","rechts","23","","fixation","","","",""
"1226","img/60_330.png","74","image-keyboard-response","347","350788","0.0-6.0-1.170","REGA","1","f","rechts","23","","","object","j","60","true"
"null","<div style=""font-size:60px;"">+</div>","null","html-keyboard-response","348","351245","0.0-6.0-0.171","REGA","1","f","rechts","23","","fixation","","","",""
"2016","img/30_120.png","74","image-keyboard-response","349","353261","0.0-6.0-1.171","REGA","1","f","rechts","23","","","object","j","30","true"
"null","<div style=""font-size:60px;"">+</div>","null","html-keyboard-response","350","353717","0.0-6.0-0.172","REGA","1","f","rechts","23","","fixation","","","",""
"1523","img/60_30.png","70","image-keyboard-response","351","355241","0.0-6.0-1.172","REGA","1","f","rechts","23","","","object","f","60","true"
"null","<div style=""font-size:60px;"">+</div>","null","html-keyboard-response","352","355545","0.0-6.0-0.173","REGA","1","f","rechts","23","","fixation","","","",""
"null","img/60_180.png","null","image-keyboard-response","353","358552","0.0-6.0-1.173","REGA","1","f","rechts","23","","","object","f","60","false"
"null","<div style=""font-size:60px;"">+</div>","null","html-keyboard-response","354","359058","0.0-6.0-0.174","REGA","1","f","rechts","23","","fixation","","","",""
"1675","img/150_180.png","70","image-keyboard-response","355","360734","0.0-6.0-1.174","REGA","1","f","rechts","23","","","object","f","150","true"
"null","<div style=""font-size:60px;"">+</div>","null","html-keyboard-response","356","361039","0.0-6.0-0.175","REGA","1","f","rechts","23","","fixation","","","",""
"1316","img/L90_180.png","74","image-keyboard-response","357","362356","0.0-6.0-1.175","REGA","1","f","rechts","23","","","object","j","90","true"
"null","<div style=""font-size:60px;"">+</div>","null","html-keyboard-response","358","362708","0.0-6.0-0.176","REGA","1","f","rechts","23","","fixation","","","",""
"1338","img/120_150.png","74","image-keyboard-response","359","364048","0.0-6.0-1.176","REGA","1","f","rechts","23","","","object","j","120","true"
"null","<div style=""font-size:60px;"">+</div>","null","html-keyboard-response","360","364353","0.0-6.0-0.177","REGA","1","f","rechts","23","","fixation","","","",""
"713","img/0_270.png","70","image-keyboard-response","361","365067","0.0-6.0-1.177","REGA","1","f","rechts","23","","","object","f","0","true"
"null","<div style=""font-size:60px;"">+</div>","null","html-keyboard-response","362","365470","0.0-6.0-0.178","REGA","1","f","rechts","23","","fixation","","","",""
"1699","img/150_60.png","70","image-keyboard-response","363","367170","0.0-6.0-1.178","REGA","1","f","rechts","23","","","object","f","150","true"
"null","<div style=""font-size:60px;"">+</div>","null","html-keyboard-response","364","367671","0.0-6.0-0.179","REGA","1","f","rechts","23","","fixation","","","",""
"1602","img/60_210.png","70","image-keyboard-response","365","369274","0.0-6.0-1.179","REGA","1","f","rechts","23","","","object","f","60","true"
"null","<div style=""font-size:60px;"">+</div>","null","html-keyboard-response","366","369576","0.0-6.0-0.180","REGA","1","f","rechts","23","","fixation","","","",""
"1410","img/120_30.png","70","image-keyboard-response","367","370987","0.0-6.0-1.180","REGA","1","f","rechts","23","","","object","f","120","true"
"null","<div style=""font-size:60px;"">+</div>","null","html-keyboard-response","368","371490","0.0-6.0-0.181","REGA","1","f","rechts","23","","fixation","","","",""
"1552","img/L150_180.png","74","image-keyboard-response","369","373042","0.0-6.0-1.181","REGA","1","f","rechts","23","","","object","j","150","true"
"null","<div style=""font-size:60px;"">+</div>","null","html-keyboard-response","370","373395","0.0-6.0-0.182","REGA","1","f","rechts","23","","fixation","","","",""
"1996","img/150_300.png","74","image-keyboard-response","371","375392","0.0-6.0-1.182","REGA","1","f","rechts","23","","","object","j","150","true"
"null","<div style=""font-size:60px;"">+</div>","null","html-keyboard-response","372","375796","0.0-6.0-0.183","REGA","1","f","rechts","23","","fixation","","","",""
"1758","img/30_90.png","74","image-keyboard-response","373","377555","0.0-6.0-1.183","REGA","1","f","rechts","23","","","object","j","30","true"
"null","<div style=""font-size:60px;"">+</div>","null","html-keyboard-response","374","377912","0.0-6.0-0.184","REGA","1","f","rechts","23","","fixation","","","",""
"2728","img/120_180.png","70","image-keyboard-response","375","380641","0.0-6.0-1.184","REGA","1","f","rechts","23","","","object","f","120","true"
"null","<div style=""font-size:60px;"">+</div>","null","html-keyboard-response","376","380947","0.0-6.0-0.185","REGA","1","f","rechts","23","","fixation","","","",""
"1245","img/30_270.png","70","image-keyboard-response","377","382193","0.0-6.0-1.185","REGA","1","f","rechts","23","","","object","f","30","true"
"null","<div style=""font-size:60px;"">+</div>","null","html-keyboard-response","378","382599","0.0-6.0-0.186","REGA","1","f","rechts","23","","fixation","","","",""
"1400","img/60_270.png","74","image-keyboard-response","379","384000","0.0-6.0-1.186","REGA","1","f","rechts","23","","","object","f","60","false"
"null","<div style=""font-size:60px;"">+</div>","null","html-keyboard-response","380","384506","0.0-6.0-0.187","REGA","1","f","rechts","23","","fixation","","","",""
"698","img/0_330.png","70","image-keyboard-response","381","385205","0.0-6.0-1.187","REGA","1","f","rechts","23","","","object","f","0","true"
"null","<div style=""font-size:60px;"">+</div>","null","html-keyboard-response","382","385711","0.0-6.0-0.188","REGA","1","f","rechts","23","","fixation","","","",""
"1198","img/120_270.png","74","image-keyboard-response","383","386910","0.0-6.0-1.188","REGA","1","f","rechts","23","","","object","j","120","true"
"null","<div style=""font-size:60px;"">+</div>","null","html-keyboard-response","384","387216","0.0-6.0-0.189","REGA","1","f","rechts","23","","fixation","","","",""
"1417","img/30_180.png","70","image-keyboard-response","385","388634","0.0-6.0-1.189","REGA","1","f","rechts","23","","","object","f","30","true"
"null","<div style=""font-size:60px;"">+</div>","null","html-keyboard-response","386","389090","0.0-6.0-0.190","REGA","1","f","rechts","23","","fixation","","","",""
"1353","img/90_240.png","70","image-keyboard-response","387","390444","0.0-6.0-1.190","REGA","1","f","rechts","23","","","object","f","90","true"
"null","<div style=""font-size:60px;"">+</div>","null","html-keyboard-response","388","390750","0.0-6.0-0.191","REGA","1","f","rechts","23","","fixation","","","",""
"686","img/0_90.png","74","image-keyboard-response","389","391436","0.0-6.0-1.191","REGA","1","f","rechts","23","","","object","j","0","true"
"null","<div style=""font-size:60px;"">+</div>","null","html-keyboard-response","390","391741","0.0-6.0-0.192","REGA","1","f","rechts","23","","fixation","","","",""
"1349","img/30_300.png","74","image-keyboard-response","391","393091","0.0-6.0-1.192","REGA","1","f","rechts","23","","","object","f","30","false"
"null","<div style=""font-size:60px;"">+</div>","null","html-keyboard-response","392","393592","0.0-6.0-0.193","REGA","1","f","rechts","23","","fixation","","","",""
"634","img/0_300.png","70","image-keyboard-response","393","394227","0.0-6.0-1.193","REGA","1","f","rechts","23","","","object","f","0","true"
"null","<div style=""font-size:60px;"">+</div>","null","html-keyboard-response","394","394632","0.0-6.0-0.194","REGA","1","f","rechts","23","","fixation","","","",""
"1783","img/90_150.png","74","image-keyboard-response","395","396416","0.0-6.0-1.194","REGA","1","f","rechts","23","","","object","j","90","true"
"null","<div style=""font-size:60px;"">+</div>","null","html-keyboard-response","396","396922","0.0-6.0-0.195","REGA","1","f","rechts","23","","fixation","","","",""
"1383","img/120_90.png","70","image-keyboard-response","397","398306","0.0-6.0-1.195","REGA","1","f","rechts","23","","","object","f","120","true"
"null","<div style=""font-size:60px;"">+</div>","null","html-keyboard-response","398","398810","0.0-6.0-0.196","REGA","1","f","rechts","23","","fixation","","","",""
"1164","img/30_60.png","70","image-keyboard-response","399","399976","0.0-6.0-1.196","REGA","1","f","rechts","23","","","object","j","30","false"
"null","<div style=""font-size:60px;"">+</div>","null","html-keyboard-response","400","400282","0.0-6.0-0.197","REGA","1","f","rechts","23","","fixation","","","",""
"695","img/0_210.png","70","image-keyboard-response","401","400978","0.0-6.0-1.197","REGA","1","f","rechts","23","","","object","f","0","true"
"null","<div style=""font-size:60px;"">+</div>","null","html-keyboard-response","402","401481","0.0-6.0-0.198","REGA","1","f","rechts","23","","fixation","","","",""
"1210","img/60_90.png","74","image-keyboard-response","403","402692","0.0-6.0-1.198","REGA","1","f","rechts","23","","","object","j","60","true"
"null","<div style=""font-size:60px;"">+</div>","null","html-keyboard-response","404","403044","0.0-6.0-0.199","REGA","1","f","rechts","23","","fixation","","","",""
"768","img/0_30.png","74","image-keyboard-response","405","403814","0.0-6.0-1.199","REGA","1","f","rechts","23","","","object","j","0","true"
"null","<div style=""font-size:60px;"">+</div>","null","html-keyboard-response","406","404165","0.0-6.0-0.200","REGA","1","f","rechts","23","","fixation","","","",""
"1114","img/90_30.png","70","image-keyboard-response","407","405280","0.0-6.0-1.200","REGA","1","f","rechts","23","","","object","f","90","true"
"null","<div style=""font-size:60px;"">+</div>","null","html-keyboard-response","408","405636","0.0-6.0-0.201","REGA","1","f","rechts","23","","fixation","","","",""
"1379","img/150_240.png","74","image-keyboard-response","409","407015","0.0-6.0-1.201","REGA","1","f","rechts","23","","","object","j","150","true"
"null","<div style=""font-size:60px;"">+</div>","null","html-keyboard-response","410","407369","0.0-6.0-0.202","REGA","1","f","rechts","23","","fixation","","","",""
"1400","img/60_150.png","74","image-keyboard-response","411","408770","0.0-6.0-1.202","REGA","1","f","rechts","23","","","object","j","60","true"
"null","<div style=""font-size:60px;"">+</div>","null","html-keyboard-response","412","409126","0.0-6.0-0.203","REGA","1","f","rechts","23","","fixation","","","",""
"1934","img/120_210.png","70","image-keyboard-response","413","411060","0.0-6.0-1.203","REGA","1","f","rechts","23","","","object","f","120","true"
"null","<div style=""font-size:60px;"">+</div>","null","html-keyboard-response","414","411563","0.0-6.0-0.204","REGA","1","f","rechts","23","","fixation","","","",""
"1134","img/L30_180.png","74","image-keyboard-response","415","412699","0.0-6.0-1.204","REGA","1","f","rechts","23","","","object","j","30","true"
"null","<div style=""font-size:60px;"">+</div>","null","html-keyboard-response","416","413101","0.0-6.0-0.205","REGA","1","f","rechts","23","","fixation","","","",""
"697","img/0_120.png","74","image-keyboard-response","417","413798","0.0-6.0-1.205","REGA","1","f","rechts","23","","","object","j","0","true"
"null","<div style=""font-size:60px;"">+</div>","null","html-keyboard-response","418","414152","0.0-6.0-0.206","REGA","1","f","rechts","23","","fixation","","","",""
"1674","img/90_180.png","70","image-keyboard-response","419","415827","0.0-6.0-1.206","REGA","1","f","rechts","23","","","object","f","90","true"
"null","<div style=""font-size:60px;"">+</div>","null","html-keyboard-response","420","416333","0.0-6.0-0.207","REGA","1","f","rechts","23","","fixation","","","",""
"988","img/150_270.png","74","image-keyboard-response","421","417323","0.0-6.0-1.207","REGA","1","f","rechts","23","","","object","j","150","true"
"4023","<p>Du hast in 81% der Versuche korrekt entschieden.</p><p>Deine durchschnittliche Reaktionszeit war  1425ms.</p><p>Dr&uuml;cke eine beliebige Taste, um die Session zu beenden. Vielen Dank!</p>","72","html-keyboard-response","422","421347","0.0-7.0","REGA","1","f","rechts","23","","","","","",""
