"rt","stimulus","key_press","trial_type","trial_index","time_elapsed","internal_node_id","subject","session","sex","handedness","age","responses","test_part","condition","correct_response","angle","correct"
"3354","<p>Mental Rotation Experiment.</p> <p>Dr&uuml;cke eine beliebige Taste, um anzufangen.</p>","71","html-keyboard-response","0","3358","0.0-0.0","REGA","4","f","rechts","23","","","","","",""
"2367","","","survey-text","1","5727","0.0-1.0","REGA","4","f","rechts","23","{""Q0"":""REGA""}","","","","",""
"1804","","","survey-text","2","7532","0.0-2.0","REGA","4","f","rechts","23","{""Q0"":""4""}","","","","",""
"48601","","","survey-multi-choice","3","56136","0.0-3.0","REGA","4","f","rechts","23","{""Q0"":""f"",""Q1"":""rechts""}","","","","",""
"2369","","","survey-text","4","58507","0.0-4.0","REGA","4","f","rechts","23","{""Q0"":""23""}","","","","",""
"43926","<p>Stell dir vor, dass du vor einem runden Tisch stehst, auf dem sich ein blauer Ball am Tischrand befindet. Entlang des Tischrands ist jeweils ein verschieden langer Pfeil. Nun bleibst du an deinem Platz vor dem Tisch und rotierst den Tisch entlang des Pfeils (gleiche Richtung und Länge). </p> <img src='img/30_180.png'></img> <br><p> Nachdem du diese (vorgestellte) Rotation durchgef&uuml;hrt hast, schau in Richtung der Tischmitte, und entscheide dann, ob der Ball links oder rechts von dir liegt.</p> <p>Dr&uuml;cke die <strong>'f'</strong>-Taste f&uuml;r links, die <strong>'j'</strong>-Taste f&uuml;r rechts.</p><br><p> Das Bild wird jeweils 1 Sekunde lang pr&auml;sentiert. Du hast 3 Sekunden Zeit eine Entscheidung zu treffen.</p>","70","html-keyboard-response","5","102434","0.0-5.0","REGA","4","f","rechts","23","","","","","",""
"null","<div style=""font-size:60px;"">+</div>","null","html-keyboard-response","6","103945","0.0-6.0-0.0","REGA","4","f","rechts","23","","fixation","","","",""
"1082","img/L90_180.png","74","image-keyboard-response","7","105028","0.0-6.0-1.0","REGA","4","f","rechts","23","","","object","j","90","true"
"null","<div style=""font-size:60px;"">+</div>","null","html-keyboard-response","8","105534","0.0-6.0-0.1","REGA","4","f","rechts","23","","fixation","","","",""
"783","img/150_300.png","74","image-keyboard-response","9","106318","0.0-6.0-1.1","REGA","4","f","rechts","23","","","object","j","150","true"
"null","<div style=""font-size:60px;"">+</div>","null","html-keyboard-response","10","106823","0.0-6.0-0.2","REGA","4","f","rechts","23","","fixation","","","",""
"1463","img/120_150.png","70","image-keyboard-response","11","108287","0.0-6.0-1.2","REGA","4","f","rechts","23","","","object","j","120","false"
"null","<div style=""font-size:60px;"">+</div>","null","html-keyboard-response","12","108639","0.0-6.0-0.3","REGA","4","f","rechts","23","","fixation","","","",""
"734","img/120_30.png","70","image-keyboard-response","13","109375","0.0-6.0-1.3","REGA","4","f","rechts","23","","","object","f","120","true"
"null","<div style=""font-size:60px;"">+</div>","null","html-keyboard-response","14","109678","0.0-6.0-0.4","REGA","4","f","rechts","23","","fixation","","","",""
"651","img/150_60.png","70","image-keyboard-response","15","110330","0.0-6.0-1.4","REGA","4","f","rechts","23","","","object","f","150","true"
"null","<div style=""font-size:60px;"">+</div>","null","html-keyboard-response","16","110735","0.0-6.0-0.5","REGA","4","f","rechts","23","","fixation","","","",""
"781","img/90_150.png","74","image-keyboard-response","17","111516","0.0-6.0-1.5","REGA","4","f","rechts","23","","","object","j","90","true"
"null","<div style=""font-size:60px;"">+</div>","null","html-keyboard-response","18","111871","0.0-6.0-0.6","REGA","4","f","rechts","23","","fixation","","","",""
"665","img/60_150.png","74","image-keyboard-response","19","112538","0.0-6.0-1.6","REGA","4","f","rechts","23","","","object","j","60","true"
"null","<div style=""font-size:60px;"">+</div>","null","html-keyboard-response","20","112940","0.0-6.0-0.7","REGA","4","f","rechts","23","","fixation","","","",""
"906","img/90_180.png","70","image-keyboard-response","21","113846","0.0-6.0-1.7","REGA","4","f","rechts","23","","","object","f","90","true"
"null","<div style=""font-size:60px;"">+</div>","null","html-keyboard-response","22","114251","0.0-6.0-0.8","REGA","4","f","rechts","23","","fixation","","","",""
"608","img/0_240.png","70","image-keyboard-response","23","114861","0.0-6.0-1.8","REGA","4","f","rechts","23","","","object","f","0","true"
"null","<div style=""font-size:60px;"">+</div>","null","html-keyboard-response","24","115263","0.0-6.0-0.9","REGA","4","f","rechts","23","","fixation","","","",""
"994","img/30_60.png","74","image-keyboard-response","25","116258","0.0-6.0-1.9","REGA","4","f","rechts","23","","","object","j","30","true"
"null","<div style=""font-size:60px;"">+</div>","null","html-keyboard-response","26","116713","0.0-6.0-0.10","REGA","4","f","rechts","23","","fixation","","","",""
"865","img/150_240.png","74","image-keyboard-response","27","117578","0.0-6.0-1.10","REGA","4","f","rechts","23","","","object","j","150","true"
"null","<div style=""font-size:60px;"">+</div>","null","html-keyboard-response","28","117983","0.0-6.0-0.11","REGA","4","f","rechts","23","","fixation","","","",""
"512","img/0_330.png","70","image-keyboard-response","29","118497","0.0-6.0-1.11","REGA","4","f","rechts","23","","","object","f","0","true"
"null","<div style=""font-size:60px;"">+</div>","null","html-keyboard-response","30","119000","0.0-6.0-0.12","REGA","4","f","rechts","23","","fixation","","","",""
"802","img/L150_180.png","74","image-keyboard-response","31","119804","0.0-6.0-1.12","REGA","4","f","rechts","23","","","object","j","150","true"
"null","<div style=""font-size:60px;"">+</div>","null","html-keyboard-response","32","120160","0.0-6.0-0.13","REGA","4","f","rechts","23","","fixation","","","",""
"817","img/L120_180.png","74","image-keyboard-response","33","120977","0.0-6.0-1.13","REGA","4","f","rechts","23","","","object","j","120","true"
"null","<div style=""font-size:60px;"">+</div>","null","html-keyboard-response","34","121280","0.0-6.0-0.14","REGA","4","f","rechts","23","","fixation","","","",""
"626","img/90_30.png","70","image-keyboard-response","35","121907","0.0-6.0-1.14","REGA","4","f","rechts","23","","","object","f","90","true"
"null","<div style=""font-size:60px;"">+</div>","null","html-keyboard-response","36","122413","0.0-6.0-0.15","REGA","4","f","rechts","23","","fixation","","","",""
"576","img/0_120.png","74","image-keyboard-response","37","122989","0.0-6.0-1.15","REGA","4","f","rechts","23","","","object","j","0","true"
"null","<div style=""font-size:60px;"">+</div>","null","html-keyboard-response","38","123290","0.0-6.0-0.16","REGA","4","f","rechts","23","","fixation","","","",""
"567","img/0_60.png","74","image-keyboard-response","39","123858","0.0-6.0-1.16","REGA","4","f","rechts","23","","","object","j","0","true"
"null","<div style=""font-size:60px;"">+</div>","null","html-keyboard-response","40","124213","0.0-6.0-0.17","REGA","4","f","rechts","23","","fixation","","","",""
"986","img/120_210.png","70","image-keyboard-response","41","125199","0.0-6.0-1.17","REGA","4","f","rechts","23","","","object","f","120","true"
"null","<div style=""font-size:60px;"">+</div>","null","html-keyboard-response","42","125704","0.0-6.0-0.18","REGA","4","f","rechts","23","","fixation","","","",""
"963","img/120_90.png","70","image-keyboard-response","43","126669","0.0-6.0-1.18","REGA","4","f","rechts","23","","","object","f","120","true"
"null","<div style=""font-size:60px;"">+</div>","null","html-keyboard-response","44","127172","0.0-6.0-0.19","REGA","4","f","rechts","23","","fixation","","","",""
"976","img/120_270.png","74","image-keyboard-response","45","128149","0.0-6.0-1.19","REGA","4","f","rechts","23","","","object","j","120","true"
"null","<div style=""font-size:60px;"">+</div>","null","html-keyboard-response","46","128652","0.0-6.0-0.20","REGA","4","f","rechts","23","","fixation","","","",""
"1542","img/150_120.png","70","image-keyboard-response","47","130195","0.0-6.0-1.20","REGA","4","f","rechts","23","","","object","f","150","true"
"null","<div style=""font-size:60px;"">+</div>","null","html-keyboard-response","48","130497","0.0-6.0-0.21","REGA","4","f","rechts","23","","fixation","","","",""
"1128","img/90_120.png","74","image-keyboard-response","49","131626","0.0-6.0-1.21","REGA","4","f","rechts","23","","","object","j","90","true"
"null","<div style=""font-size:60px;"">+</div>","null","html-keyboard-response","50","132129","0.0-6.0-0.22","REGA","4","f","rechts","23","","fixation","","","",""
"587","img/0_210.png","70","image-keyboard-response","51","132716","0.0-6.0-1.22","REGA","4","f","rechts","23","","","object","f","0","true"
"null","<div style=""font-size:60px;"">+</div>","null","html-keyboard-response","52","133221","0.0-6.0-0.23","REGA","4","f","rechts","23","","fixation","","","",""
"656","img/90_300.png","74","image-keyboard-response","53","133877","0.0-6.0-1.23","REGA","4","f","rechts","23","","","object","j","90","true"
"null","<div style=""font-size:60px;"">+</div>","null","html-keyboard-response","54","134283","0.0-6.0-0.24","REGA","4","f","rechts","23","","fixation","","","",""
"1137","img/L60_180.png","74","image-keyboard-response","55","135420","0.0-6.0-1.24","REGA","4","f","rechts","23","","","object","j","60","true"
"null","<div style=""font-size:60px;"">+</div>","null","html-keyboard-response","56","135874","0.0-6.0-0.25","REGA","4","f","rechts","23","","fixation","","","",""
"2235","img/120_180.png","70","image-keyboard-response","57","138110","0.0-6.0-1.25","REGA","4","f","rechts","23","","","object","f","120","true"
"null","<div style=""font-size:60px;"">+</div>","null","html-keyboard-response","58","138462","0.0-6.0-0.26","REGA","4","f","rechts","23","","fixation","","","",""
"936","img/150_90.png","70","image-keyboard-response","59","139399","0.0-6.0-1.26","REGA","4","f","rechts","23","","","object","f","150","true"
"null","<div style=""font-size:60px;"">+</div>","null","html-keyboard-response","60","139803","0.0-6.0-0.27","REGA","4","f","rechts","23","","fixation","","","",""
"1084","img/30_120.png","74","image-keyboard-response","61","140887","0.0-6.0-1.27","REGA","4","f","rechts","23","","","object","j","30","true"
"null","<div style=""font-size:60px;"">+</div>","null","html-keyboard-response","62","141393","0.0-6.0-0.28","REGA","4","f","rechts","23","","fixation","","","",""
"1866","img/60_180.png","70","image-keyboard-response","63","143261","0.0-6.0-1.28","REGA","4","f","rechts","23","","","object","f","60","true"
"null","<div style=""font-size:60px;"">+</div>","null","html-keyboard-response","64","143717","0.0-6.0-0.29","REGA","4","f","rechts","23","","fixation","","","",""
"1137","img/60_90.png","74","image-keyboard-response","65","144854","0.0-6.0-1.29","REGA","4","f","rechts","23","","","object","j","60","true"
"null","<div style=""font-size:60px;"">+</div>","null","html-keyboard-response","66","145357","0.0-6.0-0.30","REGA","4","f","rechts","23","","fixation","","","",""
"587","img/0_30.png","74","image-keyboard-response","67","145946","0.0-6.0-1.30","REGA","4","f","rechts","23","","","object","j","0","true"
"null","<div style=""font-size:60px;"">+</div>","null","html-keyboard-response","68","146297","0.0-6.0-0.31","REGA","4","f","rechts","23","","fixation","","","",""
"821","img/30_270.png","70","image-keyboard-response","69","147124","0.0-6.0-1.31","REGA","4","f","rechts","23","","","object","f","30","true"
"null","<div style=""font-size:60px;"">+</div>","null","html-keyboard-response","70","147476","0.0-6.0-0.32","REGA","4","f","rechts","23","","fixation","","","",""
"673","img/90_330.png","74","image-keyboard-response","71","148150","0.0-6.0-1.32","REGA","4","f","rechts","23","","","object","j","90","true"
"null","<div style=""font-size:60px;"">+</div>","null","html-keyboard-response","72","148555","0.0-6.0-0.33","REGA","4","f","rechts","23","","fixation","","","",""
"593","img/120_330.png","74","image-keyboard-response","73","149149","0.0-6.0-1.33","REGA","4","f","rechts","23","","","object","j","120","true"
"null","<div style=""font-size:60px;"">+</div>","null","html-keyboard-response","74","149653","0.0-6.0-0.34","REGA","4","f","rechts","23","","fixation","","","",""
"757","img/60_270.png","70","image-keyboard-response","75","150410","0.0-6.0-1.34","REGA","4","f","rechts","23","","","object","f","60","true"
"null","<div style=""font-size:60px;"">+</div>","null","html-keyboard-response","76","150715","0.0-6.0-0.35","REGA","4","f","rechts","23","","fixation","","","",""
"1630","img/L30_180.png","74","image-keyboard-response","77","152346","0.0-6.0-1.35","REGA","4","f","rechts","23","","","object","j","30","true"
"null","<div style=""font-size:60px;"">+</div>","null","html-keyboard-response","78","152752","0.0-6.0-0.36","REGA","4","f","rechts","23","","fixation","","","",""
"725","img/30_90.png","74","image-keyboard-response","79","153477","0.0-6.0-1.36","REGA","4","f","rechts","23","","","object","j","30","true"
"null","<div style=""font-size:60px;"">+</div>","null","html-keyboard-response","80","153832","0.0-6.0-0.37","REGA","4","f","rechts","23","","fixation","","","",""
"1859","img/150_180.png","70","image-keyboard-response","81","155692","0.0-6.0-1.37","REGA","4","f","rechts","23","","","object","f","150","true"
"null","<div style=""font-size:60px;"">+</div>","null","html-keyboard-response","82","156097","0.0-6.0-0.38","REGA","4","f","rechts","23","","fixation","","","",""
"658","img/0_150.png","74","image-keyboard-response","83","156756","0.0-6.0-1.38","REGA","4","f","rechts","23","","","object","j","0","true"
"null","<div style=""font-size:60px;"">+</div>","null","html-keyboard-response","84","157059","0.0-6.0-0.39","REGA","4","f","rechts","23","","fixation","","","",""
"752","img/60_30.png","70","image-keyboard-response","85","157812","0.0-6.0-1.39","REGA","4","f","rechts","23","","","object","f","60","true"
"null","<div style=""font-size:60px;"">+</div>","null","html-keyboard-response","86","158317","0.0-6.0-0.40","REGA","4","f","rechts","23","","fixation","","","",""
"605","img/60_330.png","74","image-keyboard-response","87","158923","0.0-6.0-1.40","REGA","4","f","rechts","23","","","object","j","60","true"
"null","<div style=""font-size:60px;"">+</div>","null","html-keyboard-response","88","159375","0.0-6.0-0.41","REGA","4","f","rechts","23","","fixation","","","",""
"724","img/150_270.png","74","image-keyboard-response","89","160100","0.0-6.0-1.41","REGA","4","f","rechts","23","","","object","j","150","true"
"null","<div style=""font-size:60px;"">+</div>","null","html-keyboard-response","90","160455","0.0-6.0-0.42","REGA","4","f","rechts","23","","fixation","","","",""
"890","img/90_210.png","70","image-keyboard-response","91","161346","0.0-6.0-1.42","REGA","4","f","rechts","23","","","object","f","90","true"
"null","<div style=""font-size:60px;"">+</div>","null","html-keyboard-response","92","161651","0.0-6.0-0.43","REGA","4","f","rechts","23","","fixation","","","",""
"788","img/90_240.png","70","image-keyboard-response","93","162439","0.0-6.0-1.43","REGA","4","f","rechts","23","","","object","f","90","true"
"null","<div style=""font-size:60px;"">+</div>","null","html-keyboard-response","94","162742","0.0-6.0-0.44","REGA","4","f","rechts","23","","fixation","","","",""
"556","img/0_90.png","74","image-keyboard-response","95","163298","0.0-6.0-1.44","REGA","4","f","rechts","23","","","object","j","0","true"
"null","<div style=""font-size:60px;"">+</div>","null","html-keyboard-response","96","163749","0.0-6.0-0.45","REGA","4","f","rechts","23","","fixation","","","",""
"1210","img/30_180.png","70","image-keyboard-response","97","164960","0.0-6.0-1.45","REGA","4","f","rechts","23","","","object","f","30","true"
"null","<div style=""font-size:60px;"">+</div>","null","html-keyboard-response","98","165412","0.0-6.0-0.46","REGA","4","f","rechts","23","","fixation","","","",""
"1075","img/60_210.png","70","image-keyboard-response","99","166488","0.0-6.0-1.46","REGA","4","f","rechts","23","","","object","f","60","true"
"null","<div style=""font-size:60px;"">+</div>","null","html-keyboard-response","100","166944","0.0-6.0-0.47","REGA","4","f","rechts","23","","fixation","","","",""
"604","img/0_270.png","70","image-keyboard-response","101","167549","0.0-6.0-1.47","REGA","4","f","rechts","23","","","object","f","0","true"
"null","<div style=""font-size:60px;"">+</div>","null","html-keyboard-response","102","167849","0.0-6.0-0.48","REGA","4","f","rechts","23","","fixation","","","",""
"600","img/0_300.png","70","image-keyboard-response","103","168451","0.0-6.0-1.48","REGA","4","f","rechts","23","","","object","f","0","true"
"null","<div style=""font-size:60px;"">+</div>","null","html-keyboard-response","104","168906","0.0-6.0-0.49","REGA","4","f","rechts","23","","fixation","","","",""
"1060","img/30_300.png","74","image-keyboard-response","105","169966","0.0-6.0-1.49","REGA","4","f","rechts","23","","","object","f","30","false"
"null","<div style=""font-size:60px;"">+</div>","null","html-keyboard-response","106","170368","0.0-6.0-0.50","REGA","4","f","rechts","23","","fixation","","","",""
"930","img/90_60.png","70","image-keyboard-response","107","171298","0.0-6.0-1.50","REGA","4","f","rechts","23","","","object","f","90","true"
"null","<div style=""font-size:60px;"">+</div>","null","html-keyboard-response","108","171750","0.0-6.0-0.51","REGA","4","f","rechts","23","","fixation","","","",""
"903","img/30_240.png","70","image-keyboard-response","109","172654","0.0-6.0-1.51","REGA","4","f","rechts","23","","","object","f","30","true"
"null","<div style=""font-size:60px;"">+</div>","null","html-keyboard-response","110","172957","0.0-6.0-0.52","REGA","4","f","rechts","23","","fixation","","","",""
"571","img/0_60.png","74","image-keyboard-response","111","173530","0.0-6.0-1.52","REGA","4","f","rechts","23","","","object","j","0","true"
"null","<div style=""font-size:60px;"">+</div>","null","html-keyboard-response","112","173833","0.0-6.0-0.53","REGA","4","f","rechts","23","","fixation","","","",""
"979","img/60_180.png","70","image-keyboard-response","113","174813","0.0-6.0-1.53","REGA","4","f","rechts","23","","","object","f","60","true"
"null","<div style=""font-size:60px;"">+</div>","null","html-keyboard-response","114","175118","0.0-6.0-0.54","REGA","4","f","rechts","23","","fixation","","","",""
"735","img/150_300.png","74","image-keyboard-response","115","175854","0.0-6.0-1.54","REGA","4","f","rechts","23","","","object","j","150","true"
"null","<div style=""font-size:60px;"">+</div>","null","html-keyboard-response","116","176157","0.0-6.0-0.55","REGA","4","f","rechts","23","","fixation","","","",""
"564","img/0_120.png","74","image-keyboard-response","117","176722","0.0-6.0-1.55","REGA","4","f","rechts","23","","","object","j","0","true"
"null","<div style=""font-size:60px;"">+</div>","null","html-keyboard-response","118","177124","0.0-6.0-0.56","REGA","4","f","rechts","23","","fixation","","","",""
"528","img/0_150.png","74","image-keyboard-response","119","177654","0.0-6.0-1.56","REGA","4","f","rechts","23","","","object","j","0","true"
"null","<div style=""font-size:60px;"">+</div>","null","html-keyboard-response","120","177955","0.0-6.0-0.57","REGA","4","f","rechts","23","","fixation","","","",""
"726","img/120_330.png","74","image-keyboard-response","121","178682","0.0-6.0-1.57","REGA","4","f","rechts","23","","","object","j","120","true"
"null","<div style=""font-size:60px;"">+</div>","null","html-keyboard-response","122","179039","0.0-6.0-0.58","REGA","4","f","rechts","23","","fixation","","","",""
"942","img/60_150.png","74","image-keyboard-response","123","179982","0.0-6.0-1.58","REGA","4","f","rechts","23","","","object","j","60","true"
"null","<div style=""font-size:60px;"">+</div>","null","html-keyboard-response","124","180485","0.0-6.0-0.59","REGA","4","f","rechts","23","","fixation","","","",""
"811","img/30_270.png","70","image-keyboard-response","125","181297","0.0-6.0-1.59","REGA","4","f","rechts","23","","","object","f","30","true"
"null","<div style=""font-size:60px;"">+</div>","null","html-keyboard-response","126","181798","0.0-6.0-0.60","REGA","4","f","rechts","23","","fixation","","","",""
"571","img/0_30.png","74","image-keyboard-response","127","182370","0.0-6.0-1.60","REGA","4","f","rechts","23","","","object","j","0","true"
"null","<div style=""font-size:60px;"">+</div>","null","html-keyboard-response","128","182675","0.0-6.0-0.61","REGA","4","f","rechts","23","","fixation","","","",""
"1809","img/L150_180.png","74","image-keyboard-response","129","184484","0.0-6.0-1.61","REGA","4","f","rechts","23","","","object","j","150","true"
"null","<div style=""font-size:60px;"">+</div>","null","html-keyboard-response","130","184889","0.0-6.0-0.62","REGA","4","f","rechts","23","","fixation","","","",""
"726","img/150_60.png","70","image-keyboard-response","131","185616","0.0-6.0-1.62","REGA","4","f","rechts","23","","","object","f","150","true"
"null","<div style=""font-size:60px;"">+</div>","null","html-keyboard-response","132","186121","0.0-6.0-0.63","REGA","4","f","rechts","23","","fixation","","","",""
"587","img/60_30.png","70","image-keyboard-response","133","186709","0.0-6.0-1.63","REGA","4","f","rechts","23","","","object","f","60","true"
"null","<div style=""font-size:60px;"">+</div>","null","html-keyboard-response","134","187212","0.0-6.0-0.64","REGA","4","f","rechts","23","","fixation","","","",""
"1210","img/L60_180.png","74","image-keyboard-response","135","188423","0.0-6.0-1.64","REGA","4","f","rechts","23","","","object","j","60","true"
"null","<div style=""font-size:60px;"">+</div>","null","html-keyboard-response","136","188775","0.0-6.0-0.65","REGA","4","f","rechts","23","","fixation","","","",""
"767","img/90_60.png","70","image-keyboard-response","137","189542","0.0-6.0-1.65","REGA","4","f","rechts","23","","","object","f","90","true"
"null","<div style=""font-size:60px;"">+</div>","null","html-keyboard-response","138","190046","0.0-6.0-0.66","REGA","4","f","rechts","23","","fixation","","","",""
"577","img/90_30.png","70","image-keyboard-response","139","190623","0.0-6.0-1.66","REGA","4","f","rechts","23","","","object","f","90","true"
"null","<div style=""font-size:60px;"">+</div>","null","html-keyboard-response","140","191125","0.0-6.0-0.67","REGA","4","f","rechts","23","","fixation","","","",""
"916","img/90_120.png","74","image-keyboard-response","141","192042","0.0-6.0-1.67","REGA","4","f","rechts","23","","","object","j","90","true"
"null","<div style=""font-size:60px;"">+</div>","null","html-keyboard-response","142","192345","0.0-6.0-0.68","REGA","4","f","rechts","23","","fixation","","","",""
"846","img/30_120.png","74","image-keyboard-response","143","193191","0.0-6.0-1.68","REGA","4","f","rechts","23","","","object","j","30","true"
"null","<div style=""font-size:60px;"">+</div>","null","html-keyboard-response","144","193647","0.0-6.0-0.69","REGA","4","f","rechts","23","","fixation","","","",""
"940","img/60_210.png","70","image-keyboard-response","145","194587","0.0-6.0-1.69","REGA","4","f","rechts","23","","","object","f","60","true"
"null","<div style=""font-size:60px;"">+</div>","null","html-keyboard-response","146","195043","0.0-6.0-0.70","REGA","4","f","rechts","23","","fixation","","","",""
"989","img/30_300.png","70","image-keyboard-response","147","196032","0.0-6.0-1.70","REGA","4","f","rechts","23","","","object","f","30","true"
"null","<div style=""font-size:60px;"">+</div>","null","html-keyboard-response","148","196534","0.0-6.0-0.71","REGA","4","f","rechts","23","","fixation","","","",""
"853","img/90_150.png","74","image-keyboard-response","149","197389","0.0-6.0-1.71","REGA","4","f","rechts","23","","","object","j","90","true"
"null","<div style=""font-size:60px;"">+</div>","null","html-keyboard-response","150","197690","0.0-6.0-0.72","REGA","4","f","rechts","23","","fixation","","","",""
"1141","img/150_240.png","74","image-keyboard-response","151","198833","0.0-6.0-1.72","REGA","4","f","rechts","23","","","object","j","150","true"
"null","<div style=""font-size:60px;"">+</div>","null","html-keyboard-response","152","199136","0.0-6.0-0.73","REGA","4","f","rechts","23","","fixation","","","",""
"634","img/0_270.png","70","image-keyboard-response","153","199771","0.0-6.0-1.73","REGA","4","f","rechts","23","","","object","f","0","true"
"null","<div style=""font-size:60px;"">+</div>","null","html-keyboard-response","154","200272","0.0-6.0-0.74","REGA","4","f","rechts","23","","fixation","","","",""
"545","img/0_90.png","74","image-keyboard-response","155","200818","0.0-6.0-1.74","REGA","4","f","rechts","23","","","object","j","0","true"
"null","<div style=""font-size:60px;"">+</div>","null","html-keyboard-response","156","201271","0.0-6.0-0.75","REGA","4","f","rechts","23","","fixation","","","",""
"1412","img/L90_180.png","74","image-keyboard-response","157","202684","0.0-6.0-1.75","REGA","4","f","rechts","23","","","object","j","90","true"
"null","<div style=""font-size:60px;"">+</div>","null","html-keyboard-response","158","203139","0.0-6.0-0.76","REGA","4","f","rechts","23","","fixation","","","",""
"682","img/120_30.png","70","image-keyboard-response","159","203822","0.0-6.0-1.76","REGA","4","f","rechts","23","","","object","f","120","true"
"null","<div style=""font-size:60px;"">+</div>","null","html-keyboard-response","160","204324","0.0-6.0-0.77","REGA","4","f","rechts","23","","fixation","","","",""
"1008","img/30_180.png","70","image-keyboard-response","161","205332","0.0-6.0-1.77","REGA","4","f","rechts","23","","","object","f","30","true"
"null","<div style=""font-size:60px;"">+</div>","null","html-keyboard-response","162","205739","0.0-6.0-0.78","REGA","4","f","rechts","23","","fixation","","","",""
"999","img/120_150.png","74","image-keyboard-response","163","206738","0.0-6.0-1.78","REGA","4","f","rechts","23","","","object","j","120","true"
"null","<div style=""font-size:60px;"">+</div>","null","html-keyboard-response","164","207040","0.0-6.0-0.79","REGA","4","f","rechts","23","","fixation","","","",""
"1228","img/150_90.png","70","image-keyboard-response","165","208270","0.0-6.0-1.79","REGA","4","f","rechts","23","","","object","f","150","true"
"null","<div style=""font-size:60px;"">+</div>","null","html-keyboard-response","166","208573","0.0-6.0-0.80","REGA","4","f","rechts","23","","fixation","","","",""
"718","img/90_330.png","74","image-keyboard-response","167","209292","0.0-6.0-1.80","REGA","4","f","rechts","23","","","object","j","90","true"
"null","<div style=""font-size:60px;"">+</div>","null","html-keyboard-response","168","209694","0.0-6.0-0.81","REGA","4","f","rechts","23","","fixation","","","",""
"1161","img/150_120.png","70","image-keyboard-response","169","210855","0.0-6.0-1.81","REGA","4","f","rechts","23","","","object","f","150","true"
"null","<div style=""font-size:60px;"">+</div>","null","html-keyboard-response","170","211208","0.0-6.0-0.82","REGA","4","f","rechts","23","","fixation","","","",""
"1320","img/150_180.png","70","image-keyboard-response","171","212528","0.0-6.0-1.82","REGA","4","f","rechts","23","","","object","f","150","true"
"null","<div style=""font-size:60px;"">+</div>","null","html-keyboard-response","172","212833","0.0-6.0-0.83","REGA","4","f","rechts","23","","fixation","","","",""
"601","img/0_330.png","70","image-keyboard-response","173","213435","0.0-6.0-1.83","REGA","4","f","rechts","23","","","object","f","0","true"
"null","<div style=""font-size:60px;"">+</div>","null","html-keyboard-response","174","213890","0.0-6.0-0.84","REGA","4","f","rechts","23","","fixation","","","",""
"462","img/0_240.png","70","image-keyboard-response","175","214353","0.0-6.0-1.84","REGA","4","f","rechts","23","","","object","f","0","true"
"null","<div style=""font-size:60px;"">+</div>","null","html-keyboard-response","176","214807","0.0-6.0-0.85","REGA","4","f","rechts","23","","fixation","","","",""
"801","img/120_270.png","74","image-keyboard-response","177","215610","0.0-6.0-1.85","REGA","4","f","rechts","23","","","object","j","120","true"
"null","<div style=""font-size:60px;"">+</div>","null","html-keyboard-response","178","216117","0.0-6.0-0.86","REGA","4","f","rechts","23","","fixation","","","",""
"null","img/120_180.png","null","image-keyboard-response","179","219123","0.0-6.0-1.86","REGA","4","f","rechts","23","","","object","f","120","false"
"null","<div style=""font-size:60px;"">+</div>","null","html-keyboard-response","180","219429","0.0-6.0-0.87","REGA","4","f","rechts","23","","fixation","","","",""
"1348","img/30_60.png","74","image-keyboard-response","181","220778","0.0-6.0-1.87","REGA","4","f","rechts","23","","","object","j","30","true"
"null","<div style=""font-size:60px;"">+</div>","null","html-keyboard-response","182","221130","0.0-6.0-0.88","REGA","4","f","rechts","23","","fixation","","","",""
"793","img/90_300.png","74","image-keyboard-response","183","221923","0.0-6.0-1.88","REGA","4","f","rechts","23","","","object","j","90","true"
"null","<div style=""font-size:60px;"">+</div>","null","html-keyboard-response","184","222225","0.0-6.0-0.89","REGA","4","f","rechts","23","","fixation","","","",""
"779","img/30_240.png","70","image-keyboard-response","185","223006","0.0-6.0-1.89","REGA","4","f","rechts","23","","","object","f","30","true"
"null","<div style=""font-size:60px;"">+</div>","null","html-keyboard-response","186","223461","0.0-6.0-0.90","REGA","4","f","rechts","23","","fixation","","","",""
"1154","img/90_240.png","70","image-keyboard-response","187","224615","0.0-6.0-1.90","REGA","4","f","rechts","23","","","object","f","90","true"
"null","<div style=""font-size:60px;"">+</div>","null","html-keyboard-response","188","225071","0.0-6.0-0.91","REGA","4","f","rechts","23","","fixation","","","",""
"580","img/0_300.png","70","image-keyboard-response","189","225652","0.0-6.0-1.91","REGA","4","f","rechts","23","","","object","f","0","true"
"null","<div style=""font-size:60px;"">+</div>","null","html-keyboard-response","190","226103","0.0-6.0-0.92","REGA","4","f","rechts","23","","fixation","","","",""
"658","img/30_90.png","70","image-keyboard-response","191","226761","0.0-6.0-1.92","REGA","4","f","rechts","23","","","object","j","30","false"
"null","<div style=""font-size:60px;"">+</div>","null","html-keyboard-response","192","227267","0.0-6.0-0.93","REGA","4","f","rechts","23","","fixation","","","",""
"1007","img/90_210.png","74","image-keyboard-response","193","228275","0.0-6.0-1.93","REGA","4","f","rechts","23","","","object","f","90","false"
"null","<div style=""font-size:60px;"">+</div>","null","html-keyboard-response","194","228781","0.0-6.0-0.94","REGA","4","f","rechts","23","","fixation","","","",""
"1603","img/120_210.png","70","image-keyboard-response","195","230384","0.0-6.0-1.94","REGA","4","f","rechts","23","","","object","f","120","true"
"null","<div style=""font-size:60px;"">+</div>","null","html-keyboard-response","196","230838","0.0-6.0-0.95","REGA","4","f","rechts","23","","fixation","","","",""
"671","img/60_330.png","74","image-keyboard-response","197","231510","0.0-6.0-1.95","REGA","4","f","rechts","23","","","object","j","60","true"
"null","<div style=""font-size:60px;"">+</div>","null","html-keyboard-response","198","231913","0.0-6.0-0.96","REGA","4","f","rechts","23","","fixation","","","",""
"704","img/0_210.png","70","image-keyboard-response","199","232617","0.0-6.0-1.96","REGA","4","f","rechts","23","","","object","f","0","true"
"null","<div style=""font-size:60px;"">+</div>","null","html-keyboard-response","200","232973","0.0-6.0-0.97","REGA","4","f","rechts","23","","fixation","","","",""
"1079","img/150_270.png","74","image-keyboard-response","201","234052","0.0-6.0-1.97","REGA","4","f","rechts","23","","","object","j","150","true"
"null","<div style=""font-size:60px;"">+</div>","null","html-keyboard-response","202","234403","0.0-6.0-0.98","REGA","4","f","rechts","23","","fixation","","","",""
"955","img/90_180.png","70","image-keyboard-response","203","235358","0.0-6.0-1.98","REGA","4","f","rechts","23","","","object","f","90","true"
"null","<div style=""font-size:60px;"">+</div>","null","html-keyboard-response","204","235664","0.0-6.0-0.99","REGA","4","f","rechts","23","","fixation","","","",""
"1071","img/L120_180.png","74","image-keyboard-response","205","236736","0.0-6.0-1.99","REGA","4","f","rechts","23","","","object","j","120","true"
"null","<div style=""font-size:60px;"">+</div>","null","html-keyboard-response","206","237038","0.0-6.0-0.100","REGA","4","f","rechts","23","","fixation","","","",""
"983","img/60_270.png","70","image-keyboard-response","207","238022","0.0-6.0-1.100","REGA","4","f","rechts","23","","","object","f","60","true"
"null","<div style=""font-size:60px;"">+</div>","null","html-keyboard-response","208","238326","0.0-6.0-0.101","REGA","4","f","rechts","23","","fixation","","","",""
"973","img/120_90.png","70","image-keyboard-response","209","239300","0.0-6.0-1.101","REGA","4","f","rechts","23","","","object","f","120","true"
"null","<div style=""font-size:60px;"">+</div>","null","html-keyboard-response","210","239603","0.0-6.0-0.102","REGA","4","f","rechts","23","","fixation","","","",""
"1076","img/60_90.png","74","image-keyboard-response","211","240679","0.0-6.0-1.102","REGA","4","f","rechts","23","","","object","j","60","true"
"null","<div style=""font-size:60px;"">+</div>","null","html-keyboard-response","212","241129","0.0-6.0-0.103","REGA","4","f","rechts","23","","fixation","","","",""
"1366","img/L30_180.png","74","image-keyboard-response","213","242496","0.0-6.0-1.103","REGA","4","f","rechts","23","","","object","j","30","true"
"null","<div style=""font-size:60px;"">+</div>","null","html-keyboard-response","214","242952","0.0-6.0-0.104","REGA","4","f","rechts","23","","fixation","","","",""
"672","img/0_30.png","74","image-keyboard-response","215","243625","0.0-6.0-1.104","REGA","4","f","rechts","23","","","object","j","0","true"
"null","<div style=""font-size:60px;"">+</div>","null","html-keyboard-response","216","244026","0.0-6.0-0.105","REGA","4","f","rechts","23","","fixation","","","",""
"716","img/90_300.png","74","image-keyboard-response","217","244743","0.0-6.0-1.105","REGA","4","f","rechts","23","","","object","j","90","true"
"null","<div style=""font-size:60px;"">+</div>","null","html-keyboard-response","218","245198","0.0-6.0-0.106","REGA","4","f","rechts","23","","fixation","","","",""
"909","img/90_210.png","70","image-keyboard-response","219","246108","0.0-6.0-1.106","REGA","4","f","rechts","23","","","object","f","90","true"
"null","<div style=""font-size:60px;"">+</div>","null","html-keyboard-response","220","246564","0.0-6.0-0.107","REGA","4","f","rechts","23","","fixation","","","",""
"577","img/0_300.png","70","image-keyboard-response","221","247141","0.0-6.0-1.107","REGA","4","f","rechts","23","","","object","f","0","true"
"null","<div style=""font-size:60px;"">+</div>","null","html-keyboard-response","222","247643","0.0-6.0-0.108","REGA","4","f","rechts","23","","fixation","","","",""
"728","img/150_270.png","74","image-keyboard-response","223","248373","0.0-6.0-1.108","REGA","4","f","rechts","23","","","object","j","150","true"
"null","<div style=""font-size:60px;"">+</div>","null","html-keyboard-response","224","248776","0.0-6.0-0.109","REGA","4","f","rechts","23","","fixation","","","",""
"1139","img/L120_180.png","74","image-keyboard-response","225","249915","0.0-6.0-1.109","REGA","4","f","rechts","23","","","object","j","120","true"
"null","<div style=""font-size:60px;"">+</div>","null","html-keyboard-response","226","250421","0.0-6.0-0.110","REGA","4","f","rechts","23","","fixation","","","",""
"1115","img/90_150.png","70","image-keyboard-response","227","251538","0.0-6.0-1.110","REGA","4","f","rechts","23","","","object","j","90","false"
"null","<div style=""font-size:60px;"">+</div>","null","html-keyboard-response","228","251893","0.0-6.0-0.111","REGA","4","f","rechts","23","","fixation","","","",""
"875","img/30_270.png","70","image-keyboard-response","229","252768","0.0-6.0-1.111","REGA","4","f","rechts","23","","","object","f","30","true"
"null","<div style=""font-size:60px;"">+</div>","null","html-keyboard-response","230","253071","0.0-6.0-0.112","REGA","4","f","rechts","23","","fixation","","","",""
"769","img/90_30.png","70","image-keyboard-response","231","253841","0.0-6.0-1.112","REGA","4","f","rechts","23","","","object","f","90","true"
"null","<div style=""font-size:60px;"">+</div>","null","html-keyboard-response","232","254294","0.0-6.0-0.113","REGA","4","f","rechts","23","","fixation","","","",""
"1328","img/L60_180.png","74","image-keyboard-response","233","255623","0.0-6.0-1.113","REGA","4","f","rechts","23","","","object","j","60","true"
"null","<div style=""font-size:60px;"">+</div>","null","html-keyboard-response","234","255925","0.0-6.0-0.114","REGA","4","f","rechts","23","","fixation","","","",""
"1421","img/60_150.png","74","image-keyboard-response","235","257347","0.0-6.0-1.114","REGA","4","f","rechts","23","","","object","j","60","true"
"null","<div style=""font-size:60px;"">+</div>","null","html-keyboard-response","236","257652","0.0-6.0-0.115","REGA","4","f","rechts","23","","fixation","","","",""
"779","img/30_240.png","70","image-keyboard-response","237","258431","0.0-6.0-1.115","REGA","4","f","rechts","23","","","object","f","30","true"
"null","<div style=""font-size:60px;"">+</div>","null","html-keyboard-response","238","258787","0.0-6.0-0.116","REGA","4","f","rechts","23","","fixation","","","",""
"1085","img/L150_180.png","74","image-keyboard-response","239","259872","0.0-6.0-1.116","REGA","4","f","rechts","23","","","object","j","150","true"
"null","<div style=""font-size:60px;"">+</div>","null","html-keyboard-response","240","260174","0.0-6.0-0.117","REGA","4","f","rechts","23","","fixation","","","",""
"927","img/L30_180.png","74","image-keyboard-response","241","261101","0.0-6.0-1.117","REGA","4","f","rechts","23","","","object","j","30","true"
"null","<div style=""font-size:60px;"">+</div>","null","html-keyboard-response","242","261606","0.0-6.0-0.118","REGA","4","f","rechts","23","","fixation","","","",""
"801","img/30_60.png","70","image-keyboard-response","243","262408","0.0-6.0-1.118","REGA","4","f","rechts","23","","","object","j","30","false"
"null","<div style=""font-size:60px;"">+</div>","null","html-keyboard-response","244","262914","0.0-6.0-0.119","REGA","4","f","rechts","23","","fixation","","","",""
"653","img/0_150.png","74","image-keyboard-response","245","263567","0.0-6.0-1.119","REGA","4","f","rechts","23","","","object","j","0","true"
"null","<div style=""font-size:60px;"">+</div>","null","html-keyboard-response","246","264072","0.0-6.0-0.120","REGA","4","f","rechts","23","","fixation","","","",""
"1186","img/150_180.png","70","image-keyboard-response","247","265259","0.0-6.0-1.120","REGA","4","f","rechts","23","","","object","f","150","true"
"null","<div style=""font-size:60px;"">+</div>","null","html-keyboard-response","248","265614","0.0-6.0-0.121","REGA","4","f","rechts","23","","fixation","","","",""
"1067","img/30_300.png","70","image-keyboard-response","249","266681","0.0-6.0-1.121","REGA","4","f","rechts","23","","","object","f","30","true"
"null","<div style=""font-size:60px;"">+</div>","null","html-keyboard-response","250","267134","0.0-6.0-0.122","REGA","4","f","rechts","23","","fixation","","","",""
"1151","img/120_180.png","70","image-keyboard-response","251","268285","0.0-6.0-1.122","REGA","4","f","rechts","23","","","object","f","120","true"
"null","<div style=""font-size:60px;"">+</div>","null","html-keyboard-response","252","268788","0.0-6.0-0.123","REGA","4","f","rechts","23","","fixation","","","",""
"618","img/60_330.png","74","image-keyboard-response","253","269408","0.0-6.0-1.123","REGA","4","f","rechts","23","","","object","j","60","true"
"null","<div style=""font-size:60px;"">+</div>","null","html-keyboard-response","254","269711","0.0-6.0-0.124","REGA","4","f","rechts","23","","fixation","","","",""
"841","img/90_240.png","74","image-keyboard-response","255","270553","0.0-6.0-1.124","REGA","4","f","rechts","23","","","object","f","90","false"
"null","<div style=""font-size:60px;"">+</div>","null","html-keyboard-response","256","270906","0.0-6.0-0.125","REGA","4","f","rechts","23","","fixation","","","",""
"1322","img/L90_180.png","74","image-keyboard-response","257","272229","0.0-6.0-1.125","REGA","4","f","rechts","23","","","object","j","90","true"
"null","<div style=""font-size:60px;"">+</div>","null","html-keyboard-response","258","272683","0.0-6.0-0.126","REGA","4","f","rechts","23","","fixation","","","",""
"1288","img/90_180.png","70","image-keyboard-response","259","273972","0.0-6.0-1.126","REGA","4","f","rechts","23","","","object","f","90","true"
"null","<div style=""font-size:60px;"">+</div>","null","html-keyboard-response","260","274325","0.0-6.0-0.127","REGA","4","f","rechts","23","","fixation","","","",""
"605","img/0_240.png","70","image-keyboard-response","261","274930","0.0-6.0-1.127","REGA","4","f","rechts","23","","","object","f","0","true"
"null","<div style=""font-size:60px;"">+</div>","null","html-keyboard-response","262","275236","0.0-6.0-0.128","REGA","4","f","rechts","23","","fixation","","","",""
"1396","img/150_60.png","70","image-keyboard-response","263","276633","0.0-6.0-1.128","REGA","4","f","rechts","23","","","object","f","150","true"
"null","<div style=""font-size:60px;"">+</div>","null","html-keyboard-response","264","276939","0.0-6.0-0.129","REGA","4","f","rechts","23","","fixation","","","",""
"846","img/30_120.png","74","image-keyboard-response","265","277785","0.0-6.0-1.129","REGA","4","f","rechts","23","","","object","j","30","true"
"null","<div style=""font-size:60px;"">+</div>","null","html-keyboard-response","266","278190","0.0-6.0-0.130","REGA","4","f","rechts","23","","fixation","","","",""
"1133","img/150_240.png","74","image-keyboard-response","267","279324","0.0-6.0-1.130","REGA","4","f","rechts","23","","","object","j","150","true"
"null","<div style=""font-size:60px;"">+</div>","null","html-keyboard-response","268","279780","0.0-6.0-0.131","REGA","4","f","rechts","23","","fixation","","","",""
"595","img/0_270.png","70","image-keyboard-response","269","280375","0.0-6.0-1.131","REGA","4","f","rechts","23","","","object","f","0","true"
"null","<div style=""font-size:60px;"">+</div>","null","html-keyboard-response","270","280731","0.0-6.0-0.132","REGA","4","f","rechts","23","","fixation","","","",""
"616","img/0_330.png","70","image-keyboard-response","271","281348","0.0-6.0-1.132","REGA","4","f","rechts","23","","","object","f","0","true"
"null","<div style=""font-size:60px;"">+</div>","null","html-keyboard-response","272","281751","0.0-6.0-0.133","REGA","4","f","rechts","23","","fixation","","","",""
"711","img/60_210.png","70","image-keyboard-response","273","282463","0.0-6.0-1.133","REGA","4","f","rechts","23","","","object","f","60","true"
"null","<div style=""font-size:60px;"">+</div>","null","html-keyboard-response","274","282866","0.0-6.0-0.134","REGA","4","f","rechts","23","","fixation","","","",""
"968","img/30_90.png","74","image-keyboard-response","275","283836","0.0-6.0-1.134","REGA","4","f","rechts","23","","","object","j","30","true"
"null","<div style=""font-size:60px;"">+</div>","null","html-keyboard-response","276","284140","0.0-6.0-0.135","REGA","4","f","rechts","23","","fixation","","","",""
"615","img/0_60.png","74","image-keyboard-response","277","284757","0.0-6.0-1.135","REGA","4","f","rechts","23","","","object","j","0","true"
"null","<div style=""font-size:60px;"">+</div>","null","html-keyboard-response","278","285110","0.0-6.0-0.136","REGA","4","f","rechts","23","","fixation","","","",""
"796","img/150_300.png","74","image-keyboard-response","279","285907","0.0-6.0-1.136","REGA","4","f","rechts","23","","","object","j","150","true"
"null","<div style=""font-size:60px;"">+</div>","null","html-keyboard-response","280","286212","0.0-6.0-0.137","REGA","4","f","rechts","23","","fixation","","","",""
"809","img/60_270.png","70","image-keyboard-response","281","287021","0.0-6.0-1.137","REGA","4","f","rechts","23","","","object","f","60","true"
"null","<div style=""font-size:60px;"">+</div>","null","html-keyboard-response","282","287525","0.0-6.0-0.138","REGA","4","f","rechts","23","","fixation","","","",""
"645","img/120_330.png","74","image-keyboard-response","283","288170","0.0-6.0-1.138","REGA","4","f","rechts","23","","","object","j","120","true"
"null","<div style=""font-size:60px;"">+</div>","null","html-keyboard-response","284","288525","0.0-6.0-0.139","REGA","4","f","rechts","23","","fixation","","","",""
"1408","img/150_120.png","70","image-keyboard-response","285","289934","0.0-6.0-1.139","REGA","4","f","rechts","23","","","object","f","150","true"
"null","<div style=""font-size:60px;"">+</div>","null","html-keyboard-response","286","290287","0.0-6.0-0.140","REGA","4","f","rechts","23","","fixation","","","",""
"1090","img/30_180.png","70","image-keyboard-response","287","291378","0.0-6.0-1.140","REGA","4","f","rechts","23","","","object","f","30","true"
"null","<div style=""font-size:60px;"">+</div>","null","html-keyboard-response","288","291832","0.0-6.0-0.141","REGA","4","f","rechts","23","","fixation","","","",""
"711","img/60_30.png","70","image-keyboard-response","289","292543","0.0-6.0-1.141","REGA","4","f","rechts","23","","","object","f","60","true"
"null","<div style=""font-size:60px;"">+</div>","null","html-keyboard-response","290","292845","0.0-6.0-0.142","REGA","4","f","rechts","23","","fixation","","","",""
"684","img/90_330.png","74","image-keyboard-response","291","293530","0.0-6.0-1.142","REGA","4","f","rechts","23","","","object","j","90","true"
"null","<div style=""font-size:60px;"">+</div>","null","html-keyboard-response","292","293834","0.0-6.0-0.143","REGA","4","f","rechts","23","","fixation","","","",""
"621","img/0_90.png","74","image-keyboard-response","293","294455","0.0-6.0-1.143","REGA","4","f","rechts","23","","","object","j","0","true"
"null","<div style=""font-size:60px;"">+</div>","null","html-keyboard-response","294","294758","0.0-6.0-0.144","REGA","4","f","rechts","23","","fixation","","","",""
"894","img/150_90.png","70","image-keyboard-response","295","295653","0.0-6.0-1.144","REGA","4","f","rechts","23","","","object","f","150","true"
"null","<div style=""font-size:60px;"">+</div>","null","html-keyboard-response","296","295959","0.0-6.0-0.145","REGA","4","f","rechts","23","","fixation","","","",""
"1077","img/60_180.png","70","image-keyboard-response","297","297036","0.0-6.0-1.145","REGA","4","f","rechts","23","","","object","f","60","true"
"null","<div style=""font-size:60px;"">+</div>","null","html-keyboard-response","298","297342","0.0-6.0-0.146","REGA","4","f","rechts","23","","fixation","","","",""
"706","img/0_210.png","70","image-keyboard-response","299","298048","0.0-6.0-1.146","REGA","4","f","rechts","23","","","object","f","0","true"
"null","<div style=""font-size:60px;"">+</div>","null","html-keyboard-response","300","298348","0.0-6.0-0.147","REGA","4","f","rechts","23","","fixation","","","",""
"756","img/0_120.png","74","image-keyboard-response","301","299105","0.0-6.0-1.147","REGA","4","f","rechts","23","","","object","j","0","true"
"null","<div style=""font-size:60px;"">+</div>","null","html-keyboard-response","302","299461","0.0-6.0-0.148","REGA","4","f","rechts","23","","fixation","","","",""
"801","img/120_270.png","74","image-keyboard-response","303","300262","0.0-6.0-1.148","REGA","4","f","rechts","23","","","object","j","120","true"
"null","<div style=""font-size:60px;"">+</div>","null","html-keyboard-response","304","300614","0.0-6.0-0.149","REGA","4","f","rechts","23","","fixation","","","",""
"1536","img/120_150.png","74","image-keyboard-response","305","302150","0.0-6.0-1.149","REGA","4","f","rechts","23","","","object","j","120","true"
"null","<div style=""font-size:60px;"">+</div>","null","html-keyboard-response","306","302552","0.0-6.0-0.150","REGA","4","f","rechts","23","","fixation","","","",""
"700","img/90_60.png","70","image-keyboard-response","307","303252","0.0-6.0-1.150","REGA","4","f","rechts","23","","","object","f","90","true"
"null","<div style=""font-size:60px;"">+</div>","null","html-keyboard-response","308","303758","0.0-6.0-0.151","REGA","4","f","rechts","23","","fixation","","","",""
"759","img/60_90.png","74","image-keyboard-response","309","304517","0.0-6.0-1.151","REGA","4","f","rechts","23","","","object","j","60","true"
"null","<div style=""font-size:60px;"">+</div>","null","html-keyboard-response","310","304821","0.0-6.0-0.152","REGA","4","f","rechts","23","","fixation","","","",""
"688","img/120_30.png","70","image-keyboard-response","311","305510","0.0-6.0-1.152","REGA","4","f","rechts","23","","","object","f","120","true"
"null","<div style=""font-size:60px;"">+</div>","null","html-keyboard-response","312","305815","0.0-6.0-0.153","REGA","4","f","rechts","23","","fixation","","","",""
"1017","img/120_210.png","70","image-keyboard-response","313","306832","0.0-6.0-1.153","REGA","4","f","rechts","23","","","object","f","120","true"
"null","<div style=""font-size:60px;"">+</div>","null","html-keyboard-response","314","307334","0.0-6.0-0.154","REGA","4","f","rechts","23","","fixation","","","",""
"1063","img/120_90.png","70","image-keyboard-response","315","308397","0.0-6.0-1.154","REGA","4","f","rechts","23","","","object","f","120","true"
"null","<div style=""font-size:60px;"">+</div>","null","html-keyboard-response","316","308801","0.0-6.0-0.155","REGA","4","f","rechts","23","","fixation","","","",""
"791","img/90_120.png","70","image-keyboard-response","317","309593","0.0-6.0-1.155","REGA","4","f","rechts","23","","","object","j","90","false"
"null","<div style=""font-size:60px;"">+</div>","null","html-keyboard-response","318","310045","0.0-6.0-0.156","REGA","4","f","rechts","23","","fixation","","","",""
"773","img/90_300.png","74","image-keyboard-response","319","310819","0.0-6.0-1.156","REGA","4","f","rechts","23","","","object","j","90","true"
"null","<div style=""font-size:60px;"">+</div>","null","html-keyboard-response","320","311270","0.0-6.0-0.157","REGA","4","f","rechts","23","","fixation","","","",""
"1473","img/30_180.png","70","image-keyboard-response","321","312743","0.0-6.0-1.157","REGA","4","f","rechts","23","","","object","f","30","true"
"null","<div style=""font-size:60px;"">+</div>","null","html-keyboard-response","322","313049","0.0-6.0-0.158","REGA","4","f","rechts","23","","fixation","","","",""
"1162","img/120_210.png","70","image-keyboard-response","323","314212","0.0-6.0-1.158","REGA","4","f","rechts","23","","","object","f","120","true"
"null","<div style=""font-size:60px;"">+</div>","null","html-keyboard-response","324","314514","0.0-6.0-0.159","REGA","4","f","rechts","23","","fixation","","","",""
"1310","img/60_90.png","70","image-keyboard-response","325","315824","0.0-6.0-1.159","REGA","4","f","rechts","23","","","object","j","60","false"
"null","<div style=""font-size:60px;"">+</div>","null","html-keyboard-response","326","316128","0.0-6.0-0.160","REGA","4","f","rechts","23","","fixation","","","",""
"1241","img/60_180.png","70","image-keyboard-response","327","317370","0.0-6.0-1.160","REGA","4","f","rechts","23","","","object","f","60","true"
"null","<div style=""font-size:60px;"">+</div>","null","html-keyboard-response","328","317876","0.0-6.0-0.161","REGA","4","f","rechts","23","","fixation","","","",""
"663","img/120_330.png","74","image-keyboard-response","329","318539","0.0-6.0-1.161","REGA","4","f","rechts","23","","","object","j","120","true"
"null","<div style=""font-size:60px;"">+</div>","null","html-keyboard-response","330","318944","0.0-6.0-0.162","REGA","4","f","rechts","23","","fixation","","","",""
"866","img/60_150.png","74","image-keyboard-response","331","319810","0.0-6.0-1.162","REGA","4","f","rechts","23","","","object","j","60","true"
"null","<div style=""font-size:60px;"">+</div>","null","html-keyboard-response","332","320214","0.0-6.0-0.163","REGA","4","f","rechts","23","","fixation","","","",""
"790","img/90_150.png","74","image-keyboard-response","333","321005","0.0-6.0-1.163","REGA","4","f","rechts","23","","","object","j","90","true"
"null","<div style=""font-size:60px;"">+</div>","null","html-keyboard-response","334","321457","0.0-6.0-0.164","REGA","4","f","rechts","23","","fixation","","","",""
"832","img/120_150.png","74","image-keyboard-response","335","322290","0.0-6.0-1.164","REGA","4","f","rechts","23","","","object","j","120","true"
"null","<div style=""font-size:60px;"">+</div>","null","html-keyboard-response","336","322642","0.0-6.0-0.165","REGA","4","f","rechts","23","","fixation","","","",""
"1160","img/L120_180.png","74","image-keyboard-response","337","323802","0.0-6.0-1.165","REGA","4","f","rechts","23","","","object","j","120","true"
"null","<div style=""font-size:60px;"">+</div>","null","html-keyboard-response","338","324304","0.0-6.0-0.166","REGA","4","f","rechts","23","","fixation","","","",""
"947","img/L60_180.png","74","image-keyboard-response","339","325252","0.0-6.0-1.166","REGA","4","f","rechts","23","","","object","j","60","true"
"null","<div style=""font-size:60px;"">+</div>","null","html-keyboard-response","340","325706","0.0-6.0-0.167","REGA","4","f","rechts","23","","fixation","","","",""
"898","img/120_90.png","70","image-keyboard-response","341","326605","0.0-6.0-1.167","REGA","4","f","rechts","23","","","object","f","120","true"
"null","<div style=""font-size:60px;"">+</div>","null","html-keyboard-response","342","326907","0.0-6.0-0.168","REGA","4","f","rechts","23","","fixation","","","",""
"729","img/60_330.png","74","image-keyboard-response","343","327636","0.0-6.0-1.168","REGA","4","f","rechts","23","","","object","j","60","true"
"null","<div style=""font-size:60px;"">+</div>","null","html-keyboard-response","344","328091","0.0-6.0-0.169","REGA","4","f","rechts","23","","fixation","","","",""
"523","img/90_210.png","74","image-keyboard-response","345","328615","0.0-6.0-1.169","REGA","4","f","rechts","23","","","object","f","90","false"
"null","<div style=""font-size:60px;"">+</div>","null","html-keyboard-response","346","328916","0.0-6.0-0.170","REGA","4","f","rechts","23","","fixation","","","",""
"896","img/0_90.png","74","image-keyboard-response","347","329812","0.0-6.0-1.170","REGA","4","f","rechts","23","","","object","j","0","true"
"null","<div style=""font-size:60px;"">+</div>","null","html-keyboard-response","348","330215","0.0-6.0-0.171","REGA","4","f","rechts","23","","fixation","","","",""
"547","img/0_60.png","74","image-keyboard-response","349","330763","0.0-6.0-1.171","REGA","4","f","rechts","23","","","object","j","0","true"
"null","<div style=""font-size:60px;"">+</div>","null","html-keyboard-response","350","331219","0.0-6.0-0.172","REGA","4","f","rechts","23","","fixation","","","",""
"759","img/30_120.png","74","image-keyboard-response","351","331979","0.0-6.0-1.172","REGA","4","f","rechts","23","","","object","j","30","true"
"null","<div style=""font-size:60px;"">+</div>","null","html-keyboard-response","352","332334","0.0-6.0-0.173","REGA","4","f","rechts","23","","fixation","","","",""
"1100","img/150_240.png","74","image-keyboard-response","353","333435","0.0-6.0-1.173","REGA","4","f","rechts","23","","","object","j","150","true"
"null","<div style=""font-size:60px;"">+</div>","null","html-keyboard-response","354","333739","0.0-6.0-0.174","REGA","4","f","rechts","23","","fixation","","","",""
"772","img/90_30.png","70","image-keyboard-response","355","334512","0.0-6.0-1.174","REGA","4","f","rechts","23","","","object","f","90","true"
"null","<div style=""font-size:60px;"">+</div>","null","html-keyboard-response","356","335018","0.0-6.0-0.175","REGA","4","f","rechts","23","","fixation","","","",""
"595","img/60_30.png","70","image-keyboard-response","357","335613","0.0-6.0-1.175","REGA","4","f","rechts","23","","","object","f","60","true"
"null","<div style=""font-size:60px;"">+</div>","null","html-keyboard-response","358","335968","0.0-6.0-0.176","REGA","4","f","rechts","23","","fixation","","","",""
"585","img/90_60.png","70","image-keyboard-response","359","336553","0.0-6.0-1.176","REGA","4","f","rechts","23","","","object","f","90","true"
"null","<div style=""font-size:60px;"">+</div>","null","html-keyboard-response","360","336909","0.0-6.0-0.177","REGA","4","f","rechts","23","","fixation","","","",""
"537","img/120_30.png","70","image-keyboard-response","361","337446","0.0-6.0-1.177","REGA","4","f","rechts","23","","","object","f","120","true"
"null","<div style=""font-size:60px;"">+</div>","null","html-keyboard-response","362","337802","0.0-6.0-0.178","REGA","4","f","rechts","23","","fixation","","","",""
"1015","img/30_240.png","70","image-keyboard-response","363","338818","0.0-6.0-1.178","REGA","4","f","rechts","23","","","object","f","30","true"
"null","<div style=""font-size:60px;"">+</div>","null","html-keyboard-response","364","339224","0.0-6.0-0.179","REGA","4","f","rechts","23","","fixation","","","",""
"745","img/90_120.png","74","image-keyboard-response","365","339970","0.0-6.0-1.179","REGA","4","f","rechts","23","","","object","j","90","true"
"null","<div style=""font-size:60px;"">+</div>","null","html-keyboard-response","366","340425","0.0-6.0-0.180","REGA","4","f","rechts","23","","fixation","","","",""
"890","img/90_240.png","70","image-keyboard-response","367","341316","0.0-6.0-1.180","REGA","4","f","rechts","23","","","object","f","90","true"
"null","<div style=""font-size:60px;"">+</div>","null","html-keyboard-response","368","341621","0.0-6.0-0.181","REGA","4","f","rechts","23","","fixation","","","",""
"649","img/30_270.png","70","image-keyboard-response","369","342271","0.0-6.0-1.181","REGA","4","f","rechts","23","","","object","f","30","true"
"null","<div style=""font-size:60px;"">+</div>","null","html-keyboard-response","370","342723","0.0-6.0-0.182","REGA","4","f","rechts","23","","fixation","","","",""
"1189","img/L90_180.png","74","image-keyboard-response","371","343913","0.0-6.0-1.182","REGA","4","f","rechts","23","","","object","j","90","true"
"null","<div style=""font-size:60px;"">+</div>","null","html-keyboard-response","372","344315","0.0-6.0-0.183","REGA","4","f","rechts","23","","fixation","","","",""
"593","img/0_210.png","70","image-keyboard-response","373","344909","0.0-6.0-1.183","REGA","4","f","rechts","23","","","object","f","0","true"
"null","<div style=""font-size:60px;"">+</div>","null","html-keyboard-response","374","345312","0.0-6.0-0.184","REGA","4","f","rechts","23","","fixation","","","",""
"1274","img/120_180.png","70","image-keyboard-response","375","346588","0.0-6.0-1.184","REGA","4","f","rechts","23","","","object","f","120","true"
"null","<div style=""font-size:60px;"">+</div>","null","html-keyboard-response","376","346944","0.0-6.0-0.185","REGA","4","f","rechts","23","","fixation","","","",""
"904","img/150_270.png","74","image-keyboard-response","377","347849","0.0-6.0-1.185","REGA","4","f","rechts","23","","","object","j","150","true"
"null","<div style=""font-size:60px;"">+</div>","null","html-keyboard-response","378","348151","0.0-6.0-0.186","REGA","4","f","rechts","23","","fixation","","","",""
"602","img/30_300.png","74","image-keyboard-response","379","348753","0.0-6.0-1.186","REGA","4","f","rechts","23","","","object","f","30","false"
"null","<div style=""font-size:60px;"">+</div>","null","html-keyboard-response","380","349156","0.0-6.0-0.187","REGA","4","f","rechts","23","","fixation","","","",""
"774","img/30_90.png","74","image-keyboard-response","381","349930","0.0-6.0-1.187","REGA","4","f","rechts","23","","","object","j","30","true"
"null","<div style=""font-size:60px;"">+</div>","null","html-keyboard-response","382","350432","0.0-6.0-0.188","REGA","4","f","rechts","23","","fixation","","","",""
"941","img/60_210.png","70","image-keyboard-response","383","351375","0.0-6.0-1.188","REGA","4","f","rechts","23","","","object","f","60","true"
"null","<div style=""font-size:60px;"">+</div>","null","html-keyboard-response","384","351727","0.0-6.0-0.189","REGA","4","f","rechts","23","","fixation","","","",""
"873","img/150_60.png","70","image-keyboard-response","385","352600","0.0-6.0-1.189","REGA","4","f","rechts","23","","","object","f","150","true"
"null","<div style=""font-size:60px;"">+</div>","null","html-keyboard-response","386","353056","0.0-6.0-0.190","REGA","4","f","rechts","23","","fixation","","","",""
"572","img/0_330.png","70","image-keyboard-response","387","353628","0.0-6.0-1.190","REGA","4","f","rechts","23","","","object","f","0","true"
"null","<div style=""font-size:60px;"">+</div>","null","html-keyboard-response","388","354083","0.0-6.0-0.191","REGA","4","f","rechts","23","","fixation","","","",""
"1628","img/150_120.png","74","image-keyboard-response","389","355712","0.0-6.0-1.191","REGA","4","f","rechts","23","","","object","f","150","false"
"null","<div style=""font-size:60px;"">+</div>","null","html-keyboard-response","390","356217","0.0-6.0-0.192","REGA","4","f","rechts","23","","fixation","","","",""
"1532","img/L30_180.png","74","image-keyboard-response","391","357751","0.0-6.0-1.192","REGA","4","f","rechts","23","","","object","j","30","true"
"null","<div style=""font-size:60px;"">+</div>","null","html-keyboard-response","392","358053","0.0-6.0-0.193","REGA","4","f","rechts","23","","fixation","","","",""
"1660","img/120_270.png","74","image-keyboard-response","393","359714","0.0-6.0-1.193","REGA","4","f","rechts","23","","","object","j","120","true"
"null","<div style=""font-size:60px;"">+</div>","null","html-keyboard-response","394","360219","0.0-6.0-0.194","REGA","4","f","rechts","23","","fixation","","","",""
"674","img/90_330.png","74","image-keyboard-response","395","360894","0.0-6.0-1.194","REGA","4","f","rechts","23","","","object","j","90","true"
"null","<div style=""font-size:60px;"">+</div>","null","html-keyboard-response","396","361346","0.0-6.0-0.195","REGA","4","f","rechts","23","","fixation","","","",""
"564","img/0_300.png","70","image-keyboard-response","397","361911","0.0-6.0-1.195","REGA","4","f","rechts","23","","","object","f","0","true"
"null","<div style=""font-size:60px;"">+</div>","null","html-keyboard-response","398","362364","0.0-6.0-0.196","REGA","4","f","rechts","23","","fixation","","","",""
"1337","img/150_180.png","70","image-keyboard-response","399","363702","0.0-6.0-1.196","REGA","4","f","rechts","23","","","object","f","150","true"
"null","<div style=""font-size:60px;"">+</div>","null","html-keyboard-response","400","364208","0.0-6.0-0.197","REGA","4","f","rechts","23","","fixation","","","",""
"596","img/0_30.png","74","image-keyboard-response","401","364805","0.0-6.0-1.197","REGA","4","f","rechts","23","","","object","j","0","true"
"null","<div style=""font-size:60px;"">+</div>","null","html-keyboard-response","402","365310","0.0-6.0-0.198","REGA","4","f","rechts","23","","fixation","","","",""
"531","img/L150_180.png","70","image-keyboard-response","403","365841","0.0-6.0-1.198","REGA","4","f","rechts","23","","","object","j","150","false"
"null","<div style=""font-size:60px;"">+</div>","null","html-keyboard-response","404","366197","0.0-6.0-0.199","REGA","4","f","rechts","23","","fixation","","","",""
"614","img/0_150.png","74","image-keyboard-response","405","366811","0.0-6.0-1.199","REGA","4","f","rechts","23","","","object","j","0","true"
"null","<div style=""font-size:60px;"">+</div>","null","html-keyboard-response","406","367167","0.0-6.0-0.200","REGA","4","f","rechts","23","","fixation","","","",""
"915","img/30_60.png","74","image-keyboard-response","407","368083","0.0-6.0-1.200","REGA","4","f","rechts","23","","","object","j","30","true"
"null","<div style=""font-size:60px;"">+</div>","null","html-keyboard-response","408","368484","0.0-6.0-0.201","REGA","4","f","rechts","23","","fixation","","","",""
"595","img/0_240.png","70","image-keyboard-response","409","369079","0.0-6.0-1.201","REGA","4","f","rechts","23","","","object","f","0","true"
"null","<div style=""font-size:60px;"">+</div>","null","html-keyboard-response","410","369535","0.0-6.0-0.202","REGA","4","f","rechts","23","","fixation","","","",""
"987","img/60_270.png","70","image-keyboard-response","411","370522","0.0-6.0-1.202","REGA","4","f","rechts","23","","","object","f","60","true"
"null","<div style=""font-size:60px;"">+</div>","null","html-keyboard-response","412","370825","0.0-6.0-0.203","REGA","4","f","rechts","23","","fixation","","","",""
"613","img/0_120.png","74","image-keyboard-response","413","371439","0.0-6.0-1.203","REGA","4","f","rechts","23","","","object","j","0","true"
"null","<div style=""font-size:60px;"">+</div>","null","html-keyboard-response","414","371945","0.0-6.0-0.204","REGA","4","f","rechts","23","","fixation","","","",""
"1792","img/90_180.png","70","image-keyboard-response","415","373738","0.0-6.0-1.204","REGA","4","f","rechts","23","","","object","f","90","true"
"null","<div style=""font-size:60px;"">+</div>","null","html-keyboard-response","416","374092","0.0-6.0-0.205","REGA","4","f","rechts","23","","fixation","","","",""
"597","img/0_270.png","70","image-keyboard-response","417","374689","0.0-6.0-1.205","REGA","4","f","rechts","23","","","object","f","0","true"
"null","<div style=""font-size:60px;"">+</div>","null","html-keyboard-response","418","375194","0.0-6.0-0.206","REGA","4","f","rechts","23","","fixation","","","",""
"753","img/150_300.png","74","image-keyboard-response","419","375948","0.0-6.0-1.206","REGA","4","f","rechts","23","","","object","j","150","true"
"null","<div style=""font-size:60px;"">+</div>","null","html-keyboard-response","420","376401","0.0-6.0-0.207","REGA","4","f","rechts","23","","fixation","","","",""
"1199","img/150_90.png","70","image-keyboard-response","421","377601","0.0-6.0-1.207","REGA","4","f","rechts","23","","","object","f","150","true"
"3462","<p>Du hast in 91% der Versuche korrekt entschieden.</p><p>Deine durchschnittliche Reaktionszeit war  903ms.</p><p>Dr&uuml;cke eine beliebige Taste, um die Session zu beenden. Vielen Dank!</p>","70","html-keyboard-response","422","381065","0.0-7.0","REGA","4","f","rechts","23","","","","","",""
