"rt","stimulus","key_press","trial_type","trial_index","time_elapsed","internal_node_id","subject","session","sex","handedness","age","responses","test_part","condition","correct_response","angle","correct"
"2553","<p>Mental Rotation Experiment.</p> <p>Dr&uuml;cke eine beliebige Taste, um anzufangen.</p>","70","html-keyboard-response","0","2559","0.0-0.0","REGA","2","f","rechts","23","","","","","",""
"2225","","","survey-text","1","4786","0.0-1.0","REGA","2","f","rechts","23","{""Q0"":""REGA""}","","","","",""
"2076","","","survey-text","2","6863","0.0-2.0","REGA","2","f","rechts","23","{""Q0"":""2""}","","","","",""
"3560","","","survey-multi-choice","3","10426","0.0-3.0","REGA","2","f","rechts","23","{""Q0"":""f"",""Q1"":""rechts""}","","","","",""
"9039","","","survey-text","4","19466","0.0-4.0","REGA","2","f","rechts","23","{""Q0"":""23""}","","","","",""
"173664","<p>Stell dir vor, dass du vor einem runden Tisch stehst, auf dem sich ein blauer Ball am Tischrand befindet. Entlang des Tischrands ist jeweils ein verschieden langer Pfeil. Nun bleibst du an deinem Platz vor dem Tisch und rotierst den Tisch entlang des Pfeils (gleiche Richtung und Länge). </p> <img src='img/30_180.png'></img> <br><p> Nachdem du diese (vorgestellte) Rotation durchgef&uuml;hrt hast, schau in Richtung der Tischmitte, und entscheide dann, ob der Ball links oder rechts von dir liegt.</p> <p>Dr&uuml;cke die <strong>'f'</strong>-Taste f&uuml;r links, die <strong>'j'</strong>-Taste f&uuml;r rechts.</p><br><p> Das Bild wird jeweils 1 Sekunde lang pr&auml;sentiert. Du hast 3 Sekunden Zeit eine Entscheidung zu treffen.</p>","68","html-keyboard-response","5","193131","0.0-5.0","REGA","2","f","rechts","23","","","","","",""
"null","<div style=""font-size:60px;"">+</div>","null","html-keyboard-response","6","194640","0.0-6.0-0.0","REGA","2","f","rechts","23","","fixation","","","",""
"1394","img/150_180.png","70","image-keyboard-response","7","196037","0.0-6.0-1.0","REGA","2","f","rechts","23","","","object","f","150","true"
"null","<div style=""font-size:60px;"">+</div>","null","html-keyboard-response","8","196341","0.0-6.0-0.1","REGA","2","f","rechts","23","","fixation","","","",""
"1735","img/150_240.png","74","image-keyboard-response","9","198076","0.0-6.0-1.1","REGA","2","f","rechts","23","","","object","j","150","true"
"null","<div style=""font-size:60px;"">+</div>","null","html-keyboard-response","10","198477","0.0-6.0-0.2","REGA","2","f","rechts","23","","fixation","","","",""
"1163","img/60_150.png","74","image-keyboard-response","11","199640","0.0-6.0-1.2","REGA","2","f","rechts","23","","","object","j","60","true"
"null","<div style=""font-size:60px;"">+</div>","null","html-keyboard-response","12","199995","0.0-6.0-0.3","REGA","2","f","rechts","23","","fixation","","","",""
"1458","img/30_300.png","74","image-keyboard-response","13","201454","0.0-6.0-1.3","REGA","2","f","rechts","23","","","object","f","30","false"
"null","<div style=""font-size:60px;"">+</div>","null","html-keyboard-response","14","201759","0.0-6.0-0.4","REGA","2","f","rechts","23","","fixation","","","",""
"2040","img/L150_180.png","74","image-keyboard-response","15","203800","0.0-6.0-1.4","REGA","2","f","rechts","23","","","object","j","150","true"
"null","<div style=""font-size:60px;"">+</div>","null","html-keyboard-response","16","204103","0.0-6.0-0.5","REGA","2","f","rechts","23","","fixation","","","",""
"1099","img/60_210.png","70","image-keyboard-response","17","205203","0.0-6.0-1.5","REGA","2","f","rechts","23","","","object","f","60","true"
"null","<div style=""font-size:60px;"">+</div>","null","html-keyboard-response","18","205708","0.0-6.0-0.6","REGA","2","f","rechts","23","","fixation","","","",""
"1421","img/150_60.png","70","image-keyboard-response","19","207129","0.0-6.0-1.6","REGA","2","f","rechts","23","","","object","f","150","true"
"null","<div style=""font-size:60px;"">+</div>","null","html-keyboard-response","20","207533","0.0-6.0-0.7","REGA","2","f","rechts","23","","fixation","","","",""
"1286","img/120_270.png","74","image-keyboard-response","21","208820","0.0-6.0-1.7","REGA","2","f","rechts","23","","","object","j","120","true"
"null","<div style=""font-size:60px;"">+</div>","null","html-keyboard-response","22","209175","0.0-6.0-0.8","REGA","2","f","rechts","23","","fixation","","","",""
"917","img/90_330.png","74","image-keyboard-response","23","210093","0.0-6.0-1.8","REGA","2","f","rechts","23","","","object","j","90","true"
"null","<div style=""font-size:60px;"">+</div>","null","html-keyboard-response","24","210596","0.0-6.0-0.9","REGA","2","f","rechts","23","","fixation","","","",""
"1808","img/120_180.png","74","image-keyboard-response","25","212405","0.0-6.0-1.9","REGA","2","f","rechts","23","","","object","f","120","false"
"null","<div style=""font-size:60px;"">+</div>","null","html-keyboard-response","26","212860","0.0-6.0-0.10","REGA","2","f","rechts","23","","fixation","","","",""
"1462","img/L30_180.png","74","image-keyboard-response","27","214322","0.0-6.0-1.10","REGA","2","f","rechts","23","","","object","j","30","true"
"null","<div style=""font-size:60px;"">+</div>","null","html-keyboard-response","28","214775","0.0-6.0-0.11","REGA","2","f","rechts","23","","fixation","","","",""
"1176","img/L90_180.png","74","image-keyboard-response","29","215953","0.0-6.0-1.11","REGA","2","f","rechts","23","","","object","j","90","true"
"null","<div style=""font-size:60px;"">+</div>","null","html-keyboard-response","30","216304","0.0-6.0-0.12","REGA","2","f","rechts","23","","fixation","","","",""
"1257","img/120_150.png","70","image-keyboard-response","31","217561","0.0-6.0-1.12","REGA","2","f","rechts","23","","","object","j","120","false"
"null","<div style=""font-size:60px;"">+</div>","null","html-keyboard-response","32","217967","0.0-6.0-0.13","REGA","2","f","rechts","23","","fixation","","","",""
"1461","img/120_210.png","74","image-keyboard-response","33","219428","0.0-6.0-1.13","REGA","2","f","rechts","23","","","object","f","120","false"
"null","<div style=""font-size:60px;"">+</div>","null","html-keyboard-response","34","219832","0.0-6.0-0.14","REGA","2","f","rechts","23","","fixation","","","",""
"1279","img/150_120.png","70","image-keyboard-response","35","221111","0.0-6.0-1.14","REGA","2","f","rechts","23","","","object","f","150","true"
"null","<div style=""font-size:60px;"">+</div>","null","html-keyboard-response","36","221566","0.0-6.0-0.15","REGA","2","f","rechts","23","","fixation","","","",""
"855","img/0_150.png","74","image-keyboard-response","37","222422","0.0-6.0-1.15","REGA","2","f","rechts","23","","","object","j","0","true"
"null","<div style=""font-size:60px;"">+</div>","null","html-keyboard-response","38","222925","0.0-6.0-0.16","REGA","2","f","rechts","23","","fixation","","","",""
"1152","img/120_30.png","70","image-keyboard-response","39","224078","0.0-6.0-1.16","REGA","2","f","rechts","23","","","object","f","120","true"
"null","<div style=""font-size:60px;"">+</div>","null","html-keyboard-response","40","224434","0.0-6.0-0.17","REGA","2","f","rechts","23","","fixation","","","",""
"909","img/60_330.png","74","image-keyboard-response","41","225343","0.0-6.0-1.17","REGA","2","f","rechts","23","","","object","j","60","true"
"null","<div style=""font-size:60px;"">+</div>","null","html-keyboard-response","42","225648","0.0-6.0-0.18","REGA","2","f","rechts","23","","fixation","","","",""
"1199","img/30_90.png","74","image-keyboard-response","43","226847","0.0-6.0-1.18","REGA","2","f","rechts","23","","","object","j","30","true"
"null","<div style=""font-size:60px;"">+</div>","null","html-keyboard-response","44","227148","0.0-6.0-0.19","REGA","2","f","rechts","23","","fixation","","","",""
"798","img/0_330.png","70","image-keyboard-response","45","227946","0.0-6.0-1.19","REGA","2","f","rechts","23","","","object","f","0","true"
"null","<div style=""font-size:60px;"">+</div>","null","html-keyboard-response","46","228253","0.0-6.0-0.20","REGA","2","f","rechts","23","","fixation","","","",""
"1646","img/90_240.png","74","image-keyboard-response","47","229899","0.0-6.0-1.20","REGA","2","f","rechts","23","","","object","f","90","false"
"null","<div style=""font-size:60px;"">+</div>","null","html-keyboard-response","48","230403","0.0-6.0-0.21","REGA","2","f","rechts","23","","fixation","","","",""
"1114","img/90_30.png","70","image-keyboard-response","49","231520","0.0-6.0-1.21","REGA","2","f","rechts","23","","","object","f","90","true"
"null","<div style=""font-size:60px;"">+</div>","null","html-keyboard-response","50","231922","0.0-6.0-0.22","REGA","2","f","rechts","23","","fixation","","","",""
"729","img/0_240.png","70","image-keyboard-response","51","232652","0.0-6.0-1.22","REGA","2","f","rechts","23","","","object","f","0","true"
"null","<div style=""font-size:60px;"">+</div>","null","html-keyboard-response","52","233157","0.0-6.0-0.23","REGA","2","f","rechts","23","","fixation","","","",""
"1235","img/30_240.png","70","image-keyboard-response","53","234393","0.0-6.0-1.23","REGA","2","f","rechts","23","","","object","f","30","true"
"null","<div style=""font-size:60px;"">+</div>","null","html-keyboard-response","54","234799","0.0-6.0-0.24","REGA","2","f","rechts","23","","fixation","","","",""
"798","img/0_210.png","70","image-keyboard-response","55","235598","0.0-6.0-1.24","REGA","2","f","rechts","23","","","object","f","0","true"
"null","<div style=""font-size:60px;"">+</div>","null","html-keyboard-response","56","236051","0.0-6.0-0.25","REGA","2","f","rechts","23","","fixation","","","",""
"1070","img/L120_180.png","74","image-keyboard-response","57","237122","0.0-6.0-1.25","REGA","2","f","rechts","23","","","object","j","120","true"
"null","<div style=""font-size:60px;"">+</div>","null","html-keyboard-response","58","237574","0.0-6.0-0.26","REGA","2","f","rechts","23","","fixation","","","",""
"979","img/60_30.png","70","image-keyboard-response","59","238554","0.0-6.0-1.26","REGA","2","f","rechts","23","","","object","f","60","true"
"null","<div style=""font-size:60px;"">+</div>","null","html-keyboard-response","60","238859","0.0-6.0-0.27","REGA","2","f","rechts","23","","fixation","","","",""
"1464","img/60_90.png","74","image-keyboard-response","61","240324","0.0-6.0-1.27","REGA","2","f","rechts","23","","","object","j","60","true"
"null","<div style=""font-size:60px;"">+</div>","null","html-keyboard-response","62","240630","0.0-6.0-0.28","REGA","2","f","rechts","23","","fixation","","","",""
"1181","img/90_300.png","74","image-keyboard-response","63","241811","0.0-6.0-1.28","REGA","2","f","rechts","23","","","object","j","90","true"
"null","<div style=""font-size:60px;"">+</div>","null","html-keyboard-response","64","242268","0.0-6.0-0.29","REGA","2","f","rechts","23","","fixation","","","",""
"1616","img/90_120.png","74","image-keyboard-response","65","243884","0.0-6.0-1.29","REGA","2","f","rechts","23","","","object","j","90","true"
"null","<div style=""font-size:60px;"">+</div>","null","html-keyboard-response","66","244239","0.0-6.0-0.30","REGA","2","f","rechts","23","","fixation","","","",""
"914","img/120_330.png","74","image-keyboard-response","67","245153","0.0-6.0-1.30","REGA","2","f","rechts","23","","","object","j","120","true"
"null","<div style=""font-size:60px;"">+</div>","null","html-keyboard-response","68","245608","0.0-6.0-0.31","REGA","2","f","rechts","23","","fixation","","","",""
"739","img/0_90.png","74","image-keyboard-response","69","246351","0.0-6.0-1.31","REGA","2","f","rechts","23","","","object","j","0","true"
"null","<div style=""font-size:60px;"">+</div>","null","html-keyboard-response","70","246857","0.0-6.0-0.32","REGA","2","f","rechts","23","","fixation","","","",""
"1363","img/90_150.png","74","image-keyboard-response","71","248220","0.0-6.0-1.32","REGA","2","f","rechts","23","","","object","j","90","true"
"null","<div style=""font-size:60px;"">+</div>","null","html-keyboard-response","72","248673","0.0-6.0-0.33","REGA","2","f","rechts","23","","fixation","","","",""
"691","img/0_270.png","70","image-keyboard-response","73","249365","0.0-6.0-1.33","REGA","2","f","rechts","23","","","object","f","0","true"
"null","<div style=""font-size:60px;"">+</div>","null","html-keyboard-response","74","249771","0.0-6.0-0.34","REGA","2","f","rechts","23","","fixation","","","",""
"945","img/90_60.png","70","image-keyboard-response","75","250717","0.0-6.0-1.34","REGA","2","f","rechts","23","","","object","f","90","true"
"null","<div style=""font-size:60px;"">+</div>","null","html-keyboard-response","76","251222","0.0-6.0-0.35","REGA","2","f","rechts","23","","fixation","","","",""
"740","img/0_60.png","74","image-keyboard-response","77","251963","0.0-6.0-1.35","REGA","2","f","rechts","23","","","object","j","0","true"
"null","<div style=""font-size:60px;"">+</div>","null","html-keyboard-response","78","252417","0.0-6.0-0.36","REGA","2","f","rechts","23","","fixation","","","",""
"1518","img/30_180.png","70","image-keyboard-response","79","253936","0.0-6.0-1.36","REGA","2","f","rechts","23","","","object","f","30","true"
"null","<div style=""font-size:60px;"">+</div>","null","html-keyboard-response","80","254391","0.0-6.0-0.37","REGA","2","f","rechts","23","","fixation","","","",""
"1075","img/120_90.png","70","image-keyboard-response","81","255466","0.0-6.0-1.37","REGA","2","f","rechts","23","","","object","f","120","true"
"null","<div style=""font-size:60px;"">+</div>","null","html-keyboard-response","82","255969","0.0-6.0-0.38","REGA","2","f","rechts","23","","fixation","","","",""
"915","img/30_120.png","74","image-keyboard-response","83","256884","0.0-6.0-1.38","REGA","2","f","rechts","23","","","object","j","30","true"
"null","<div style=""font-size:60px;"">+</div>","null","html-keyboard-response","84","257287","0.0-6.0-0.39","REGA","2","f","rechts","23","","fixation","","","",""
"1428","img/90_180.png","70","image-keyboard-response","85","258715","0.0-6.0-1.39","REGA","2","f","rechts","23","","","object","f","90","true"
"null","<div style=""font-size:60px;"">+</div>","null","html-keyboard-response","86","259121","0.0-6.0-0.40","REGA","2","f","rechts","23","","fixation","","","",""
"1324","img/30_60.png","74","image-keyboard-response","87","260445","0.0-6.0-1.40","REGA","2","f","rechts","23","","","object","j","30","true"
"null","<div style=""font-size:60px;"">+</div>","null","html-keyboard-response","88","260751","0.0-6.0-0.41","REGA","2","f","rechts","23","","fixation","","","",""
"1379","img/90_210.png","70","image-keyboard-response","89","262130","0.0-6.0-1.41","REGA","2","f","rechts","23","","","object","f","90","true"
"null","<div style=""font-size:60px;"">+</div>","null","html-keyboard-response","90","262632","0.0-6.0-0.42","REGA","2","f","rechts","23","","fixation","","","",""
"983","img/150_270.png","74","image-keyboard-response","91","263615","0.0-6.0-1.42","REGA","2","f","rechts","23","","","object","j","150","true"
"null","<div style=""font-size:60px;"">+</div>","null","html-keyboard-response","92","264072","0.0-6.0-0.43","REGA","2","f","rechts","23","","fixation","","","",""
"1958","img/150_300.png","74","image-keyboard-response","93","266030","0.0-6.0-1.43","REGA","2","f","rechts","23","","","object","j","150","true"
"null","<div style=""font-size:60px;"">+</div>","null","html-keyboard-response","94","266485","0.0-6.0-0.44","REGA","2","f","rechts","23","","fixation","","","",""
"1877","img/60_180.png","70","image-keyboard-response","95","268362","0.0-6.0-1.44","REGA","2","f","rechts","23","","","object","f","60","true"
"null","<div style=""font-size:60px;"">+</div>","null","html-keyboard-response","96","268814","0.0-6.0-0.45","REGA","2","f","rechts","23","","fixation","","","",""
"744","img/0_300.png","70","image-keyboard-response","97","269560","0.0-6.0-1.45","REGA","2","f","rechts","23","","","object","f","0","true"
"null","<div style=""font-size:60px;"">+</div>","null","html-keyboard-response","98","269967","0.0-6.0-0.46","REGA","2","f","rechts","23","","fixation","","","",""
"681","img/0_120.png","74","image-keyboard-response","99","270648","0.0-6.0-1.46","REGA","2","f","rechts","23","","","object","j","0","true"
"null","<div style=""font-size:60px;"">+</div>","null","html-keyboard-response","100","271154","0.0-6.0-0.47","REGA","2","f","rechts","23","","fixation","","","",""
"1078","img/60_270.png","74","image-keyboard-response","101","272233","0.0-6.0-1.47","REGA","2","f","rechts","23","","","object","f","60","false"
"null","<div style=""font-size:60px;"">+</div>","null","html-keyboard-response","102","272634","0.0-6.0-0.48","REGA","2","f","rechts","23","","fixation","","","",""
"1655","img/L60_180.png","74","image-keyboard-response","103","274289","0.0-6.0-1.48","REGA","2","f","rechts","23","","","object","j","60","true"
"null","<div style=""font-size:60px;"">+</div>","null","html-keyboard-response","104","274741","0.0-6.0-0.49","REGA","2","f","rechts","23","","fixation","","","",""
"756","img/0_30.png","74","image-keyboard-response","105","275497","0.0-6.0-1.49","REGA","2","f","rechts","23","","","object","j","0","true"
"null","<div style=""font-size:60px;"">+</div>","null","html-keyboard-response","106","275853","0.0-6.0-0.50","REGA","2","f","rechts","23","","fixation","","","",""
"1319","img/150_90.png","70","image-keyboard-response","107","277172","0.0-6.0-1.50","REGA","2","f","rechts","23","","","object","f","150","true"
"null","<div style=""font-size:60px;"">+</div>","null","html-keyboard-response","108","277527","0.0-6.0-0.51","REGA","2","f","rechts","23","","fixation","","","",""
"1630","img/30_270.png","74","image-keyboard-response","109","279158","0.0-6.0-1.51","REGA","2","f","rechts","23","","","object","f","30","false"
"null","<div style=""font-size:60px;"">+</div>","null","html-keyboard-response","110","279460","0.0-6.0-0.52","REGA","2","f","rechts","23","","fixation","","","",""
"1582","img/120_150.png","70","image-keyboard-response","111","281043","0.0-6.0-1.52","REGA","2","f","rechts","23","","","object","j","120","false"
"null","<div style=""font-size:60px;"">+</div>","null","html-keyboard-response","112","281444","0.0-6.0-0.53","REGA","2","f","rechts","23","","fixation","","","",""
"867","img/120_30.png","70","image-keyboard-response","113","282312","0.0-6.0-1.53","REGA","2","f","rechts","23","","","object","f","120","true"
"null","<div style=""font-size:60px;"">+</div>","null","html-keyboard-response","114","282763","0.0-6.0-0.54","REGA","2","f","rechts","23","","fixation","","","",""
"1486","img/30_270.png","70","image-keyboard-response","115","284249","0.0-6.0-1.54","REGA","2","f","rechts","23","","","object","f","30","true"
"null","<div style=""font-size:60px;"">+</div>","null","html-keyboard-response","116","284753","0.0-6.0-0.55","REGA","2","f","rechts","23","","fixation","","","",""
"1143","img/30_180.png","70","image-keyboard-response","117","285896","0.0-6.0-1.55","REGA","2","f","rechts","23","","","object","f","30","true"
"null","<div style=""font-size:60px;"">+</div>","null","html-keyboard-response","118","286248","0.0-6.0-0.56","REGA","2","f","rechts","23","","fixation","","","",""
"928","img/120_330.png","74","image-keyboard-response","119","287177","0.0-6.0-1.56","REGA","2","f","rechts","23","","","object","j","120","true"
"null","<div style=""font-size:60px;"">+</div>","null","html-keyboard-response","120","287533","0.0-6.0-0.57","REGA","2","f","rechts","23","","fixation","","","",""
"1472","img/L150_180.png","74","image-keyboard-response","121","289006","0.0-6.0-1.57","REGA","2","f","rechts","23","","","object","j","150","true"
"null","<div style=""font-size:60px;"">+</div>","null","html-keyboard-response","122","289512","0.0-6.0-0.58","REGA","2","f","rechts","23","","fixation","","","",""
"1234","img/90_240.png","70","image-keyboard-response","123","290747","0.0-6.0-1.58","REGA","2","f","rechts","23","","","object","f","90","true"
"null","<div style=""font-size:60px;"">+</div>","null","html-keyboard-response","124","291203","0.0-6.0-0.59","REGA","2","f","rechts","23","","fixation","","","",""
"898","img/90_60.png","70","image-keyboard-response","125","292101","0.0-6.0-1.59","REGA","2","f","rechts","23","","","object","f","90","true"
"null","<div style=""font-size:60px;"">+</div>","null","html-keyboard-response","126","292555","0.0-6.0-0.60","REGA","2","f","rechts","23","","fixation","","","",""
"1416","img/120_90.png","70","image-keyboard-response","127","293971","0.0-6.0-1.60","REGA","2","f","rechts","23","","","object","f","120","true"
"null","<div style=""font-size:60px;"">+</div>","null","html-keyboard-response","128","294324","0.0-6.0-0.61","REGA","2","f","rechts","23","","fixation","","","",""
"791","img/90_330.png","74","image-keyboard-response","129","295118","0.0-6.0-1.61","REGA","2","f","rechts","23","","","object","j","90","true"
"null","<div style=""font-size:60px;"">+</div>","null","html-keyboard-response","130","295523","0.0-6.0-0.62","REGA","2","f","rechts","23","","fixation","","","",""
"798","img/0_90.png","74","image-keyboard-response","131","296322","0.0-6.0-1.62","REGA","2","f","rechts","23","","","object","j","0","true"
"null","<div style=""font-size:60px;"">+</div>","null","html-keyboard-response","132","296826","0.0-6.0-0.63","REGA","2","f","rechts","23","","fixation","","","",""
"1805","img/120_210.png","70","image-keyboard-response","133","298633","0.0-6.0-1.63","REGA","2","f","rechts","23","","","object","f","120","true"
"null","<div style=""font-size:60px;"">+</div>","null","html-keyboard-response","134","298986","0.0-6.0-0.64","REGA","2","f","rechts","23","","fixation","","","",""
"651","img/0_30.png","74","image-keyboard-response","135","299637","0.0-6.0-1.64","REGA","2","f","rechts","23","","","object","j","0","true"
"null","<div style=""font-size:60px;"">+</div>","null","html-keyboard-response","136","300140","0.0-6.0-0.65","REGA","2","f","rechts","23","","fixation","","","",""
"1527","img/L60_180.png","74","image-keyboard-response","137","301669","0.0-6.0-1.65","REGA","2","f","rechts","23","","","object","j","60","true"
"null","<div style=""font-size:60px;"">+</div>","null","html-keyboard-response","138","302021","0.0-6.0-0.66","REGA","2","f","rechts","23","","fixation","","","",""
"1215","img/150_120.png","70","image-keyboard-response","139","303238","0.0-6.0-1.66","REGA","2","f","rechts","23","","","object","f","150","true"
"null","<div style=""font-size:60px;"">+</div>","null","html-keyboard-response","140","303690","0.0-6.0-0.67","REGA","2","f","rechts","23","","fixation","","","",""
"1239","img/L30_180.png","74","image-keyboard-response","141","304930","0.0-6.0-1.67","REGA","2","f","rechts","23","","","object","j","30","true"
"null","<div style=""font-size:60px;"">+</div>","null","html-keyboard-response","142","305231","0.0-6.0-0.68","REGA","2","f","rechts","23","","fixation","","","",""
"1557","img/90_150.png","74","image-keyboard-response","143","306789","0.0-6.0-1.68","REGA","2","f","rechts","23","","","object","j","90","true"
"null","<div style=""font-size:60px;"">+</div>","null","html-keyboard-response","144","307192","0.0-6.0-0.69","REGA","2","f","rechts","23","","fixation","","","",""
"856","img/90_30.png","70","image-keyboard-response","145","308049","0.0-6.0-1.69","REGA","2","f","rechts","23","","","object","f","90","true"
"null","<div style=""font-size:60px;"">+</div>","null","html-keyboard-response","146","308552","0.0-6.0-0.70","REGA","2","f","rechts","23","","fixation","","","",""
"1520","img/90_210.png","74","image-keyboard-response","147","310072","0.0-6.0-1.70","REGA","2","f","rechts","23","","","object","f","90","false"
"null","<div style=""font-size:60px;"">+</div>","null","html-keyboard-response","148","310575","0.0-6.0-0.71","REGA","2","f","rechts","23","","fixation","","","",""
"892","img/150_270.png","74","image-keyboard-response","149","311467","0.0-6.0-1.71","REGA","2","f","rechts","23","","","object","j","150","true"
"null","<div style=""font-size:60px;"">+</div>","null","html-keyboard-response","150","311773","0.0-6.0-0.72","REGA","2","f","rechts","23","","fixation","","","",""
"1136","img/150_60.png","70","image-keyboard-response","151","312910","0.0-6.0-1.72","REGA","2","f","rechts","23","","","object","f","150","true"
"null","<div style=""font-size:60px;"">+</div>","null","html-keyboard-response","152","313362","0.0-6.0-0.73","REGA","2","f","rechts","23","","fixation","","","",""
"2140","img/120_180.png","70","image-keyboard-response","153","315504","0.0-6.0-1.73","REGA","2","f","rechts","23","","","object","f","120","true"
"null","<div style=""font-size:60px;"">+</div>","null","html-keyboard-response","154","315807","0.0-6.0-0.74","REGA","2","f","rechts","23","","fixation","","","",""
"1252","img/30_240.png","70","image-keyboard-response","155","317059","0.0-6.0-1.74","REGA","2","f","rechts","23","","","object","f","30","true"
"null","<div style=""font-size:60px;"">+</div>","null","html-keyboard-response","156","317514","0.0-6.0-0.75","REGA","2","f","rechts","23","","fixation","","","",""
"1475","img/30_60.png","74","image-keyboard-response","157","318989","0.0-6.0-1.75","REGA","2","f","rechts","23","","","object","j","30","true"
"null","<div style=""font-size:60px;"">+</div>","null","html-keyboard-response","158","319294","0.0-6.0-0.76","REGA","2","f","rechts","23","","fixation","","","",""
"2033","img/L120_180.png","74","image-keyboard-response","159","321329","0.0-6.0-1.76","REGA","2","f","rechts","23","","","object","j","120","true"
"null","<div style=""font-size:60px;"">+</div>","null","html-keyboard-response","160","321635","0.0-6.0-0.77","REGA","2","f","rechts","23","","fixation","","","",""
"895","img/90_300.png","74","image-keyboard-response","161","322530","0.0-6.0-1.77","REGA","2","f","rechts","23","","","object","j","90","true"
"null","<div style=""font-size:60px;"">+</div>","null","html-keyboard-response","162","322936","0.0-6.0-0.78","REGA","2","f","rechts","23","","fixation","","","",""
"1121","img/60_210.png","70","image-keyboard-response","163","324058","0.0-6.0-1.78","REGA","2","f","rechts","23","","","object","f","60","true"
"null","<div style=""font-size:60px;"">+</div>","null","html-keyboard-response","164","324565","0.0-6.0-0.79","REGA","2","f","rechts","23","","fixation","","","",""
"1076","img/90_180.png","70","image-keyboard-response","165","325642","0.0-6.0-1.79","REGA","2","f","rechts","23","","","object","f","90","true"
"null","<div style=""font-size:60px;"">+</div>","null","html-keyboard-response","166","325948","0.0-6.0-0.80","REGA","2","f","rechts","23","","fixation","","","",""
"859","img/60_180.png","70","image-keyboard-response","167","326807","0.0-6.0-1.80","REGA","2","f","rechts","23","","","object","f","60","true"
"null","<div style=""font-size:60px;"">+</div>","null","html-keyboard-response","168","327108","0.0-6.0-0.81","REGA","2","f","rechts","23","","fixation","","","",""
"1248","img/60_270.png","70","image-keyboard-response","169","328357","0.0-6.0-1.81","REGA","2","f","rechts","23","","","object","f","60","true"
"null","<div style=""font-size:60px;"">+</div>","null","html-keyboard-response","170","328860","0.0-6.0-0.82","REGA","2","f","rechts","23","","fixation","","","",""
"850","img/30_90.png","70","image-keyboard-response","171","329712","0.0-6.0-1.82","REGA","2","f","rechts","23","","","object","j","30","false"
"null","<div style=""font-size:60px;"">+</div>","null","html-keyboard-response","172","330213","0.0-6.0-0.83","REGA","2","f","rechts","23","","fixation","","","",""
"671","img/0_120.png","74","image-keyboard-response","173","330886","0.0-6.0-1.83","REGA","2","f","rechts","23","","","object","j","0","true"
"null","<div style=""font-size:60px;"">+</div>","null","html-keyboard-response","174","331241","0.0-6.0-0.84","REGA","2","f","rechts","23","","fixation","","","",""
"1537","img/90_120.png","74","image-keyboard-response","175","332778","0.0-6.0-1.84","REGA","2","f","rechts","23","","","object","j","90","true"
"null","<div style=""font-size:60px;"">+</div>","null","html-keyboard-response","176","333234","0.0-6.0-0.85","REGA","2","f","rechts","23","","fixation","","","",""
"1096","img/150_90.png","70","image-keyboard-response","177","334331","0.0-6.0-1.85","REGA","2","f","rechts","23","","","object","f","150","true"
"null","<div style=""font-size:60px;"">+</div>","null","html-keyboard-response","178","334636","0.0-6.0-0.86","REGA","2","f","rechts","23","","fixation","","","",""
"859","img/60_30.png","70","image-keyboard-response","179","335496","0.0-6.0-1.86","REGA","2","f","rechts","23","","","object","f","60","true"
"null","<div style=""font-size:60px;"">+</div>","null","html-keyboard-response","180","336000","0.0-6.0-0.87","REGA","2","f","rechts","23","","fixation","","","",""
"688","img/0_210.png","70","image-keyboard-response","181","336690","0.0-6.0-1.87","REGA","2","f","rechts","23","","","object","f","0","true"
"null","<div style=""font-size:60px;"">+</div>","null","html-keyboard-response","182","337196","0.0-6.0-0.88","REGA","2","f","rechts","23","","fixation","","","",""
"942","img/30_120.png","74","image-keyboard-response","183","338138","0.0-6.0-1.88","REGA","2","f","rechts","23","","","object","j","30","true"
"null","<div style=""font-size:60px;"">+</div>","null","html-keyboard-response","184","338490","0.0-6.0-0.89","REGA","2","f","rechts","23","","fixation","","","",""
"706","img/0_330.png","70","image-keyboard-response","185","339196","0.0-6.0-1.89","REGA","2","f","rechts","23","","","object","f","0","true"
"null","<div style=""font-size:60px;"">+</div>","null","html-keyboard-response","186","339599","0.0-6.0-0.90","REGA","2","f","rechts","23","","fixation","","","",""
"732","img/0_240.png","70","image-keyboard-response","187","340332","0.0-6.0-1.90","REGA","2","f","rechts","23","","","object","f","0","true"
"null","<div style=""font-size:60px;"">+</div>","null","html-keyboard-response","188","340835","0.0-6.0-0.91","REGA","2","f","rechts","23","","fixation","","","",""
"1123","img/120_270.png","74","image-keyboard-response","189","341958","0.0-6.0-1.91","REGA","2","f","rechts","23","","","object","j","120","true"
"null","<div style=""font-size:60px;"">+</div>","null","html-keyboard-response","190","342264","0.0-6.0-0.92","REGA","2","f","rechts","23","","fixation","","","",""
"1026","img/150_240.png","74","image-keyboard-response","191","343290","0.0-6.0-1.92","REGA","2","f","rechts","23","","","object","j","150","true"
"null","<div style=""font-size:60px;"">+</div>","null","html-keyboard-response","192","343596","0.0-6.0-0.93","REGA","2","f","rechts","23","","fixation","","","",""
"1086","img/60_90.png","70","image-keyboard-response","193","344682","0.0-6.0-1.93","REGA","2","f","rechts","23","","","object","j","60","false"
"null","<div style=""font-size:60px;"">+</div>","null","html-keyboard-response","194","344988","0.0-6.0-0.94","REGA","2","f","rechts","23","","fixation","","","",""
"1375","img/30_300.png","70","image-keyboard-response","195","346363","0.0-6.0-1.94","REGA","2","f","rechts","23","","","object","f","30","true"
"null","<div style=""font-size:60px;"">+</div>","null","html-keyboard-response","196","346669","0.0-6.0-0.95","REGA","2","f","rechts","23","","fixation","","","",""
"1429","img/L90_180.png","74","image-keyboard-response","197","348098","0.0-6.0-1.95","REGA","2","f","rechts","23","","","object","j","90","true"
"null","<div style=""font-size:60px;"">+</div>","null","html-keyboard-response","198","348602","0.0-6.0-0.96","REGA","2","f","rechts","23","","fixation","","","",""
"970","img/60_330.png","74","image-keyboard-response","199","349574","0.0-6.0-1.96","REGA","2","f","rechts","23","","","object","j","60","true"
"null","<div style=""font-size:60px;"">+</div>","null","html-keyboard-response","200","350030","0.0-6.0-0.97","REGA","2","f","rechts","23","","fixation","","","",""
"959","img/60_150.png","74","image-keyboard-response","201","350989","0.0-6.0-1.97","REGA","2","f","rechts","23","","","object","j","60","true"
"null","<div style=""font-size:60px;"">+</div>","null","html-keyboard-response","202","351296","0.0-6.0-0.98","REGA","2","f","rechts","23","","fixation","","","",""
"691","img/0_300.png","70","image-keyboard-response","203","351987","0.0-6.0-1.98","REGA","2","f","rechts","23","","","object","f","0","true"
"null","<div style=""font-size:60px;"">+</div>","null","html-keyboard-response","204","352493","0.0-6.0-0.99","REGA","2","f","rechts","23","","fixation","","","",""
"734","img/0_60.png","74","image-keyboard-response","205","353227","0.0-6.0-1.99","REGA","2","f","rechts","23","","","object","j","0","true"
"null","<div style=""font-size:60px;"">+</div>","null","html-keyboard-response","206","353583","0.0-6.0-0.100","REGA","2","f","rechts","23","","fixation","","","",""
"1757","img/150_180.png","70","image-keyboard-response","207","355340","0.0-6.0-1.100","REGA","2","f","rechts","23","","","object","f","150","true"
"null","<div style=""font-size:60px;"">+</div>","null","html-keyboard-response","208","355793","0.0-6.0-0.101","REGA","2","f","rechts","23","","fixation","","","",""
"698","img/0_270.png","70","image-keyboard-response","209","356491","0.0-6.0-1.101","REGA","2","f","rechts","23","","","object","f","0","true"
"null","<div style=""font-size:60px;"">+</div>","null","html-keyboard-response","210","356996","0.0-6.0-0.102","REGA","2","f","rechts","23","","fixation","","","",""
"824","img/0_150.png","74","image-keyboard-response","211","357820","0.0-6.0-1.102","REGA","2","f","rechts","23","","","object","j","0","true"
"null","<div style=""font-size:60px;"">+</div>","null","html-keyboard-response","212","358225","0.0-6.0-0.103","REGA","2","f","rechts","23","","fixation","","","",""
"1223","img/150_300.png","74","image-keyboard-response","213","359449","0.0-6.0-1.103","REGA","2","f","rechts","23","","","object","j","150","true"
"null","<div style=""font-size:60px;"">+</div>","null","html-keyboard-response","214","359955","0.0-6.0-0.104","REGA","2","f","rechts","23","","fixation","","","",""
"1944","img/60_150.png","74","image-keyboard-response","215","361899","0.0-6.0-1.104","REGA","2","f","rechts","23","","","object","j","60","true"
"null","<div style=""font-size:60px;"">+</div>","null","html-keyboard-response","216","362255","0.0-6.0-0.105","REGA","2","f","rechts","23","","fixation","","","",""
"1996","img/90_210.png","70","image-keyboard-response","217","364252","0.0-6.0-1.105","REGA","2","f","rechts","23","","","object","f","90","true"
"null","<div style=""font-size:60px;"">+</div>","null","html-keyboard-response","218","364557","0.0-6.0-0.106","REGA","2","f","rechts","23","","fixation","","","",""
"2010","img/90_180.png","70","image-keyboard-response","219","366569","0.0-6.0-1.106","REGA","2","f","rechts","23","","","object","f","90","true"
"null","<div style=""font-size:60px;"">+</div>","null","html-keyboard-response","220","366874","0.0-6.0-0.107","REGA","2","f","rechts","23","","fixation","","","",""
"1622","img/150_90.png","70","image-keyboard-response","221","368497","0.0-6.0-1.107","REGA","2","f","rechts","23","","","object","f","150","true"
"null","<div style=""font-size:60px;"">+</div>","null","html-keyboard-response","222","368848","0.0-6.0-0.108","REGA","2","f","rechts","23","","fixation","","","",""
"903","img/0_240.png","70","image-keyboard-response","223","369752","0.0-6.0-1.108","REGA","2","f","rechts","23","","","object","f","0","true"
"null","<div style=""font-size:60px;"">+</div>","null","html-keyboard-response","224","370257","0.0-6.0-0.109","REGA","2","f","rechts","23","","fixation","","","",""
"2008","img/150_180.png","70","image-keyboard-response","225","372267","0.0-6.0-1.109","REGA","2","f","rechts","23","","","object","f","150","true"
"null","<div style=""font-size:60px;"">+</div>","null","html-keyboard-response","226","372719","0.0-6.0-0.110","REGA","2","f","rechts","23","","fixation","","","",""
"1376","img/L120_180.png","74","image-keyboard-response","227","374096","0.0-6.0-1.110","REGA","2","f","rechts","23","","","object","j","120","true"
"null","<div style=""font-size:60px;"">+</div>","null","html-keyboard-response","228","374449","0.0-6.0-0.111","REGA","2","f","rechts","23","","fixation","","","",""
"935","img/120_330.png","74","image-keyboard-response","229","375386","0.0-6.0-1.111","REGA","2","f","rechts","23","","","object","j","120","true"
"null","<div style=""font-size:60px;"">+</div>","null","html-keyboard-response","230","375888","0.0-6.0-0.112","REGA","2","f","rechts","23","","fixation","","","",""
"672","img/0_30.png","74","image-keyboard-response","231","376562","0.0-6.0-1.112","REGA","2","f","rechts","23","","","object","j","0","true"
"null","<div style=""font-size:60px;"">+</div>","null","html-keyboard-response","232","376964","0.0-6.0-0.113","REGA","2","f","rechts","23","","fixation","","","",""
"1079","img/30_270.png","70","image-keyboard-response","233","378045","0.0-6.0-1.113","REGA","2","f","rechts","23","","","object","f","30","true"
"null","<div style=""font-size:60px;"">+</div>","null","html-keyboard-response","234","378349","0.0-6.0-0.114","REGA","2","f","rechts","23","","fixation","","","",""
"1273","img/30_300.png","70","image-keyboard-response","235","379622","0.0-6.0-1.114","REGA","2","f","rechts","23","","","object","f","30","true"
"null","<div style=""font-size:60px;"">+</div>","null","html-keyboard-response","236","380128","0.0-6.0-0.115","REGA","2","f","rechts","23","","fixation","","","",""
"1080","img/90_30.png","70","image-keyboard-response","237","381210","0.0-6.0-1.115","REGA","2","f","rechts","23","","","object","f","90","true"
"null","<div style=""font-size:60px;"">+</div>","null","html-keyboard-response","238","381612","0.0-6.0-0.116","REGA","2","f","rechts","23","","fixation","","","",""
"1867","img/90_120.png","74","image-keyboard-response","239","383480","0.0-6.0-1.116","REGA","2","f","rechts","23","","","object","j","90","true"
"null","<div style=""font-size:60px;"">+</div>","null","html-keyboard-response","240","383933","0.0-6.0-0.117","REGA","2","f","rechts","23","","fixation","","","",""
"816","img/60_330.png","74","image-keyboard-response","241","384749","0.0-6.0-1.117","REGA","2","f","rechts","23","","","object","j","60","true"
"null","<div style=""font-size:60px;"">+</div>","null","html-keyboard-response","242","385152","0.0-6.0-0.118","REGA","2","f","rechts","23","","fixation","","","",""
"1704","img/60_90.png","74","image-keyboard-response","243","386857","0.0-6.0-1.118","REGA","2","f","rechts","23","","","object","j","60","true"
"null","<div style=""font-size:60px;"">+</div>","null","html-keyboard-response","244","387211","0.0-6.0-0.119","REGA","2","f","rechts","23","","fixation","","","",""
"785","img/0_150.png","74","image-keyboard-response","245","387998","0.0-6.0-1.119","REGA","2","f","rechts","23","","","object","j","0","true"
"null","<div style=""font-size:60px;"">+</div>","null","html-keyboard-response","246","388355","0.0-6.0-0.120","REGA","2","f","rechts","23","","fixation","","","",""
"682","img/0_330.png","70","image-keyboard-response","247","389037","0.0-6.0-1.120","REGA","2","f","rechts","23","","","object","f","0","true"
"null","<div style=""font-size:60px;"">+</div>","null","html-keyboard-response","248","389540","0.0-6.0-0.121","REGA","2","f","rechts","23","","fixation","","","",""
"985","img/30_90.png","74","image-keyboard-response","249","390526","0.0-6.0-1.121","REGA","2","f","rechts","23","","","object","j","30","true"
"null","<div style=""font-size:60px;"">+</div>","null","html-keyboard-response","250","390927","0.0-6.0-0.122","REGA","2","f","rechts","23","","fixation","","","",""
"1492","img/90_150.png","74","image-keyboard-response","251","392419","0.0-6.0-1.122","REGA","2","f","rechts","23","","","object","j","90","true"
"null","<div style=""font-size:60px;"">+</div>","null","html-keyboard-response","252","392871","0.0-6.0-0.123","REGA","2","f","rechts","23","","fixation","","","",""
"984","img/150_60.png","70","image-keyboard-response","253","393855","0.0-6.0-1.123","REGA","2","f","rechts","23","","","object","f","150","true"
"null","<div style=""font-size:60px;"">+</div>","null","html-keyboard-response","254","394207","0.0-6.0-0.124","REGA","2","f","rechts","23","","fixation","","","",""
"1005","img/120_270.png","74","image-keyboard-response","255","395214","0.0-6.0-1.124","REGA","2","f","rechts","23","","","object","j","120","true"
"null","<div style=""font-size:60px;"">+</div>","null","html-keyboard-response","256","395716","0.0-6.0-0.125","REGA","2","f","rechts","23","","fixation","","","",""
"1114","img/30_60.png","74","image-keyboard-response","257","396831","0.0-6.0-1.125","REGA","2","f","rechts","23","","","object","j","30","true"
"null","<div style=""font-size:60px;"">+</div>","null","html-keyboard-response","258","397185","0.0-6.0-0.126","REGA","2","f","rechts","23","","fixation","","","",""
"1696","img/120_210.png","74","image-keyboard-response","259","398882","0.0-6.0-1.126","REGA","2","f","rechts","23","","","object","f","120","false"
"null","<div style=""font-size:60px;"">+</div>","null","html-keyboard-response","260","399186","0.0-6.0-0.127","REGA","2","f","rechts","23","","fixation","","","",""
"1009","img/60_270.png","70","image-keyboard-response","261","400196","0.0-6.0-1.127","REGA","2","f","rechts","23","","","object","f","60","true"
"null","<div style=""font-size:60px;"">+</div>","null","html-keyboard-response","262","400552","0.0-6.0-0.128","REGA","2","f","rechts","23","","fixation","","","",""
"640","img/0_270.png","70","image-keyboard-response","263","401192","0.0-6.0-1.128","REGA","2","f","rechts","23","","","object","f","0","true"
"null","<div style=""font-size:60px;"">+</div>","null","html-keyboard-response","264","401647","0.0-6.0-0.129","REGA","2","f","rechts","23","","fixation","","","",""
"683","img/0_120.png","74","image-keyboard-response","265","402331","0.0-6.0-1.129","REGA","2","f","rechts","23","","","object","j","0","true"
"null","<div style=""font-size:60px;"">+</div>","null","html-keyboard-response","266","402734","0.0-6.0-0.130","REGA","2","f","rechts","23","","fixation","","","",""
"838","img/60_30.png","70","image-keyboard-response","267","403573","0.0-6.0-1.130","REGA","2","f","rechts","23","","","object","f","60","true"
"null","<div style=""font-size:60px;"">+</div>","null","html-keyboard-response","268","403925","0.0-6.0-0.131","REGA","2","f","rechts","23","","fixation","","","",""
"865","img/90_60.png","70","image-keyboard-response","269","404790","0.0-6.0-1.131","REGA","2","f","rechts","23","","","object","f","90","true"
"null","<div style=""font-size:60px;"">+</div>","null","html-keyboard-response","270","405146","0.0-6.0-0.132","REGA","2","f","rechts","23","","fixation","","","",""
"816","img/90_330.png","74","image-keyboard-response","271","405963","0.0-6.0-1.132","REGA","2","f","rechts","23","","","object","j","90","true"
"null","<div style=""font-size:60px;"">+</div>","null","html-keyboard-response","272","406367","0.0-6.0-0.133","REGA","2","f","rechts","23","","fixation","","","",""
"741","img/0_90.png","74","image-keyboard-response","273","407108","0.0-6.0-1.133","REGA","2","f","rechts","23","","","object","j","0","true"
"null","<div style=""font-size:60px;"">+</div>","null","html-keyboard-response","274","407464","0.0-6.0-0.134","REGA","2","f","rechts","23","","fixation","","","",""
"931","img/30_240.png","70","image-keyboard-response","275","408395","0.0-6.0-1.134","REGA","2","f","rechts","23","","","object","f","30","true"
"null","<div style=""font-size:60px;"">+</div>","null","html-keyboard-response","276","408897","0.0-6.0-0.135","REGA","2","f","rechts","23","","fixation","","","",""
"1229","img/60_180.png","70","image-keyboard-response","277","410128","0.0-6.0-1.135","REGA","2","f","rechts","23","","","object","f","60","true"
"null","<div style=""font-size:60px;"">+</div>","null","html-keyboard-response","278","410582","0.0-6.0-0.136","REGA","2","f","rechts","23","","fixation","","","",""
"1210","img/90_240.png","70","image-keyboard-response","279","411792","0.0-6.0-1.136","REGA","2","f","rechts","23","","","object","f","90","true"
"null","<div style=""font-size:60px;"">+</div>","null","html-keyboard-response","280","412144","0.0-6.0-0.137","REGA","2","f","rechts","23","","fixation","","","",""
"916","img/150_300.png","74","image-keyboard-response","281","413061","0.0-6.0-1.137","REGA","2","f","rechts","23","","","object","j","150","true"
"null","<div style=""font-size:60px;"">+</div>","null","html-keyboard-response","282","413564","0.0-6.0-0.138","REGA","2","f","rechts","23","","fixation","","","",""
"1106","img/30_180.png","70","image-keyboard-response","283","414671","0.0-6.0-1.138","REGA","2","f","rechts","23","","","object","f","30","true"
"null","<div style=""font-size:60px;"">+</div>","null","html-keyboard-response","284","415074","0.0-6.0-0.139","REGA","2","f","rechts","23","","fixation","","","",""
"997","img/90_300.png","74","image-keyboard-response","285","416072","0.0-6.0-1.139","REGA","2","f","rechts","23","","","object","j","90","true"
"null","<div style=""font-size:60px;"">+</div>","null","html-keyboard-response","286","416524","0.0-6.0-0.140","REGA","2","f","rechts","23","","fixation","","","",""
"1106","img/120_180.png","70","image-keyboard-response","287","417631","0.0-6.0-1.140","REGA","2","f","rechts","23","","","object","f","120","true"
"null","<div style=""font-size:60px;"">+</div>","null","html-keyboard-response","288","418084","0.0-6.0-0.141","REGA","2","f","rechts","23","","fixation","","","",""
"1495","img/L30_180.png","74","image-keyboard-response","289","419579","0.0-6.0-1.141","REGA","2","f","rechts","23","","","object","j","30","true"
"null","<div style=""font-size:60px;"">+</div>","null","html-keyboard-response","290","420037","0.0-6.0-0.142","REGA","2","f","rechts","23","","fixation","","","",""
"632","img/0_300.png","70","image-keyboard-response","291","420669","0.0-6.0-1.142","REGA","2","f","rechts","23","","","object","f","0","true"
"null","<div style=""font-size:60px;"">+</div>","null","html-keyboard-response","292","421075","0.0-6.0-0.143","REGA","2","f","rechts","23","","fixation","","","",""
"1114","img/150_240.png","74","image-keyboard-response","293","422190","0.0-6.0-1.143","REGA","2","f","rechts","23","","","object","j","150","true"
"null","<div style=""font-size:60px;"">+</div>","null","html-keyboard-response","294","422590","0.0-6.0-0.144","REGA","2","f","rechts","23","","fixation","","","",""
"706","img/0_210.png","70","image-keyboard-response","295","423297","0.0-6.0-1.144","REGA","2","f","rechts","23","","","object","f","0","true"
"null","<div style=""font-size:60px;"">+</div>","null","html-keyboard-response","296","423804","0.0-6.0-0.145","REGA","2","f","rechts","23","","fixation","","","",""
"766","img/120_30.png","70","image-keyboard-response","297","424570","0.0-6.0-1.145","REGA","2","f","rechts","23","","","object","f","120","true"
"null","<div style=""font-size:60px;"">+</div>","null","html-keyboard-response","298","424924","0.0-6.0-0.146","REGA","2","f","rechts","23","","fixation","","","",""
"969","img/150_270.png","74","image-keyboard-response","299","425894","0.0-6.0-1.146","REGA","2","f","rechts","23","","","object","j","150","true"
"null","<div style=""font-size:60px;"">+</div>","null","html-keyboard-response","300","426200","0.0-6.0-0.147","REGA","2","f","rechts","23","","fixation","","","",""
"938","img/60_210.png","70","image-keyboard-response","301","427138","0.0-6.0-1.147","REGA","2","f","rechts","23","","","object","f","60","true"
"null","<div style=""font-size:60px;"">+</div>","null","html-keyboard-response","302","427490","0.0-6.0-0.148","REGA","2","f","rechts","23","","fixation","","","",""
"676","img/0_60.png","74","image-keyboard-response","303","428166","0.0-6.0-1.148","REGA","2","f","rechts","23","","","object","j","0","true"
"null","<div style=""font-size:60px;"">+</div>","null","html-keyboard-response","304","428469","0.0-6.0-0.149","REGA","2","f","rechts","23","","fixation","","","",""
"884","img/30_120.png","74","image-keyboard-response","305","429353","0.0-6.0-1.149","REGA","2","f","rechts","23","","","object","j","30","true"
"null","<div style=""font-size:60px;"">+</div>","null","html-keyboard-response","306","429808","0.0-6.0-0.150","REGA","2","f","rechts","23","","fixation","","","",""
"954","img/120_150.png","74","image-keyboard-response","307","430762","0.0-6.0-1.150","REGA","2","f","rechts","23","","","object","j","120","true"
"null","<div style=""font-size:60px;"">+</div>","null","html-keyboard-response","308","431065","0.0-6.0-0.151","REGA","2","f","rechts","23","","fixation","","","",""
"1414","img/L90_180.png","74","image-keyboard-response","309","432479","0.0-6.0-1.151","REGA","2","f","rechts","23","","","object","j","90","true"
"null","<div style=""font-size:60px;"">+</div>","null","html-keyboard-response","310","432882","0.0-6.0-0.152","REGA","2","f","rechts","23","","fixation","","","",""
"1001","img/150_120.png","70","image-keyboard-response","311","433884","0.0-6.0-1.152","REGA","2","f","rechts","23","","","object","f","150","true"
"null","<div style=""font-size:60px;"">+</div>","null","html-keyboard-response","312","434286","0.0-6.0-0.153","REGA","2","f","rechts","23","","fixation","","","",""
"1270","img/L60_180.png","74","image-keyboard-response","313","435557","0.0-6.0-1.153","REGA","2","f","rechts","23","","","object","j","60","true"
"null","<div style=""font-size:60px;"">+</div>","null","html-keyboard-response","314","436010","0.0-6.0-0.154","REGA","2","f","rechts","23","","fixation","","","",""
"827","img/L150_180.png","74","image-keyboard-response","315","436838","0.0-6.0-1.154","REGA","2","f","rechts","23","","","object","j","150","true"
"null","<div style=""font-size:60px;"">+</div>","null","html-keyboard-response","316","437343","0.0-6.0-0.155","REGA","2","f","rechts","23","","fixation","","","",""
"1084","img/120_90.png","70","image-keyboard-response","317","438429","0.0-6.0-1.155","REGA","2","f","rechts","23","","","object","f","120","true"
"null","<div style=""font-size:60px;"">+</div>","null","html-keyboard-response","318","438934","0.0-6.0-0.156","REGA","2","f","rechts","23","","fixation","","","",""
"1556","img/30_270.png","74","image-keyboard-response","319","440491","0.0-6.0-1.156","REGA","2","f","rechts","23","","","object","f","30","false"
"null","<div style=""font-size:60px;"">+</div>","null","html-keyboard-response","320","440943","0.0-6.0-0.157","REGA","2","f","rechts","23","","fixation","","","",""
"1166","img/30_90.png","74","image-keyboard-response","321","442110","0.0-6.0-1.157","REGA","2","f","rechts","23","","","object","j","30","true"
"null","<div style=""font-size:60px;"">+</div>","null","html-keyboard-response","322","442415","0.0-6.0-0.158","REGA","2","f","rechts","23","","fixation","","","",""
"1102","img/30_300.png","70","image-keyboard-response","323","443518","0.0-6.0-1.158","REGA","2","f","rechts","23","","","object","f","30","true"
"null","<div style=""font-size:60px;"">+</div>","null","html-keyboard-response","324","443823","0.0-6.0-0.159","REGA","2","f","rechts","23","","fixation","","","",""
"1772","img/90_210.png","74","image-keyboard-response","325","445595","0.0-6.0-1.159","REGA","2","f","rechts","23","","","object","f","90","false"
"null","<div style=""font-size:60px;"">+</div>","null","html-keyboard-response","326","446101","0.0-6.0-0.160","REGA","2","f","rechts","23","","fixation","","","",""
"1490","img/90_240.png","74","image-keyboard-response","327","447592","0.0-6.0-1.160","REGA","2","f","rechts","23","","","object","f","90","false"
"null","<div style=""font-size:60px;"">+</div>","null","html-keyboard-response","328","447897","0.0-6.0-0.161","REGA","2","f","rechts","23","","fixation","","","",""
"2219","img/90_150.png","70","image-keyboard-response","329","450117","0.0-6.0-1.161","REGA","2","f","rechts","23","","","object","j","90","false"
"null","<div style=""font-size:60px;"">+</div>","null","html-keyboard-response","330","450422","0.0-6.0-0.162","REGA","2","f","rechts","23","","fixation","","","",""
"1165","img/150_240.png","74","image-keyboard-response","331","451588","0.0-6.0-1.162","REGA","2","f","rechts","23","","","object","j","150","true"
"null","<div style=""font-size:60px;"">+</div>","null","html-keyboard-response","332","452044","0.0-6.0-0.163","REGA","2","f","rechts","23","","fixation","","","",""
"1068","img/L120_180.png","74","image-keyboard-response","333","453113","0.0-6.0-1.163","REGA","2","f","rechts","23","","","object","j","120","true"
"null","<div style=""font-size:60px;"">+</div>","null","html-keyboard-response","334","453418","0.0-6.0-0.164","REGA","2","f","rechts","23","","fixation","","","",""
"694","img/0_150.png","74","image-keyboard-response","335","454112","0.0-6.0-1.164","REGA","2","f","rechts","23","","","object","j","0","true"
"null","<div style=""font-size:60px;"">+</div>","null","html-keyboard-response","336","454416","0.0-6.0-0.165","REGA","2","f","rechts","23","","fixation","","","",""
"1405","img/150_90.png","70","image-keyboard-response","337","455821","0.0-6.0-1.165","REGA","2","f","rechts","23","","","object","f","150","true"
"null","<div style=""font-size:60px;"">+</div>","null","html-keyboard-response","338","456274","0.0-6.0-0.166","REGA","2","f","rechts","23","","fixation","","","",""
"783","img/0_60.png","74","image-keyboard-response","339","457058","0.0-6.0-1.166","REGA","2","f","rechts","23","","","object","j","0","true"
"null","<div style=""font-size:60px;"">+</div>","null","html-keyboard-response","340","457512","0.0-6.0-0.167","REGA","2","f","rechts","23","","fixation","","","",""
"637","img/0_120.png","74","image-keyboard-response","341","458150","0.0-6.0-1.167","REGA","2","f","rechts","23","","","object","j","0","true"
"null","<div style=""font-size:60px;"">+</div>","null","html-keyboard-response","342","458501","0.0-6.0-0.168","REGA","2","f","rechts","23","","fixation","","","",""
"1419","img/60_210.png","70","image-keyboard-response","343","459922","0.0-6.0-1.168","REGA","2","f","rechts","23","","","object","f","60","true"
"null","<div style=""font-size:60px;"">+</div>","null","html-keyboard-response","344","460324","0.0-6.0-0.169","REGA","2","f","rechts","23","","fixation","","","",""
"1070","img/120_270.png","74","image-keyboard-response","345","461395","0.0-6.0-1.169","REGA","2","f","rechts","23","","","object","j","120","true"
"null","<div style=""font-size:60px;"">+</div>","null","html-keyboard-response","346","461899","0.0-6.0-0.170","REGA","2","f","rechts","23","","fixation","","","",""
"783","img/60_330.png","74","image-keyboard-response","347","462684","0.0-6.0-1.170","REGA","2","f","rechts","23","","","object","j","60","true"
"null","<div style=""font-size:60px;"">+</div>","null","html-keyboard-response","348","463187","0.0-6.0-0.171","REGA","2","f","rechts","23","","fixation","","","",""
"1427","img/L60_180.png","74","image-keyboard-response","349","464614","0.0-6.0-1.171","REGA","2","f","rechts","23","","","object","j","60","true"
"null","<div style=""font-size:60px;"">+</div>","null","html-keyboard-response","350","465119","0.0-6.0-0.172","REGA","2","f","rechts","23","","fixation","","","",""
"1342","img/120_30.png","70","image-keyboard-response","351","466461","0.0-6.0-1.172","REGA","2","f","rechts","23","","","object","f","120","true"
"null","<div style=""font-size:60px;"">+</div>","null","html-keyboard-response","352","466965","0.0-6.0-0.173","REGA","2","f","rechts","23","","fixation","","","",""
"742","img/90_300.png","74","image-keyboard-response","353","467707","0.0-6.0-1.173","REGA","2","f","rechts","23","","","object","j","90","true"
"null","<div style=""font-size:60px;"">+</div>","null","html-keyboard-response","354","468013","0.0-6.0-0.174","REGA","2","f","rechts","23","","fixation","","","",""
"871","img/150_300.png","74","image-keyboard-response","355","468885","0.0-6.0-1.174","REGA","2","f","rechts","23","","","object","j","150","true"
"null","<div style=""font-size:60px;"">+</div>","null","html-keyboard-response","356","469390","0.0-6.0-0.175","REGA","2","f","rechts","23","","fixation","","","",""
"1352","img/90_180.png","70","image-keyboard-response","357","470743","0.0-6.0-1.175","REGA","2","f","rechts","23","","","object","f","90","true"
"null","<div style=""font-size:60px;"">+</div>","null","html-keyboard-response","358","471150","0.0-6.0-0.176","REGA","2","f","rechts","23","","fixation","","","",""
"1695","img/60_90.png","70","image-keyboard-response","359","472845","0.0-6.0-1.176","REGA","2","f","rechts","23","","","object","j","60","false"
"null","<div style=""font-size:60px;"">+</div>","null","html-keyboard-response","360","473245","0.0-6.0-0.177","REGA","2","f","rechts","23","","fixation","","","",""
"1535","img/120_150.png","70","image-keyboard-response","361","474781","0.0-6.0-1.177","REGA","2","f","rechts","23","","","object","j","120","false"
"null","<div style=""font-size:60px;"">+</div>","null","html-keyboard-response","362","475138","0.0-6.0-0.178","REGA","2","f","rechts","23","","fixation","","","",""
"706","img/0_210.png","70","image-keyboard-response","363","475844","0.0-6.0-1.178","REGA","2","f","rechts","23","","","object","f","0","true"
"null","<div style=""font-size:60px;"">+</div>","null","html-keyboard-response","364","476350","0.0-6.0-0.179","REGA","2","f","rechts","23","","fixation","","","",""
"1350","img/150_120.png","70","image-keyboard-response","365","477701","0.0-6.0-1.179","REGA","2","f","rechts","23","","","object","f","150","true"
"null","<div style=""font-size:60px;"">+</div>","null","html-keyboard-response","366","478156","0.0-6.0-0.180","REGA","2","f","rechts","23","","fixation","","","",""
"825","img/120_90.png","70","image-keyboard-response","367","478982","0.0-6.0-1.180","REGA","2","f","rechts","23","","","object","f","120","true"
"null","<div style=""font-size:60px;"">+</div>","null","html-keyboard-response","368","479288","0.0-6.0-0.181","REGA","2","f","rechts","23","","fixation","","","",""
"667","img/0_240.png","70","image-keyboard-response","369","479955","0.0-6.0-1.181","REGA","2","f","rechts","23","","","object","f","0","true"
"null","<div style=""font-size:60px;"">+</div>","null","html-keyboard-response","370","480408","0.0-6.0-0.182","REGA","2","f","rechts","23","","fixation","","","",""
"1168","img/30_240.png","70","image-keyboard-response","371","481576","0.0-6.0-1.182","REGA","2","f","rechts","23","","","object","f","30","true"
"null","<div style=""font-size:60px;"">+</div>","null","html-keyboard-response","372","482032","0.0-6.0-0.183","REGA","2","f","rechts","23","","fixation","","","",""
"1069","img/90_60.png","70","image-keyboard-response","373","483102","0.0-6.0-1.183","REGA","2","f","rechts","23","","","object","f","90","true"
"null","<div style=""font-size:60px;"">+</div>","null","html-keyboard-response","374","483507","0.0-6.0-0.184","REGA","2","f","rechts","23","","fixation","","","",""
"618","img/0_270.png","70","image-keyboard-response","375","484127","0.0-6.0-1.184","REGA","2","f","rechts","23","","","object","f","0","true"
"null","<div style=""font-size:60px;"">+</div>","null","html-keyboard-response","376","484529","0.0-6.0-0.185","REGA","2","f","rechts","23","","fixation","","","",""
"1275","img/L150_180.png","74","image-keyboard-response","377","485805","0.0-6.0-1.185","REGA","2","f","rechts","23","","","object","j","150","true"
"null","<div style=""font-size:60px;"">+</div>","null","html-keyboard-response","378","486109","0.0-6.0-0.186","REGA","2","f","rechts","23","","fixation","","","",""
"949","img/60_30.png","70","image-keyboard-response","379","487058","0.0-6.0-1.186","REGA","2","f","rechts","23","","","object","f","60","true"
"null","<div style=""font-size:60px;"">+</div>","null","html-keyboard-response","380","487460","0.0-6.0-0.187","REGA","2","f","rechts","23","","fixation","","","",""
"699","img/0_90.png","74","image-keyboard-response","381","488159","0.0-6.0-1.187","REGA","2","f","rechts","23","","","object","j","0","true"
"null","<div style=""font-size:60px;"">+</div>","null","html-keyboard-response","382","488662","0.0-6.0-0.188","REGA","2","f","rechts","23","","fixation","","","",""
"1870","img/150_180.png","70","image-keyboard-response","383","490533","0.0-6.0-1.188","REGA","2","f","rechts","23","","","object","f","150","true"
"null","<div style=""font-size:60px;"">+</div>","null","html-keyboard-response","384","491036","0.0-6.0-0.189","REGA","2","f","rechts","23","","fixation","","","",""
"699","img/0_330.png","70","image-keyboard-response","385","491737","0.0-6.0-1.189","REGA","2","f","rechts","23","","","object","f","0","true"
"null","<div style=""font-size:60px;"">+</div>","null","html-keyboard-response","386","492243","0.0-6.0-0.190","REGA","2","f","rechts","23","","fixation","","","",""
"557","img/0_300.png","70","image-keyboard-response","387","492800","0.0-6.0-1.190","REGA","2","f","rechts","23","","","object","f","0","true"
"null","<div style=""font-size:60px;"">+</div>","null","html-keyboard-response","388","493154","0.0-6.0-0.191","REGA","2","f","rechts","23","","fixation","","","",""
"1587","img/60_270.png","74","image-keyboard-response","389","494742","0.0-6.0-1.191","REGA","2","f","rechts","23","","","object","f","60","false"
"null","<div style=""font-size:60px;"">+</div>","null","html-keyboard-response","390","495046","0.0-6.0-0.192","REGA","2","f","rechts","23","","fixation","","","",""
"1604","img/120_210.png","74","image-keyboard-response","391","496651","0.0-6.0-1.192","REGA","2","f","rechts","23","","","object","f","120","false"
"null","<div style=""font-size:60px;"">+</div>","null","html-keyboard-response","392","497002","0.0-6.0-0.193","REGA","2","f","rechts","23","","fixation","","","",""
"2021","img/30_180.png","70","image-keyboard-response","393","499025","0.0-6.0-1.193","REGA","2","f","rechts","23","","","object","f","30","true"
"null","<div style=""font-size:60px;"">+</div>","null","html-keyboard-response","394","499377","0.0-6.0-0.194","REGA","2","f","rechts","23","","fixation","","","",""
"861","img/90_330.png","74","image-keyboard-response","395","500239","0.0-6.0-1.194","REGA","2","f","rechts","23","","","object","j","90","true"
"null","<div style=""font-size:60px;"">+</div>","null","html-keyboard-response","396","500642","0.0-6.0-0.195","REGA","2","f","rechts","23","","fixation","","","",""
"1185","img/150_60.png","70","image-keyboard-response","397","501828","0.0-6.0-1.195","REGA","2","f","rechts","23","","","object","f","150","true"
"null","<div style=""font-size:60px;"">+</div>","null","html-keyboard-response","398","502180","0.0-6.0-0.196","REGA","2","f","rechts","23","","fixation","","","",""
"1731","img/L90_180.png","74","image-keyboard-response","399","503912","0.0-6.0-1.196","REGA","2","f","rechts","23","","","object","j","90","true"
"null","<div style=""font-size:60px;"">+</div>","null","html-keyboard-response","400","504368","0.0-6.0-0.197","REGA","2","f","rechts","23","","fixation","","","",""
"1841","img/90_120.png","74","image-keyboard-response","401","506210","0.0-6.0-1.197","REGA","2","f","rechts","23","","","object","j","90","true"
"null","<div style=""font-size:60px;"">+</div>","null","html-keyboard-response","402","506713","0.0-6.0-0.198","REGA","2","f","rechts","23","","fixation","","","",""
"675","img/0_30.png","74","image-keyboard-response","403","507390","0.0-6.0-1.198","REGA","2","f","rechts","23","","","object","j","0","true"
"null","<div style=""font-size:60px;"">+</div>","null","html-keyboard-response","404","507844","0.0-6.0-0.199","REGA","2","f","rechts","23","","fixation","","","",""
"1468","img/60_180.png","70","image-keyboard-response","405","509313","0.0-6.0-1.199","REGA","2","f","rechts","23","","","object","f","60","true"
"null","<div style=""font-size:60px;"">+</div>","null","html-keyboard-response","406","509767","0.0-6.0-0.200","REGA","2","f","rechts","23","","fixation","","","",""
"1692","img/60_150.png","74","image-keyboard-response","407","511459","0.0-6.0-1.200","REGA","2","f","rechts","23","","","object","j","60","true"
"null","<div style=""font-size:60px;"">+</div>","null","html-keyboard-response","408","511814","0.0-6.0-0.201","REGA","2","f","rechts","23","","fixation","","","",""
"935","img/30_120.png","74","image-keyboard-response","409","512750","0.0-6.0-1.201","REGA","2","f","rechts","23","","","object","j","30","true"
"null","<div style=""font-size:60px;"">+</div>","null","html-keyboard-response","410","513104","0.0-6.0-0.202","REGA","2","f","rechts","23","","fixation","","","",""
"1448","img/L30_180.png","74","image-keyboard-response","411","514552","0.0-6.0-1.202","REGA","2","f","rechts","23","","","object","j","30","true"
"null","<div style=""font-size:60px;"">+</div>","null","html-keyboard-response","412","514857","0.0-6.0-0.203","REGA","2","f","rechts","23","","fixation","","","",""
"832","img/90_30.png","70","image-keyboard-response","413","515690","0.0-6.0-1.203","REGA","2","f","rechts","23","","","object","f","90","true"
"null","<div style=""font-size:60px;"">+</div>","null","html-keyboard-response","414","515995","0.0-6.0-0.204","REGA","2","f","rechts","23","","fixation","","","",""
"1517","img/120_180.png","70","image-keyboard-response","415","517512","0.0-6.0-1.204","REGA","2","f","rechts","23","","","object","f","120","true"
"null","<div style=""font-size:60px;"">+</div>","null","html-keyboard-response","416","518017","0.0-6.0-0.205","REGA","2","f","rechts","23","","fixation","","","",""
"1168","img/150_270.png","74","image-keyboard-response","417","519186","0.0-6.0-1.205","REGA","2","f","rechts","23","","","object","j","150","true"
"null","<div style=""font-size:60px;"">+</div>","null","html-keyboard-response","418","519588","0.0-6.0-0.206","REGA","2","f","rechts","23","","fixation","","","",""
"790","img/120_330.png","74","image-keyboard-response","419","520379","0.0-6.0-1.206","REGA","2","f","rechts","23","","","object","j","120","true"
"null","<div style=""font-size:60px;"">+</div>","null","html-keyboard-response","420","520731","0.0-6.0-0.207","REGA","2","f","rechts","23","","fixation","","","",""
"1504","img/30_60.png","74","image-keyboard-response","421","522235","0.0-6.0-1.207","REGA","2","f","rechts","23","","","object","j","30","true"
"3220","<p>Du hast in 88% der Versuche korrekt entschieden.</p><p>Deine durchschnittliche Reaktionszeit war  1130ms.</p><p>Dr&uuml;cke eine beliebige Taste, um die Session zu beenden. Vielen Dank!</p>","70","html-keyboard-response","422","525458","0.0-7.0","REGA","2","f","rechts","23","","","","","",""
