"rt","stimulus","key_press","trial_type","trial_index","time_elapsed","internal_node_id","subject","session","sex","handedness","age","responses","test_part","condition","correct_response","angle","correct"
"2339","<p>Mental Rotation Experiment.</p> <p>Dr&uuml;cke eine beliebige Taste, um anzufangen.</p>","72","html-keyboard-response","0","2344","0.0-0.0","REGA","3","f","rechts","23","","","","","",""
"21196","","","survey-text","1","23541","0.0-1.0","REGA","3","f","rechts","23","{""Q0"":""REGA""}","","","","",""
"2473","","","survey-text","2","26016","0.0-2.0","REGA","3","f","rechts","23","{""Q0"":""3""}","","","","",""
"2817","","","survey-multi-choice","3","28836","0.0-3.0","REGA","3","f","rechts","23","{""Q0"":""f"",""Q1"":""rechts""}","","","","",""
"2259","","","survey-text","4","31096","0.0-4.0","REGA","3","f","rechts","23","{""Q0"":""23""}","","","","",""
"13704","<p>Stell dir vor, dass du vor einem runden Tisch stehst, auf dem sich ein blauer Ball am Tischrand befindet. Entlang des Tischrands ist jeweils ein verschieden langer Pfeil. Nun bleibst du an deinem Platz vor dem Tisch und rotierst den Tisch entlang des Pfeils (gleiche Richtung und Länge). </p> <img src='img/30_180.png'></img> <br><p> Nachdem du diese (vorgestellte) Rotation durchgef&uuml;hrt hast, schau in Richtung der Tischmitte, und entscheide dann, ob der Ball links oder rechts von dir liegt.</p> <p>Dr&uuml;cke die <strong>'f'</strong>-Taste f&uuml;r links, die <strong>'j'</strong>-Taste f&uuml;r rechts.</p><br><p> Das Bild wird jeweils 1 Sekunde lang pr&auml;sentiert. Du hast 3 Sekunden Zeit eine Entscheidung zu treffen.</p>","70","html-keyboard-response","5","44800","0.0-5.0","REGA","3","f","rechts","23","","","","","",""
"null","<div style=""font-size:60px;"">+</div>","null","html-keyboard-response","6","46110","0.0-6.0-0.0","REGA","3","f","rechts","23","","fixation","","","",""
"1145","img/30_270.png","70","image-keyboard-response","7","47257","0.0-6.0-1.0","REGA","3","f","rechts","23","","","object","f","30","true"
"null","<div style=""font-size:60px;"">+</div>","null","html-keyboard-response","8","47662","0.0-6.0-0.1","REGA","3","f","rechts","23","","fixation","","","",""
"640","img/0_240.png","70","image-keyboard-response","9","48302","0.0-6.0-1.1","REGA","3","f","rechts","23","","","object","f","0","true"
"null","<div style=""font-size:60px;"">+</div>","null","html-keyboard-response","10","48704","0.0-6.0-0.2","REGA","3","f","rechts","23","","fixation","","","",""
"1226","img/90_120.png","70","image-keyboard-response","11","49932","0.0-6.0-1.2","REGA","3","f","rechts","23","","","object","j","90","false"
"null","<div style=""font-size:60px;"">+</div>","null","html-keyboard-response","12","50234","0.0-6.0-0.3","REGA","3","f","rechts","23","","fixation","","","",""
"993","img/L150_180.png","74","image-keyboard-response","13","51227","0.0-6.0-1.3","REGA","3","f","rechts","23","","","object","j","150","true"
"null","<div style=""font-size:60px;"">+</div>","null","html-keyboard-response","14","51579","0.0-6.0-0.4","REGA","3","f","rechts","23","","fixation","","","",""
"806","img/120_330.png","74","image-keyboard-response","15","52385","0.0-6.0-1.4","REGA","3","f","rechts","23","","","object","j","120","true"
"null","<div style=""font-size:60px;"">+</div>","null","html-keyboard-response","16","52687","0.0-6.0-0.5","REGA","3","f","rechts","23","","fixation","","","",""
"1293","img/30_60.png","74","image-keyboard-response","17","53980","0.0-6.0-1.5","REGA","3","f","rechts","23","","","object","j","30","true"
"null","<div style=""font-size:60px;"">+</div>","null","html-keyboard-response","18","54284","0.0-6.0-0.6","REGA","3","f","rechts","23","","fixation","","","",""
"959","img/30_300.png","70","image-keyboard-response","19","55243","0.0-6.0-1.6","REGA","3","f","rechts","23","","","object","f","30","true"
"null","<div style=""font-size:60px;"">+</div>","null","html-keyboard-response","20","55695","0.0-6.0-0.7","REGA","3","f","rechts","23","","fixation","","","",""
"1330","img/L60_180.png","74","image-keyboard-response","21","57025","0.0-6.0-1.7","REGA","3","f","rechts","23","","","object","j","60","true"
"null","<div style=""font-size:60px;"">+</div>","null","html-keyboard-response","22","57430","0.0-6.0-0.8","REGA","3","f","rechts","23","","fixation","","","",""
"883","img/30_240.png","70","image-keyboard-response","23","58314","0.0-6.0-1.8","REGA","3","f","rechts","23","","","object","f","30","true"
"null","<div style=""font-size:60px;"">+</div>","null","html-keyboard-response","24","58818","0.0-6.0-0.9","REGA","3","f","rechts","23","","fixation","","","",""
"842","img/60_210.png","70","image-keyboard-response","25","59662","0.0-6.0-1.9","REGA","3","f","rechts","23","","","object","f","60","true"
"null","<div style=""font-size:60px;"">+</div>","null","html-keyboard-response","26","60168","0.0-6.0-0.10","REGA","3","f","rechts","23","","fixation","","","",""
"921","img/120_30.png","70","image-keyboard-response","27","61090","0.0-6.0-1.10","REGA","3","f","rechts","23","","","object","f","120","true"
"null","<div style=""font-size:60px;"">+</div>","null","html-keyboard-response","28","61544","0.0-6.0-0.11","REGA","3","f","rechts","23","","fixation","","","",""
"688","img/60_30.png","70","image-keyboard-response","29","62233","0.0-6.0-1.11","REGA","3","f","rechts","23","","","object","f","60","true"
"null","<div style=""font-size:60px;"">+</div>","null","html-keyboard-response","30","62588","0.0-6.0-0.12","REGA","3","f","rechts","23","","fixation","","","",""
"1419","img/30_180.png","70","image-keyboard-response","31","64008","0.0-6.0-1.12","REGA","3","f","rechts","23","","","object","f","30","true"
"null","<div style=""font-size:60px;"">+</div>","null","html-keyboard-response","32","64411","0.0-6.0-0.13","REGA","3","f","rechts","23","","fixation","","","",""
"918","img/150_60.png","70","image-keyboard-response","33","65329","0.0-6.0-1.13","REGA","3","f","rechts","23","","","object","f","150","true"
"null","<div style=""font-size:60px;"">+</div>","null","html-keyboard-response","34","65835","0.0-6.0-0.14","REGA","3","f","rechts","23","","fixation","","","",""
"1484","img/90_210.png","74","image-keyboard-response","35","67320","0.0-6.0-1.14","REGA","3","f","rechts","23","","","object","f","90","false"
"null","<div style=""font-size:60px;"">+</div>","null","html-keyboard-response","36","67675","0.0-6.0-0.15","REGA","3","f","rechts","23","","fixation","","","",""
"662","img/0_60.png","74","image-keyboard-response","37","68337","0.0-6.0-1.15","REGA","3","f","rechts","23","","","object","j","0","true"
"null","<div style=""font-size:60px;"">+</div>","null","html-keyboard-response","38","68842","0.0-6.0-0.16","REGA","3","f","rechts","23","","fixation","","","",""
"1296","img/90_150.png","74","image-keyboard-response","39","70138","0.0-6.0-1.16","REGA","3","f","rechts","23","","","object","j","90","true"
"null","<div style=""font-size:60px;"">+</div>","null","html-keyboard-response","40","70641","0.0-6.0-0.17","REGA","3","f","rechts","23","","fixation","","","",""
"787","img/90_300.png","74","image-keyboard-response","41","71428","0.0-6.0-1.17","REGA","3","f","rechts","23","","","object","j","90","true"
"null","<div style=""font-size:60px;"">+</div>","null","html-keyboard-response","42","71830","0.0-6.0-0.18","REGA","3","f","rechts","23","","fixation","","","",""
"1258","img/L30_180.png","74","image-keyboard-response","43","73089","0.0-6.0-1.18","REGA","3","f","rechts","23","","","object","j","30","true"
"null","<div style=""font-size:60px;"">+</div>","null","html-keyboard-response","44","73492","0.0-6.0-0.19","REGA","3","f","rechts","23","","fixation","","","",""
"672","img/0_210.png","70","image-keyboard-response","45","74164","0.0-6.0-1.19","REGA","3","f","rechts","23","","","object","f","0","true"
"null","<div style=""font-size:60px;"">+</div>","null","html-keyboard-response","46","74669","0.0-6.0-0.20","REGA","3","f","rechts","23","","fixation","","","",""
"1011","img/60_270.png","70","image-keyboard-response","47","75681","0.0-6.0-1.20","REGA","3","f","rechts","23","","","object","f","60","true"
"null","<div style=""font-size:60px;"">+</div>","null","html-keyboard-response","48","75985","0.0-6.0-0.21","REGA","3","f","rechts","23","","fixation","","","",""
"919","img/150_270.png","74","image-keyboard-response","49","76906","0.0-6.0-1.21","REGA","3","f","rechts","23","","","object","j","150","true"
"null","<div style=""font-size:60px;"">+</div>","null","html-keyboard-response","50","77357","0.0-6.0-0.22","REGA","3","f","rechts","23","","fixation","","","",""
"696","img/90_330.png","74","image-keyboard-response","51","78055","0.0-6.0-1.22","REGA","3","f","rechts","23","","","object","j","90","true"
"null","<div style=""font-size:60px;"">+</div>","null","html-keyboard-response","52","78510","0.0-6.0-0.23","REGA","3","f","rechts","23","","fixation","","","",""
"882","img/30_90.png","74","image-keyboard-response","53","79392","0.0-6.0-1.23","REGA","3","f","rechts","23","","","object","j","30","true"
"null","<div style=""font-size:60px;"">+</div>","null","html-keyboard-response","54","79846","0.0-6.0-0.24","REGA","3","f","rechts","23","","fixation","","","",""
"742","img/0_150.png","74","image-keyboard-response","55","80589","0.0-6.0-1.24","REGA","3","f","rechts","23","","","object","j","0","true"
"null","<div style=""font-size:60px;"">+</div>","null","html-keyboard-response","56","80944","0.0-6.0-0.25","REGA","3","f","rechts","23","","fixation","","","",""
"1091","img/90_60.png","74","image-keyboard-response","57","82036","0.0-6.0-1.25","REGA","3","f","rechts","23","","","object","f","90","false"
"null","<div style=""font-size:60px;"">+</div>","null","html-keyboard-response","58","82389","0.0-6.0-0.26","REGA","3","f","rechts","23","","fixation","","","",""
"1422","img/120_90.png","70","image-keyboard-response","59","83812","0.0-6.0-1.26","REGA","3","f","rechts","23","","","object","f","120","true"
"null","<div style=""font-size:60px;"">+</div>","null","html-keyboard-response","60","84218","0.0-6.0-0.27","REGA","3","f","rechts","23","","fixation","","","",""
"1804","img/90_180.png","70","image-keyboard-response","61","86023","0.0-6.0-1.27","REGA","3","f","rechts","23","","","object","f","90","true"
"null","<div style=""font-size:60px;"">+</div>","null","html-keyboard-response","62","86475","0.0-6.0-0.28","REGA","3","f","rechts","23","","fixation","","","",""
"1360","img/150_300.png","74","image-keyboard-response","63","87835","0.0-6.0-1.28","REGA","3","f","rechts","23","","","object","j","150","true"
"null","<div style=""font-size:60px;"">+</div>","null","html-keyboard-response","64","88339","0.0-6.0-0.29","REGA","3","f","rechts","23","","fixation","","","",""
"579","img/0_30.png","74","image-keyboard-response","65","88918","0.0-6.0-1.29","REGA","3","f","rechts","23","","","object","j","0","true"
"null","<div style=""font-size:60px;"">+</div>","null","html-keyboard-response","66","89422","0.0-6.0-0.30","REGA","3","f","rechts","23","","fixation","","","",""
"767","img/30_120.png","74","image-keyboard-response","67","90190","0.0-6.0-1.30","REGA","3","f","rechts","23","","","object","j","30","true"
"null","<div style=""font-size:60px;"">+</div>","null","html-keyboard-response","68","90545","0.0-6.0-0.31","REGA","3","f","rechts","23","","fixation","","","",""
"1069","img/90_240.png","74","image-keyboard-response","69","91618","0.0-6.0-1.31","REGA","3","f","rechts","23","","","object","f","90","false"
"null","<div style=""font-size:60px;"">+</div>","null","html-keyboard-response","70","92071","0.0-6.0-0.32","REGA","3","f","rechts","23","","fixation","","","",""
"694","img/0_330.png","70","image-keyboard-response","71","92766","0.0-6.0-1.32","REGA","3","f","rechts","23","","","object","f","0","true"
"null","<div style=""font-size:60px;"">+</div>","null","html-keyboard-response","72","93271","0.0-6.0-0.33","REGA","3","f","rechts","23","","fixation","","","",""
"571","img/0_90.png","74","image-keyboard-response","73","93842","0.0-6.0-1.33","REGA","3","f","rechts","23","","","object","j","0","true"
"null","<div style=""font-size:60px;"">+</div>","null","html-keyboard-response","74","94245","0.0-6.0-0.34","REGA","3","f","rechts","23","","fixation","","","",""
"539","img/0_120.png","74","image-keyboard-response","75","94784","0.0-6.0-1.34","REGA","3","f","rechts","23","","","object","j","0","true"
"null","<div style=""font-size:60px;"">+</div>","null","html-keyboard-response","76","95089","0.0-6.0-0.35","REGA","3","f","rechts","23","","fixation","","","",""
"1402","img/L120_180.png","74","image-keyboard-response","77","96491","0.0-6.0-1.35","REGA","3","f","rechts","23","","","object","j","120","true"
"null","<div style=""font-size:60px;"">+</div>","null","html-keyboard-response","78","96795","0.0-6.0-0.36","REGA","3","f","rechts","23","","fixation","","","",""
"799","img/120_270.png","74","image-keyboard-response","79","97594","0.0-6.0-1.36","REGA","3","f","rechts","23","","","object","j","120","true"
"null","<div style=""font-size:60px;"">+</div>","null","html-keyboard-response","80","97898","0.0-6.0-0.37","REGA","3","f","rechts","23","","fixation","","","",""
"797","img/60_150.png","74","image-keyboard-response","81","98696","0.0-6.0-1.37","REGA","3","f","rechts","23","","","object","j","60","true"
"null","<div style=""font-size:60px;"">+</div>","null","html-keyboard-response","82","99202","0.0-6.0-0.38","REGA","3","f","rechts","23","","fixation","","","",""
"1070","img/60_90.png","74","image-keyboard-response","83","100273","0.0-6.0-1.38","REGA","3","f","rechts","23","","","object","j","60","true"
"null","<div style=""font-size:60px;"">+</div>","null","html-keyboard-response","84","100777","0.0-6.0-0.39","REGA","3","f","rechts","23","","fixation","","","",""
"1132","img/60_180.png","70","image-keyboard-response","85","101910","0.0-6.0-1.39","REGA","3","f","rechts","23","","","object","f","60","true"
"null","<div style=""font-size:60px;"">+</div>","null","html-keyboard-response","86","102362","0.0-6.0-0.40","REGA","3","f","rechts","23","","fixation","","","",""
"1279","img/120_150.png","70","image-keyboard-response","87","103642","0.0-6.0-1.40","REGA","3","f","rechts","23","","","object","j","120","false"
"null","<div style=""font-size:60px;"">+</div>","null","html-keyboard-response","88","103947","0.0-6.0-0.41","REGA","3","f","rechts","23","","fixation","","","",""
"941","img/150_240.png","74","image-keyboard-response","89","104890","0.0-6.0-1.41","REGA","3","f","rechts","23","","","object","j","150","true"
"null","<div style=""font-size:60px;"">+</div>","null","html-keyboard-response","90","105195","0.0-6.0-0.42","REGA","3","f","rechts","23","","fixation","","","",""
"1464","img/L90_180.png","74","image-keyboard-response","91","106659","0.0-6.0-1.42","REGA","3","f","rechts","23","","","object","j","90","true"
"null","<div style=""font-size:60px;"">+</div>","null","html-keyboard-response","92","107163","0.0-6.0-0.43","REGA","3","f","rechts","23","","fixation","","","",""
"1490","img/120_180.png","70","image-keyboard-response","93","108653","0.0-6.0-1.43","REGA","3","f","rechts","23","","","object","f","120","true"
"null","<div style=""font-size:60px;"">+</div>","null","html-keyboard-response","94","109157","0.0-6.0-0.44","REGA","3","f","rechts","23","","fixation","","","",""
"634","img/0_300.png","70","image-keyboard-response","95","109792","0.0-6.0-1.44","REGA","3","f","rechts","23","","","object","f","0","true"
"null","<div style=""font-size:60px;"">+</div>","null","html-keyboard-response","96","110098","0.0-6.0-0.45","REGA","3","f","rechts","23","","fixation","","","",""
"1478","img/150_180.png","70","image-keyboard-response","97","111576","0.0-6.0-1.45","REGA","3","f","rechts","23","","","object","f","150","true"
"null","<div style=""font-size:60px;"">+</div>","null","html-keyboard-response","98","112078","0.0-6.0-0.46","REGA","3","f","rechts","23","","fixation","","","",""
"706","img/60_330.png","74","image-keyboard-response","99","112785","0.0-6.0-1.46","REGA","3","f","rechts","23","","","object","j","60","true"
"null","<div style=""font-size:60px;"">+</div>","null","html-keyboard-response","100","113238","0.0-6.0-0.47","REGA","3","f","rechts","23","","fixation","","","",""
"617","img/0_270.png","70","image-keyboard-response","101","113855","0.0-6.0-1.47","REGA","3","f","rechts","23","","","object","f","0","true"
"null","<div style=""font-size:60px;"">+</div>","null","html-keyboard-response","102","114307","0.0-6.0-0.48","REGA","3","f","rechts","23","","fixation","","","",""
"1346","img/150_120.png","70","image-keyboard-response","103","115655","0.0-6.0-1.48","REGA","3","f","rechts","23","","","object","f","150","true"
"null","<div style=""font-size:60px;"">+</div>","null","html-keyboard-response","104","116009","0.0-6.0-0.49","REGA","3","f","rechts","23","","fixation","","","",""
"1084","img/120_210.png","74","image-keyboard-response","105","117094","0.0-6.0-1.49","REGA","3","f","rechts","23","","","object","f","120","false"
"null","<div style=""font-size:60px;"">+</div>","null","html-keyboard-response","106","117544","0.0-6.0-0.50","REGA","3","f","rechts","23","","fixation","","","",""
"1198","img/150_90.png","70","image-keyboard-response","107","118743","0.0-6.0-1.50","REGA","3","f","rechts","23","","","object","f","150","true"
"null","<div style=""font-size:60px;"">+</div>","null","html-keyboard-response","108","119049","0.0-6.0-0.51","REGA","3","f","rechts","23","","fixation","","","",""
"674","img/90_30.png","70","image-keyboard-response","109","119724","0.0-6.0-1.51","REGA","3","f","rechts","23","","","object","f","90","true"
"null","<div style=""font-size:60px;"">+</div>","null","html-keyboard-response","110","120029","0.0-6.0-0.52","REGA","3","f","rechts","23","","fixation","","","",""
"1143","img/90_150.png","74","image-keyboard-response","111","121173","0.0-6.0-1.52","REGA","3","f","rechts","23","","","object","j","90","true"
"null","<div style=""font-size:60px;"">+</div>","null","html-keyboard-response","112","121474","0.0-6.0-0.53","REGA","3","f","rechts","23","","fixation","","","",""
"678","img/0_120.png","74","image-keyboard-response","113","122152","0.0-6.0-1.53","REGA","3","f","rechts","23","","","object","j","0","true"
"null","<div style=""font-size:60px;"">+</div>","null","html-keyboard-response","114","122456","0.0-6.0-0.54","REGA","3","f","rechts","23","","fixation","","","",""
"885","img/90_120.png","74","image-keyboard-response","115","123342","0.0-6.0-1.54","REGA","3","f","rechts","23","","","object","j","90","true"
"null","<div style=""font-size:60px;"">+</div>","null","html-keyboard-response","116","123744","0.0-6.0-0.55","REGA","3","f","rechts","23","","fixation","","","",""
"656","img/30_120.png","74","image-keyboard-response","117","124401","0.0-6.0-1.55","REGA","3","f","rechts","23","","","object","j","30","true"
"null","<div style=""font-size:60px;"">+</div>","null","html-keyboard-response","118","124707","0.0-6.0-0.56","REGA","3","f","rechts","23","","fixation","","","",""
"996","img/60_270.png","70","image-keyboard-response","119","125704","0.0-6.0-1.56","REGA","3","f","rechts","23","","","object","f","60","true"
"null","<div style=""font-size:60px;"">+</div>","null","html-keyboard-response","120","126158","0.0-6.0-0.57","REGA","3","f","rechts","23","","fixation","","","",""
"607","img/0_30.png","74","image-keyboard-response","121","126765","0.0-6.0-1.57","REGA","3","f","rechts","23","","","object","j","0","true"
"null","<div style=""font-size:60px;"">+</div>","null","html-keyboard-response","122","127166","0.0-6.0-0.58","REGA","3","f","rechts","23","","fixation","","","",""
"1385","img/L120_180.png","74","image-keyboard-response","123","128551","0.0-6.0-1.58","REGA","3","f","rechts","23","","","object","j","120","true"
"null","<div style=""font-size:60px;"">+</div>","null","html-keyboard-response","124","128906","0.0-6.0-0.59","REGA","3","f","rechts","23","","fixation","","","",""
"812","img/90_330.png","74","image-keyboard-response","125","129718","0.0-6.0-1.59","REGA","3","f","rechts","23","","","object","j","90","true"
"null","<div style=""font-size:60px;"">+</div>","null","html-keyboard-response","126","130221","0.0-6.0-0.60","REGA","3","f","rechts","23","","fixation","","","",""
"1366","img/L60_180.png","74","image-keyboard-response","127","131588","0.0-6.0-1.60","REGA","3","f","rechts","23","","","object","j","60","true"
"null","<div style=""font-size:60px;"">+</div>","null","html-keyboard-response","128","132042","0.0-6.0-0.61","REGA","3","f","rechts","23","","fixation","","","",""
"783","img/120_30.png","70","image-keyboard-response","129","132825","0.0-6.0-1.61","REGA","3","f","rechts","23","","","object","f","120","true"
"null","<div style=""font-size:60px;"">+</div>","null","html-keyboard-response","130","133279","0.0-6.0-0.62","REGA","3","f","rechts","23","","fixation","","","",""
"1139","img/150_270.png","74","image-keyboard-response","131","134419","0.0-6.0-1.62","REGA","3","f","rechts","23","","","object","j","150","true"
"null","<div style=""font-size:60px;"">+</div>","null","html-keyboard-response","132","134723","0.0-6.0-0.63","REGA","3","f","rechts","23","","fixation","","","",""
"1640","img/150_180.png","74","image-keyboard-response","133","136364","0.0-6.0-1.63","REGA","3","f","rechts","23","","","object","f","150","false"
"null","<div style=""font-size:60px;"">+</div>","null","html-keyboard-response","134","136817","0.0-6.0-0.64","REGA","3","f","rechts","23","","fixation","","","",""
"1453","img/90_240.png","74","image-keyboard-response","135","138271","0.0-6.0-1.64","REGA","3","f","rechts","23","","","object","f","90","false"
"null","<div style=""font-size:60px;"">+</div>","null","html-keyboard-response","136","138622","0.0-6.0-0.65","REGA","3","f","rechts","23","","fixation","","","",""
"830","img/30_90.png","74","image-keyboard-response","137","139453","0.0-6.0-1.65","REGA","3","f","rechts","23","","","object","j","30","true"
"null","<div style=""font-size:60px;"">+</div>","null","html-keyboard-response","138","139957","0.0-6.0-0.66","REGA","3","f","rechts","23","","fixation","","","",""
"1576","img/60_150.png","74","image-keyboard-response","139","141534","0.0-6.0-1.66","REGA","3","f","rechts","23","","","object","j","60","true"
"null","<div style=""font-size:60px;"">+</div>","null","html-keyboard-response","140","141890","0.0-6.0-0.67","REGA","3","f","rechts","23","","fixation","","","",""
"681","img/0_270.png","70","image-keyboard-response","141","142571","0.0-6.0-1.67","REGA","3","f","rechts","23","","","object","f","0","true"
"null","<div style=""font-size:60px;"">+</div>","null","html-keyboard-response","142","143027","0.0-6.0-0.68","REGA","3","f","rechts","23","","fixation","","","",""
"635","img/0_210.png","70","image-keyboard-response","143","143662","0.0-6.0-1.68","REGA","3","f","rechts","23","","","object","f","0","true"
"null","<div style=""font-size:60px;"">+</div>","null","html-keyboard-response","144","144116","0.0-6.0-0.69","REGA","3","f","rechts","23","","fixation","","","",""
"1170","img/90_210.png","70","image-keyboard-response","145","145286","0.0-6.0-1.69","REGA","3","f","rechts","23","","","object","f","90","true"
"null","<div style=""font-size:60px;"">+</div>","null","html-keyboard-response","146","145591","0.0-6.0-0.70","REGA","3","f","rechts","23","","fixation","","","",""
"1655","img/L30_180.png","74","image-keyboard-response","147","147247","0.0-6.0-1.70","REGA","3","f","rechts","23","","","object","j","30","true"
"null","<div style=""font-size:60px;"">+</div>","null","html-keyboard-response","148","147701","0.0-6.0-0.71","REGA","3","f","rechts","23","","fixation","","","",""
"806","img/90_300.png","74","image-keyboard-response","149","148508","0.0-6.0-1.71","REGA","3","f","rechts","23","","","object","j","90","true"
"null","<div style=""font-size:60px;"">+</div>","null","html-keyboard-response","150","149011","0.0-6.0-0.72","REGA","3","f","rechts","23","","fixation","","","",""
"1401","img/30_180.png","70","image-keyboard-response","151","150412","0.0-6.0-1.72","REGA","3","f","rechts","23","","","object","f","30","true"
"null","<div style=""font-size:60px;"">+</div>","null","html-keyboard-response","152","150817","0.0-6.0-0.73","REGA","3","f","rechts","23","","fixation","","","",""
"801","img/150_300.png","74","image-keyboard-response","153","151618","0.0-6.0-1.73","REGA","3","f","rechts","23","","","object","j","150","true"
"null","<div style=""font-size:60px;"">+</div>","null","html-keyboard-response","154","152123","0.0-6.0-0.74","REGA","3","f","rechts","23","","fixation","","","",""
"629","img/120_270.png","74","image-keyboard-response","155","152753","0.0-6.0-1.74","REGA","3","f","rechts","23","","","object","j","120","true"
"null","<div style=""font-size:60px;"">+</div>","null","html-keyboard-response","156","153058","0.0-6.0-0.75","REGA","3","f","rechts","23","","fixation","","","",""
"1069","img/90_180.png","70","image-keyboard-response","157","154128","0.0-6.0-1.75","REGA","3","f","rechts","23","","","object","f","90","true"
"null","<div style=""font-size:60px;"">+</div>","null","html-keyboard-response","158","154533","0.0-6.0-0.76","REGA","3","f","rechts","23","","fixation","","","",""
"1271","img/60_90.png","74","image-keyboard-response","159","155804","0.0-6.0-1.76","REGA","3","f","rechts","23","","","object","j","60","true"
"null","<div style=""font-size:60px;"">+</div>","null","html-keyboard-response","160","156259","0.0-6.0-0.77","REGA","3","f","rechts","23","","fixation","","","",""
"1636","img/150_120.png","70","image-keyboard-response","161","157896","0.0-6.0-1.77","REGA","3","f","rechts","23","","","object","f","150","true"
"null","<div style=""font-size:60px;"">+</div>","null","html-keyboard-response","162","158401","0.0-6.0-0.78","REGA","3","f","rechts","23","","fixation","","","",""
"2195","img/L150_180.png","74","image-keyboard-response","163","160597","0.0-6.0-1.78","REGA","3","f","rechts","23","","","object","j","150","true"
"null","<div style=""font-size:60px;"">+</div>","null","html-keyboard-response","164","160899","0.0-6.0-0.79","REGA","3","f","rechts","23","","fixation","","","",""
"1235","img/90_60.png","70","image-keyboard-response","165","162135","0.0-6.0-1.79","REGA","3","f","rechts","23","","","object","f","90","true"
"null","<div style=""font-size:60px;"">+</div>","null","html-keyboard-response","166","162436","0.0-6.0-0.80","REGA","3","f","rechts","23","","fixation","","","",""
"1338","img/120_150.png","74","image-keyboard-response","167","163774","0.0-6.0-1.80","REGA","3","f","rechts","23","","","object","j","120","true"
"null","<div style=""font-size:60px;"">+</div>","null","html-keyboard-response","168","164276","0.0-6.0-0.81","REGA","3","f","rechts","23","","fixation","","","",""
"819","img/60_30.png","70","image-keyboard-response","169","165095","0.0-6.0-1.81","REGA","3","f","rechts","23","","","object","f","60","true"
"null","<div style=""font-size:60px;"">+</div>","null","html-keyboard-response","170","165599","0.0-6.0-0.82","REGA","3","f","rechts","23","","fixation","","","",""
"589","img/0_300.png","70","image-keyboard-response","171","166188","0.0-6.0-1.82","REGA","3","f","rechts","23","","","object","f","0","true"
"null","<div style=""font-size:60px;"">+</div>","null","html-keyboard-response","172","166539","0.0-6.0-0.83","REGA","3","f","rechts","23","","fixation","","","",""
"1424","img/120_180.png","74","image-keyboard-response","173","167963","0.0-6.0-1.83","REGA","3","f","rechts","23","","","object","f","120","false"
"null","<div style=""font-size:60px;"">+</div>","null","html-keyboard-response","174","168368","0.0-6.0-0.84","REGA","3","f","rechts","23","","fixation","","","",""
"979","img/150_90.png","70","image-keyboard-response","175","169347","0.0-6.0-1.84","REGA","3","f","rechts","23","","","object","f","150","true"
"null","<div style=""font-size:60px;"">+</div>","null","html-keyboard-response","176","169850","0.0-6.0-0.85","REGA","3","f","rechts","23","","fixation","","","",""
"1081","img/60_210.png","70","image-keyboard-response","177","170932","0.0-6.0-1.85","REGA","3","f","rechts","23","","","object","f","60","true"
"null","<div style=""font-size:60px;"">+</div>","null","html-keyboard-response","178","171287","0.0-6.0-0.86","REGA","3","f","rechts","23","","fixation","","","",""
"897","img/60_180.png","70","image-keyboard-response","179","172186","0.0-6.0-1.86","REGA","3","f","rechts","23","","","object","f","60","true"
"null","<div style=""font-size:60px;"">+</div>","null","html-keyboard-response","180","172689","0.0-6.0-0.87","REGA","3","f","rechts","23","","fixation","","","",""
"773","img/90_30.png","70","image-keyboard-response","181","173462","0.0-6.0-1.87","REGA","3","f","rechts","23","","","object","f","90","true"
"null","<div style=""font-size:60px;"">+</div>","null","html-keyboard-response","182","173864","0.0-6.0-0.88","REGA","3","f","rechts","23","","fixation","","","",""
"643","img/0_240.png","70","image-keyboard-response","183","174507","0.0-6.0-1.88","REGA","3","f","rechts","23","","","object","f","0","true"
"null","<div style=""font-size:60px;"">+</div>","null","html-keyboard-response","184","175012","0.0-6.0-0.89","REGA","3","f","rechts","23","","fixation","","","",""
"1213","img/30_300.png","70","image-keyboard-response","185","176225","0.0-6.0-1.89","REGA","3","f","rechts","23","","","object","f","30","true"
"null","<div style=""font-size:60px;"">+</div>","null","html-keyboard-response","186","176728","0.0-6.0-0.90","REGA","3","f","rechts","23","","fixation","","","",""
"592","img/0_60.png","74","image-keyboard-response","187","177320","0.0-6.0-1.90","REGA","3","f","rechts","23","","","object","j","0","true"
"null","<div style=""font-size:60px;"">+</div>","null","html-keyboard-response","188","177672","0.0-6.0-0.91","REGA","3","f","rechts","23","","fixation","","","",""
"941","img/30_240.png","70","image-keyboard-response","189","178613","0.0-6.0-1.91","REGA","3","f","rechts","23","","","object","f","30","true"
"null","<div style=""font-size:60px;"">+</div>","null","html-keyboard-response","190","179014","0.0-6.0-0.92","REGA","3","f","rechts","23","","fixation","","","",""
"774","img/120_330.png","74","image-keyboard-response","191","179790","0.0-6.0-1.92","REGA","3","f","rechts","23","","","object","j","120","true"
"null","<div style=""font-size:60px;"">+</div>","null","html-keyboard-response","192","180094","0.0-6.0-0.93","REGA","3","f","rechts","23","","fixation","","","",""
"873","img/150_60.png","70","image-keyboard-response","193","180968","0.0-6.0-1.93","REGA","3","f","rechts","23","","","object","f","150","true"
"null","<div style=""font-size:60px;"">+</div>","null","html-keyboard-response","194","181274","0.0-6.0-0.94","REGA","3","f","rechts","23","","fixation","","","",""
"1381","img/120_210.png","70","image-keyboard-response","195","182656","0.0-6.0-1.94","REGA","3","f","rechts","23","","","object","f","120","true"
"null","<div style=""font-size:60px;"">+</div>","null","html-keyboard-response","196","183008","0.0-6.0-0.95","REGA","3","f","rechts","23","","fixation","","","",""
"1206","img/150_240.png","74","image-keyboard-response","197","184215","0.0-6.0-1.95","REGA","3","f","rechts","23","","","object","j","150","true"
"null","<div style=""font-size:60px;"">+</div>","null","html-keyboard-response","198","184719","0.0-6.0-0.96","REGA","3","f","rechts","23","","fixation","","","",""
"922","img/120_90.png","70","image-keyboard-response","199","185641","0.0-6.0-1.96","REGA","3","f","rechts","23","","","object","f","120","true"
"null","<div style=""font-size:60px;"">+</div>","null","html-keyboard-response","200","186096","0.0-6.0-0.97","REGA","3","f","rechts","23","","fixation","","","",""
"742","img/60_330.png","74","image-keyboard-response","201","186838","0.0-6.0-1.97","REGA","3","f","rechts","23","","","object","j","60","true"
"null","<div style=""font-size:60px;"">+</div>","null","html-keyboard-response","202","187194","0.0-6.0-0.98","REGA","3","f","rechts","23","","fixation","","","",""
"1003","img/30_60.png","74","image-keyboard-response","203","188197","0.0-6.0-1.98","REGA","3","f","rechts","23","","","object","j","30","true"
"null","<div style=""font-size:60px;"">+</div>","null","html-keyboard-response","204","188551","0.0-6.0-0.99","REGA","3","f","rechts","23","","fixation","","","",""
"685","img/0_90.png","74","image-keyboard-response","205","189237","0.0-6.0-1.99","REGA","3","f","rechts","23","","","object","j","0","true"
"null","<div style=""font-size:60px;"">+</div>","null","html-keyboard-response","206","189542","0.0-6.0-0.100","REGA","3","f","rechts","23","","fixation","","","",""
"994","img/30_270.png","70","image-keyboard-response","207","190536","0.0-6.0-1.100","REGA","3","f","rechts","23","","","object","f","30","true"
"null","<div style=""font-size:60px;"">+</div>","null","html-keyboard-response","208","190891","0.0-6.0-0.101","REGA","3","f","rechts","23","","fixation","","","",""
"1232","img/L90_180.png","74","image-keyboard-response","209","192124","0.0-6.0-1.101","REGA","3","f","rechts","23","","","object","j","90","true"
"null","<div style=""font-size:60px;"">+</div>","null","html-keyboard-response","210","192579","0.0-6.0-0.102","REGA","3","f","rechts","23","","fixation","","","",""
"675","img/0_150.png","74","image-keyboard-response","211","193256","0.0-6.0-1.102","REGA","3","f","rechts","23","","","object","j","0","true"
"null","<div style=""font-size:60px;"">+</div>","null","html-keyboard-response","212","193611","0.0-6.0-0.103","REGA","3","f","rechts","23","","fixation","","","",""
"619","img/0_330.png","70","image-keyboard-response","213","194230","0.0-6.0-1.103","REGA","3","f","rechts","23","","","object","f","0","true"
"null","<div style=""font-size:60px;"">+</div>","null","html-keyboard-response","214","194733","0.0-6.0-0.104","REGA","3","f","rechts","23","","fixation","","","",""
"549","img/0_60.png","74","image-keyboard-response","215","195283","0.0-6.0-1.104","REGA","3","f","rechts","23","","","object","j","0","true"
"null","<div style=""font-size:60px;"">+</div>","null","html-keyboard-response","216","195735","0.0-6.0-0.105","REGA","3","f","rechts","23","","fixation","","","",""
"1112","img/L120_180.png","74","image-keyboard-response","217","196849","0.0-6.0-1.105","REGA","3","f","rechts","23","","","object","j","120","true"
"null","<div style=""font-size:60px;"">+</div>","null","html-keyboard-response","218","197253","0.0-6.0-0.106","REGA","3","f","rechts","23","","fixation","","","",""
"1016","img/30_240.png","70","image-keyboard-response","219","198270","0.0-6.0-1.106","REGA","3","f","rechts","23","","","object","f","30","true"
"null","<div style=""font-size:60px;"">+</div>","null","html-keyboard-response","220","198671","0.0-6.0-0.107","REGA","3","f","rechts","23","","fixation","","","",""
"1208","img/90_240.png","74","image-keyboard-response","221","199880","0.0-6.0-1.107","REGA","3","f","rechts","23","","","object","f","90","false"
"null","<div style=""font-size:60px;"">+</div>","null","html-keyboard-response","222","200335","0.0-6.0-0.108","REGA","3","f","rechts","23","","fixation","","","",""
"974","img/120_90.png","70","image-keyboard-response","223","201309","0.0-6.0-1.108","REGA","3","f","rechts","23","","","object","f","120","true"
"null","<div style=""font-size:60px;"">+</div>","null","html-keyboard-response","224","201760","0.0-6.0-0.109","REGA","3","f","rechts","23","","fixation","","","",""
"2035","img/120_180.png","70","image-keyboard-response","225","203796","0.0-6.0-1.109","REGA","3","f","rechts","23","","","object","f","120","true"
"null","<div style=""font-size:60px;"">+</div>","null","html-keyboard-response","226","204299","0.0-6.0-0.110","REGA","3","f","rechts","23","","fixation","","","",""
"1557","img/90_180.png","70","image-keyboard-response","227","205858","0.0-6.0-1.110","REGA","3","f","rechts","23","","","object","f","90","true"
"null","<div style=""font-size:60px;"">+</div>","null","html-keyboard-response","228","206312","0.0-6.0-0.111","REGA","3","f","rechts","23","","fixation","","","",""
"1143","img/60_180.png","70","image-keyboard-response","229","207456","0.0-6.0-1.111","REGA","3","f","rechts","23","","","object","f","60","true"
"null","<div style=""font-size:60px;"">+</div>","null","html-keyboard-response","230","207811","0.0-6.0-0.112","REGA","3","f","rechts","23","","fixation","","","",""
"1139","img/L30_180.png","74","image-keyboard-response","231","208951","0.0-6.0-1.112","REGA","3","f","rechts","23","","","object","j","30","true"
"null","<div style=""font-size:60px;"">+</div>","null","html-keyboard-response","232","209306","0.0-6.0-0.113","REGA","3","f","rechts","23","","fixation","","","",""
"1621","img/30_90.png","74","image-keyboard-response","233","210927","0.0-6.0-1.113","REGA","3","f","rechts","23","","","object","j","30","true"
"null","<div style=""font-size:60px;"">+</div>","null","html-keyboard-response","234","211379","0.0-6.0-0.114","REGA","3","f","rechts","23","","fixation","","","",""
"1215","img/150_60.png","70","image-keyboard-response","235","212596","0.0-6.0-1.114","REGA","3","f","rechts","23","","","object","f","150","true"
"null","<div style=""font-size:60px;"">+</div>","null","html-keyboard-response","236","213098","0.0-6.0-0.115","REGA","3","f","rechts","23","","fixation","","","",""
"1263","img/L60_180.png","74","image-keyboard-response","237","214361","0.0-6.0-1.115","REGA","3","f","rechts","23","","","object","j","60","true"
"null","<div style=""font-size:60px;"">+</div>","null","html-keyboard-response","238","214867","0.0-6.0-0.116","REGA","3","f","rechts","23","","fixation","","","",""
"1331","img/150_240.png","70","image-keyboard-response","239","216199","0.0-6.0-1.116","REGA","3","f","rechts","23","","","object","j","150","false"
"null","<div style=""font-size:60px;"">+</div>","null","html-keyboard-response","240","216654","0.0-6.0-0.117","REGA","3","f","rechts","23","","fixation","","","",""
"846","img/120_330.png","74","image-keyboard-response","241","217501","0.0-6.0-1.117","REGA","3","f","rechts","23","","","object","j","120","true"
"null","<div style=""font-size:60px;"">+</div>","null","html-keyboard-response","242","217856","0.0-6.0-0.118","REGA","3","f","rechts","23","","fixation","","","",""
"1641","img/120_150.png","74","image-keyboard-response","243","219498","0.0-6.0-1.118","REGA","3","f","rechts","23","","","object","j","120","true"
"null","<div style=""font-size:60px;"">+</div>","null","html-keyboard-response","244","219899","0.0-6.0-0.119","REGA","3","f","rechts","23","","fixation","","","",""
"1555","img/L150_180.png","74","image-keyboard-response","245","221455","0.0-6.0-1.119","REGA","3","f","rechts","23","","","object","j","150","true"
"null","<div style=""font-size:60px;"">+</div>","null","html-keyboard-response","246","221759","0.0-6.0-0.120","REGA","3","f","rechts","23","","fixation","","","",""
"1802","img/150_300.png","74","image-keyboard-response","247","223562","0.0-6.0-1.120","REGA","3","f","rechts","23","","","object","j","150","true"
"null","<div style=""font-size:60px;"">+</div>","null","html-keyboard-response","248","224066","0.0-6.0-0.121","REGA","3","f","rechts","23","","fixation","","","",""
"1494","img/150_180.png","70","image-keyboard-response","249","225561","0.0-6.0-1.121","REGA","3","f","rechts","23","","","object","f","150","true"
"null","<div style=""font-size:60px;"">+</div>","null","html-keyboard-response","250","225964","0.0-6.0-0.122","REGA","3","f","rechts","23","","fixation","","","",""
"793","img/30_300.png","74","image-keyboard-response","251","226758","0.0-6.0-1.122","REGA","3","f","rechts","23","","","object","f","30","false"
"null","<div style=""font-size:60px;"">+</div>","null","html-keyboard-response","252","227110","0.0-6.0-0.123","REGA","3","f","rechts","23","","fixation","","","",""
"811","img/90_300.png","74","image-keyboard-response","253","227922","0.0-6.0-1.123","REGA","3","f","rechts","23","","","object","j","90","true"
"null","<div style=""font-size:60px;"">+</div>","null","html-keyboard-response","254","228427","0.0-6.0-0.124","REGA","3","f","rechts","23","","fixation","","","",""
"1242","img/120_270.png","74","image-keyboard-response","255","229670","0.0-6.0-1.124","REGA","3","f","rechts","23","","","object","j","120","true"
"null","<div style=""font-size:60px;"">+</div>","null","html-keyboard-response","256","230075","0.0-6.0-0.125","REGA","3","f","rechts","23","","fixation","","","",""
"777","img/90_330.png","74","image-keyboard-response","257","230853","0.0-6.0-1.125","REGA","3","f","rechts","23","","","object","j","90","true"
"null","<div style=""font-size:60px;"">+</div>","null","html-keyboard-response","258","231208","0.0-6.0-0.126","REGA","3","f","rechts","23","","fixation","","","",""
"1286","img/60_150.png","74","image-keyboard-response","259","232494","0.0-6.0-1.126","REGA","3","f","rechts","23","","","object","j","60","true"
"null","<div style=""font-size:60px;"">+</div>","null","html-keyboard-response","260","232849","0.0-6.0-0.127","REGA","3","f","rechts","23","","fixation","","","",""
"727","img/30_270.png","74","image-keyboard-response","261","233577","0.0-6.0-1.127","REGA","3","f","rechts","23","","","object","f","30","false"
"null","<div style=""font-size:60px;"">+</div>","null","html-keyboard-response","262","234029","0.0-6.0-0.128","REGA","3","f","rechts","23","","fixation","","","",""
"1274","img/60_90.png","70","image-keyboard-response","263","235304","0.0-6.0-1.128","REGA","3","f","rechts","23","","","object","j","60","false"
"null","<div style=""font-size:60px;"">+</div>","null","html-keyboard-response","264","235608","0.0-6.0-0.129","REGA","3","f","rechts","23","","fixation","","","",""
"1083","img/60_210.png","70","image-keyboard-response","265","236692","0.0-6.0-1.129","REGA","3","f","rechts","23","","","object","f","60","true"
"null","<div style=""font-size:60px;"">+</div>","null","html-keyboard-response","266","237196","0.0-6.0-0.130","REGA","3","f","rechts","23","","fixation","","","",""
"711","img/0_330.png","70","image-keyboard-response","267","237908","0.0-6.0-1.130","REGA","3","f","rechts","23","","","object","f","0","true"
"null","<div style=""font-size:60px;"">+</div>","null","html-keyboard-response","268","238211","0.0-6.0-0.131","REGA","3","f","rechts","23","","fixation","","","",""
"623","img/0_240.png","70","image-keyboard-response","269","238835","0.0-6.0-1.131","REGA","3","f","rechts","23","","","object","f","0","true"
"null","<div style=""font-size:60px;"">+</div>","null","html-keyboard-response","270","239288","0.0-6.0-0.132","REGA","3","f","rechts","23","","fixation","","","",""
"1265","img/150_120.png","70","image-keyboard-response","271","240554","0.0-6.0-1.132","REGA","3","f","rechts","23","","","object","f","150","true"
"null","<div style=""font-size:60px;"">+</div>","null","html-keyboard-response","272","240907","0.0-6.0-0.133","REGA","3","f","rechts","23","","fixation","","","",""
"1159","img/60_270.png","70","image-keyboard-response","273","242067","0.0-6.0-1.133","REGA","3","f","rechts","23","","","object","f","60","true"
"null","<div style=""font-size:60px;"">+</div>","null","html-keyboard-response","274","242473","0.0-6.0-0.134","REGA","3","f","rechts","23","","fixation","","","",""
"633","img/0_270.png","70","image-keyboard-response","275","243106","0.0-6.0-1.134","REGA","3","f","rechts","23","","","object","f","0","true"
"null","<div style=""font-size:60px;"">+</div>","null","html-keyboard-response","276","243512","0.0-6.0-0.135","REGA","3","f","rechts","23","","fixation","","","",""
"1315","img/150_90.png","70","image-keyboard-response","277","244827","0.0-6.0-1.135","REGA","3","f","rechts","23","","","object","f","150","true"
"null","<div style=""font-size:60px;"">+</div>","null","html-keyboard-response","278","245330","0.0-6.0-0.136","REGA","3","f","rechts","23","","fixation","","","",""
"1414","img/120_210.png","74","image-keyboard-response","279","246745","0.0-6.0-1.136","REGA","3","f","rechts","23","","","object","f","120","false"
"null","<div style=""font-size:60px;"">+</div>","null","html-keyboard-response","280","247249","0.0-6.0-0.137","REGA","3","f","rechts","23","","fixation","","","",""
"862","img/150_270.png","74","image-keyboard-response","281","248112","0.0-6.0-1.137","REGA","3","f","rechts","23","","","object","j","150","true"
"null","<div style=""font-size:60px;"">+</div>","null","html-keyboard-response","282","248516","0.0-6.0-0.138","REGA","3","f","rechts","23","","fixation","","","",""
"632","img/0_90.png","74","image-keyboard-response","283","249149","0.0-6.0-1.138","REGA","3","f","rechts","23","","","object","j","0","true"
"null","<div style=""font-size:60px;"">+</div>","null","html-keyboard-response","284","249602","0.0-6.0-0.139","REGA","3","f","rechts","23","","fixation","","","",""
"1438","img/90_150.png","70","image-keyboard-response","285","251041","0.0-6.0-1.139","REGA","3","f","rechts","23","","","object","j","90","false"
"null","<div style=""font-size:60px;"">+</div>","null","html-keyboard-response","286","251395","0.0-6.0-0.140","REGA","3","f","rechts","23","","fixation","","","",""
"1343","img/120_30.png","70","image-keyboard-response","287","252739","0.0-6.0-1.140","REGA","3","f","rechts","23","","","object","f","120","true"
"null","<div style=""font-size:60px;"">+</div>","null","html-keyboard-response","288","253094","0.0-6.0-0.141","REGA","3","f","rechts","23","","fixation","","","",""
"597","img/0_300.png","70","image-keyboard-response","289","253691","0.0-6.0-1.141","REGA","3","f","rechts","23","","","object","f","0","true"
"null","<div style=""font-size:60px;"">+</div>","null","html-keyboard-response","290","254046","0.0-6.0-0.142","REGA","3","f","rechts","23","","fixation","","","",""
"751","img/60_330.png","74","image-keyboard-response","291","254798","0.0-6.0-1.142","REGA","3","f","rechts","23","","","object","j","60","true"
"null","<div style=""font-size:60px;"">+</div>","null","html-keyboard-response","292","255204","0.0-6.0-0.143","REGA","3","f","rechts","23","","fixation","","","",""
"1074","img/90_60.png","70","image-keyboard-response","293","256278","0.0-6.0-1.143","REGA","3","f","rechts","23","","","object","f","90","true"
"null","<div style=""font-size:60px;"">+</div>","null","html-keyboard-response","294","256734","0.0-6.0-0.144","REGA","3","f","rechts","23","","fixation","","","",""
"1299","img/90_210.png","74","image-keyboard-response","295","258033","0.0-6.0-1.144","REGA","3","f","rechts","23","","","object","f","90","false"
"null","<div style=""font-size:60px;"">+</div>","null","html-keyboard-response","296","258489","0.0-6.0-0.145","REGA","3","f","rechts","23","","fixation","","","",""
"621","img/0_150.png","74","image-keyboard-response","297","259110","0.0-6.0-1.145","REGA","3","f","rechts","23","","","object","j","0","true"
"null","<div style=""font-size:60px;"">+</div>","null","html-keyboard-response","298","259464","0.0-6.0-0.146","REGA","3","f","rechts","23","","fixation","","","",""
"1804","img/30_180.png","70","image-keyboard-response","299","261270","0.0-6.0-1.146","REGA","3","f","rechts","23","","","object","f","30","true"
"null","<div style=""font-size:60px;"">+</div>","null","html-keyboard-response","300","261774","0.0-6.0-0.147","REGA","3","f","rechts","23","","fixation","","","",""
"1138","img/90_120.png","74","image-keyboard-response","301","262913","0.0-6.0-1.147","REGA","3","f","rechts","23","","","object","j","90","true"
"null","<div style=""font-size:60px;"">+</div>","null","html-keyboard-response","302","263369","0.0-6.0-0.148","REGA","3","f","rechts","23","","fixation","","","",""
"826","img/90_30.png","70","image-keyboard-response","303","264197","0.0-6.0-1.148","REGA","3","f","rechts","23","","","object","f","90","true"
"null","<div style=""font-size:60px;"">+</div>","null","html-keyboard-response","304","264501","0.0-6.0-0.149","REGA","3","f","rechts","23","","fixation","","","",""
"661","img/0_30.png","74","image-keyboard-response","305","265163","0.0-6.0-1.149","REGA","3","f","rechts","23","","","object","j","0","true"
"null","<div style=""font-size:60px;"">+</div>","null","html-keyboard-response","306","265515","0.0-6.0-0.150","REGA","3","f","rechts","23","","fixation","","","",""
"603","img/0_120.png","74","image-keyboard-response","307","266119","0.0-6.0-1.150","REGA","3","f","rechts","23","","","object","j","0","true"
"null","<div style=""font-size:60px;"">+</div>","null","html-keyboard-response","308","266625","0.0-6.0-0.151","REGA","3","f","rechts","23","","fixation","","","",""
"788","img/30_60.png","70","image-keyboard-response","309","267413","0.0-6.0-1.151","REGA","3","f","rechts","23","","","object","j","30","false"
"null","<div style=""font-size:60px;"">+</div>","null","html-keyboard-response","310","267869","0.0-6.0-0.152","REGA","3","f","rechts","23","","fixation","","","",""
"829","img/60_30.png","70","image-keyboard-response","311","268698","0.0-6.0-1.152","REGA","3","f","rechts","23","","","object","f","60","true"
"null","<div style=""font-size:60px;"">+</div>","null","html-keyboard-response","312","269152","0.0-6.0-0.153","REGA","3","f","rechts","23","","fixation","","","",""
"812","img/30_120.png","74","image-keyboard-response","313","269964","0.0-6.0-1.153","REGA","3","f","rechts","23","","","object","j","30","true"
"null","<div style=""font-size:60px;"">+</div>","null","html-keyboard-response","314","270420","0.0-6.0-0.154","REGA","3","f","rechts","23","","fixation","","","",""
"666","img/0_210.png","70","image-keyboard-response","315","271087","0.0-6.0-1.154","REGA","3","f","rechts","23","","","object","f","0","true"
"null","<div style=""font-size:60px;"">+</div>","null","html-keyboard-response","316","271393","0.0-6.0-0.155","REGA","3","f","rechts","23","","fixation","","","",""
"1173","img/L90_180.png","74","image-keyboard-response","317","272567","0.0-6.0-1.155","REGA","3","f","rechts","23","","","object","j","90","true"
"null","<div style=""font-size:60px;"">+</div>","null","html-keyboard-response","318","273070","0.0-6.0-0.156","REGA","3","f","rechts","23","","fixation","","","",""
"1003","img/30_300.png","70","image-keyboard-response","319","274073","0.0-6.0-1.156","REGA","3","f","rechts","23","","","object","f","30","true"
"null","<div style=""font-size:60px;"">+</div>","null","html-keyboard-response","320","274376","0.0-6.0-0.157","REGA","3","f","rechts","23","","fixation","","","",""
"718","img/0_300.png","70","image-keyboard-response","321","275095","0.0-6.0-1.157","REGA","3","f","rechts","23","","","object","f","0","true"
"null","<div style=""font-size:60px;"">+</div>","null","html-keyboard-response","322","275547","0.0-6.0-0.158","REGA","3","f","rechts","23","","fixation","","","",""
"1159","img/90_240.png","70","image-keyboard-response","323","276708","0.0-6.0-1.158","REGA","3","f","rechts","23","","","object","f","90","true"
"null","<div style=""font-size:60px;"">+</div>","null","html-keyboard-response","324","277010","0.0-6.0-0.159","REGA","3","f","rechts","23","","fixation","","","",""
"706","img/0_60.png","74","image-keyboard-response","325","277716","0.0-6.0-1.159","REGA","3","f","rechts","23","","","object","j","0","true"
"null","<div style=""font-size:60px;"">+</div>","null","html-keyboard-response","326","278119","0.0-6.0-0.160","REGA","3","f","rechts","23","","fixation","","","",""
"1479","img/90_300.png","74","image-keyboard-response","327","279599","0.0-6.0-1.160","REGA","3","f","rechts","23","","","object","j","90","true"
"null","<div style=""font-size:60px;"">+</div>","null","html-keyboard-response","328","279901","0.0-6.0-0.161","REGA","3","f","rechts","23","","fixation","","","",""
"1202","img/L60_180.png","74","image-keyboard-response","329","281103","0.0-6.0-1.161","REGA","3","f","rechts","23","","","object","j","60","true"
"null","<div style=""font-size:60px;"">+</div>","null","html-keyboard-response","330","281559","0.0-6.0-0.162","REGA","3","f","rechts","23","","fixation","","","",""
"591","img/0_240.png","70","image-keyboard-response","331","282151","0.0-6.0-1.162","REGA","3","f","rechts","23","","","object","f","0","true"
"null","<div style=""font-size:60px;"">+</div>","null","html-keyboard-response","332","282606","0.0-6.0-0.163","REGA","3","f","rechts","23","","fixation","","","",""
"711","img/0_150.png","74","image-keyboard-response","333","283318","0.0-6.0-1.163","REGA","3","f","rechts","23","","","object","j","0","true"
"null","<div style=""font-size:60px;"">+</div>","null","html-keyboard-response","334","283723","0.0-6.0-0.164","REGA","3","f","rechts","23","","fixation","","","",""
"617","img/0_120.png","74","image-keyboard-response","335","284340","0.0-6.0-1.164","REGA","3","f","rechts","23","","","object","j","0","true"
"null","<div style=""font-size:60px;"">+</div>","null","html-keyboard-response","336","284742","0.0-6.0-0.165","REGA","3","f","rechts","23","","fixation","","","",""
"927","img/120_270.png","74","image-keyboard-response","337","285670","0.0-6.0-1.165","REGA","3","f","rechts","23","","","object","j","120","true"
"null","<div style=""font-size:60px;"">+</div>","null","html-keyboard-response","338","286175","0.0-6.0-0.166","REGA","3","f","rechts","23","","fixation","","","",""
"743","img/90_330.png","74","image-keyboard-response","339","286919","0.0-6.0-1.166","REGA","3","f","rechts","23","","","object","j","90","true"
"null","<div style=""font-size:60px;"">+</div>","null","html-keyboard-response","340","287272","0.0-6.0-0.167","REGA","3","f","rechts","23","","fixation","","","",""
"1005","img/90_60.png","70","image-keyboard-response","341","288278","0.0-6.0-1.167","REGA","3","f","rechts","23","","","object","f","90","true"
"null","<div style=""font-size:60px;"">+</div>","null","html-keyboard-response","342","288782","0.0-6.0-0.168","REGA","3","f","rechts","23","","fixation","","","",""
"710","img/0_330.png","70","image-keyboard-response","343","289493","0.0-6.0-1.168","REGA","3","f","rechts","23","","","object","f","0","true"
"null","<div style=""font-size:60px;"">+</div>","null","html-keyboard-response","344","289999","0.0-6.0-0.169","REGA","3","f","rechts","23","","fixation","","","",""
"1136","img/L150_180.png","74","image-keyboard-response","345","291136","0.0-6.0-1.169","REGA","3","f","rechts","23","","","object","j","150","true"
"null","<div style=""font-size:60px;"">+</div>","null","html-keyboard-response","346","291441","0.0-6.0-0.170","REGA","3","f","rechts","23","","fixation","","","",""
"732","img/60_30.png","70","image-keyboard-response","347","292174","0.0-6.0-1.170","REGA","3","f","rechts","23","","","object","f","60","true"
"null","<div style=""font-size:60px;"">+</div>","null","html-keyboard-response","348","292677","0.0-6.0-0.171","REGA","3","f","rechts","23","","fixation","","","",""
"685","img/0_210.png","70","image-keyboard-response","349","293362","0.0-6.0-1.171","REGA","3","f","rechts","23","","","object","f","0","true"
"null","<div style=""font-size:60px;"">+</div>","null","html-keyboard-response","350","293713","0.0-6.0-0.172","REGA","3","f","rechts","23","","fixation","","","",""
"1319","img/150_60.png","70","image-keyboard-response","351","295034","0.0-6.0-1.172","REGA","3","f","rechts","23","","","object","f","150","true"
"null","<div style=""font-size:60px;"">+</div>","null","html-keyboard-response","352","295486","0.0-6.0-0.173","REGA","3","f","rechts","23","","fixation","","","",""
"621","img/0_270.png","70","image-keyboard-response","353","296107","0.0-6.0-1.173","REGA","3","f","rechts","23","","","object","f","0","true"
"null","<div style=""font-size:60px;"">+</div>","null","html-keyboard-response","354","296612","0.0-6.0-0.174","REGA","3","f","rechts","23","","fixation","","","",""
"699","img/0_30.png","74","image-keyboard-response","355","297312","0.0-6.0-1.174","REGA","3","f","rechts","23","","","object","j","0","true"
"null","<div style=""font-size:60px;"">+</div>","null","html-keyboard-response","356","297615","0.0-6.0-0.175","REGA","3","f","rechts","23","","fixation","","","",""
"1797","img/120_180.png","70","image-keyboard-response","357","299412","0.0-6.0-1.175","REGA","3","f","rechts","23","","","object","f","120","true"
"null","<div style=""font-size:60px;"">+</div>","null","html-keyboard-response","358","299914","0.0-6.0-0.176","REGA","3","f","rechts","23","","fixation","","","",""
"1085","img/60_90.png","74","image-keyboard-response","359","301000","0.0-6.0-1.176","REGA","3","f","rechts","23","","","object","j","60","true"
"null","<div style=""font-size:60px;"">+</div>","null","html-keyboard-response","360","301354","0.0-6.0-0.177","REGA","3","f","rechts","23","","fixation","","","",""
"1318","img/90_150.png","70","image-keyboard-response","361","302673","0.0-6.0-1.177","REGA","3","f","rechts","23","","","object","j","90","false"
"null","<div style=""font-size:60px;"">+</div>","null","html-keyboard-response","362","303025","0.0-6.0-0.178","REGA","3","f","rechts","23","","fixation","","","",""
"727","img/90_30.png","70","image-keyboard-response","363","303752","0.0-6.0-1.178","REGA","3","f","rechts","23","","","object","f","90","true"
"null","<div style=""font-size:60px;"">+</div>","null","html-keyboard-response","364","304057","0.0-6.0-0.179","REGA","3","f","rechts","23","","fixation","","","",""
"588","img/0_90.png","74","image-keyboard-response","365","304645","0.0-6.0-1.179","REGA","3","f","rechts","23","","","object","j","0","true"
"null","<div style=""font-size:60px;"">+</div>","null","html-keyboard-response","366","305045","0.0-6.0-0.180","REGA","3","f","rechts","23","","fixation","","","",""
"906","img/90_120.png","74","image-keyboard-response","367","305952","0.0-6.0-1.180","REGA","3","f","rechts","23","","","object","j","90","true"
"null","<div style=""font-size:60px;"">+</div>","null","html-keyboard-response","368","306405","0.0-6.0-0.181","REGA","3","f","rechts","23","","fixation","","","",""
"1445","img/150_240.png","74","image-keyboard-response","369","307850","0.0-6.0-1.181","REGA","3","f","rechts","23","","","object","j","150","true"
"null","<div style=""font-size:60px;"">+</div>","null","html-keyboard-response","370","308352","0.0-6.0-0.182","REGA","3","f","rechts","23","","fixation","","","",""
"675","img/60_330.png","74","image-keyboard-response","371","309028","0.0-6.0-1.182","REGA","3","f","rechts","23","","","object","j","60","true"
"null","<div style=""font-size:60px;"">+</div>","null","html-keyboard-response","372","309381","0.0-6.0-0.183","REGA","3","f","rechts","23","","fixation","","","",""
"1124","img/30_60.png","70","image-keyboard-response","373","310506","0.0-6.0-1.183","REGA","3","f","rechts","23","","","object","j","30","false"
"null","<div style=""font-size:60px;"">+</div>","null","html-keyboard-response","374","310912","0.0-6.0-0.184","REGA","3","f","rechts","23","","fixation","","","",""
"1482","img/120_90.png","70","image-keyboard-response","375","312395","0.0-6.0-1.184","REGA","3","f","rechts","23","","","object","f","120","true"
"null","<div style=""font-size:60px;"">+</div>","null","html-keyboard-response","376","312746","0.0-6.0-0.185","REGA","3","f","rechts","23","","fixation","","","",""
"940","img/30_90.png","74","image-keyboard-response","377","313687","0.0-6.0-1.185","REGA","3","f","rechts","23","","","object","j","30","true"
"null","<div style=""font-size:60px;"">+</div>","null","html-keyboard-response","378","314142","0.0-6.0-0.186","REGA","3","f","rechts","23","","fixation","","","",""
"895","img/60_210.png","74","image-keyboard-response","379","315038","0.0-6.0-1.186","REGA","3","f","rechts","23","","","object","f","60","false"
"null","<div style=""font-size:60px;"">+</div>","null","html-keyboard-response","380","315442","0.0-6.0-0.187","REGA","3","f","rechts","23","","fixation","","","",""
"2120","img/60_180.png","70","image-keyboard-response","381","317562","0.0-6.0-1.187","REGA","3","f","rechts","23","","","object","f","60","true"
"null","<div style=""font-size:60px;"">+</div>","null","html-keyboard-response","382","318017","0.0-6.0-0.188","REGA","3","f","rechts","23","","fixation","","","",""
"1218","img/L30_180.png","74","image-keyboard-response","383","319235","0.0-6.0-1.188","REGA","3","f","rechts","23","","","object","j","30","true"
"null","<div style=""font-size:60px;"">+</div>","null","html-keyboard-response","384","319539","0.0-6.0-0.189","REGA","3","f","rechts","23","","fixation","","","",""
"1429","img/30_180.png","70","image-keyboard-response","385","320968","0.0-6.0-1.189","REGA","3","f","rechts","23","","","object","f","30","true"
"null","<div style=""font-size:60px;"">+</div>","null","html-keyboard-response","386","321420","0.0-6.0-0.190","REGA","3","f","rechts","23","","fixation","","","",""
"1196","img/60_270.png","70","image-keyboard-response","387","322617","0.0-6.0-1.190","REGA","3","f","rechts","23","","","object","f","60","true"
"null","<div style=""font-size:60px;"">+</div>","null","html-keyboard-response","388","322970","0.0-6.0-0.191","REGA","3","f","rechts","23","","fixation","","","",""
"844","img/120_330.png","74","image-keyboard-response","389","323814","0.0-6.0-1.191","REGA","3","f","rechts","23","","","object","j","120","true"
"null","<div style=""font-size:60px;"">+</div>","null","html-keyboard-response","390","324119","0.0-6.0-0.192","REGA","3","f","rechts","23","","fixation","","","",""
"1599","img/120_150.png","70","image-keyboard-response","391","325719","0.0-6.0-1.192","REGA","3","f","rechts","23","","","object","j","120","false"
"null","<div style=""font-size:60px;"">+</div>","null","html-keyboard-response","392","326124","0.0-6.0-0.193","REGA","3","f","rechts","23","","fixation","","","",""
"1582","img/30_240.png","74","image-keyboard-response","393","327706","0.0-6.0-1.193","REGA","3","f","rechts","23","","","object","f","30","false"
"null","<div style=""font-size:60px;"">+</div>","null","html-keyboard-response","394","328012","0.0-6.0-0.194","REGA","3","f","rechts","23","","fixation","","","",""
"1829","img/120_210.png","70","image-keyboard-response","395","329841","0.0-6.0-1.194","REGA","3","f","rechts","23","","","object","f","120","true"
"null","<div style=""font-size:60px;"">+</div>","null","html-keyboard-response","396","330346","0.0-6.0-0.195","REGA","3","f","rechts","23","","fixation","","","",""
"1080","img/L90_180.png","74","image-keyboard-response","397","331426","0.0-6.0-1.195","REGA","3","f","rechts","23","","","object","j","90","true"
"null","<div style=""font-size:60px;"">+</div>","null","html-keyboard-response","398","331930","0.0-6.0-0.196","REGA","3","f","rechts","23","","fixation","","","",""
"1477","img/150_120.png","74","image-keyboard-response","399","333408","0.0-6.0-1.196","REGA","3","f","rechts","23","","","object","f","150","false"
"null","<div style=""font-size:60px;"">+</div>","null","html-keyboard-response","400","333713","0.0-6.0-0.197","REGA","3","f","rechts","23","","fixation","","","",""
"1477","img/60_150.png","74","image-keyboard-response","401","335191","0.0-6.0-1.197","REGA","3","f","rechts","23","","","object","j","60","true"
"null","<div style=""font-size:60px;"">+</div>","null","html-keyboard-response","402","335546","0.0-6.0-0.198","REGA","3","f","rechts","23","","fixation","","","",""
"1772","img/150_270.png","74","image-keyboard-response","403","337318","0.0-6.0-1.198","REGA","3","f","rechts","23","","","object","j","150","true"
"null","<div style=""font-size:60px;"">+</div>","null","html-keyboard-response","404","337672","0.0-6.0-0.199","REGA","3","f","rechts","23","","fixation","","","",""
"1445","img/120_30.png","70","image-keyboard-response","405","339118","0.0-6.0-1.199","REGA","3","f","rechts","23","","","object","f","120","true"
"null","<div style=""font-size:60px;"">+</div>","null","html-keyboard-response","406","339419","0.0-6.0-0.200","REGA","3","f","rechts","23","","fixation","","","",""
"2902","img/90_180.png","70","image-keyboard-response","407","342322","0.0-6.0-1.200","REGA","3","f","rechts","23","","","object","f","90","true"
"null","<div style=""font-size:60px;"">+</div>","null","html-keyboard-response","408","342728","0.0-6.0-0.201","REGA","3","f","rechts","23","","fixation","","","",""
"2189","img/90_210.png","70","image-keyboard-response","409","344917","0.0-6.0-1.201","REGA","3","f","rechts","23","","","object","f","90","true"
"null","<div style=""font-size:60px;"">+</div>","null","html-keyboard-response","410","345223","0.0-6.0-0.202","REGA","3","f","rechts","23","","fixation","","","",""
"1736","img/150_180.png","70","image-keyboard-response","411","346960","0.0-6.0-1.202","REGA","3","f","rechts","23","","","object","f","150","true"
"null","<div style=""font-size:60px;"">+</div>","null","html-keyboard-response","412","347416","0.0-6.0-0.203","REGA","3","f","rechts","23","","fixation","","","",""
"1269","img/150_90.png","74","image-keyboard-response","413","348685","0.0-6.0-1.203","REGA","3","f","rechts","23","","","object","f","150","false"
"null","<div style=""font-size:60px;"">+</div>","null","html-keyboard-response","414","349089","0.0-6.0-0.204","REGA","3","f","rechts","23","","fixation","","","",""
"2102","img/30_120.png","74","image-keyboard-response","415","351192","0.0-6.0-1.204","REGA","3","f","rechts","23","","","object","j","30","true"
"null","<div style=""font-size:60px;"">+</div>","null","html-keyboard-response","416","351544","0.0-6.0-0.205","REGA","3","f","rechts","23","","fixation","","","",""
"1494","img/150_300.png","74","image-keyboard-response","417","353038","0.0-6.0-1.205","REGA","3","f","rechts","23","","","object","j","150","true"
"null","<div style=""font-size:60px;"">+</div>","null","html-keyboard-response","418","353494","0.0-6.0-0.206","REGA","3","f","rechts","23","","fixation","","","",""
"1371","img/L120_180.png","74","image-keyboard-response","419","354865","0.0-6.0-1.206","REGA","3","f","rechts","23","","","object","j","120","true"
"null","<div style=""font-size:60px;"">+</div>","null","html-keyboard-response","420","355270","0.0-6.0-0.207","REGA","3","f","rechts","23","","fixation","","","",""
"795","img/30_270.png","70","image-keyboard-response","421","356065","0.0-6.0-1.207","REGA","3","f","rechts","23","","","object","f","30","true"
"2729","<p>Du hast in 86% der Versuche korrekt entschieden.</p><p>Deine durchschnittliche Reaktionszeit war  1060ms.</p><p>Dr&uuml;cke eine beliebige Taste, um die Session zu beenden. Vielen Dank!</p>","71","html-keyboard-response","422","358795","0.0-7.0","REGA","3","f","rechts","23","","","","","",""
