"rt","stimulus","key_press","trial_type","trial_index","time_elapsed","internal_node_id","subject","session","sex","handedness","age","responses","test_part","condition","correct_response","angle","correct"
"16298","<p>Mental Rotation Experiment.</p> <p>Dr&uuml;cke eine beliebige Taste, um anzufangen.</p>","72","html-keyboard-response","0","16335","0.0-0.0","REGA","4","f","rechts","23","","","","","",""
"3507","","","survey-text","1","19848","0.0-1.0","REGA","4","f","rechts","23","{""Q0"":""REGA""}","","","","",""
"6563","","","survey-text","2","26413","0.0-2.0","REGA","4","f","rechts","23","{""Q0"":""4""}","","","","",""
"4510","","","survey-multi-choice","3","30930","0.0-3.0","REGA","4","f","rechts","23","{""Q0"":""f"",""Q1"":""rechts""}","","","","",""
"3476","","","survey-text","4","34407","0.0-4.0","REGA","4","f","rechts","23","{""Q0"":""23""}","","","","",""
"1794","<p> Stell dir vor, dass du vor einem runden Tisch stehst, auf dem sich ein blauer Ball am Tischrand befindet. Entlang des Tischrands ist jeweils ein verschieden langer Pfeil. Nun bewegst du dich entlang dieses Pfeils bis an seine Spitze. Wenn du am Ende des Pfeils angekommen bist, schau zur Tischmitte. </p> <img src='img/90_180.png'></img> <br> <p>Entscheide dann, ob der Ball von deiner neuen (vorgestellten) Position links oder rechts von dir liegt.</p> <p>Dr&uuml;cke die <strong>'f'</strong>-Taste f&uuml;r links, die <strong>'j'</strong>-Taste f&uuml;r rechts.</p> <br><p> Das Bild wird jeweils 1 Sekunde lang pr&auml;sentiert. Du hast 3 Sekunden Zeit eine Entscheidung zu treffen.</p>","74","html-keyboard-response","5","36209","0.0-5.0","REGA","4","f","rechts","23","","","","","",""
"null","<div style=""font-size:60px;"">+</div>","null","html-keyboard-response","6","37643","0.0-6.0-0.0","REGA","4","f","rechts","23","","fixation","","","",""
"936","img/90_120.png","70","image-keyboard-response","7","38600","0.0-6.0-1.0","REGA","4","f","rechts","23","","","self","f","90","true"
"null","<div style=""font-size:60px;"">+</div>","null","html-keyboard-response","8","39065","0.0-6.0-0.1","REGA","4","f","rechts","23","","fixation","","","",""
"737","img/L120_180.png","70","image-keyboard-response","9","39819","0.0-6.0-1.1","REGA","4","f","rechts","23","","","self","f","120","true"
"null","<div style=""font-size:60px;"">+</div>","null","html-keyboard-response","10","40253","0.0-6.0-0.2","REGA","4","f","rechts","23","","fixation","","","",""
"943","img/60_30.png","74","image-keyboard-response","11","41214","0.0-6.0-1.2","REGA","4","f","rechts","23","","","self","j","60","true"
"null","<div style=""font-size:60px;"">+</div>","null","html-keyboard-response","12","41673","0.0-6.0-0.3","REGA","4","f","rechts","23","","fixation","","","",""
"681","img/120_150.png","70","image-keyboard-response","13","42373","0.0-6.0-1.3","REGA","4","f","rechts","23","","","self","f","120","true"
"null","<div style=""font-size:60px;"">+</div>","null","html-keyboard-response","14","42706","0.0-6.0-0.4","REGA","4","f","rechts","23","","fixation","","","",""
"854","img/60_150.png","70","image-keyboard-response","15","43578","0.0-6.0-1.4","REGA","4","f","rechts","23","","","self","f","60","true"
"null","<div style=""font-size:60px;"">+</div>","null","html-keyboard-response","16","43986","0.0-6.0-0.5","REGA","4","f","rechts","23","","fixation","","","",""
"687","img/120_90.png","70","image-keyboard-response","17","44690","0.0-6.0-1.5","REGA","4","f","rechts","23","","","self","f","120","true"
"null","<div style=""font-size:60px;"">+</div>","null","html-keyboard-response","18","45003","0.0-6.0-0.6","REGA","4","f","rechts","23","","fixation","","","",""
"673","img/90_150.png","70","image-keyboard-response","19","45694","0.0-6.0-1.6","REGA","4","f","rechts","23","","","self","f","90","true"
"null","<div style=""font-size:60px;"">+</div>","null","html-keyboard-response","20","46207","0.0-6.0-0.7","REGA","4","f","rechts","23","","fixation","","","",""
"993","img/L30_180.png","70","image-keyboard-response","21","47221","0.0-6.0-1.7","REGA","4","f","rechts","23","","","self","f","30","true"
"null","<div style=""font-size:60px;"">+</div>","null","html-keyboard-response","22","47550","0.0-6.0-0.8","REGA","4","f","rechts","23","","fixation","","","",""
"1159","img/30_300.png","70","image-keyboard-response","23","48720","0.0-6.0-1.8","REGA","4","f","rechts","23","","","self","f","30","true"
"null","<div style=""font-size:60px;"">+</div>","null","html-keyboard-response","24","49194","0.0-6.0-0.9","REGA","4","f","rechts","23","","fixation","","","",""
"936","img/120_30.png","74","image-keyboard-response","25","50146","0.0-6.0-1.9","REGA","4","f","rechts","23","","","self","j","120","true"
"null","<div style=""font-size:60px;"">+</div>","null","html-keyboard-response","26","50660","0.0-6.0-0.10","REGA","4","f","rechts","23","","fixation","","","",""
"696","img/0_210.png","70","image-keyboard-response","27","51373","0.0-6.0-1.10","REGA","4","f","rechts","23","","","self","f","0","true"
"null","<div style=""font-size:60px;"">+</div>","null","html-keyboard-response","28","51849","0.0-6.0-0.11","REGA","4","f","rechts","23","","fixation","","","",""
"1193","img/90_330.png","70","image-keyboard-response","29","53061","0.0-6.0-1.11","REGA","4","f","rechts","23","","","self","f","90","true"
"null","<div style=""font-size:60px;"">+</div>","null","html-keyboard-response","30","53473","0.0-6.0-0.12","REGA","4","f","rechts","23","","fixation","","","",""
"1073","img/90_180.png","74","image-keyboard-response","31","54557","0.0-6.0-1.12","REGA","4","f","rechts","23","","","self","j","90","true"
"null","<div style=""font-size:60px;"">+</div>","null","html-keyboard-response","32","55069","0.0-6.0-0.13","REGA","4","f","rechts","23","","fixation","","","",""
"684","img/0_60.png","74","image-keyboard-response","33","55772","0.0-6.0-1.13","REGA","4","f","rechts","23","","","self","j","0","true"
"null","<div style=""font-size:60px;"">+</div>","null","html-keyboard-response","34","56194","0.0-6.0-0.14","REGA","4","f","rechts","23","","fixation","","","",""
"971","img/120_180.png","74","image-keyboard-response","35","57191","0.0-6.0-1.14","REGA","4","f","rechts","23","","","self","j","120","true"
"null","<div style=""font-size:60px;"">+</div>","null","html-keyboard-response","36","57695","0.0-6.0-0.15","REGA","4","f","rechts","23","","fixation","","","",""
"863","img/150_90.png","70","image-keyboard-response","37","58574","0.0-6.0-1.15","REGA","4","f","rechts","23","","","self","f","150","true"
"null","<div style=""font-size:60px;"">+</div>","null","html-keyboard-response","38","58882","0.0-6.0-0.16","REGA","4","f","rechts","23","","fixation","","","",""
"854","img/120_210.png","74","image-keyboard-response","39","59755","0.0-6.0-1.16","REGA","4","f","rechts","23","","","self","j","120","true"
"null","<div style=""font-size:60px;"">+</div>","null","html-keyboard-response","40","60132","0.0-6.0-0.17","REGA","4","f","rechts","23","","fixation","","","",""
"795","img/150_60.png","70","image-keyboard-response","41","60947","0.0-6.0-1.17","REGA","4","f","rechts","23","","","self","f","150","true"
"null","<div style=""font-size:60px;"">+</div>","null","html-keyboard-response","42","61475","0.0-6.0-0.18","REGA","4","f","rechts","23","","fixation","","","",""
"783","img/60_90.png","74","image-keyboard-response","43","62275","0.0-6.0-1.18","REGA","4","f","rechts","23","","","self","j","60","true"
"null","<div style=""font-size:60px;"">+</div>","null","html-keyboard-response","44","62677","0.0-6.0-0.19","REGA","4","f","rechts","23","","fixation","","","",""
"867","img/90_300.png","70","image-keyboard-response","45","63566","0.0-6.0-1.19","REGA","4","f","rechts","23","","","self","f","90","true"
"null","<div style=""font-size:60px;"">+</div>","null","html-keyboard-response","46","64085","0.0-6.0-0.20","REGA","4","f","rechts","23","","fixation","","","",""
"927","img/30_270.png","70","image-keyboard-response","47","65031","0.0-6.0-1.20","REGA","4","f","rechts","23","","","self","f","30","true"
"null","<div style=""font-size:60px;"">+</div>","null","html-keyboard-response","48","65334","0.0-6.0-0.21","REGA","4","f","rechts","23","","fixation","","","",""
"792","img/60_210.png","74","image-keyboard-response","49","66145","0.0-6.0-1.21","REGA","4","f","rechts","23","","","self","j","60","true"
"null","<div style=""font-size:60px;"">+</div>","null","html-keyboard-response","50","66458","0.0-6.0-0.22","REGA","4","f","rechts","23","","fixation","","","",""
"748","img/L150_180.png","70","image-keyboard-response","51","67226","0.0-6.0-1.22","REGA","4","f","rechts","23","","","self","f","150","true"
"null","<div style=""font-size:60px;"">+</div>","null","html-keyboard-response","52","67536","0.0-6.0-0.23","REGA","4","f","rechts","23","","fixation","","","",""
"999","img/30_60.png","74","image-keyboard-response","53","68553","0.0-6.0-1.23","REGA","4","f","rechts","23","","","self","j","30","true"
"null","<div style=""font-size:60px;"">+</div>","null","html-keyboard-response","54","69069","0.0-6.0-0.24","REGA","4","f","rechts","23","","fixation","","","",""
"681","img/30_90.png","74","image-keyboard-response","55","69767","0.0-6.0-1.24","REGA","4","f","rechts","23","","","self","j","30","true"
"null","<div style=""font-size:60px;"">+</div>","null","html-keyboard-response","56","70226","0.0-6.0-0.25","REGA","4","f","rechts","23","","fixation","","","",""
"638","img/30_120.png","74","image-keyboard-response","57","70882","0.0-6.0-1.25","REGA","4","f","rechts","23","","","self","j","30","true"
"null","<div style=""font-size:60px;"">+</div>","null","html-keyboard-response","58","71196","0.0-6.0-0.26","REGA","4","f","rechts","23","","fixation","","","",""
"1275","img/150_180.png","74","image-keyboard-response","59","72488","0.0-6.0-1.26","REGA","4","f","rechts","23","","","self","j","150","true"
"null","<div style=""font-size:60px;"">+</div>","null","html-keyboard-response","60","73008","0.0-6.0-0.27","REGA","4","f","rechts","23","","fixation","","","",""
"1218","img/120_330.png","70","image-keyboard-response","61","74248","0.0-6.0-1.27","REGA","4","f","rechts","23","","","self","f","120","true"
"null","<div style=""font-size:60px;"">+</div>","null","html-keyboard-response","62","74578","0.0-6.0-0.28","REGA","4","f","rechts","23","","fixation","","","",""
"923","img/L60_180.png","70","image-keyboard-response","63","75518","0.0-6.0-1.28","REGA","4","f","rechts","23","","","self","f","60","true"
"null","<div style=""font-size:60px;"">+</div>","null","html-keyboard-response","64","75874","0.0-6.0-0.29","REGA","4","f","rechts","23","","fixation","","","",""
"913","img/90_30.png","74","image-keyboard-response","65","76806","0.0-6.0-1.29","REGA","4","f","rechts","23","","","self","j","90","true"
"null","<div style=""font-size:60px;"">+</div>","null","html-keyboard-response","66","77324","0.0-6.0-0.30","REGA","4","f","rechts","23","","fixation","","","",""
"807","img/150_120.png","70","image-keyboard-response","67","78137","0.0-6.0-1.30","REGA","4","f","rechts","23","","","self","f","150","true"
"null","<div style=""font-size:60px;"">+</div>","null","html-keyboard-response","68","78443","0.0-6.0-0.31","REGA","4","f","rechts","23","","fixation","","","",""
"779","img/L90_180.png","70","image-keyboard-response","69","79239","0.0-6.0-1.31","REGA","4","f","rechts","23","","","self","f","90","true"
"null","<div style=""font-size:60px;"">+</div>","null","html-keyboard-response","70","79750","0.0-6.0-0.32","REGA","4","f","rechts","23","","fixation","","","",""
"755","img/0_300.png","70","image-keyboard-response","71","80513","0.0-6.0-1.32","REGA","4","f","rechts","23","","","self","f","0","true"
"null","<div style=""font-size:60px;"">+</div>","null","html-keyboard-response","72","80972","0.0-6.0-0.33","REGA","4","f","rechts","23","","fixation","","","",""
"1176","img/30_240.png","70","image-keyboard-response","73","82164","0.0-6.0-1.33","REGA","4","f","rechts","23","","","self","f","30","true"
"null","<div style=""font-size:60px;"">+</div>","null","html-keyboard-response","74","82528","0.0-6.0-0.34","REGA","4","f","rechts","23","","fixation","","","",""
"609","img/0_120.png","74","image-keyboard-response","75","83145","0.0-6.0-1.34","REGA","4","f","rechts","23","","","self","j","0","true"
"null","<div style=""font-size:60px;"">+</div>","null","html-keyboard-response","76","83626","0.0-6.0-0.35","REGA","4","f","rechts","23","","fixation","","","",""
"757","img/150_240.png","74","image-keyboard-response","77","84406","0.0-6.0-1.35","REGA","4","f","rechts","23","","","self","j","150","true"
"null","<div style=""font-size:60px;"">+</div>","null","html-keyboard-response","78","84908","0.0-6.0-0.36","REGA","4","f","rechts","23","","fixation","","","",""
"840","img/120_270.png","74","image-keyboard-response","79","85766","0.0-6.0-1.36","REGA","4","f","rechts","23","","","self","j","120","true"
"null","<div style=""font-size:60px;"">+</div>","null","html-keyboard-response","80","86175","0.0-6.0-0.37","REGA","4","f","rechts","23","","fixation","","","",""
"627","img/0_90.png","74","image-keyboard-response","81","86823","0.0-6.0-1.37","REGA","4","f","rechts","23","","","self","j","0","true"
"null","<div style=""font-size:60px;"">+</div>","null","html-keyboard-response","82","87299","0.0-6.0-0.38","REGA","4","f","rechts","23","","fixation","","","",""
"598","img/0_330.png","70","image-keyboard-response","83","87914","0.0-6.0-1.38","REGA","4","f","rechts","23","","","self","f","0","true"
"null","<div style=""font-size:60px;"">+</div>","null","html-keyboard-response","84","88424","0.0-6.0-0.39","REGA","4","f","rechts","23","","fixation","","","",""
"775","img/30_180.png","74","image-keyboard-response","85","89219","0.0-6.0-1.39","REGA","4","f","rechts","23","","","self","j","30","true"
"null","<div style=""font-size:60px;"">+</div>","null","html-keyboard-response","86","89580","0.0-6.0-0.40","REGA","4","f","rechts","23","","fixation","","","",""
"689","img/150_270.png","74","image-keyboard-response","87","90286","0.0-6.0-1.40","REGA","4","f","rechts","23","","","self","j","150","true"
"null","<div style=""font-size:60px;"">+</div>","null","html-keyboard-response","88","90706","0.0-6.0-0.41","REGA","4","f","rechts","23","","fixation","","","",""
"736","img/90_210.png","74","image-keyboard-response","89","91458","0.0-6.0-1.41","REGA","4","f","rechts","23","","","self","j","90","true"
"null","<div style=""font-size:60px;"">+</div>","null","html-keyboard-response","90","91768","0.0-6.0-0.42","REGA","4","f","rechts","23","","fixation","","","",""
"642","img/0_270.png","70","image-keyboard-response","91","92427","0.0-6.0-1.42","REGA","4","f","rechts","23","","","self","f","0","true"
"null","<div style=""font-size:60px;"">+</div>","null","html-keyboard-response","92","92736","0.0-6.0-0.43","REGA","4","f","rechts","23","","fixation","","","",""
"931","img/60_330.png","70","image-keyboard-response","93","93686","0.0-6.0-1.43","REGA","4","f","rechts","23","","","self","f","60","true"
"null","<div style=""font-size:60px;"">+</div>","null","html-keyboard-response","94","94111","0.0-6.0-0.44","REGA","4","f","rechts","23","","fixation","","","",""
"873","img/150_300.png","74","image-keyboard-response","95","95003","0.0-6.0-1.44","REGA","4","f","rechts","23","","","self","j","150","true"
"null","<div style=""font-size:60px;"">+</div>","null","html-keyboard-response","96","95457","0.0-6.0-0.45","REGA","4","f","rechts","23","","fixation","","","",""
"616","img/0_240.png","70","image-keyboard-response","97","96093","0.0-6.0-1.45","REGA","4","f","rechts","23","","","self","f","0","true"
"null","<div style=""font-size:60px;"">+</div>","null","html-keyboard-response","98","96549","0.0-6.0-0.46","REGA","4","f","rechts","23","","fixation","","","",""
"816","img/90_240.png","74","image-keyboard-response","99","97385","0.0-6.0-1.46","REGA","4","f","rechts","23","","","self","j","90","true"
"null","<div style=""font-size:60px;"">+</div>","null","html-keyboard-response","100","97909","0.0-6.0-0.47","REGA","4","f","rechts","23","","fixation","","","",""
"796","img/60_270.png","70","image-keyboard-response","101","98715","0.0-6.0-1.47","REGA","4","f","rechts","23","","","self","f","60","true"
"null","<div style=""font-size:60px;"">+</div>","null","html-keyboard-response","102","99189","0.0-6.0-0.48","REGA","4","f","rechts","23","","fixation","","","",""
"616","img/0_30.png","74","image-keyboard-response","103","99827","0.0-6.0-1.48","REGA","4","f","rechts","23","","","self","j","0","true"
"null","<div style=""font-size:60px;"">+</div>","null","html-keyboard-response","104","100235","0.0-6.0-0.49","REGA","4","f","rechts","23","","fixation","","","",""
"697","img/60_180.png","74","image-keyboard-response","105","100942","0.0-6.0-1.49","REGA","4","f","rechts","23","","","self","j","60","true"
"null","<div style=""font-size:60px;"">+</div>","null","html-keyboard-response","106","101269","0.0-6.0-0.50","REGA","4","f","rechts","23","","fixation","","","",""
"610","img/0_150.png","74","image-keyboard-response","107","101898","0.0-6.0-1.50","REGA","4","f","rechts","23","","","self","j","0","true"
"null","<div style=""font-size:60px;"">+</div>","null","html-keyboard-response","108","102222","0.0-6.0-0.51","REGA","4","f","rechts","23","","fixation","","","",""
"1032","img/90_60.png","74","image-keyboard-response","109","103271","0.0-6.0-1.51","REGA","4","f","rechts","23","","","self","j","90","true"
"null","<div style=""font-size:60px;"">+</div>","null","html-keyboard-response","110","103690","0.0-6.0-0.52","REGA","4","f","rechts","23","","fixation","","","",""
"755","img/30_90.png","74","image-keyboard-response","111","104453","0.0-6.0-1.52","REGA","4","f","rechts","23","","","self","j","30","true"
"null","<div style=""font-size:60px;"">+</div>","null","html-keyboard-response","112","104862","0.0-6.0-0.53","REGA","4","f","rechts","23","","fixation","","","",""
"759","img/60_180.png","74","image-keyboard-response","113","105633","0.0-6.0-1.53","REGA","4","f","rechts","23","","","self","j","60","true"
"null","<div style=""font-size:60px;"">+</div>","null","html-keyboard-response","114","106003","0.0-6.0-0.54","REGA","4","f","rechts","23","","fixation","","","",""
"552","img/0_60.png","74","image-keyboard-response","115","106569","0.0-6.0-1.54","REGA","4","f","rechts","23","","","self","j","0","true"
"null","<div style=""font-size:60px;"">+</div>","null","html-keyboard-response","116","107050","0.0-6.0-0.55","REGA","4","f","rechts","23","","fixation","","","",""
"732","img/30_270.png","70","image-keyboard-response","117","107793","0.0-6.0-1.55","REGA","4","f","rechts","23","","","self","f","30","true"
"null","<div style=""font-size:60px;"">+</div>","null","html-keyboard-response","118","108252","0.0-6.0-0.56","REGA","4","f","rechts","23","","fixation","","","",""
"621","img/30_240.png","70","image-keyboard-response","119","108883","0.0-6.0-1.56","REGA","4","f","rechts","23","","","self","f","30","true"
"null","<div style=""font-size:60px;"">+</div>","null","html-keyboard-response","120","109304","0.0-6.0-0.57","REGA","4","f","rechts","23","","fixation","","","",""
"723","img/120_210.png","74","image-keyboard-response","121","110043","0.0-6.0-1.57","REGA","4","f","rechts","23","","","self","j","120","true"
"null","<div style=""font-size:60px;"">+</div>","null","html-keyboard-response","122","110570","0.0-6.0-0.58","REGA","4","f","rechts","23","","fixation","","","",""
"1009","img/60_270.png","70","image-keyboard-response","123","111587","0.0-6.0-1.58","REGA","4","f","rechts","23","","","self","f","60","true"
"null","<div style=""font-size:60px;"">+</div>","null","html-keyboard-response","124","112037","0.0-6.0-0.59","REGA","4","f","rechts","23","","fixation","","","",""
"809","img/30_180.png","74","image-keyboard-response","125","112855","0.0-6.0-1.59","REGA","4","f","rechts","23","","","self","j","30","true"
"null","<div style=""font-size:60px;"">+</div>","null","html-keyboard-response","126","113163","0.0-6.0-0.60","REGA","4","f","rechts","23","","fixation","","","",""
"625","img/0_210.png","70","image-keyboard-response","127","113801","0.0-6.0-1.60","REGA","4","f","rechts","23","","","self","f","0","true"
"null","<div style=""font-size:60px;"">+</div>","null","html-keyboard-response","128","114115","0.0-6.0-0.61","REGA","4","f","rechts","23","","fixation","","","",""
"894","img/90_300.png","70","image-keyboard-response","129","115026","0.0-6.0-1.61","REGA","4","f","rechts","23","","","self","f","90","true"
"null","<div style=""font-size:60px;"">+</div>","null","html-keyboard-response","130","115540","0.0-6.0-0.62","REGA","4","f","rechts","23","","fixation","","","",""
"914","img/90_150.png","70","image-keyboard-response","131","116467","0.0-6.0-1.62","REGA","4","f","rechts","23","","","self","f","90","true"
"null","<div style=""font-size:60px;"">+</div>","null","html-keyboard-response","132","116994","0.0-6.0-0.63","REGA","4","f","rechts","23","","fixation","","","",""
"584","img/0_270.png","70","image-keyboard-response","133","117592","0.0-6.0-1.63","REGA","4","f","rechts","23","","","self","f","0","true"
"null","<div style=""font-size:60px;"">+</div>","null","html-keyboard-response","134","118055","0.0-6.0-0.64","REGA","4","f","rechts","23","","fixation","","","",""
"975","img/L150_180.png","70","image-keyboard-response","135","119045","0.0-6.0-1.64","REGA","4","f","rechts","23","","","self","f","150","true"
"null","<div style=""font-size:60px;"">+</div>","null","html-keyboard-response","136","119446","0.0-6.0-0.65","REGA","4","f","rechts","23","","fixation","","","",""
"827","img/150_300.png","74","image-keyboard-response","137","120282","0.0-6.0-1.65","REGA","4","f","rechts","23","","","self","j","150","true"
"null","<div style=""font-size:60px;"">+</div>","null","html-keyboard-response","138","120603","0.0-6.0-0.66","REGA","4","f","rechts","23","","fixation","","","",""
"804","img/120_270.png","74","image-keyboard-response","139","121417","0.0-6.0-1.66","REGA","4","f","rechts","23","","","self","j","120","true"
"null","<div style=""font-size:60px;"">+</div>","null","html-keyboard-response","140","121822","0.0-6.0-0.67","REGA","4","f","rechts","23","","fixation","","","",""
"662","img/120_180.png","74","image-keyboard-response","141","122497","0.0-6.0-1.67","REGA","4","f","rechts","23","","","self","j","120","true"
"null","<div style=""font-size:60px;"">+</div>","null","html-keyboard-response","142","122822","0.0-6.0-0.68","REGA","4","f","rechts","23","","fixation","","","",""
"902","img/90_60.png","74","image-keyboard-response","143","123733","0.0-6.0-1.68","REGA","4","f","rechts","23","","","self","j","90","true"
"null","<div style=""font-size:60px;"">+</div>","null","html-keyboard-response","144","124149","0.0-6.0-0.69","REGA","4","f","rechts","23","","fixation","","","",""
"888","img/150_60.png","70","image-keyboard-response","145","125050","0.0-6.0-1.69","REGA","4","f","rechts","23","","","self","f","150","true"
"null","<div style=""font-size:60px;"">+</div>","null","html-keyboard-response","146","125574","0.0-6.0-0.70","REGA","4","f","rechts","23","","fixation","","","",""
"726","img/60_210.png","74","image-keyboard-response","147","126312","0.0-6.0-1.70","REGA","4","f","rechts","23","","","self","j","60","true"
"null","<div style=""font-size:60px;"">+</div>","null","html-keyboard-response","148","126729","0.0-6.0-0.71","REGA","4","f","rechts","23","","fixation","","","",""
"987","img/30_300.png","70","image-keyboard-response","149","127729","0.0-6.0-1.71","REGA","4","f","rechts","23","","","self","f","30","true"
"null","<div style=""font-size:60px;"">+</div>","null","html-keyboard-response","150","128103","0.0-6.0-0.72","REGA","4","f","rechts","23","","fixation","","","",""
"771","img/90_30.png","74","image-keyboard-response","151","128887","0.0-6.0-1.72","REGA","4","f","rechts","23","","","self","j","90","true"
"null","<div style=""font-size:60px;"">+</div>","null","html-keyboard-response","152","129291","0.0-6.0-0.73","REGA","4","f","rechts","23","","fixation","","","",""
"741","img/60_150.png","70","image-keyboard-response","153","130046","0.0-6.0-1.73","REGA","4","f","rechts","23","","","self","f","60","true"
"null","<div style=""font-size:60px;"">+</div>","null","html-keyboard-response","154","130462","0.0-6.0-0.74","REGA","4","f","rechts","23","","fixation","","","",""
"688","img/L30_180.png","70","image-keyboard-response","155","131161","0.0-6.0-1.74","REGA","4","f","rechts","23","","","self","f","30","true"
"null","<div style=""font-size:60px;"">+</div>","null","html-keyboard-response","156","131619","0.0-6.0-0.75","REGA","4","f","rechts","23","","fixation","","","",""
"651","img/120_150.png","70","image-keyboard-response","157","132286","0.0-6.0-1.75","REGA","4","f","rechts","23","","","self","f","120","true"
"null","<div style=""font-size:60px;"">+</div>","null","html-keyboard-response","158","132666","0.0-6.0-0.76","REGA","4","f","rechts","23","","fixation","","","",""
"766","img/150_180.png","74","image-keyboard-response","159","133445","0.0-6.0-1.76","REGA","4","f","rechts","23","","","self","j","150","true"
"null","<div style=""font-size:60px;"">+</div>","null","html-keyboard-response","160","133760","0.0-6.0-0.77","REGA","4","f","rechts","23","","fixation","","","",""
"820","img/90_240.png","74","image-keyboard-response","161","134591","0.0-6.0-1.77","REGA","4","f","rechts","23","","","self","j","90","true"
"null","<div style=""font-size:60px;"">+</div>","null","html-keyboard-response","162","134964","0.0-6.0-0.78","REGA","4","f","rechts","23","","fixation","","","",""
"596","img/0_30.png","74","image-keyboard-response","163","135569","0.0-6.0-1.78","REGA","4","f","rechts","23","","","self","j","0","true"
"null","<div style=""font-size:60px;"">+</div>","null","html-keyboard-response","164","136029","0.0-6.0-0.79","REGA","4","f","rechts","23","","fixation","","","",""
"631","img/150_240.png","74","image-keyboard-response","165","136673","0.0-6.0-1.79","REGA","4","f","rechts","23","","","self","j","150","true"
"null","<div style=""font-size:60px;"">+</div>","null","html-keyboard-response","166","137029","0.0-6.0-0.80","REGA","4","f","rechts","23","","fixation","","","",""
"755","img/90_120.png","70","image-keyboard-response","167","137798","0.0-6.0-1.80","REGA","4","f","rechts","23","","","self","f","90","true"
"null","<div style=""font-size:60px;"">+</div>","null","html-keyboard-response","168","138262","0.0-6.0-0.81","REGA","4","f","rechts","23","","fixation","","","",""
"511","img/0_120.png","74","image-keyboard-response","169","138786","0.0-6.0-1.81","REGA","4","f","rechts","23","","","self","j","0","true"
"null","<div style=""font-size:60px;"">+</div>","null","html-keyboard-response","170","139153","0.0-6.0-0.82","REGA","4","f","rechts","23","","fixation","","","",""
"701","img/120_90.png","70","image-keyboard-response","171","139867","0.0-6.0-1.82","REGA","4","f","rechts","23","","","self","f","120","true"
"null","<div style=""font-size:60px;"">+</div>","null","html-keyboard-response","172","140292","0.0-6.0-0.83","REGA","4","f","rechts","23","","fixation","","","",""
"561","img/60_90.png","70","image-keyboard-response","173","140866","0.0-6.0-1.83","REGA","4","f","rechts","23","","","self","j","60","false"
"null","<div style=""font-size:60px;"">+</div>","null","html-keyboard-response","174","141278","0.0-6.0-0.84","REGA","4","f","rechts","23","","fixation","","","",""
"849","img/150_120.png","70","image-keyboard-response","175","142140","0.0-6.0-1.84","REGA","4","f","rechts","23","","","self","f","150","true"
"null","<div style=""font-size:60px;"">+</div>","null","html-keyboard-response","176","142543","0.0-6.0-0.85","REGA","4","f","rechts","23","","fixation","","","",""
"833","img/0_330.png","70","image-keyboard-response","177","143389","0.0-6.0-1.85","REGA","4","f","rechts","23","","","self","f","0","true"
"null","<div style=""font-size:60px;"">+</div>","null","html-keyboard-response","178","143915","0.0-6.0-0.86","REGA","4","f","rechts","23","","fixation","","","",""
"1064","img/L120_180.png","70","image-keyboard-response","179","144986","0.0-6.0-1.86","REGA","4","f","rechts","23","","","self","f","120","true"
"null","<div style=""font-size:60px;"">+</div>","null","html-keyboard-response","180","145451","0.0-6.0-0.87","REGA","4","f","rechts","23","","fixation","","","",""
"747","img/L60_180.png","70","image-keyboard-response","181","146213","0.0-6.0-1.87","REGA","4","f","rechts","23","","","self","f","60","true"
"null","<div style=""font-size:60px;"">+</div>","null","html-keyboard-response","182","146638","0.0-6.0-0.88","REGA","4","f","rechts","23","","fixation","","","",""
"935","img/60_330.png","70","image-keyboard-response","183","147587","0.0-6.0-1.88","REGA","4","f","rechts","23","","","self","f","60","true"
"null","<div style=""font-size:60px;"">+</div>","null","html-keyboard-response","184","148046","0.0-6.0-0.89","REGA","4","f","rechts","23","","fixation","","","",""
"797","img/90_180.png","74","image-keyboard-response","185","148857","0.0-6.0-1.89","REGA","4","f","rechts","23","","","self","j","90","true"
"null","<div style=""font-size:60px;"">+</div>","null","html-keyboard-response","186","149218","0.0-6.0-0.90","REGA","4","f","rechts","23","","fixation","","","",""
"592","img/0_90.png","74","image-keyboard-response","187","149824","0.0-6.0-1.90","REGA","4","f","rechts","23","","","self","j","0","true"
"null","<div style=""font-size:60px;"">+</div>","null","html-keyboard-response","188","150201","0.0-6.0-0.91","REGA","4","f","rechts","23","","fixation","","","",""
"723","img/90_210.png","74","image-keyboard-response","189","150938","0.0-6.0-1.91","REGA","4","f","rechts","23","","","self","j","90","true"
"null","<div style=""font-size:60px;"">+</div>","null","html-keyboard-response","190","151343","0.0-6.0-0.92","REGA","4","f","rechts","23","","fixation","","","",""
"1102","img/120_30.png","74","image-keyboard-response","191","152457","0.0-6.0-1.92","REGA","4","f","rechts","23","","","self","j","120","true"
"null","<div style=""font-size:60px;"">+</div>","null","html-keyboard-response","192","152827","0.0-6.0-0.93","REGA","4","f","rechts","23","","fixation","","","",""
"678","img/0_150.png","74","image-keyboard-response","193","153515","0.0-6.0-1.93","REGA","4","f","rechts","23","","","self","j","0","true"
"null","<div style=""font-size:60px;"">+</div>","null","html-keyboard-response","194","153887","0.0-6.0-0.94","REGA","4","f","rechts","23","","fixation","","","",""
"990","img/120_330.png","70","image-keyboard-response","195","154887","0.0-6.0-1.94","REGA","4","f","rechts","23","","","self","f","120","true"
"null","<div style=""font-size:60px;"">+</div>","null","html-keyboard-response","196","155346","0.0-6.0-0.95","REGA","4","f","rechts","23","","fixation","","","",""
"923","img/60_30.png","74","image-keyboard-response","197","156282","0.0-6.0-1.95","REGA","4","f","rechts","23","","","self","j","60","true"
"null","<div style=""font-size:60px;"">+</div>","null","html-keyboard-response","198","156640","0.0-6.0-0.96","REGA","4","f","rechts","23","","fixation","","","",""
"979","img/90_330.png","70","image-keyboard-response","199","157633","0.0-6.0-1.96","REGA","4","f","rechts","23","","","self","f","90","true"
"null","<div style=""font-size:60px;"">+</div>","null","html-keyboard-response","200","158141","0.0-6.0-0.97","REGA","4","f","rechts","23","","fixation","","","",""
"850","img/150_270.png","74","image-keyboard-response","201","159003","0.0-6.0-1.97","REGA","4","f","rechts","23","","","self","j","150","true"
"null","<div style=""font-size:60px;"">+</div>","null","html-keyboard-response","202","159470","0.0-6.0-0.98","REGA","4","f","rechts","23","","fixation","","","",""
"602","img/0_300.png","70","image-keyboard-response","203","160085","0.0-6.0-1.98","REGA","4","f","rechts","23","","","self","f","0","true"
"null","<div style=""font-size:60px;"">+</div>","null","html-keyboard-response","204","160546","0.0-6.0-0.99","REGA","4","f","rechts","23","","fixation","","","",""
"559","img/0_240.png","70","image-keyboard-response","205","161119","0.0-6.0-1.99","REGA","4","f","rechts","23","","","self","f","0","true"
"null","<div style=""font-size:60px;"">+</div>","null","html-keyboard-response","206","161639","0.0-6.0-0.100","REGA","4","f","rechts","23","","fixation","","","",""
"681","img/30_60.png","74","image-keyboard-response","207","162333","0.0-6.0-1.100","REGA","4","f","rechts","23","","","self","j","30","true"
"null","<div style=""font-size:60px;"">+</div>","null","html-keyboard-response","208","162844","0.0-6.0-0.101","REGA","4","f","rechts","23","","fixation","","","",""
"792","img/150_90.png","70","image-keyboard-response","209","163649","0.0-6.0-1.101","REGA","4","f","rechts","23","","","self","f","150","true"
"null","<div style=""font-size:60px;"">+</div>","null","html-keyboard-response","210","164031","0.0-6.0-0.102","REGA","4","f","rechts","23","","fixation","","","",""
"709","img/L90_180.png","70","image-keyboard-response","211","164754","0.0-6.0-1.102","REGA","4","f","rechts","23","","","self","f","90","true"
"null","<div style=""font-size:60px;"">+</div>","null","html-keyboard-response","212","165077","0.0-6.0-0.103","REGA","4","f","rechts","23","","fixation","","","",""
"977","img/30_120.png","74","image-keyboard-response","213","166067","0.0-6.0-1.103","REGA","4","f","rechts","23","","","self","j","30","true"
"null","<div style=""font-size:60px;"">+</div>","null","html-keyboard-response","214","166582","0.0-6.0-0.104","REGA","4","f","rechts","23","","fixation","","","",""
"773","img/30_60.png","74","image-keyboard-response","215","167364","0.0-6.0-1.104","REGA","4","f","rechts","23","","","self","j","30","true"
"null","<div style=""font-size:60px;"">+</div>","null","html-keyboard-response","216","167784","0.0-6.0-0.105","REGA","4","f","rechts","23","","fixation","","","",""
"915","img/150_300.png","70","image-keyboard-response","217","168712","0.0-6.0-1.105","REGA","4","f","rechts","23","","","self","j","150","false"
"null","<div style=""font-size:60px;"">+</div>","null","html-keyboard-response","218","169175","0.0-6.0-0.106","REGA","4","f","rechts","23","","fixation","","","",""
"562","img/0_60.png","74","image-keyboard-response","219","169749","0.0-6.0-1.106","REGA","4","f","rechts","23","","","self","j","0","true"
"null","<div style=""font-size:60px;"">+</div>","null","html-keyboard-response","220","170064","0.0-6.0-0.107","REGA","4","f","rechts","23","","fixation","","","",""
"562","img/0_120.png","74","image-keyboard-response","221","170639","0.0-6.0-1.107","REGA","4","f","rechts","23","","","self","j","0","true"
"null","<div style=""font-size:60px;"">+</div>","null","html-keyboard-response","222","171001","0.0-6.0-0.108","REGA","4","f","rechts","23","","fixation","","","",""
"749","img/90_30.png","74","image-keyboard-response","223","171760","0.0-6.0-1.108","REGA","4","f","rechts","23","","","self","j","90","true"
"null","<div style=""font-size:60px;"">+</div>","null","html-keyboard-response","224","172080","0.0-6.0-0.109","REGA","4","f","rechts","23","","fixation","","","",""
"1004","img/30_180.png","74","image-keyboard-response","225","173099","0.0-6.0-1.109","REGA","4","f","rechts","23","","","self","j","30","true"
"null","<div style=""font-size:60px;"">+</div>","null","html-keyboard-response","226","173514","0.0-6.0-0.110","REGA","4","f","rechts","23","","fixation","","","",""
"938","img/60_90.png","74","image-keyboard-response","227","174462","0.0-6.0-1.110","REGA","4","f","rechts","23","","","self","j","60","true"
"null","<div style=""font-size:60px;"">+</div>","null","html-keyboard-response","228","174939","0.0-6.0-0.111","REGA","4","f","rechts","23","","fixation","","","",""
"606","img/0_270.png","70","image-keyboard-response","229","175553","0.0-6.0-1.111","REGA","4","f","rechts","23","","","self","f","0","true"
"null","<div style=""font-size:60px;"">+</div>","null","html-keyboard-response","230","176076","0.0-6.0-0.112","REGA","4","f","rechts","23","","fixation","","","",""
"614","img/0_330.png","70","image-keyboard-response","231","176700","0.0-6.0-1.112","REGA","4","f","rechts","23","","","self","f","0","true"
"null","<div style=""font-size:60px;"">+</div>","null","html-keyboard-response","232","177008","0.0-6.0-0.113","REGA","4","f","rechts","23","","fixation","","","",""
"748","img/0_30.png","74","image-keyboard-response","233","177769","0.0-6.0-1.113","REGA","4","f","rechts","23","","","self","j","0","true"
"null","<div style=""font-size:60px;"">+</div>","null","html-keyboard-response","234","178252","0.0-6.0-0.114","REGA","4","f","rechts","23","","fixation","","","",""
"970","img/30_120.png","74","image-keyboard-response","235","179232","0.0-6.0-1.114","REGA","4","f","rechts","23","","","self","j","30","true"
"null","<div style=""font-size:60px;"">+</div>","null","html-keyboard-response","236","179657","0.0-6.0-0.115","REGA","4","f","rechts","23","","fixation","","","",""
"809","img/L30_180.png","70","image-keyboard-response","237","180480","0.0-6.0-1.115","REGA","4","f","rechts","23","","","self","f","30","true"
"null","<div style=""font-size:60px;"">+</div>","null","html-keyboard-response","238","180939","0.0-6.0-0.116","REGA","4","f","rechts","23","","fixation","","","",""
"839","img/L120_180.png","70","image-keyboard-response","239","181789","0.0-6.0-1.116","REGA","4","f","rechts","23","","","self","f","120","true"
"null","<div style=""font-size:60px;"">+</div>","null","html-keyboard-response","240","182297","0.0-6.0-0.117","REGA","4","f","rechts","23","","fixation","","","",""
"703","img/150_180.png","74","image-keyboard-response","241","183012","0.0-6.0-1.117","REGA","4","f","rechts","23","","","self","j","150","true"
"null","<div style=""font-size:60px;"">+</div>","null","html-keyboard-response","242","183471","0.0-6.0-0.118","REGA","4","f","rechts","23","","fixation","","","",""
"833","img/60_330.png","70","image-keyboard-response","243","184317","0.0-6.0-1.118","REGA","4","f","rechts","23","","","self","f","60","true"
"null","<div style=""font-size:60px;"">+</div>","null","html-keyboard-response","244","184792","0.0-6.0-0.119","REGA","4","f","rechts","23","","fixation","","","",""
"751","img/120_270.png","74","image-keyboard-response","245","185554","0.0-6.0-1.119","REGA","4","f","rechts","23","","","self","j","120","true"
"null","<div style=""font-size:60px;"">+</div>","null","html-keyboard-response","246","185926","0.0-6.0-0.120","REGA","4","f","rechts","23","","fixation","","","",""
"674","img/120_150.png","70","image-keyboard-response","247","186613","0.0-6.0-1.120","REGA","4","f","rechts","23","","","self","f","120","true"
"null","<div style=""font-size:60px;"">+</div>","null","html-keyboard-response","248","186930","0.0-6.0-0.121","REGA","4","f","rechts","23","","fixation","","","",""
"628","img/60_210.png","74","image-keyboard-response","249","187567","0.0-6.0-1.121","REGA","4","f","rechts","23","","","self","j","60","true"
"null","<div style=""font-size:60px;"">+</div>","null","html-keyboard-response","250","188088","0.0-6.0-0.122","REGA","4","f","rechts","23","","fixation","","","",""
"659","img/150_240.png","74","image-keyboard-response","251","188762","0.0-6.0-1.122","REGA","4","f","rechts","23","","","self","j","150","true"
"null","<div style=""font-size:60px;"">+</div>","null","html-keyboard-response","252","189269","0.0-6.0-0.123","REGA","4","f","rechts","23","","fixation","","","",""
"618","img/0_90.png","74","image-keyboard-response","253","189896","0.0-6.0-1.123","REGA","4","f","rechts","23","","","self","j","0","true"
"null","<div style=""font-size:60px;"">+</div>","null","html-keyboard-response","254","190357","0.0-6.0-0.124","REGA","4","f","rechts","23","","fixation","","","",""
"858","img/60_30.png","74","image-keyboard-response","255","191227","0.0-6.0-1.124","REGA","4","f","rechts","23","","","self","j","60","true"
"null","<div style=""font-size:60px;"">+</div>","null","html-keyboard-response","256","191747","0.0-6.0-0.125","REGA","4","f","rechts","23","","fixation","","","",""
"816","img/L90_180.png","70","image-keyboard-response","257","192574","0.0-6.0-1.125","REGA","4","f","rechts","23","","","self","f","90","true"
"null","<div style=""font-size:60px;"">+</div>","null","html-keyboard-response","258","193037","0.0-6.0-0.126","REGA","4","f","rechts","23","","fixation","","","",""
"735","img/90_240.png","74","image-keyboard-response","259","193786","0.0-6.0-1.126","REGA","4","f","rechts","23","","","self","j","90","true"
"null","<div style=""font-size:60px;"">+</div>","null","html-keyboard-response","260","194264","0.0-6.0-0.127","REGA","4","f","rechts","23","","fixation","","","",""
"663","img/90_180.png","74","image-keyboard-response","261","194938","0.0-6.0-1.127","REGA","4","f","rechts","23","","","self","j","90","true"
"null","<div style=""font-size:60px;"">+</div>","null","html-keyboard-response","262","195450","0.0-6.0-0.128","REGA","4","f","rechts","23","","fixation","","","",""
"845","img/30_90.png","74","image-keyboard-response","263","196310","0.0-6.0-1.128","REGA","4","f","rechts","23","","","self","j","30","true"
"null","<div style=""font-size:60px;"">+</div>","null","html-keyboard-response","264","196732","0.0-6.0-0.129","REGA","4","f","rechts","23","","fixation","","","",""
"940","img/120_330.png","70","image-keyboard-response","265","197682","0.0-6.0-1.129","REGA","4","f","rechts","23","","","self","f","120","true"
"null","<div style=""font-size:60px;"">+</div>","null","html-keyboard-response","266","198185","0.0-6.0-0.130","REGA","4","f","rechts","23","","fixation","","","",""
"742","img/120_210.png","74","image-keyboard-response","267","198940","0.0-6.0-1.130","REGA","4","f","rechts","23","","","self","j","120","true"
"null","<div style=""font-size:60px;"">+</div>","null","html-keyboard-response","268","199309","0.0-6.0-0.131","REGA","4","f","rechts","23","","fixation","","","",""
"589","img/0_150.png","74","image-keyboard-response","269","199910","0.0-6.0-1.131","REGA","4","f","rechts","23","","","self","j","0","true"
"null","<div style=""font-size:60px;"">+</div>","null","html-keyboard-response","270","200374","0.0-6.0-0.132","REGA","4","f","rechts","23","","fixation","","","",""
"970","img/60_270.png","70","image-keyboard-response","271","201359","0.0-6.0-1.132","REGA","4","f","rechts","23","","","self","f","60","true"
"null","<div style=""font-size:60px;"">+</div>","null","html-keyboard-response","272","201734","0.0-6.0-0.133","REGA","4","f","rechts","23","","fixation","","","",""
"680","img/120_180.png","74","image-keyboard-response","273","202429","0.0-6.0-1.133","REGA","4","f","rechts","23","","","self","j","120","true"
"null","<div style=""font-size:60px;"">+</div>","null","html-keyboard-response","274","202734","0.0-6.0-0.134","REGA","4","f","rechts","23","","fixation","","","",""
"841","img/L150_180.png","70","image-keyboard-response","275","203589","0.0-6.0-1.134","REGA","4","f","rechts","23","","","self","f","150","true"
"null","<div style=""font-size:60px;"">+</div>","null","html-keyboard-response","276","204110","0.0-6.0-0.135","REGA","4","f","rechts","23","","fixation","","","",""
"811","img/150_90.png","70","image-keyboard-response","277","204926","0.0-6.0-1.135","REGA","4","f","rechts","23","","","self","f","150","true"
"null","<div style=""font-size:60px;"">+</div>","null","html-keyboard-response","278","205359","0.0-6.0-0.136","REGA","4","f","rechts","23","","fixation","","","",""
"915","img/30_300.png","70","image-keyboard-response","279","206287","0.0-6.0-1.136","REGA","4","f","rechts","23","","","self","f","30","true"
"null","<div style=""font-size:60px;"">+</div>","null","html-keyboard-response","280","206795","0.0-6.0-0.137","REGA","4","f","rechts","23","","fixation","","","",""
"933","img/90_330.png","70","image-keyboard-response","281","207739","0.0-6.0-1.137","REGA","4","f","rechts","23","","","self","f","90","true"
"null","<div style=""font-size:60px;"">+</div>","null","html-keyboard-response","282","208249","0.0-6.0-0.138","REGA","4","f","rechts","23","","fixation","","","",""
"604","img/0_210.png","70","image-keyboard-response","283","208865","0.0-6.0-1.138","REGA","4","f","rechts","23","","","self","f","0","true"
"null","<div style=""font-size:60px;"">+</div>","null","html-keyboard-response","284","209171","0.0-6.0-0.139","REGA","4","f","rechts","23","","fixation","","","",""
"828","img/90_150.png","70","image-keyboard-response","285","210012","0.0-6.0-1.139","REGA","4","f","rechts","23","","","self","f","90","true"
"null","<div style=""font-size:60px;"">+</div>","null","html-keyboard-response","286","210484","0.0-6.0-0.140","REGA","4","f","rechts","23","","fixation","","","",""
"610","img/0_240.png","70","image-keyboard-response","287","211104","0.0-6.0-1.140","REGA","4","f","rechts","23","","","self","f","0","true"
"null","<div style=""font-size:60px;"">+</div>","null","html-keyboard-response","288","211562","0.0-6.0-0.141","REGA","4","f","rechts","23","","fixation","","","",""
"804","img/150_270.png","74","image-keyboard-response","289","212374","0.0-6.0-1.141","REGA","4","f","rechts","23","","","self","j","150","true"
"null","<div style=""font-size:60px;"">+</div>","null","html-keyboard-response","290","212849","0.0-6.0-0.142","REGA","4","f","rechts","23","","fixation","","","",""
"819","img/90_120.png","70","image-keyboard-response","291","213681","0.0-6.0-1.142","REGA","4","f","rechts","23","","","self","f","90","true"
"null","<div style=""font-size:60px;"">+</div>","null","html-keyboard-response","292","214005","0.0-6.0-0.143","REGA","4","f","rechts","23","","fixation","","","",""
"729","img/60_180.png","74","image-keyboard-response","293","214749","0.0-6.0-1.143","REGA","4","f","rechts","23","","","self","j","60","true"
"null","<div style=""font-size:60px;"">+</div>","null","html-keyboard-response","294","215221","0.0-6.0-0.144","REGA","4","f","rechts","23","","fixation","","","",""
"606","img/0_300.png","70","image-keyboard-response","295","215840","0.0-6.0-1.144","REGA","4","f","rechts","23","","","self","f","0","true"
"null","<div style=""font-size:60px;"">+</div>","null","html-keyboard-response","296","216158","0.0-6.0-0.145","REGA","4","f","rechts","23","","fixation","","","",""
"903","img/120_30.png","74","image-keyboard-response","297","217078","0.0-6.0-1.145","REGA","4","f","rechts","23","","","self","j","120","true"
"null","<div style=""font-size:60px;"">+</div>","null","html-keyboard-response","298","217532","0.0-6.0-0.146","REGA","4","f","rechts","23","","fixation","","","",""
"850","img/L60_180.png","70","image-keyboard-response","299","218395","0.0-6.0-1.146","REGA","4","f","rechts","23","","","self","f","60","true"
"null","<div style=""font-size:60px;"">+</div>","null","html-keyboard-response","300","218706","0.0-6.0-0.147","REGA","4","f","rechts","23","","fixation","","","",""
"878","img/120_90.png","70","image-keyboard-response","301","219597","0.0-6.0-1.147","REGA","4","f","rechts","23","","","self","f","120","true"
"null","<div style=""font-size:60px;"">+</div>","null","html-keyboard-response","302","220064","0.0-6.0-0.148","REGA","4","f","rechts","23","","fixation","","","",""
"644","img/60_150.png","70","image-keyboard-response","303","220724","0.0-6.0-1.148","REGA","4","f","rechts","23","","","self","f","60","true"
"null","<div style=""font-size:60px;"">+</div>","null","html-keyboard-response","304","221033","0.0-6.0-0.149","REGA","4","f","rechts","23","","fixation","","","",""
"980","img/30_240.png","70","image-keyboard-response","305","222028","0.0-6.0-1.149","REGA","4","f","rechts","23","","","self","f","30","true"
"null","<div style=""font-size:60px;"">+</div>","null","html-keyboard-response","306","222455","0.0-6.0-0.150","REGA","4","f","rechts","23","","fixation","","","",""
"997","img/90_300.png","70","image-keyboard-response","307","223468","0.0-6.0-1.150","REGA","4","f","rechts","23","","","self","f","90","true"
"null","<div style=""font-size:60px;"">+</div>","null","html-keyboard-response","308","223922","0.0-6.0-0.151","REGA","4","f","rechts","23","","fixation","","","",""
"818","img/90_210.png","74","image-keyboard-response","309","224750","0.0-6.0-1.151","REGA","4","f","rechts","23","","","self","j","90","true"
"null","<div style=""font-size:60px;"">+</div>","null","html-keyboard-response","310","225127","0.0-6.0-0.152","REGA","4","f","rechts","23","","fixation","","","",""
"777","img/90_60.png","74","image-keyboard-response","311","225919","0.0-6.0-1.152","REGA","4","f","rechts","23","","","self","j","90","true"
"null","<div style=""font-size:60px;"">+</div>","null","html-keyboard-response","312","226346","0.0-6.0-0.153","REGA","4","f","rechts","23","","fixation","","","",""
"854","img/150_60.png","70","image-keyboard-response","313","227213","0.0-6.0-1.153","REGA","4","f","rechts","23","","","self","f","150","true"
"null","<div style=""font-size:60px;"">+</div>","null","html-keyboard-response","314","227531","0.0-6.0-0.154","REGA","4","f","rechts","23","","fixation","","","",""
"917","img/30_270.png","70","image-keyboard-response","315","228462","0.0-6.0-1.154","REGA","4","f","rechts","23","","","self","f","30","true"
"null","<div style=""font-size:60px;"">+</div>","null","html-keyboard-response","316","228969","0.0-6.0-0.155","REGA","4","f","rechts","23","","fixation","","","",""
"1010","img/150_120.png","70","image-keyboard-response","317","229992","0.0-6.0-1.155","REGA","4","f","rechts","23","","","self","f","150","true"
"null","<div style=""font-size:60px;"">+</div>","null","html-keyboard-response","318","230424","0.0-6.0-0.156","REGA","4","f","rechts","23","","fixation","","","",""
"763","img/90_60.png","74","image-keyboard-response","319","231196","0.0-6.0-1.156","REGA","4","f","rechts","23","","","self","j","90","true"
"null","<div style=""font-size:60px;"">+</div>","null","html-keyboard-response","320","231549","0.0-6.0-0.157","REGA","4","f","rechts","23","","fixation","","","",""
"648","img/0_240.png","70","image-keyboard-response","321","232209","0.0-6.0-1.157","REGA","4","f","rechts","23","","","self","f","0","true"
"null","<div style=""font-size:60px;"">+</div>","null","html-keyboard-response","322","232625","0.0-6.0-0.158","REGA","4","f","rechts","23","","fixation","","","",""
"718","img/150_90.png","70","image-keyboard-response","323","233356","0.0-6.0-1.158","REGA","4","f","rechts","23","","","self","f","150","true"
"null","<div style=""font-size:60px;"">+</div>","null","html-keyboard-response","324","233673","0.0-6.0-0.159","REGA","4","f","rechts","23","","fixation","","","",""
"1062","img/60_330.png","70","image-keyboard-response","325","234751","0.0-6.0-1.159","REGA","4","f","rechts","23","","","self","f","60","true"
"null","<div style=""font-size:60px;"">+</div>","null","html-keyboard-response","326","235063","0.0-6.0-0.160","REGA","4","f","rechts","23","","fixation","","","",""
"644","img/0_270.png","70","image-keyboard-response","327","235719","0.0-6.0-1.160","REGA","4","f","rechts","23","","","self","f","0","true"
"null","<div style=""font-size:60px;"">+</div>","null","html-keyboard-response","328","236033","0.0-6.0-0.161","REGA","4","f","rechts","23","","fixation","","","",""
"995","img/60_270.png","70","image-keyboard-response","329","237034","0.0-6.0-1.161","REGA","4","f","rechts","23","","","self","f","60","true"
"null","<div style=""font-size:60px;"">+</div>","null","html-keyboard-response","330","237502","0.0-6.0-0.162","REGA","4","f","rechts","23","","fixation","","","",""
"840","img/60_210.png","74","image-keyboard-response","331","238352","0.0-6.0-1.162","REGA","4","f","rechts","23","","","self","j","60","true"
"null","<div style=""font-size:60px;"">+</div>","null","html-keyboard-response","332","238814","0.0-6.0-0.163","REGA","4","f","rechts","23","","fixation","","","",""
"600","img/0_30.png","74","image-keyboard-response","333","239421","0.0-6.0-1.163","REGA","4","f","rechts","23","","","self","j","0","true"
"null","<div style=""font-size:60px;"">+</div>","null","html-keyboard-response","334","239892","0.0-6.0-0.164","REGA","4","f","rechts","23","","fixation","","","",""
"1011","img/120_330.png","70","image-keyboard-response","335","240917","0.0-6.0-1.164","REGA","4","f","rechts","23","","","self","f","120","true"
"null","<div style=""font-size:60px;"">+</div>","null","html-keyboard-response","336","241348","0.0-6.0-0.165","REGA","4","f","rechts","23","","fixation","","","",""
"875","img/90_150.png","70","image-keyboard-response","337","242232","0.0-6.0-1.165","REGA","4","f","rechts","23","","","self","f","90","true"
"null","<div style=""font-size:60px;"">+</div>","null","html-keyboard-response","338","242752","0.0-6.0-0.166","REGA","4","f","rechts","23","","fixation","","","",""
"721","img/60_180.png","74","image-keyboard-response","339","243481","0.0-6.0-1.166","REGA","4","f","rechts","23","","","self","j","60","true"
"null","<div style=""font-size:60px;"">+</div>","null","html-keyboard-response","340","243956","0.0-6.0-0.167","REGA","4","f","rechts","23","","fixation","","","",""
"708","img/90_240.png","74","image-keyboard-response","341","244673","0.0-6.0-1.167","REGA","4","f","rechts","23","","","self","j","90","true"
"null","<div style=""font-size:60px;"">+</div>","null","html-keyboard-response","342","245033","0.0-6.0-0.168","REGA","4","f","rechts","23","","fixation","","","",""
"836","img/30_90.png","74","image-keyboard-response","343","245879","0.0-6.0-1.168","REGA","4","f","rechts","23","","","self","j","30","true"
"null","<div style=""font-size:60px;"">+</div>","null","html-keyboard-response","344","246207","0.0-6.0-0.169","REGA","4","f","rechts","23","","fixation","","","",""
"920","img/150_60.png","70","image-keyboard-response","345","247137","0.0-6.0-1.169","REGA","4","f","rechts","23","","","self","f","150","true"
"null","<div style=""font-size:60px;"">+</div>","null","html-keyboard-response","346","247451","0.0-6.0-0.170","REGA","4","f","rechts","23","","fixation","","","",""
"851","img/L150_180.png","70","image-keyboard-response","347","248310","0.0-6.0-1.170","REGA","4","f","rechts","23","","","self","f","150","true"
"null","<div style=""font-size:60px;"">+</div>","null","html-keyboard-response","348","248673","0.0-6.0-0.171","REGA","4","f","rechts","23","","fixation","","","",""
"1089","img/30_270.png","70","image-keyboard-response","349","249771","0.0-6.0-1.171","REGA","4","f","rechts","23","","","self","f","30","true"
"null","<div style=""font-size:60px;"">+</div>","null","html-keyboard-response","350","250077","0.0-6.0-0.172","REGA","4","f","rechts","23","","fixation","","","",""
"1054","img/90_330.png","70","image-keyboard-response","351","251144","0.0-6.0-1.172","REGA","4","f","rechts","23","","","self","f","90","true"
"null","<div style=""font-size:60px;"">+</div>","null","html-keyboard-response","352","251453","0.0-6.0-0.173","REGA","4","f","rechts","23","","fixation","","","",""
"984","img/30_300.png","70","image-keyboard-response","353","252447","0.0-6.0-1.173","REGA","4","f","rechts","23","","","self","f","30","true"
"null","<div style=""font-size:60px;"">+</div>","null","html-keyboard-response","354","252952","0.0-6.0-0.174","REGA","4","f","rechts","23","","fixation","","","",""
"799","img/150_180.png","74","image-keyboard-response","355","253764","0.0-6.0-1.174","REGA","4","f","rechts","23","","","self","j","150","true"
"null","<div style=""font-size:60px;"">+</div>","null","html-keyboard-response","356","254172","0.0-6.0-0.175","REGA","4","f","rechts","23","","fixation","","","",""
"865","img/150_120.png","70","image-keyboard-response","357","255047","0.0-6.0-1.175","REGA","4","f","rechts","23","","","self","f","150","true"
"null","<div style=""font-size:60px;"">+</div>","null","html-keyboard-response","358","255514","0.0-6.0-0.176","REGA","4","f","rechts","23","","fixation","","","",""
"780","img/60_90.png","74","image-keyboard-response","359","256308","0.0-6.0-1.176","REGA","4","f","rechts","23","","","self","j","60","true"
"null","<div style=""font-size:60px;"">+</div>","null","html-keyboard-response","360","256733","0.0-6.0-0.177","REGA","4","f","rechts","23","","fixation","","","",""
"779","img/120_90.png","70","image-keyboard-response","361","257522","0.0-6.0-1.177","REGA","4","f","rechts","23","","","self","f","120","true"
"null","<div style=""font-size:60px;"">+</div>","null","html-keyboard-response","362","258046","0.0-6.0-0.178","REGA","4","f","rechts","23","","fixation","","","",""
"632","img/0_330.png","70","image-keyboard-response","363","258692","0.0-6.0-1.178","REGA","4","f","rechts","23","","","self","f","0","true"
"null","<div style=""font-size:60px;"">+</div>","null","html-keyboard-response","364","259201","0.0-6.0-0.179","REGA","4","f","rechts","23","","fixation","","","",""
"648","img/0_150.png","74","image-keyboard-response","365","259862","0.0-6.0-1.179","REGA","4","f","rechts","23","","","self","j","0","true"
"null","<div style=""font-size:60px;"">+</div>","null","html-keyboard-response","366","260218","0.0-6.0-0.180","REGA","4","f","rechts","23","","fixation","","","",""
"647","img/0_210.png","70","image-keyboard-response","367","260875","0.0-6.0-1.180","REGA","4","f","rechts","23","","","self","f","0","true"
"null","<div style=""font-size:60px;"">+</div>","null","html-keyboard-response","368","261279","0.0-6.0-0.181","REGA","4","f","rechts","23","","fixation","","","",""
"675","img/120_210.png","74","image-keyboard-response","369","261965","0.0-6.0-1.181","REGA","4","f","rechts","23","","","self","j","120","true"
"null","<div style=""font-size:60px;"">+</div>","null","html-keyboard-response","370","262389","0.0-6.0-0.182","REGA","4","f","rechts","23","","fixation","","","",""
"872","img/30_240.png","70","image-keyboard-response","371","263271","0.0-6.0-1.182","REGA","4","f","rechts","23","","","self","f","30","true"
"null","<div style=""font-size:60px;"">+</div>","null","html-keyboard-response","372","263672","0.0-6.0-0.183","REGA","4","f","rechts","23","","fixation","","","",""
"894","img/60_150.png","70","image-keyboard-response","373","264575","0.0-6.0-1.183","REGA","4","f","rechts","23","","","self","f","60","true"
"null","<div style=""font-size:60px;"">+</div>","null","html-keyboard-response","374","264935","0.0-6.0-0.184","REGA","4","f","rechts","23","","fixation","","","",""
"981","img/120_30.png","74","image-keyboard-response","375","265926","0.0-6.0-1.184","REGA","4","f","rechts","23","","","self","j","120","true"
"null","<div style=""font-size:60px;"">+</div>","null","html-keyboard-response","376","266280","0.0-6.0-0.185","REGA","4","f","rechts","23","","fixation","","","",""
"879","img/150_270.png","74","image-keyboard-response","377","267175","0.0-6.0-1.185","REGA","4","f","rechts","23","","","self","j","150","true"
"null","<div style=""font-size:60px;"">+</div>","null","html-keyboard-response","378","267656","0.0-6.0-0.186","REGA","4","f","rechts","23","","fixation","","","",""
"630","img/0_120.png","74","image-keyboard-response","379","268299","0.0-6.0-1.186","REGA","4","f","rechts","23","","","self","j","0","true"
"null","<div style=""font-size:60px;"">+</div>","null","html-keyboard-response","380","268767","0.0-6.0-0.187","REGA","4","f","rechts","23","","fixation","","","",""
"611","img/0_300.png","70","image-keyboard-response","381","269391","0.0-6.0-1.187","REGA","4","f","rechts","23","","","self","f","0","true"
"null","<div style=""font-size:60px;"">+</div>","null","html-keyboard-response","382","269750","0.0-6.0-0.188","REGA","4","f","rechts","23","","fixation","","","",""
"750","img/120_150.png","70","image-keyboard-response","383","270515","0.0-6.0-1.188","REGA","4","f","rechts","23","","","self","f","120","true"
"null","<div style=""font-size:60px;"">+</div>","null","html-keyboard-response","384","271046","0.0-6.0-0.189","REGA","4","f","rechts","23","","fixation","","","",""
"529","img/0_60.png","74","image-keyboard-response","385","271584","0.0-6.0-1.189","REGA","4","f","rechts","23","","","self","j","0","true"
"null","<div style=""font-size:60px;"">+</div>","null","html-keyboard-response","386","271938","0.0-6.0-0.190","REGA","4","f","rechts","23","","fixation","","","",""
"805","img/L90_180.png","70","image-keyboard-response","387","272755","0.0-6.0-1.190","REGA","4","f","rechts","23","","","self","f","90","true"
"null","<div style=""font-size:60px;"">+</div>","null","html-keyboard-response","388","273124","0.0-6.0-0.191","REGA","4","f","rechts","23","","fixation","","","",""
"617","img/L120_180.png","70","image-keyboard-response","389","273755","0.0-6.0-1.191","REGA","4","f","rechts","23","","","self","f","120","true"
"null","<div style=""font-size:60px;"">+</div>","null","html-keyboard-response","390","274061","0.0-6.0-0.192","REGA","4","f","rechts","23","","fixation","","","",""
"837","img/L30_180.png","70","image-keyboard-response","391","274913","0.0-6.0-1.192","REGA","4","f","rechts","23","","","self","f","30","true"
"null","<div style=""font-size:60px;"">+</div>","null","html-keyboard-response","392","275282","0.0-6.0-0.193","REGA","4","f","rechts","23","","fixation","","","",""
"754","img/30_180.png","74","image-keyboard-response","393","276050","0.0-6.0-1.193","REGA","4","f","rechts","23","","","self","j","30","true"
"null","<div style=""font-size:60px;"">+</div>","null","html-keyboard-response","394","276424","0.0-6.0-0.194","REGA","4","f","rechts","23","","fixation","","","",""
"941","img/60_30.png","74","image-keyboard-response","395","277378","0.0-6.0-1.194","REGA","4","f","rechts","23","","","self","j","60","true"
"null","<div style=""font-size:60px;"">+</div>","null","html-keyboard-response","396","277906","0.0-6.0-0.195","REGA","4","f","rechts","23","","fixation","","","",""
"506","img/30_120.png","74","image-keyboard-response","397","278427","0.0-6.0-1.195","REGA","4","f","rechts","23","","","self","j","30","true"
"null","<div style=""font-size:60px;"">+</div>","null","html-keyboard-response","398","278798","0.0-6.0-0.196","REGA","4","f","rechts","23","","fixation","","","",""
"784","img/90_120.png","70","image-keyboard-response","399","279595","0.0-6.0-1.196","REGA","4","f","rechts","23","","","self","f","90","true"
"null","<div style=""font-size:60px;"">+</div>","null","html-keyboard-response","400","280000","0.0-6.0-0.197","REGA","4","f","rechts","23","","fixation","","","",""
"838","img/150_300.png","74","image-keyboard-response","401","280854","0.0-6.0-1.197","REGA","4","f","rechts","23","","","self","j","150","true"
"null","<div style=""font-size:60px;"">+</div>","null","html-keyboard-response","402","281313","0.0-6.0-0.198","REGA","4","f","rechts","23","","fixation","","","",""
"743","img/30_60.png","74","image-keyboard-response","403","282071","0.0-6.0-1.198","REGA","4","f","rechts","23","","","self","j","30","true"
"null","<div style=""font-size:60px;"">+</div>","null","html-keyboard-response","404","282378","0.0-6.0-0.199","REGA","4","f","rechts","23","","fixation","","","",""
"1065","img/90_300.png","70","image-keyboard-response","405","283454","0.0-6.0-1.199","REGA","4","f","rechts","23","","","self","f","90","true"
"null","<div style=""font-size:60px;"">+</div>","null","html-keyboard-response","406","283909","0.0-6.0-0.200","REGA","4","f","rechts","23","","fixation","","","",""
"790","img/120_180.png","74","image-keyboard-response","407","284715","0.0-6.0-1.200","REGA","4","f","rechts","23","","","self","j","120","true"
"null","<div style=""font-size:60px;"">+</div>","null","html-keyboard-response","408","285142","0.0-6.0-0.201","REGA","4","f","rechts","23","","fixation","","","",""
"803","img/90_180.png","74","image-keyboard-response","409","285962","0.0-6.0-1.201","REGA","4","f","rechts","23","","","self","j","90","true"
"null","<div style=""font-size:60px;"">+</div>","null","html-keyboard-response","410","286267","0.0-6.0-0.202","REGA","4","f","rechts","23","","fixation","","","",""
"1021","img/90_30.png","74","image-keyboard-response","411","287303","0.0-6.0-1.202","REGA","4","f","rechts","23","","","self","j","90","true"
"null","<div style=""font-size:60px;"">+</div>","null","html-keyboard-response","412","287722","0.0-6.0-0.203","REGA","4","f","rechts","23","","fixation","","","",""
"586","img/0_90.png","74","image-keyboard-response","413","288324","0.0-6.0-1.203","REGA","4","f","rechts","23","","","self","j","0","true"
"null","<div style=""font-size:60px;"">+</div>","null","html-keyboard-response","414","288752","0.0-6.0-0.204","REGA","4","f","rechts","23","","fixation","","","",""
"831","img/90_210.png","74","image-keyboard-response","415","289597","0.0-6.0-1.204","REGA","4","f","rechts","23","","","self","j","90","true"
"null","<div style=""font-size:60px;"">+</div>","null","html-keyboard-response","416","290128","0.0-6.0-0.205","REGA","4","f","rechts","23","","fixation","","","",""
"704","img/150_240.png","74","image-keyboard-response","417","290844","0.0-6.0-1.205","REGA","4","f","rechts","23","","","self","j","150","true"
"null","<div style=""font-size:60px;"">+</div>","null","html-keyboard-response","418","291299","0.0-6.0-0.206","REGA","4","f","rechts","23","","fixation","","","",""
"657","img/120_270.png","74","image-keyboard-response","419","291969","0.0-6.0-1.206","REGA","4","f","rechts","23","","","self","j","120","true"
"null","<div style=""font-size:60px;"">+</div>","null","html-keyboard-response","420","292329","0.0-6.0-0.207","REGA","4","f","rechts","23","","fixation","","","",""
"651","img/L60_180.png","70","image-keyboard-response","421","292994","0.0-6.0-1.207","REGA","4","f","rechts","23","","","self","f","60","true"
"31742","<p>Du hast in 96% der Versuche korrekt entschieden.</p><p>Deine durchschnittliche Reaktionszeit war  797ms.</p><p>Dr&uuml;cke eine beliebige Taste, um die Session zu beenden. Vielen Dank!</p>","72","html-keyboard-response","422","324742","0.0-7.0","REGA","4","f","rechts","23","","","","","",""
