"rt","stimulus","key_press","trial_type","trial_index","time_elapsed","internal_node_id","subject","session","sex","handedness","age","responses","test_part","condition","correct_response","angle","correct"
"2946","<p>Mental Rotation Experiment.</p> <p>Dr&uuml;cke eine beliebige Taste, um anzufangen.</p>","72","html-keyboard-response","0","2983","0.0-0.0","REGA","2","f","rechts","23","","","","","",""
"27174","","","survey-text","1","30162","0.0-1.0","REGA","2","f","rechts","23","{""Q0"":""REGA""}","","","","",""
"33475","","","survey-text","2","63639","0.0-2.0","REGA","2","f","rechts","23","{""Q0"":""2""}","","","","",""
"58891","","","survey-multi-choice","3","122534","0.0-3.0","REGA","2","f","rechts","23","{""Q0"":""f"",""Q1"":""rechts""}","","","","",""
"3395","","","survey-text","4","125930","0.0-4.0","REGA","2","f","rechts","23","{""Q0"":""23""}","","","","",""
"1106113","<p> Stell dir vor, dass du vor einem runden Tisch stehst, auf dem sich ein blauer Ball am Tischrand befindet. Entlang des Tischrands ist jeweils ein verschieden langer Pfeil. Nun bewegst du dich entlang dieses Pfeils bis an seine Spitze. Wenn du am Ende des Pfeils angekommen bist, schau zur Tischmitte. </p> <img src='img/90_180.png'></img> <br> <p>Entscheide dann, ob der Ball von deiner neuen (vorgestellten) Position links oder rechts von dir liegt.</p> <p>Dr&uuml;cke die <strong>'f'</strong>-Taste f&uuml;r links, die <strong>'j'</strong>-Taste f&uuml;r rechts.</p> <br><p> Das Bild wird jeweils 1 Sekunde lang pr&auml;sentiert. Du hast 3 Sekunden Zeit eine Entscheidung zu treffen.</p>","74","html-keyboard-response","5","1232051","0.0-5.0","REGA","2","f","rechts","23","","","","","",""
"null","<div style=""font-size:60px;"">+</div>","null","html-keyboard-response","6","1233484","0.0-6.0-0.0","REGA","2","f","rechts","23","","fixation","","","",""
"1287","img/120_330.png","70","image-keyboard-response","7","1234796","0.0-6.0-1.0","REGA","2","f","rechts","23","","","self","f","120","true"
"null","<div style=""font-size:60px;"">+</div>","null","html-keyboard-response","8","1235307","0.0-6.0-0.1","REGA","2","f","rechts","23","","fixation","","","",""
"1017","img/30_180.png","74","image-keyboard-response","9","1236343","0.0-6.0-1.1","REGA","2","f","rechts","23","","","self","j","30","true"
"null","<div style=""font-size:60px;"">+</div>","null","html-keyboard-response","10","1236806","0.0-6.0-0.2","REGA","2","f","rechts","23","","fixation","","","",""
"922","img/60_30.png","74","image-keyboard-response","11","1237750","0.0-6.0-1.2","REGA","2","f","rechts","23","","","self","j","60","true"
"null","<div style=""font-size:60px;"">+</div>","null","html-keyboard-response","12","1238182","0.0-6.0-0.3","REGA","2","f","rechts","23","","fixation","","","",""
"1148","img/120_30.png","74","image-keyboard-response","13","1239347","0.0-6.0-1.3","REGA","2","f","rechts","23","","","self","j","120","true"
"null","<div style=""font-size:60px;"">+</div>","null","html-keyboard-response","14","1239668","0.0-6.0-0.4","REGA","2","f","rechts","23","","fixation","","","",""
"1058","img/30_270.png","70","image-keyboard-response","15","1240742","0.0-6.0-1.4","REGA","2","f","rechts","23","","","self","f","30","true"
"null","<div style=""font-size:60px;"">+</div>","null","html-keyboard-response","16","1241167","0.0-6.0-0.5","REGA","2","f","rechts","23","","fixation","","","",""
"706","img/0_210.png","70","image-keyboard-response","17","1241891","0.0-6.0-1.5","REGA","2","f","rechts","23","","","self","f","0","true"
"null","<div style=""font-size:60px;"">+</div>","null","html-keyboard-response","18","1242355","0.0-6.0-0.6","REGA","2","f","rechts","23","","fixation","","","",""
"641","img/0_30.png","74","image-keyboard-response","19","1243016","0.0-6.0-1.6","REGA","2","f","rechts","23","","","self","j","0","true"
"null","<div style=""font-size:60px;"">+</div>","null","html-keyboard-response","20","1243530","0.0-6.0-0.7","REGA","2","f","rechts","23","","fixation","","","",""
"714","img/0_60.png","74","image-keyboard-response","21","1244264","0.0-6.0-1.7","REGA","2","f","rechts","23","","","self","j","0","true"
"null","<div style=""font-size:60px;"">+</div>","null","html-keyboard-response","22","1244684","0.0-6.0-0.8","REGA","2","f","rechts","23","","fixation","","","",""
"969","img/L90_180.png","70","image-keyboard-response","23","1245671","0.0-6.0-1.8","REGA","2","f","rechts","23","","","self","f","90","true"
"null","<div style=""font-size:60px;"">+</div>","null","html-keyboard-response","24","1246184","0.0-6.0-0.9","REGA","2","f","rechts","23","","fixation","","","",""
"930","img/120_180.png","74","image-keyboard-response","25","1247132","0.0-6.0-1.9","REGA","2","f","rechts","23","","","self","j","120","true"
"null","<div style=""font-size:60px;"">+</div>","null","html-keyboard-response","26","1247497","0.0-6.0-0.10","REGA","2","f","rechts","23","","fixation","","","",""
"901","img/30_90.png","74","image-keyboard-response","27","1248415","0.0-6.0-1.10","REGA","2","f","rechts","23","","","self","j","30","true"
"null","<div style=""font-size:60px;"">+</div>","null","html-keyboard-response","28","1248731","0.0-6.0-0.11","REGA","2","f","rechts","23","","fixation","","","",""
"1015","img/30_240.png","70","image-keyboard-response","29","1249765","0.0-6.0-1.11","REGA","2","f","rechts","23","","","self","f","30","true"
"null","<div style=""font-size:60px;"">+</div>","null","html-keyboard-response","30","1250089","0.0-6.0-0.12","REGA","2","f","rechts","23","","fixation","","","",""
"851","img/60_90.png","74","image-keyboard-response","31","1250958","0.0-6.0-1.12","REGA","2","f","rechts","23","","","self","j","60","true"
"null","<div style=""font-size:60px;"">+</div>","null","html-keyboard-response","32","1251338","0.0-6.0-0.13","REGA","2","f","rechts","23","","fixation","","","",""
"1095","img/60_270.png","70","image-keyboard-response","33","1252454","0.0-6.0-1.13","REGA","2","f","rechts","23","","","self","f","60","true"
"null","<div style=""font-size:60px;"">+</div>","null","html-keyboard-response","34","1252963","0.0-6.0-0.14","REGA","2","f","rechts","23","","fixation","","","",""
"678","img/0_270.png","70","image-keyboard-response","35","1253669","0.0-6.0-1.14","REGA","2","f","rechts","23","","","self","f","0","true"
"null","<div style=""font-size:60px;"">+</div>","null","html-keyboard-response","36","1253978","0.0-6.0-0.15","REGA","2","f","rechts","23","","fixation","","","",""
"1214","img/30_300.png","70","image-keyboard-response","37","1255209","0.0-6.0-1.15","REGA","2","f","rechts","23","","","self","f","30","true"
"null","<div style=""font-size:60px;"">+</div>","null","html-keyboard-response","38","1255525","0.0-6.0-0.16","REGA","2","f","rechts","23","","fixation","","","",""
"835","img/L60_180.png","70","image-keyboard-response","39","1256381","0.0-6.0-1.16","REGA","2","f","rechts","23","","","self","f","60","true"
"null","<div style=""font-size:60px;"">+</div>","null","html-keyboard-response","40","1256793","0.0-6.0-0.17","REGA","2","f","rechts","23","","fixation","","","",""
"907","img/150_180.png","74","image-keyboard-response","41","1257716","0.0-6.0-1.17","REGA","2","f","rechts","23","","","self","j","150","true"
"null","<div style=""font-size:60px;"">+</div>","null","html-keyboard-response","42","1258088","0.0-6.0-0.18","REGA","2","f","rechts","23","","fixation","","","",""
"806","img/150_240.png","74","image-keyboard-response","43","1258900","0.0-6.0-1.18","REGA","2","f","rechts","23","","","self","j","150","true"
"null","<div style=""font-size:60px;"">+</div>","null","html-keyboard-response","44","1259371","0.0-6.0-0.19","REGA","2","f","rechts","23","","fixation","","","",""
"987","img/150_300.png","74","image-keyboard-response","45","1260375","0.0-6.0-1.19","REGA","2","f","rechts","23","","","self","j","150","true"
"null","<div style=""font-size:60px;"">+</div>","null","html-keyboard-response","46","1260731","0.0-6.0-0.20","REGA","2","f","rechts","23","","fixation","","","",""
"874","img/L120_180.png","70","image-keyboard-response","47","1261622","0.0-6.0-1.20","REGA","2","f","rechts","23","","","self","f","120","true"
"null","<div style=""font-size:60px;"">+</div>","null","html-keyboard-response","48","1261980","0.0-6.0-0.21","REGA","2","f","rechts","23","","fixation","","","",""
"695","img/90_180.png","74","image-keyboard-response","49","1262680","0.0-6.0-1.21","REGA","2","f","rechts","23","","","self","j","90","true"
"null","<div style=""font-size:60px;"">+</div>","null","html-keyboard-response","50","1263136","0.0-6.0-0.22","REGA","2","f","rechts","23","","fixation","","","",""
"696","img/90_120.png","70","image-keyboard-response","51","1263849","0.0-6.0-1.22","REGA","2","f","rechts","23","","","self","f","90","true"
"null","<div style=""font-size:60px;"">+</div>","null","html-keyboard-response","52","1264307","0.0-6.0-0.23","REGA","2","f","rechts","23","","fixation","","","",""
"919","img/60_330.png","70","image-keyboard-response","53","1265244","0.0-6.0-1.23","REGA","2","f","rechts","23","","","self","f","60","true"
"null","<div style=""font-size:60px;"">+</div>","null","html-keyboard-response","54","1265621","0.0-6.0-0.24","REGA","2","f","rechts","23","","fixation","","","",""
"1020","img/90_300.png","70","image-keyboard-response","55","1266664","0.0-6.0-1.24","REGA","2","f","rechts","23","","","self","f","90","true"
"null","<div style=""font-size:60px;"">+</div>","null","html-keyboard-response","56","1267123","0.0-6.0-0.25","REGA","2","f","rechts","23","","fixation","","","",""
"1064","img/90_240.png","74","image-keyboard-response","57","1268205","0.0-6.0-1.25","REGA","2","f","rechts","23","","","self","j","90","true"
"null","<div style=""font-size:60px;"">+</div>","null","html-keyboard-response","58","1268530","0.0-6.0-0.26","REGA","2","f","rechts","23","","fixation","","","",""
"715","img/0_300.png","70","image-keyboard-response","59","1269263","0.0-6.0-1.26","REGA","2","f","rechts","23","","","self","f","0","true"
"null","<div style=""font-size:60px;"">+</div>","null","html-keyboard-response","60","1269732","0.0-6.0-0.27","REGA","2","f","rechts","23","","fixation","","","",""
"873","img/60_210.png","74","image-keyboard-response","61","1270622","0.0-6.0-1.27","REGA","2","f","rechts","23","","","self","j","60","true"
"null","<div style=""font-size:60px;"">+</div>","null","html-keyboard-response","62","1270934","0.0-6.0-0.28","REGA","2","f","rechts","23","","fixation","","","",""
"1178","img/120_210.png","74","image-keyboard-response","63","1272131","0.0-6.0-1.28","REGA","2","f","rechts","23","","","self","j","120","true"
"null","<div style=""font-size:60px;"">+</div>","null","html-keyboard-response","64","1272560","0.0-6.0-0.29","REGA","2","f","rechts","23","","fixation","","","",""
"836","img/120_150.png","70","image-keyboard-response","65","1273413","0.0-6.0-1.29","REGA","2","f","rechts","23","","","self","f","120","true"
"null","<div style=""font-size:60px;"">+</div>","null","html-keyboard-response","66","1273716","0.0-6.0-0.30","REGA","2","f","rechts","23","","fixation","","","",""
"781","img/90_150.png","70","image-keyboard-response","67","1274516","0.0-6.0-1.30","REGA","2","f","rechts","23","","","self","f","90","true"
"null","<div style=""font-size:60px;"">+</div>","null","html-keyboard-response","68","1274841","0.0-6.0-0.31","REGA","2","f","rechts","23","","fixation","","","",""
"1219","img/150_60.png","70","image-keyboard-response","69","1276079","0.0-6.0-1.31","REGA","2","f","rechts","23","","","self","f","150","true"
"null","<div style=""font-size:60px;"">+</div>","null","html-keyboard-response","70","1276531","0.0-6.0-0.32","REGA","2","f","rechts","23","","fixation","","","",""
"734","img/150_120.png","70","image-keyboard-response","71","1277282","0.0-6.0-1.32","REGA","2","f","rechts","23","","","self","f","150","true"
"null","<div style=""font-size:60px;"">+</div>","null","html-keyboard-response","72","1277639","0.0-6.0-0.33","REGA","2","f","rechts","23","","fixation","","","",""
"869","img/120_270.png","74","image-keyboard-response","73","1278519","0.0-6.0-1.33","REGA","2","f","rechts","23","","","self","j","120","true"
"null","<div style=""font-size:60px;"">+</div>","null","html-keyboard-response","74","1279031","0.0-6.0-0.34","REGA","2","f","rechts","23","","fixation","","","",""
"631","img/0_90.png","74","image-keyboard-response","75","1279680","0.0-6.0-1.34","REGA","2","f","rechts","23","","","self","j","0","true"
"null","<div style=""font-size:60px;"">+</div>","null","html-keyboard-response","76","1279984","0.0-6.0-0.35","REGA","2","f","rechts","23","","fixation","","","",""
"868","img/L150_180.png","70","image-keyboard-response","77","1280870","0.0-6.0-1.35","REGA","2","f","rechts","23","","","self","f","150","true"
"null","<div style=""font-size:60px;"">+</div>","null","html-keyboard-response","78","1281233","0.0-6.0-0.36","REGA","2","f","rechts","23","","fixation","","","",""
"1228","img/90_330.png","70","image-keyboard-response","79","1282480","0.0-6.0-1.36","REGA","2","f","rechts","23","","","self","f","90","true"
"null","<div style=""font-size:60px;"">+</div>","null","html-keyboard-response","80","1282935","0.0-6.0-0.37","REGA","2","f","rechts","23","","fixation","","","",""
"1086","img/90_30.png","74","image-keyboard-response","81","1284045","0.0-6.0-1.37","REGA","2","f","rechts","23","","","self","j","90","true"
"null","<div style=""font-size:60px;"">+</div>","null","html-keyboard-response","82","1284514","0.0-6.0-0.38","REGA","2","f","rechts","23","","fixation","","","",""
"773","img/60_180.png","74","image-keyboard-response","83","1285304","0.0-6.0-1.38","REGA","2","f","rechts","23","","","self","j","60","true"
"null","<div style=""font-size:60px;"">+</div>","null","html-keyboard-response","84","1285707","0.0-6.0-0.39","REGA","2","f","rechts","23","","fixation","","","",""
"773","img/L30_180.png","70","image-keyboard-response","85","1286497","0.0-6.0-1.39","REGA","2","f","rechts","23","","","self","f","30","true"
"null","<div style=""font-size:60px;"">+</div>","null","html-keyboard-response","86","1286800","0.0-6.0-0.40","REGA","2","f","rechts","23","","fixation","","","",""
"1343","img/30_120.png","74","image-keyboard-response","87","1288164","0.0-6.0-1.40","REGA","2","f","rechts","23","","","self","j","30","true"
"null","<div style=""font-size:60px;"">+</div>","null","html-keyboard-response","88","1288581","0.0-6.0-0.41","REGA","2","f","rechts","23","","fixation","","","",""
"1146","img/90_60.png","74","image-keyboard-response","89","1289748","0.0-6.0-1.41","REGA","2","f","rechts","23","","","self","j","90","true"
"null","<div style=""font-size:60px;"">+</div>","null","html-keyboard-response","90","1290205","0.0-6.0-0.42","REGA","2","f","rechts","23","","fixation","","","",""
"740","img/150_90.png","70","image-keyboard-response","91","1290965","0.0-6.0-1.42","REGA","2","f","rechts","23","","","self","f","150","true"
"null","<div style=""font-size:60px;"">+</div>","null","html-keyboard-response","92","1291424","0.0-6.0-0.43","REGA","2","f","rechts","23","","fixation","","","",""
"1037","img/150_270.png","74","image-keyboard-response","93","1292483","0.0-6.0-1.43","REGA","2","f","rechts","23","","","self","j","150","true"
"null","<div style=""font-size:60px;"">+</div>","null","html-keyboard-response","94","1292986","0.0-6.0-0.44","REGA","2","f","rechts","23","","fixation","","","",""
"860","img/30_60.png","74","image-keyboard-response","95","1293866","0.0-6.0-1.44","REGA","2","f","rechts","23","","","self","j","30","true"
"null","<div style=""font-size:60px;"">+</div>","null","html-keyboard-response","96","1294286","0.0-6.0-0.45","REGA","2","f","rechts","23","","fixation","","","",""
"653","img/0_120.png","74","image-keyboard-response","97","1294958","0.0-6.0-1.45","REGA","2","f","rechts","23","","","self","j","0","true"
"null","<div style=""font-size:60px;"">+</div>","null","html-keyboard-response","98","1295472","0.0-6.0-0.46","REGA","2","f","rechts","23","","fixation","","","",""
"882","img/0_330.png","70","image-keyboard-response","99","1296375","0.0-6.0-1.46","REGA","2","f","rechts","23","","","self","f","0","true"
"null","<div style=""font-size:60px;"">+</div>","null","html-keyboard-response","100","1296690","0.0-6.0-0.47","REGA","2","f","rechts","23","","fixation","","","",""
"993","img/60_150.png","70","image-keyboard-response","101","1297702","0.0-6.0-1.47","REGA","2","f","rechts","23","","","self","f","60","true"
"null","<div style=""font-size:60px;"">+</div>","null","html-keyboard-response","102","1298127","0.0-6.0-0.48","REGA","2","f","rechts","23","","fixation","","","",""
"690","img/0_150.png","74","image-keyboard-response","103","1298838","0.0-6.0-1.48","REGA","2","f","rechts","23","","","self","j","0","true"
"null","<div style=""font-size:60px;"">+</div>","null","html-keyboard-response","104","1299350","0.0-6.0-0.49","REGA","2","f","rechts","23","","fixation","","","",""
"822","img/120_90.png","70","image-keyboard-response","105","1300188","0.0-6.0-1.49","REGA","2","f","rechts","23","","","self","f","120","true"
"null","<div style=""font-size:60px;"">+</div>","null","html-keyboard-response","106","1300548","0.0-6.0-0.50","REGA","2","f","rechts","23","","fixation","","","",""
"1085","img/90_210.png","74","image-keyboard-response","107","1301651","0.0-6.0-1.50","REGA","2","f","rechts","23","","","self","j","90","true"
"null","<div style=""font-size:60px;"">+</div>","null","html-keyboard-response","108","1302161","0.0-6.0-0.51","REGA","2","f","rechts","23","","fixation","","","",""
"610","img/0_240.png","70","image-keyboard-response","109","1302788","0.0-6.0-1.51","REGA","2","f","rechts","23","","","self","f","0","true"
"null","<div style=""font-size:60px;"">+</div>","null","html-keyboard-response","110","1303208","0.0-6.0-0.52","REGA","2","f","rechts","23","","fixation","","","",""
"753","img/L120_180.png","70","image-keyboard-response","111","1303969","0.0-6.0-1.52","REGA","2","f","rechts","23","","","self","f","120","true"
"null","<div style=""font-size:60px;"">+</div>","null","html-keyboard-response","112","1304472","0.0-6.0-0.53","REGA","2","f","rechts","23","","fixation","","","",""
"514","img/0_60.png","74","image-keyboard-response","113","1305002","0.0-6.0-1.53","REGA","2","f","rechts","23","","","self","j","0","true"
"null","<div style=""font-size:60px;"">+</div>","null","html-keyboard-response","114","1305411","0.0-6.0-0.54","REGA","2","f","rechts","23","","fixation","","","",""
"962","img/L60_180.png","70","image-keyboard-response","115","1306388","0.0-6.0-1.54","REGA","2","f","rechts","23","","","self","f","60","true"
"null","<div style=""font-size:60px;"">+</div>","null","html-keyboard-response","116","1306818","0.0-6.0-0.55","REGA","2","f","rechts","23","","fixation","","","",""
"772","img/60_30.png","74","image-keyboard-response","117","1307602","0.0-6.0-1.55","REGA","2","f","rechts","23","","","self","j","60","true"
"null","<div style=""font-size:60px;"">+</div>","null","html-keyboard-response","118","1307956","0.0-6.0-0.56","REGA","2","f","rechts","23","","fixation","","","",""
"668","img/90_120.png","70","image-keyboard-response","119","1308637","0.0-6.0-1.56","REGA","2","f","rechts","23","","","self","f","90","true"
"null","<div style=""font-size:60px;"">+</div>","null","html-keyboard-response","120","1309003","0.0-6.0-0.57","REGA","2","f","rechts","23","","fixation","","","",""
"720","img/120_90.png","70","image-keyboard-response","121","1309729","0.0-6.0-1.57","REGA","2","f","rechts","23","","","self","f","120","true"
"null","<div style=""font-size:60px;"">+</div>","null","html-keyboard-response","122","1310161","0.0-6.0-0.58","REGA","2","f","rechts","23","","fixation","","","",""
"1062","img/60_270.png","70","image-keyboard-response","123","1311237","0.0-6.0-1.58","REGA","2","f","rechts","23","","","self","f","60","true"
"null","<div style=""font-size:60px;"">+</div>","null","html-keyboard-response","124","1311553","0.0-6.0-0.59","REGA","2","f","rechts","23","","fixation","","","",""
"817","img/150_240.png","74","image-keyboard-response","125","1312384","0.0-6.0-1.59","REGA","2","f","rechts","23","","","self","j","150","true"
"null","<div style=""font-size:60px;"">+</div>","null","html-keyboard-response","126","1312896","0.0-6.0-0.60","REGA","2","f","rechts","23","","fixation","","","",""
"585","img/0_330.png","70","image-keyboard-response","127","1313486","0.0-6.0-1.60","REGA","2","f","rechts","23","","","self","f","0","true"
"null","<div style=""font-size:60px;"">+</div>","null","html-keyboard-response","128","1313896","0.0-6.0-0.61","REGA","2","f","rechts","23","","fixation","","","",""
"794","img/30_60.png","74","image-keyboard-response","129","1314702","0.0-6.0-1.61","REGA","2","f","rechts","23","","","self","j","30","true"
"null","<div style=""font-size:60px;"">+</div>","null","html-keyboard-response","130","1315006","0.0-6.0-0.62","REGA","2","f","rechts","23","","fixation","","","",""
"765","img/150_120.png","70","image-keyboard-response","131","1315781","0.0-6.0-1.62","REGA","2","f","rechts","23","","","self","f","150","true"
"null","<div style=""font-size:60px;"">+</div>","null","html-keyboard-response","132","1316098","0.0-6.0-0.63","REGA","2","f","rechts","23","","fixation","","","",""
"576","img/0_30.png","74","image-keyboard-response","133","1316680","0.0-6.0-1.63","REGA","2","f","rechts","23","","","self","j","0","true"
"null","<div style=""font-size:60px;"">+</div>","null","html-keyboard-response","134","1317145","0.0-6.0-0.64","REGA","2","f","rechts","23","","fixation","","","",""
"787","img/150_270.png","74","image-keyboard-response","135","1317941","0.0-6.0-1.64","REGA","2","f","rechts","23","","","self","j","150","true"
"null","<div style=""font-size:60px;"">+</div>","null","html-keyboard-response","136","1318458","0.0-6.0-0.65","REGA","2","f","rechts","23","","fixation","","","",""
"767","img/120_270.png","74","image-keyboard-response","137","1319235","0.0-6.0-1.65","REGA","2","f","rechts","23","","","self","j","120","true"
"null","<div style=""font-size:60px;"">+</div>","null","html-keyboard-response","138","1319604","0.0-6.0-0.66","REGA","2","f","rechts","23","","fixation","","","",""
"968","img/60_210.png","74","image-keyboard-response","139","1320586","0.0-6.0-1.66","REGA","2","f","rechts","23","","","self","j","60","true"
"null","<div style=""font-size:60px;"">+</div>","null","html-keyboard-response","140","1321057","0.0-6.0-0.67","REGA","2","f","rechts","23","","fixation","","","",""
"798","img/L90_180.png","70","image-keyboard-response","141","1321866","0.0-6.0-1.67","REGA","2","f","rechts","23","","","self","f","90","true"
"null","<div style=""font-size:60px;"">+</div>","null","html-keyboard-response","142","1322274","0.0-6.0-0.68","REGA","2","f","rechts","23","","fixation","","","",""
"772","img/120_180.png","74","image-keyboard-response","143","1323061","0.0-6.0-1.68","REGA","2","f","rechts","23","","","self","j","120","true"
"null","<div style=""font-size:60px;"">+</div>","null","html-keyboard-response","144","1323480","0.0-6.0-0.69","REGA","2","f","rechts","23","","fixation","","","",""
"1503","img/30_240.png","74","image-keyboard-response","145","1324995","0.0-6.0-1.69","REGA","2","f","rechts","23","","","self","f","30","false"
"null","<div style=""font-size:60px;"">+</div>","null","html-keyboard-response","146","1325510","0.0-6.0-0.70","REGA","2","f","rechts","23","","fixation","","","",""
"831","img/90_180.png","74","image-keyboard-response","147","1326354","0.0-6.0-1.70","REGA","2","f","rechts","23","","","self","j","90","true"
"null","<div style=""font-size:60px;"">+</div>","null","html-keyboard-response","148","1326762","0.0-6.0-0.71","REGA","2","f","rechts","23","","fixation","","","",""
"777","img/60_150.png","70","image-keyboard-response","149","1327548","0.0-6.0-1.71","REGA","2","f","rechts","23","","","self","f","60","true"
"null","<div style=""font-size:60px;"">+</div>","null","html-keyboard-response","150","1327870","0.0-6.0-0.72","REGA","2","f","rechts","23","","fixation","","","",""
"753","img/150_60.png","70","image-keyboard-response","151","1328639","0.0-6.0-1.72","REGA","2","f","rechts","23","","","self","f","150","true"
"null","<div style=""font-size:60px;"">+</div>","null","html-keyboard-response","152","1328965","0.0-6.0-0.73","REGA","2","f","rechts","23","","fixation","","","",""
"1406","img/90_330.png","70","image-keyboard-response","153","1330384","0.0-6.0-1.73","REGA","2","f","rechts","23","","","self","f","90","true"
"null","<div style=""font-size:60px;"">+</div>","null","html-keyboard-response","154","1330793","0.0-6.0-0.74","REGA","2","f","rechts","23","","fixation","","","",""
"871","img/30_300.png","70","image-keyboard-response","155","1331677","0.0-6.0-1.74","REGA","2","f","rechts","23","","","self","f","30","true"
"null","<div style=""font-size:60px;"">+</div>","null","html-keyboard-response","156","1332105","0.0-6.0-0.75","REGA","2","f","rechts","23","","fixation","","","",""
"842","img/30_180.png","74","image-keyboard-response","157","1332960","0.0-6.0-1.75","REGA","2","f","rechts","23","","","self","j","30","true"
"null","<div style=""font-size:60px;"">+</div>","null","html-keyboard-response","158","1333466","0.0-6.0-0.76","REGA","2","f","rechts","23","","fixation","","","",""
"774","img/L150_180.png","70","image-keyboard-response","159","1334253","0.0-6.0-1.76","REGA","2","f","rechts","23","","","self","f","150","true"
"null","<div style=""font-size:60px;"">+</div>","null","html-keyboard-response","160","1334684","0.0-6.0-0.77","REGA","2","f","rechts","23","","fixation","","","",""
"775","img/60_180.png","74","image-keyboard-response","161","1335470","0.0-6.0-1.77","REGA","2","f","rechts","23","","","self","j","60","true"
"null","<div style=""font-size:60px;"">+</div>","null","html-keyboard-response","162","1335776","0.0-6.0-0.78","REGA","2","f","rechts","23","","fixation","","","",""
"628","img/0_240.png","70","image-keyboard-response","163","1336414","0.0-6.0-1.78","REGA","2","f","rechts","23","","","self","f","0","true"
"null","<div style=""font-size:60px;"">+</div>","null","html-keyboard-response","164","1336729","0.0-6.0-0.79","REGA","2","f","rechts","23","","fixation","","","",""
"804","img/30_90.png","74","image-keyboard-response","165","1337551","0.0-6.0-1.79","REGA","2","f","rechts","23","","","self","j","30","true"
"null","<div style=""font-size:60px;"">+</div>","null","html-keyboard-response","166","1338074","0.0-6.0-0.80","REGA","2","f","rechts","23","","fixation","","","",""
"947","img/60_330.png","70","image-keyboard-response","167","1339034","0.0-6.0-1.80","REGA","2","f","rechts","23","","","self","f","60","true"
"null","<div style=""font-size:60px;"">+</div>","null","html-keyboard-response","168","1339338","0.0-6.0-0.81","REGA","2","f","rechts","23","","fixation","","","",""
"854","img/120_210.png","74","image-keyboard-response","169","1340205","0.0-6.0-1.81","REGA","2","f","rechts","23","","","self","j","120","true"
"null","<div style=""font-size:60px;"">+</div>","null","html-keyboard-response","170","1340668","0.0-6.0-0.82","REGA","2","f","rechts","23","","fixation","","","",""
"604","img/0_90.png","74","image-keyboard-response","171","1341285","0.0-6.0-1.82","REGA","2","f","rechts","23","","","self","j","0","true"
"null","<div style=""font-size:60px;"">+</div>","null","html-keyboard-response","172","1341746","0.0-6.0-0.83","REGA","2","f","rechts","23","","fixation","","","",""
"764","img/150_300.png","74","image-keyboard-response","173","1342523","0.0-6.0-1.83","REGA","2","f","rechts","23","","","self","j","150","true"
"null","<div style=""font-size:60px;"">+</div>","null","html-keyboard-response","174","1342901","0.0-6.0-0.84","REGA","2","f","rechts","23","","fixation","","","",""
"1715","img/90_60.png","74","image-keyboard-response","175","1344626","0.0-6.0-1.84","REGA","2","f","rechts","23","","","self","j","90","true"
"null","<div style=""font-size:60px;"">+</div>","null","html-keyboard-response","176","1345042","0.0-6.0-0.85","REGA","2","f","rechts","23","","fixation","","","",""
"593","img/0_270.png","70","image-keyboard-response","177","1345651","0.0-6.0-1.85","REGA","2","f","rechts","23","","","self","f","0","true"
"null","<div style=""font-size:60px;"">+</div>","null","html-keyboard-response","178","1346122","0.0-6.0-0.86","REGA","2","f","rechts","23","","fixation","","","",""
"588","img/0_150.png","74","image-keyboard-response","179","1346720","0.0-6.0-1.86","REGA","2","f","rechts","23","","","self","j","0","true"
"null","<div style=""font-size:60px;"">+</div>","null","html-keyboard-response","180","1347046","0.0-6.0-0.87","REGA","2","f","rechts","23","","fixation","","","",""
"975","img/120_30.png","74","image-keyboard-response","181","1348034","0.0-6.0-1.87","REGA","2","f","rechts","23","","","self","j","120","true"
"null","<div style=""font-size:60px;"">+</div>","null","html-keyboard-response","182","1348467","0.0-6.0-0.88","REGA","2","f","rechts","23","","fixation","","","",""
"828","img/150_90.png","70","image-keyboard-response","183","1349307","0.0-6.0-1.88","REGA","2","f","rechts","23","","","self","f","150","true"
"null","<div style=""font-size:60px;"">+</div>","null","html-keyboard-response","184","1349763","0.0-6.0-0.89","REGA","2","f","rechts","23","","fixation","","","",""
"923","img/90_150.png","70","image-keyboard-response","185","1350701","0.0-6.0-1.89","REGA","2","f","rechts","23","","","self","f","90","true"
"null","<div style=""font-size:60px;"">+</div>","null","html-keyboard-response","186","1351061","0.0-6.0-0.90","REGA","2","f","rechts","23","","fixation","","","",""
"891","img/90_240.png","74","image-keyboard-response","187","1351964","0.0-6.0-1.90","REGA","2","f","rechts","23","","","self","j","90","true"
"null","<div style=""font-size:60px;"">+</div>","null","html-keyboard-response","188","1352280","0.0-6.0-0.91","REGA","2","f","rechts","23","","fixation","","","",""
"772","img/150_180.png","74","image-keyboard-response","189","1353063","0.0-6.0-1.91","REGA","2","f","rechts","23","","","self","j","150","true"
"null","<div style=""font-size:60px;"">+</div>","null","html-keyboard-response","190","1353389","0.0-6.0-0.92","REGA","2","f","rechts","23","","fixation","","","",""
"620","img/0_210.png","70","image-keyboard-response","191","1354021","0.0-6.0-1.92","REGA","2","f","rechts","23","","","self","f","0","true"
"null","<div style=""font-size:60px;"">+</div>","null","html-keyboard-response","192","1354542","0.0-6.0-0.93","REGA","2","f","rechts","23","","fixation","","","",""
"915","img/90_30.png","74","image-keyboard-response","193","1355471","0.0-6.0-1.93","REGA","2","f","rechts","23","","","self","j","90","true"
"null","<div style=""font-size:60px;"">+</div>","null","html-keyboard-response","194","1355995","0.0-6.0-0.94","REGA","2","f","rechts","23","","fixation","","","",""
"554","img/0_120.png","74","image-keyboard-response","195","1356564","0.0-6.0-1.94","REGA","2","f","rechts","23","","","self","j","0","true"
"null","<div style=""font-size:60px;"">+</div>","null","html-keyboard-response","196","1357027","0.0-6.0-0.95","REGA","2","f","rechts","23","","fixation","","","",""
"748","img/60_90.png","74","image-keyboard-response","197","1357789","0.0-6.0-1.95","REGA","2","f","rechts","23","","","self","j","60","true"
"null","<div style=""font-size:60px;"">+</div>","null","html-keyboard-response","198","1358122","0.0-6.0-0.96","REGA","2","f","rechts","23","","fixation","","","",""
"712","img/120_150.png","70","image-keyboard-response","199","1358848","0.0-6.0-1.96","REGA","2","f","rechts","23","","","self","f","120","true"
"null","<div style=""font-size:60px;"">+</div>","null","html-keyboard-response","200","1359355","0.0-6.0-0.97","REGA","2","f","rechts","23","","fixation","","","",""
"953","img/L30_180.png","70","image-keyboard-response","201","1360323","0.0-6.0-1.97","REGA","2","f","rechts","23","","","self","f","30","true"
"null","<div style=""font-size:60px;"">+</div>","null","html-keyboard-response","202","1360682","0.0-6.0-0.98","REGA","2","f","rechts","23","","fixation","","","",""
"785","img/30_120.png","74","image-keyboard-response","203","1361480","0.0-6.0-1.98","REGA","2","f","rechts","23","","","self","j","30","true"
"null","<div style=""font-size:60px;"">+</div>","null","html-keyboard-response","204","1361793","0.0-6.0-0.99","REGA","2","f","rechts","23","","fixation","","","",""
"930","img/30_270.png","70","image-keyboard-response","205","1362740","0.0-6.0-1.99","REGA","2","f","rechts","23","","","self","f","30","true"
"null","<div style=""font-size:60px;"">+</div>","null","html-keyboard-response","206","1363045","0.0-6.0-0.100","REGA","2","f","rechts","23","","fixation","","","",""
"1007","img/90_300.png","70","image-keyboard-response","207","1364064","0.0-6.0-1.100","REGA","2","f","rechts","23","","","self","f","90","true"
"null","<div style=""font-size:60px;"">+</div>","null","html-keyboard-response","208","1364574","0.0-6.0-0.101","REGA","2","f","rechts","23","","fixation","","","",""
"716","img/90_210.png","74","image-keyboard-response","209","1365303","0.0-6.0-1.101","REGA","2","f","rechts","23","","","self","j","90","true"
"null","<div style=""font-size:60px;"">+</div>","null","html-keyboard-response","210","1365607","0.0-6.0-0.102","REGA","2","f","rechts","23","","fixation","","","",""
"608","img/0_300.png","70","image-keyboard-response","211","1366227","0.0-6.0-1.102","REGA","2","f","rechts","23","","","self","f","0","true"
"null","<div style=""font-size:60px;"">+</div>","null","html-keyboard-response","212","1366559","0.0-6.0-0.103","REGA","2","f","rechts","23","","fixation","","","",""
"1005","img/120_330.png","70","image-keyboard-response","213","1367577","0.0-6.0-1.103","REGA","2","f","rechts","23","","","self","f","120","true"
"null","<div style=""font-size:60px;"">+</div>","null","html-keyboard-response","214","1367903","0.0-6.0-0.104","REGA","2","f","rechts","23","","fixation","","","",""
"632","img/0_60.png","74","image-keyboard-response","215","1368546","0.0-6.0-1.104","REGA","2","f","rechts","23","","","self","j","0","true"
"null","<div style=""font-size:60px;"">+</div>","null","html-keyboard-response","216","1368995","0.0-6.0-0.105","REGA","2","f","rechts","23","","fixation","","","",""
"864","img/150_120.png","70","image-keyboard-response","217","1369870","0.0-6.0-1.105","REGA","2","f","rechts","23","","","self","f","150","true"
"null","<div style=""font-size:60px;"">+</div>","null","html-keyboard-response","218","1370340","0.0-6.0-0.106","REGA","2","f","rechts","23","","fixation","","","",""
"704","img/L150_180.png","70","image-keyboard-response","219","1371053","0.0-6.0-1.106","REGA","2","f","rechts","23","","","self","f","150","true"
"null","<div style=""font-size:60px;"">+</div>","null","html-keyboard-response","220","1371467","0.0-6.0-0.107","REGA","2","f","rechts","23","","fixation","","","",""
"676","img/0_330.png","70","image-keyboard-response","221","1372156","0.0-6.0-1.107","REGA","2","f","rechts","23","","","self","f","0","true"
"null","<div style=""font-size:60px;"">+</div>","null","html-keyboard-response","222","1372577","0.0-6.0-0.108","REGA","2","f","rechts","23","","fixation","","","",""
"999","img/90_300.png","70","image-keyboard-response","223","1373585","0.0-6.0-1.108","REGA","2","f","rechts","23","","","self","f","90","true"
"null","<div style=""font-size:60px;"">+</div>","null","html-keyboard-response","224","1373904","0.0-6.0-0.109","REGA","2","f","rechts","23","","fixation","","","",""
"880","img/150_270.png","74","image-keyboard-response","225","1374800","0.0-6.0-1.109","REGA","2","f","rechts","23","","","self","j","150","true"
"null","<div style=""font-size:60px;"">+</div>","null","html-keyboard-response","226","1375170","0.0-6.0-0.110","REGA","2","f","rechts","23","","fixation","","","",""
"618","img/0_240.png","70","image-keyboard-response","227","1375802","0.0-6.0-1.110","REGA","2","f","rechts","23","","","self","f","0","true"
"null","<div style=""font-size:60px;"">+</div>","null","html-keyboard-response","228","1376217","0.0-6.0-0.111","REGA","2","f","rechts","23","","fixation","","","",""
"777","img/90_240.png","74","image-keyboard-response","229","1377004","0.0-6.0-1.111","REGA","2","f","rechts","23","","","self","j","90","true"
"null","<div style=""font-size:60px;"">+</div>","null","html-keyboard-response","230","1377467","0.0-6.0-0.112","REGA","2","f","rechts","23","","fixation","","","",""
"682","img/90_180.png","74","image-keyboard-response","231","1378164","0.0-6.0-1.112","REGA","2","f","rechts","23","","","self","j","90","true"
"null","<div style=""font-size:60px;"">+</div>","null","html-keyboard-response","232","1378591","0.0-6.0-0.113","REGA","2","f","rechts","23","","fixation","","","",""
"785","img/120_90.png","70","image-keyboard-response","233","1379390","0.0-6.0-1.113","REGA","2","f","rechts","23","","","self","f","120","true"
"null","<div style=""font-size:60px;"">+</div>","null","html-keyboard-response","234","1379701","0.0-6.0-0.114","REGA","2","f","rechts","23","","fixation","","","",""
"1327","img/90_330.png","70","image-keyboard-response","235","1381044","0.0-6.0-1.114","REGA","2","f","rechts","23","","","self","f","90","true"
"null","<div style=""font-size:60px;"">+</div>","null","html-keyboard-response","236","1381452","0.0-6.0-0.115","REGA","2","f","rechts","23","","fixation","","","",""
"961","img/60_180.png","74","image-keyboard-response","237","1382427","0.0-6.0-1.115","REGA","2","f","rechts","23","","","self","j","60","true"
"null","<div style=""font-size:60px;"">+</div>","null","html-keyboard-response","238","1382860","0.0-6.0-0.116","REGA","2","f","rechts","23","","fixation","","","",""
"555","img/0_30.png","74","image-keyboard-response","239","1383428","0.0-6.0-1.116","REGA","2","f","rechts","23","","","self","j","0","true"
"null","<div style=""font-size:60px;"">+</div>","null","html-keyboard-response","240","1383735","0.0-6.0-0.117","REGA","2","f","rechts","23","","fixation","","","",""
"888","img/120_30.png","74","image-keyboard-response","241","1384632","0.0-6.0-1.117","REGA","2","f","rechts","23","","","self","j","120","true"
"null","<div style=""font-size:60px;"">+</div>","null","html-keyboard-response","242","1385093","0.0-6.0-0.118","REGA","2","f","rechts","23","","fixation","","","",""
"831","img/60_270.png","70","image-keyboard-response","243","1385938","0.0-6.0-1.118","REGA","2","f","rechts","23","","","self","f","60","true"
"null","<div style=""font-size:60px;"">+</div>","null","html-keyboard-response","244","1386360","0.0-6.0-0.119","REGA","2","f","rechts","23","","fixation","","","",""
"852","img/90_60.png","74","image-keyboard-response","245","1387221","0.0-6.0-1.119","REGA","2","f","rechts","23","","","self","j","90","true"
"null","<div style=""font-size:60px;"">+</div>","null","html-keyboard-response","246","1387639","0.0-6.0-0.120","REGA","2","f","rechts","23","","fixation","","","",""
"963","img/30_300.png","70","image-keyboard-response","247","1388616","0.0-6.0-1.120","REGA","2","f","rechts","23","","","self","f","30","true"
"null","<div style=""font-size:60px;"">+</div>","null","html-keyboard-response","248","1389071","0.0-6.0-0.121","REGA","2","f","rechts","23","","fixation","","","",""
"747","img/30_60.png","74","image-keyboard-response","249","1389830","0.0-6.0-1.121","REGA","2","f","rechts","23","","","self","j","30","true"
"null","<div style=""font-size:60px;"">+</div>","null","html-keyboard-response","250","1390306","0.0-6.0-0.122","REGA","2","f","rechts","23","","fixation","","","",""
"886","img/150_180.png","74","image-keyboard-response","251","1391203","0.0-6.0-1.122","REGA","2","f","rechts","23","","","self","j","150","true"
"null","<div style=""font-size:60px;"">+</div>","null","html-keyboard-response","252","1391664","0.0-6.0-0.123","REGA","2","f","rechts","23","","fixation","","","",""
"739","img/150_240.png","74","image-keyboard-response","253","1392418","0.0-6.0-1.123","REGA","2","f","rechts","23","","","self","j","150","true"
"null","<div style=""font-size:60px;"">+</div>","null","html-keyboard-response","254","1392882","0.0-6.0-0.124","REGA","2","f","rechts","23","","fixation","","","",""
"726","img/L120_180.png","70","image-keyboard-response","255","1393621","0.0-6.0-1.124","REGA","2","f","rechts","23","","","self","f","120","true"
"null","<div style=""font-size:60px;"">+</div>","null","html-keyboard-response","256","1393976","0.0-6.0-0.125","REGA","2","f","rechts","23","","fixation","","","",""
"962","img/150_90.png","70","image-keyboard-response","257","1394948","0.0-6.0-1.125","REGA","2","f","rechts","23","","","self","f","150","true"
"null","<div style=""font-size:60px;"">+</div>","null","html-keyboard-response","258","1395351","0.0-6.0-0.126","REGA","2","f","rechts","23","","fixation","","","",""
"777","img/90_120.png","70","image-keyboard-response","259","1396141","0.0-6.0-1.126","REGA","2","f","rechts","23","","","self","f","90","true"
"null","<div style=""font-size:60px;"">+</div>","null","html-keyboard-response","260","1396604","0.0-6.0-0.127","REGA","2","f","rechts","23","","fixation","","","",""
"806","img/L60_180.png","70","image-keyboard-response","261","1397423","0.0-6.0-1.127","REGA","2","f","rechts","23","","","self","f","60","true"
"null","<div style=""font-size:60px;"">+</div>","null","html-keyboard-response","262","1397887","0.0-6.0-0.128","REGA","2","f","rechts","23","","fixation","","","",""
"1011","img/90_30.png","74","image-keyboard-response","263","1398908","0.0-6.0-1.128","REGA","2","f","rechts","23","","","self","j","90","true"
"null","<div style=""font-size:60px;"">+</div>","null","html-keyboard-response","264","1399323","0.0-6.0-0.129","REGA","2","f","rechts","23","","fixation","","","",""
"915","img/120_150.png","70","image-keyboard-response","265","1400247","0.0-6.0-1.129","REGA","2","f","rechts","23","","","self","f","120","true"
"null","<div style=""font-size:60px;"">+</div>","null","html-keyboard-response","266","1400712","0.0-6.0-0.130","REGA","2","f","rechts","23","","fixation","","","",""
"908","img/90_150.png","70","image-keyboard-response","267","1401632","0.0-6.0-1.130","REGA","2","f","rechts","23","","","self","f","90","true"
"null","<div style=""font-size:60px;"">+</div>","null","html-keyboard-response","268","1401995","0.0-6.0-0.131","REGA","2","f","rechts","23","","fixation","","","",""
"849","img/0_270.png","70","image-keyboard-response","269","1402857","0.0-6.0-1.131","REGA","2","f","rechts","23","","","self","f","0","true"
"null","<div style=""font-size:60px;"">+</div>","null","html-keyboard-response","270","1403274","0.0-6.0-0.132","REGA","2","f","rechts","23","","fixation","","","",""
"853","img/120_180.png","74","image-keyboard-response","271","1404140","0.0-6.0-1.132","REGA","2","f","rechts","23","","","self","j","120","true"
"null","<div style=""font-size:60px;"">+</div>","null","html-keyboard-response","272","1404446","0.0-6.0-0.133","REGA","2","f","rechts","23","","fixation","","","",""
"725","img/0_210.png","70","image-keyboard-response","273","1405184","0.0-6.0-1.133","REGA","2","f","rechts","23","","","self","f","0","true"
"null","<div style=""font-size:60px;"">+</div>","null","html-keyboard-response","274","1405665","0.0-6.0-0.134","REGA","2","f","rechts","23","","fixation","","","",""
"758","img/L90_180.png","70","image-keyboard-response","275","1406436","0.0-6.0-1.134","REGA","2","f","rechts","23","","","self","f","90","true"
"null","<div style=""font-size:60px;"">+</div>","null","html-keyboard-response","276","1406965","0.0-6.0-0.135","REGA","2","f","rechts","23","","fixation","","","",""
"579","img/0_90.png","74","image-keyboard-response","277","1407561","0.0-6.0-1.135","REGA","2","f","rechts","23","","","self","j","0","true"
"null","<div style=""font-size:60px;"">+</div>","null","html-keyboard-response","278","1407870","0.0-6.0-0.136","REGA","2","f","rechts","23","","fixation","","","",""
"836","img/120_270.png","74","image-keyboard-response","279","1408719","0.0-6.0-1.136","REGA","2","f","rechts","23","","","self","j","120","true"
"null","<div style=""font-size:60px;"">+</div>","null","html-keyboard-response","280","1409184","0.0-6.0-0.137","REGA","2","f","rechts","23","","fixation","","","",""
"571","img/0_300.png","70","image-keyboard-response","281","1409765","0.0-6.0-1.137","REGA","2","f","rechts","23","","","self","f","0","true"
"null","<div style=""font-size:60px;"">+</div>","null","html-keyboard-response","282","1410120","0.0-6.0-0.138","REGA","2","f","rechts","23","","fixation","","","",""
"771","img/L30_180.png","70","image-keyboard-response","283","1410901","0.0-6.0-1.138","REGA","2","f","rechts","23","","","self","f","30","true"
"null","<div style=""font-size:60px;"">+</div>","null","html-keyboard-response","284","1411371","0.0-6.0-0.139","REGA","2","f","rechts","23","","fixation","","","",""
"789","img/60_30.png","74","image-keyboard-response","285","1412174","0.0-6.0-1.139","REGA","2","f","rechts","23","","","self","j","60","true"
"null","<div style=""font-size:60px;"">+</div>","null","html-keyboard-response","286","1412496","0.0-6.0-0.140","REGA","2","f","rechts","23","","fixation","","","",""
"812","img/60_150.png","70","image-keyboard-response","287","1413321","0.0-6.0-1.140","REGA","2","f","rechts","23","","","self","f","60","true"
"null","<div style=""font-size:60px;"">+</div>","null","html-keyboard-response","288","1413825","0.0-6.0-0.141","REGA","2","f","rechts","23","","fixation","","","",""
"921","img/60_90.png","74","image-keyboard-response","289","1414759","0.0-6.0-1.141","REGA","2","f","rechts","23","","","self","j","60","true"
"null","<div style=""font-size:60px;"">+</div>","null","html-keyboard-response","290","1415277","0.0-6.0-0.142","REGA","2","f","rechts","23","","fixation","","","",""
"919","img/30_180.png","74","image-keyboard-response","291","1416210","0.0-6.0-1.142","REGA","2","f","rechts","23","","","self","j","30","true"
"null","<div style=""font-size:60px;"">+</div>","null","html-keyboard-response","292","1416668","0.0-6.0-0.143","REGA","2","f","rechts","23","","fixation","","","",""
"1335","img/120_330.png","70","image-keyboard-response","293","1418012","0.0-6.0-1.143","REGA","2","f","rechts","23","","","self","f","120","true"
"null","<div style=""font-size:60px;"">+</div>","null","html-keyboard-response","294","1418542","0.0-6.0-0.144","REGA","2","f","rechts","23","","fixation","","","",""
"772","img/30_270.png","70","image-keyboard-response","295","1419328","0.0-6.0-1.144","REGA","2","f","rechts","23","","","self","f","30","true"
"null","<div style=""font-size:60px;"">+</div>","null","html-keyboard-response","296","1419840","0.0-6.0-0.145","REGA","2","f","rechts","23","","fixation","","","",""
"936","img/150_60.png","70","image-keyboard-response","297","1420789","0.0-6.0-1.145","REGA","2","f","rechts","23","","","self","f","150","true"
"null","<div style=""font-size:60px;"">+</div>","null","html-keyboard-response","298","1421199","0.0-6.0-0.146","REGA","2","f","rechts","23","","fixation","","","",""
"929","img/60_210.png","74","image-keyboard-response","299","1422141","0.0-6.0-1.146","REGA","2","f","rechts","23","","","self","j","60","true"
"null","<div style=""font-size:60px;"">+</div>","null","html-keyboard-response","300","1422660","0.0-6.0-0.147","REGA","2","f","rechts","23","","fixation","","","",""
"893","img/30_120.png","74","image-keyboard-response","301","1423569","0.0-6.0-1.147","REGA","2","f","rechts","23","","","self","j","30","true"
"null","<div style=""font-size:60px;"">+</div>","null","html-keyboard-response","302","1424034","0.0-6.0-0.148","REGA","2","f","rechts","23","","fixation","","","",""
"704","img/0_150.png","74","image-keyboard-response","303","1424750","0.0-6.0-1.148","REGA","2","f","rechts","23","","","self","j","0","true"
"null","<div style=""font-size:60px;"">+</div>","null","html-keyboard-response","304","1425064","0.0-6.0-0.149","REGA","2","f","rechts","23","","fixation","","","",""
"990","img/90_210.png","74","image-keyboard-response","305","1426067","0.0-6.0-1.149","REGA","2","f","rechts","23","","","self","j","90","true"
"null","<div style=""font-size:60px;"">+</div>","null","html-keyboard-response","306","1426534","0.0-6.0-0.150","REGA","2","f","rechts","23","","fixation","","","",""
"813","img/30_90.png","74","image-keyboard-response","307","1427360","0.0-6.0-1.150","REGA","2","f","rechts","23","","","self","j","30","true"
"null","<div style=""font-size:60px;"">+</div>","null","html-keyboard-response","308","1427675","0.0-6.0-0.151","REGA","2","f","rechts","23","","fixation","","","",""
"844","img/120_210.png","74","image-keyboard-response","309","1428531","0.0-6.0-1.151","REGA","2","f","rechts","23","","","self","j","120","true"
"null","<div style=""font-size:60px;"">+</div>","null","html-keyboard-response","310","1428845","0.0-6.0-0.152","REGA","2","f","rechts","23","","fixation","","","",""
"1338","img/150_300.png","74","image-keyboard-response","311","1430196","0.0-6.0-1.152","REGA","2","f","rechts","23","","","self","j","150","true"
"null","<div style=""font-size:60px;"">+</div>","null","html-keyboard-response","312","1430659","0.0-6.0-0.153","REGA","2","f","rechts","23","","fixation","","","",""
"940","img/60_330.png","70","image-keyboard-response","313","1431613","0.0-6.0-1.153","REGA","2","f","rechts","23","","","self","f","60","true"
"null","<div style=""font-size:60px;"">+</div>","null","html-keyboard-response","314","1432068","0.0-6.0-0.154","REGA","2","f","rechts","23","","fixation","","","",""
"663","img/30_240.png","70","image-keyboard-response","315","1432746","0.0-6.0-1.154","REGA","2","f","rechts","23","","","self","f","30","true"
"null","<div style=""font-size:60px;"">+</div>","null","html-keyboard-response","316","1433114","0.0-6.0-0.155","REGA","2","f","rechts","23","","fixation","","","",""
"569","img/0_120.png","74","image-keyboard-response","317","1433693","0.0-6.0-1.155","REGA","2","f","rechts","23","","","self","j","0","true"
"null","<div style=""font-size:60px;"">+</div>","null","html-keyboard-response","318","1434004","0.0-6.0-0.156","REGA","2","f","rechts","23","","fixation","","","",""
"883","img/30_270.png","70","image-keyboard-response","319","1434899","0.0-6.0-1.156","REGA","2","f","rechts","23","","","self","f","30","true"
"null","<div style=""font-size:60px;"">+</div>","null","html-keyboard-response","320","1435380","0.0-6.0-0.157","REGA","2","f","rechts","23","","fixation","","","",""
"710","img/150_240.png","74","image-keyboard-response","321","1436101","0.0-6.0-1.157","REGA","2","f","rechts","23","","","self","j","150","true"
"null","<div style=""font-size:60px;"">+</div>","null","html-keyboard-response","322","1436411","0.0-6.0-0.158","REGA","2","f","rechts","23","","fixation","","","",""
"880","img/150_90.png","70","image-keyboard-response","323","1437306","0.0-6.0-1.158","REGA","2","f","rechts","23","","","self","f","150","true"
"null","<div style=""font-size:60px;"">+</div>","null","html-keyboard-response","324","1437613","0.0-6.0-0.159","REGA","2","f","rechts","23","","fixation","","","",""
"875","img/60_90.png","74","image-keyboard-response","325","1438497","0.0-6.0-1.159","REGA","2","f","rechts","23","","","self","j","60","true"
"null","<div style=""font-size:60px;"">+</div>","null","html-keyboard-response","326","1438817","0.0-6.0-0.160","REGA","2","f","rechts","23","","fixation","","","",""
"755","img/L150_180.png","70","image-keyboard-response","327","1439578","0.0-6.0-1.160","REGA","2","f","rechts","23","","","self","f","150","true"
"null","<div style=""font-size:60px;"">+</div>","null","html-keyboard-response","328","1439911","0.0-6.0-0.161","REGA","2","f","rechts","23","","fixation","","","",""
"737","img/30_90.png","74","image-keyboard-response","329","1440658","0.0-6.0-1.161","REGA","2","f","rechts","23","","","self","j","30","true"
"null","<div style=""font-size:60px;"">+</div>","null","html-keyboard-response","330","1441067","0.0-6.0-0.162","REGA","2","f","rechts","23","","fixation","","","",""
"674","img/L120_180.png","70","image-keyboard-response","331","1441750","0.0-6.0-1.162","REGA","2","f","rechts","23","","","self","f","120","true"
"null","<div style=""font-size:60px;"">+</div>","null","html-keyboard-response","332","1442225","0.0-6.0-0.163","REGA","2","f","rechts","23","","fixation","","","",""
"875","img/30_240.png","70","image-keyboard-response","333","1443110","0.0-6.0-1.163","REGA","2","f","rechts","23","","","self","f","30","true"
"null","<div style=""font-size:60px;"">+</div>","null","html-keyboard-response","334","1443585","0.0-6.0-0.164","REGA","2","f","rechts","23","","fixation","","","",""
"751","img/150_270.png","74","image-keyboard-response","335","1444349","0.0-6.0-1.164","REGA","2","f","rechts","23","","","self","j","150","true"
"null","<div style=""font-size:60px;"">+</div>","null","html-keyboard-response","336","1444802","0.0-6.0-0.165","REGA","2","f","rechts","23","","fixation","","","",""
"951","img/90_300.png","70","image-keyboard-response","337","1445766","0.0-6.0-1.165","REGA","2","f","rechts","23","","","self","f","90","true"
"null","<div style=""font-size:60px;"">+</div>","null","html-keyboard-response","338","1446193","0.0-6.0-0.166","REGA","2","f","rechts","23","","fixation","","","",""
"1116","img/150_300.png","74","image-keyboard-response","339","1447320","0.0-6.0-1.166","REGA","2","f","rechts","23","","","self","j","150","true"
"null","<div style=""font-size:60px;"">+</div>","null","html-keyboard-response","340","1447741","0.0-6.0-0.167","REGA","2","f","rechts","23","","fixation","","","",""
"948","img/90_330.png","70","image-keyboard-response","341","1448702","0.0-6.0-1.167","REGA","2","f","rechts","23","","","self","f","90","true"
"null","<div style=""font-size:60px;"">+</div>","null","html-keyboard-response","342","1449131","0.0-6.0-0.168","REGA","2","f","rechts","23","","fixation","","","",""
"639","img/0_330.png","70","image-keyboard-response","343","1449783","0.0-6.0-1.168","REGA","2","f","rechts","23","","","self","f","0","true"
"null","<div style=""font-size:60px;"">+</div>","null","html-keyboard-response","344","1450239","0.0-6.0-0.169","REGA","2","f","rechts","23","","fixation","","","",""
"767","img/90_180.png","74","image-keyboard-response","345","1451020","0.0-6.0-1.169","REGA","2","f","rechts","23","","","self","j","90","true"
"null","<div style=""font-size:60px;"">+</div>","null","html-keyboard-response","346","1451350","0.0-6.0-0.170","REGA","2","f","rechts","23","","fixation","","","",""
"851","img/120_90.png","70","image-keyboard-response","347","1452214","0.0-6.0-1.170","REGA","2","f","rechts","23","","","self","f","120","true"
"null","<div style=""font-size:60px;"">+</div>","null","html-keyboard-response","348","1452742","0.0-6.0-0.171","REGA","2","f","rechts","23","","fixation","","","",""
"631","img/0_150.png","74","image-keyboard-response","349","1453385","0.0-6.0-1.171","REGA","2","f","rechts","23","","","self","j","0","true"
"null","<div style=""font-size:60px;"">+</div>","null","html-keyboard-response","350","1453712","0.0-6.0-0.172","REGA","2","f","rechts","23","","fixation","","","",""
"908","img/L90_180.png","70","image-keyboard-response","351","1454630","0.0-6.0-1.172","REGA","2","f","rechts","23","","","self","f","90","true"
"null","<div style=""font-size:60px;"">+</div>","null","html-keyboard-response","352","1455149","0.0-6.0-0.173","REGA","2","f","rechts","23","","fixation","","","",""
"531","img/90_150.png","70","image-keyboard-response","353","1455690","0.0-6.0-1.173","REGA","2","f","rechts","23","","","self","f","90","true"
"null","<div style=""font-size:60px;"">+</div>","null","html-keyboard-response","354","1456115","0.0-6.0-0.174","REGA","2","f","rechts","23","","fixation","","","",""
"784","img/60_180.png","74","image-keyboard-response","355","1456904","0.0-6.0-1.174","REGA","2","f","rechts","23","","","self","j","60","true"
"null","<div style=""font-size:60px;"">+</div>","null","html-keyboard-response","356","1457273","0.0-6.0-0.175","REGA","2","f","rechts","23","","fixation","","","",""
"920","img/90_120.png","70","image-keyboard-response","357","1458209","0.0-6.0-1.175","REGA","2","f","rechts","23","","","self","f","90","true"
"null","<div style=""font-size:60px;"">+</div>","null","html-keyboard-response","358","1458677","0.0-6.0-0.176","REGA","2","f","rechts","23","","fixation","","","",""
"691","img/90_210.png","74","image-keyboard-response","359","1459379","0.0-6.0-1.176","REGA","2","f","rechts","23","","","self","j","90","true"
"null","<div style=""font-size:60px;"">+</div>","null","html-keyboard-response","360","1459755","0.0-6.0-0.177","REGA","2","f","rechts","23","","fixation","","","",""
"769","img/30_120.png","74","image-keyboard-response","361","1460535","0.0-6.0-1.177","REGA","2","f","rechts","23","","","self","j","30","true"
"null","<div style=""font-size:60px;"">+</div>","null","html-keyboard-response","362","1461007","0.0-6.0-0.178","REGA","2","f","rechts","23","","fixation","","","",""
"1013","img/120_30.png","74","image-keyboard-response","363","1462034","0.0-6.0-1.178","REGA","2","f","rechts","23","","","self","j","120","true"
"null","<div style=""font-size:60px;"">+</div>","null","html-keyboard-response","364","1462495","0.0-6.0-0.179","REGA","2","f","rechts","23","","fixation","","","",""
"878","img/120_180.png","74","image-keyboard-response","365","1463384","0.0-6.0-1.179","REGA","2","f","rechts","23","","","self","j","120","true"
"null","<div style=""font-size:60px;"">+</div>","null","html-keyboard-response","366","1463806","0.0-6.0-0.180","REGA","2","f","rechts","23","","fixation","","","",""
"581","img/0_30.png","74","image-keyboard-response","367","1464397","0.0-6.0-1.180","REGA","2","f","rechts","23","","","self","j","0","true"
"null","<div style=""font-size:60px;"">+</div>","null","html-keyboard-response","368","1464729","0.0-6.0-0.181","REGA","2","f","rechts","23","","fixation","","","",""
"829","img/120_210.png","74","image-keyboard-response","369","1465566","0.0-6.0-1.181","REGA","2","f","rechts","23","","","self","j","120","true"
"null","<div style=""font-size:60px;"">+</div>","null","html-keyboard-response","370","1465886","0.0-6.0-0.182","REGA","2","f","rechts","23","","fixation","","","",""
"545","img/0_270.png","70","image-keyboard-response","371","1466444","0.0-6.0-1.182","REGA","2","f","rechts","23","","","self","f","0","true"
"null","<div style=""font-size:60px;"">+</div>","null","html-keyboard-response","372","1466964","0.0-6.0-0.183","REGA","2","f","rechts","23","","fixation","","","",""
"922","img/60_270.png","70","image-keyboard-response","373","1467904","0.0-6.0-1.183","REGA","2","f","rechts","23","","","self","f","60","true"
"null","<div style=""font-size:60px;"">+</div>","null","html-keyboard-response","374","1468368","0.0-6.0-0.184","REGA","2","f","rechts","23","","fixation","","","",""
"695","img/30_60.png","74","image-keyboard-response","375","1469076","0.0-6.0-1.184","REGA","2","f","rechts","23","","","self","j","30","true"
"null","<div style=""font-size:60px;"">+</div>","null","html-keyboard-response","376","1469446","0.0-6.0-0.185","REGA","2","f","rechts","23","","fixation","","","",""
"641","img/0_60.png","74","image-keyboard-response","377","1470100","0.0-6.0-1.185","REGA","2","f","rechts","23","","","self","j","0","true"
"null","<div style=""font-size:60px;"">+</div>","null","html-keyboard-response","378","1470619","0.0-6.0-0.186","REGA","2","f","rechts","23","","fixation","","","",""
"764","img/90_240.png","74","image-keyboard-response","379","1471394","0.0-6.0-1.186","REGA","2","f","rechts","23","","","self","j","90","true"
"null","<div style=""font-size:60px;"">+</div>","null","html-keyboard-response","380","1471716","0.0-6.0-0.187","REGA","2","f","rechts","23","","fixation","","","",""
"923","img/90_60.png","74","image-keyboard-response","381","1472652","0.0-6.0-1.187","REGA","2","f","rechts","23","","","self","j","90","true"
"null","<div style=""font-size:60px;"">+</div>","null","html-keyboard-response","382","1473120","0.0-6.0-0.188","REGA","2","f","rechts","23","","fixation","","","",""
"1005","img/60_30.png","74","image-keyboard-response","383","1474139","0.0-6.0-1.188","REGA","2","f","rechts","23","","","self","j","60","true"
"null","<div style=""font-size:60px;"">+</div>","null","html-keyboard-response","384","1474557","0.0-6.0-0.189","REGA","2","f","rechts","23","","fixation","","","",""
"1186","img/120_330.png","70","image-keyboard-response","385","1475759","0.0-6.0-1.189","REGA","2","f","rechts","23","","","self","f","120","true"
"null","<div style=""font-size:60px;"">+</div>","null","html-keyboard-response","386","1476136","0.0-6.0-0.190","REGA","2","f","rechts","23","","fixation","","","",""
"975","img/60_330.png","70","image-keyboard-response","387","1477122","0.0-6.0-1.190","REGA","2","f","rechts","23","","","self","f","60","true"
"null","<div style=""font-size:60px;"">+</div>","null","html-keyboard-response","388","1477652","0.0-6.0-0.191","REGA","2","f","rechts","23","","fixation","","","",""
"801","img/L30_180.png","70","image-keyboard-response","389","1478470","0.0-6.0-1.191","REGA","2","f","rechts","23","","","self","f","30","true"
"null","<div style=""font-size:60px;"">+</div>","null","html-keyboard-response","390","1478948","0.0-6.0-0.192","REGA","2","f","rechts","23","","fixation","","","",""
"584","img/0_120.png","74","image-keyboard-response","391","1479551","0.0-6.0-1.192","REGA","2","f","rechts","23","","","self","j","0","true"
"null","<div style=""font-size:60px;"">+</div>","null","html-keyboard-response","392","1479855","0.0-6.0-0.193","REGA","2","f","rechts","23","","fixation","","","",""
"616","img/0_240.png","70","image-keyboard-response","393","1480484","0.0-6.0-1.193","REGA","2","f","rechts","23","","","self","f","0","true"
"null","<div style=""font-size:60px;"">+</div>","null","html-keyboard-response","394","1480853","0.0-6.0-0.194","REGA","2","f","rechts","23","","fixation","","","",""
"775","img/L60_180.png","70","image-keyboard-response","395","1481643","0.0-6.0-1.194","REGA","2","f","rechts","23","","","self","f","60","true"
"null","<div style=""font-size:60px;"">+</div>","null","html-keyboard-response","396","1482075","0.0-6.0-0.195","REGA","2","f","rechts","23","","fixation","","","",""
"634","img/0_90.png","74","image-keyboard-response","397","1482723","0.0-6.0-1.195","REGA","2","f","rechts","23","","","self","j","0","true"
"null","<div style=""font-size:60px;"">+</div>","null","html-keyboard-response","398","1483029","0.0-6.0-0.196","REGA","2","f","rechts","23","","fixation","","","",""
"850","img/30_180.png","74","image-keyboard-response","399","1483894","0.0-6.0-1.196","REGA","2","f","rechts","23","","","self","j","30","true"
"null","<div style=""font-size:60px;"">+</div>","null","html-keyboard-response","400","1484326","0.0-6.0-0.197","REGA","2","f","rechts","23","","fixation","","","",""
"803","img/150_120.png","70","image-keyboard-response","401","1485141","0.0-6.0-1.197","REGA","2","f","rechts","23","","","self","f","150","true"
"null","<div style=""font-size:60px;"">+</div>","null","html-keyboard-response","402","1485449","0.0-6.0-0.198","REGA","2","f","rechts","23","","fixation","","","",""
"1007","img/30_300.png","70","image-keyboard-response","403","1486470","0.0-6.0-1.198","REGA","2","f","rechts","23","","","self","f","30","true"
"null","<div style=""font-size:60px;"">+</div>","null","html-keyboard-response","404","1486905","0.0-6.0-0.199","REGA","2","f","rechts","23","","fixation","","","",""
"764","img/60_210.png","74","image-keyboard-response","405","1487684","0.0-6.0-1.199","REGA","2","f","rechts","23","","","self","j","60","true"
"null","<div style=""font-size:60px;"">+</div>","null","html-keyboard-response","406","1488042","0.0-6.0-0.200","REGA","2","f","rechts","23","","fixation","","","",""
"808","img/120_270.png","74","image-keyboard-response","407","1488866","0.0-6.0-1.200","REGA","2","f","rechts","23","","","self","j","120","true"
"null","<div style=""font-size:60px;"">+</div>","null","html-keyboard-response","408","1489293","0.0-6.0-0.201","REGA","2","f","rechts","23","","fixation","","","",""
"817","img/150_180.png","74","image-keyboard-response","409","1490124","0.0-6.0-1.201","REGA","2","f","rechts","23","","","self","j","150","true"
"null","<div style=""font-size:60px;"">+</div>","null","html-keyboard-response","410","1490529","0.0-6.0-0.202","REGA","2","f","rechts","23","","fixation","","","",""
"913","img/120_150.png","70","image-keyboard-response","411","1491454","0.0-6.0-1.202","REGA","2","f","rechts","23","","","self","f","120","true"
"null","<div style=""font-size:60px;"">+</div>","null","html-keyboard-response","412","1491929","0.0-6.0-0.203","REGA","2","f","rechts","23","","fixation","","","",""
"903","img/150_60.png","70","image-keyboard-response","413","1492847","0.0-6.0-1.203","REGA","2","f","rechts","23","","","self","f","150","true"
"null","<div style=""font-size:60px;"">+</div>","null","html-keyboard-response","414","1493223","0.0-6.0-0.204","REGA","2","f","rechts","23","","fixation","","","",""
"957","img/60_150.png","70","image-keyboard-response","415","1494187","0.0-6.0-1.204","REGA","2","f","rechts","23","","","self","f","60","true"
"null","<div style=""font-size:60px;"">+</div>","null","html-keyboard-response","416","1494506","0.0-6.0-0.205","REGA","2","f","rechts","23","","fixation","","","",""
"983","img/90_30.png","74","image-keyboard-response","417","1495502","0.0-6.0-1.205","REGA","2","f","rechts","23","","","self","j","90","true"
"null","<div style=""font-size:60px;"">+</div>","null","html-keyboard-response","418","1495960","0.0-6.0-0.206","REGA","2","f","rechts","23","","fixation","","","",""
"599","img/0_210.png","70","image-keyboard-response","419","1496573","0.0-6.0-1.206","REGA","2","f","rechts","23","","","self","f","0","true"
"null","<div style=""font-size:60px;"">+</div>","null","html-keyboard-response","420","1496883","0.0-6.0-0.207","REGA","2","f","rechts","23","","fixation","","","",""
"595","img/0_300.png","70","image-keyboard-response","421","1497493","0.0-6.0-1.207","REGA","2","f","rechts","23","","","self","f","0","true"
"3948","<p>Du hast in 97% der Versuche korrekt entschieden.</p><p>Deine durchschnittliche Reaktionszeit war  843ms.</p><p>Dr&uuml;cke eine beliebige Taste, um die Session zu beenden. Vielen Dank!</p>","72","html-keyboard-response","422","1501448","0.0-7.0","REGA","2","f","rechts","23","","","","","",""
