"rt","stimulus","key_press","trial_type","trial_index","time_elapsed","internal_node_id","subject","session","sex","handedness","age","responses","test_part","condition","correct_response","angle","correct"
"5667","<p>Mental Rotation Experiment.</p> <p>Dr&uuml;cke eine beliebige Taste, um anzufangen.</p>","74","html-keyboard-response","0","5691","0.0-0.0","REGA","1","f","rechts","23","","","","","",""
"3845","","","survey-text","1","9542","0.0-1.0","REGA","1","f","rechts","23","{""Q0"":""REGA""}","","","","",""
"3257","","","survey-text","2","12800","0.0-2.0","REGA","1","f","rechts","23","{""Q0"":""1""}","","","","",""
"4689","","","survey-multi-choice","3","17492","0.0-3.0","REGA","1","f","rechts","23","{""Q0"":""f"",""Q1"":""rechts""}","","","","",""
"3788","","","survey-text","4","21282","0.0-4.0","REGA","1","f","rechts","23","{""Q0"":""23""}","","","","",""
"6678","<p> Stell dir vor, dass du vor einem runden Tisch stehst, auf dem sich ein blauer Ball am Tischrand befindet. Entlang des Tischrands ist jeweils ein verschieden langer Pfeil. Nun bewegst du dich entlang dieses Pfeils bis an seine Spitze. Wenn du am Ende des Pfeils angekommen bist, schau zur Tischmitte. </p> <img src='img/90_180.png'></img> <br> <p>Entscheide dann, ob der Ball von deiner neuen (vorgestellten) Position links oder rechts von dir liegt.</p> <p>Dr&uuml;cke die <strong>'f'</strong>-Taste f&uuml;r links, die <strong>'j'</strong>-Taste f&uuml;r rechts.</p> <br><p> Das Bild wird jeweils 1 Sekunde lang pr&auml;sentiert. Du hast 3 Sekunden Zeit eine Entscheidung zu treffen.</p>","74","html-keyboard-response","5","27968","0.0-5.0","REGA","1","f","rechts","23","","","","","",""
"null","<div style=""font-size:60px;"">+</div>","null","html-keyboard-response","6","29452","0.0-6.0-0.0","REGA","1","f","rechts","23","","fixation","","","",""
"1637","img/60_150.png","70","image-keyboard-response","7","31111","0.0-6.0-1.0","REGA","1","f","rechts","23","","","self","f","60","true"
"null","<div style=""font-size:60px;"">+</div>","null","html-keyboard-response","8","31473","0.0-6.0-0.1","REGA","1","f","rechts","23","","fixation","","","",""
"642","img/0_120.png","74","image-keyboard-response","9","32130","0.0-6.0-1.1","REGA","1","f","rechts","23","","","self","j","0","true"
"null","<div style=""font-size:60px;"">+</div>","null","html-keyboard-response","10","32502","0.0-6.0-0.2","REGA","1","f","rechts","23","","fixation","","","",""
"1265","img/L90_180.png","70","image-keyboard-response","11","33786","0.0-6.0-1.2","REGA","1","f","rechts","23","","","self","f","90","true"
"null","<div style=""font-size:60px;"">+</div>","null","html-keyboard-response","12","34206","0.0-6.0-0.3","REGA","1","f","rechts","23","","fixation","","","",""
"1134","img/120_270.png","74","image-keyboard-response","13","35359","0.0-6.0-1.3","REGA","1","f","rechts","23","","","self","j","120","true"
"null","<div style=""font-size:60px;"">+</div>","null","html-keyboard-response","14","35767","0.0-6.0-0.4","REGA","1","f","rechts","23","","fixation","","","",""
"1348","img/L150_180.png","70","image-keyboard-response","15","37126","0.0-6.0-1.4","REGA","1","f","rechts","23","","","self","f","150","true"
"null","<div style=""font-size:60px;"">+</div>","null","html-keyboard-response","16","37597","0.0-6.0-0.5","REGA","1","f","rechts","23","","fixation","","","",""
"1150","img/90_300.png","70","image-keyboard-response","17","38766","0.0-6.0-1.5","REGA","1","f","rechts","23","","","self","f","90","true"
"null","<div style=""font-size:60px;"">+</div>","null","html-keyboard-response","18","39221","0.0-6.0-0.6","REGA","1","f","rechts","23","","fixation","","","",""
"811","img/60_180.png","74","image-keyboard-response","19","40051","0.0-6.0-1.6","REGA","1","f","rechts","23","","","self","j","60","true"
"null","<div style=""font-size:60px;"">+</div>","null","html-keyboard-response","20","40564","0.0-6.0-0.7","REGA","1","f","rechts","23","","fixation","","","",""
"1043","img/120_30.png","74","image-keyboard-response","21","41625","0.0-6.0-1.7","REGA","1","f","rechts","23","","","self","j","120","true"
"null","<div style=""font-size:60px;"">+</div>","null","html-keyboard-response","22","41941","0.0-6.0-0.8","REGA","1","f","rechts","23","","fixation","","","",""
"925","img/120_210.png","74","image-keyboard-response","23","42886","0.0-6.0-1.8","REGA","1","f","rechts","23","","","self","j","120","true"
"null","<div style=""font-size:60px;"">+</div>","null","html-keyboard-response","24","43211","0.0-6.0-0.9","REGA","1","f","rechts","23","","fixation","","","",""
"927","img/120_150.png","70","image-keyboard-response","25","44156","0.0-6.0-1.9","REGA","1","f","rechts","23","","","self","f","120","true"
"null","<div style=""font-size:60px;"">+</div>","null","html-keyboard-response","26","44523","0.0-6.0-0.10","REGA","1","f","rechts","23","","fixation","","","",""
"1068","img/60_30.png","74","image-keyboard-response","27","45609","0.0-6.0-1.10","REGA","1","f","rechts","23","","","self","j","60","true"
"null","<div style=""font-size:60px;"">+</div>","null","html-keyboard-response","28","46117","0.0-6.0-0.11","REGA","1","f","rechts","23","","fixation","","","",""
"856","img/90_210.png","74","image-keyboard-response","29","46990","0.0-6.0-1.11","REGA","1","f","rechts","23","","","self","j","90","true"
"null","<div style=""font-size:60px;"">+</div>","null","html-keyboard-response","30","47305","0.0-6.0-0.12","REGA","1","f","rechts","23","","fixation","","","",""
"1275","img/90_330.png","70","image-keyboard-response","31","48600","0.0-6.0-1.12","REGA","1","f","rechts","23","","","self","f","90","true"
"null","<div style=""font-size:60px;"">+</div>","null","html-keyboard-response","32","49055","0.0-6.0-0.13","REGA","1","f","rechts","23","","fixation","","","",""
"1114","img/30_60.png","74","image-keyboard-response","33","50185","0.0-6.0-1.13","REGA","1","f","rechts","23","","","self","j","30","true"
"null","<div style=""font-size:60px;"">+</div>","null","html-keyboard-response","34","50603","0.0-6.0-0.14","REGA","1","f","rechts","23","","fixation","","","",""
"1049","img/L60_180.png","70","image-keyboard-response","35","51673","0.0-6.0-1.14","REGA","1","f","rechts","23","","","self","f","60","true"
"null","<div style=""font-size:60px;"">+</div>","null","html-keyboard-response","36","51993","0.0-6.0-0.15","REGA","1","f","rechts","23","","fixation","","","",""
"1131","img/90_120.png","70","image-keyboard-response","37","53146","0.0-6.0-1.15","REGA","1","f","rechts","23","","","self","f","90","true"
"null","<div style=""font-size:60px;"">+</div>","null","html-keyboard-response","38","53650","0.0-6.0-0.16","REGA","1","f","rechts","23","","fixation","","","",""
"837","img/0_30.png","74","image-keyboard-response","39","54508","0.0-6.0-1.16","REGA","1","f","rechts","23","","","self","j","0","true"
"null","<div style=""font-size:60px;"">+</div>","null","html-keyboard-response","40","54917","0.0-6.0-0.17","REGA","1","f","rechts","23","","fixation","","","",""
"1193","img/30_240.png","70","image-keyboard-response","41","56126","0.0-6.0-1.17","REGA","1","f","rechts","23","","","self","f","30","true"
"null","<div style=""font-size:60px;"">+</div>","null","html-keyboard-response","42","56493","0.0-6.0-0.18","REGA","1","f","rechts","23","","fixation","","","",""
"697","img/0_210.png","70","image-keyboard-response","43","57208","0.0-6.0-1.18","REGA","1","f","rechts","23","","","self","f","0","true"
"null","<div style=""font-size:60px;"">+</div>","null","html-keyboard-response","44","57635","0.0-6.0-0.19","REGA","1","f","rechts","23","","fixation","","","",""
"926","img/90_150.png","70","image-keyboard-response","45","58577","0.0-6.0-1.19","REGA","1","f","rechts","23","","","self","f","90","true"
"null","<div style=""font-size:60px;"">+</div>","null","html-keyboard-response","46","58993","0.0-6.0-0.20","REGA","1","f","rechts","23","","fixation","","","",""
"940","img/60_90.png","74","image-keyboard-response","47","59953","0.0-6.0-1.20","REGA","1","f","rechts","23","","","self","j","60","true"
"null","<div style=""font-size:60px;"">+</div>","null","html-keyboard-response","48","60479","0.0-6.0-0.21","REGA","1","f","rechts","23","","fixation","","","",""
"873","img/90_60.png","74","image-keyboard-response","49","61369","0.0-6.0-1.21","REGA","1","f","rechts","23","","","self","j","90","true"
"null","<div style=""font-size:60px;"">+</div>","null","html-keyboard-response","50","61792","0.0-6.0-0.22","REGA","1","f","rechts","23","","fixation","","","",""
"1294","img/150_120.png","70","image-keyboard-response","51","63103","0.0-6.0-1.22","REGA","1","f","rechts","23","","","self","f","150","true"
"null","<div style=""font-size:60px;"">+</div>","null","html-keyboard-response","52","63434","0.0-6.0-0.23","REGA","1","f","rechts","23","","fixation","","","",""
"1123","img/150_180.png","74","image-keyboard-response","53","64575","0.0-6.0-1.23","REGA","1","f","rechts","23","","","self","j","150","true"
"null","<div style=""font-size:60px;"">+</div>","null","html-keyboard-response","54","65091","0.0-6.0-0.24","REGA","1","f","rechts","23","","fixation","","","",""
"875","img/30_90.png","74","image-keyboard-response","55","65983","0.0-6.0-1.24","REGA","1","f","rechts","23","","","self","j","30","true"
"null","<div style=""font-size:60px;"">+</div>","null","html-keyboard-response","56","66309","0.0-6.0-0.25","REGA","1","f","rechts","23","","fixation","","","",""
"1053","img/60_210.png","74","image-keyboard-response","57","67377","0.0-6.0-1.25","REGA","1","f","rechts","23","","","self","j","60","true"
"null","<div style=""font-size:60px;"">+</div>","null","html-keyboard-response","58","67903","0.0-6.0-0.26","REGA","1","f","rechts","23","","fixation","","","",""
"1046","img/L30_180.png","70","image-keyboard-response","59","68965","0.0-6.0-1.26","REGA","1","f","rechts","23","","","self","f","30","true"
"null","<div style=""font-size:60px;"">+</div>","null","html-keyboard-response","60","69386","0.0-6.0-0.27","REGA","1","f","rechts","23","","fixation","","","",""
"1450","img/120_330.png","70","image-keyboard-response","61","70853","0.0-6.0-1.27","REGA","1","f","rechts","23","","","self","f","120","true"
"null","<div style=""font-size:60px;"">+</div>","null","html-keyboard-response","62","71231","0.0-6.0-0.28","REGA","1","f","rechts","23","","fixation","","","",""
"1090","img/150_90.png","70","image-keyboard-response","63","72339","0.0-6.0-1.28","REGA","1","f","rechts","23","","","self","f","150","true"
"null","<div style=""font-size:60px;"">+</div>","null","html-keyboard-response","64","72651","0.0-6.0-0.29","REGA","1","f","rechts","23","","fixation","","","",""
"960","img/L120_180.png","70","image-keyboard-response","65","73632","0.0-6.0-1.29","REGA","1","f","rechts","23","","","self","f","120","true"
"null","<div style=""font-size:60px;"">+</div>","null","html-keyboard-response","66","73963","0.0-6.0-0.30","REGA","1","f","rechts","23","","fixation","","","",""
"899","img/150_60.png","70","image-keyboard-response","67","74881","0.0-6.0-1.30","REGA","1","f","rechts","23","","","self","f","150","true"
"null","<div style=""font-size:60px;"">+</div>","null","html-keyboard-response","68","75198","0.0-6.0-0.31","REGA","1","f","rechts","23","","fixation","","","",""
"1297","img/60_330.png","70","image-keyboard-response","69","76513","0.0-6.0-1.31","REGA","1","f","rechts","23","","","self","f","60","true"
"null","<div style=""font-size:60px;"">+</div>","null","html-keyboard-response","70","76936","0.0-6.0-0.32","REGA","1","f","rechts","23","","fixation","","","",""
"739","img/0_240.png","70","image-keyboard-response","71","77694","0.0-6.0-1.32","REGA","1","f","rechts","23","","","self","f","0","true"
"null","<div style=""font-size:60px;"">+</div>","null","html-keyboard-response","72","78217","0.0-6.0-0.33","REGA","1","f","rechts","23","","fixation","","","",""
"687","img/0_330.png","70","image-keyboard-response","73","78920","0.0-6.0-1.33","REGA","1","f","rechts","23","","","self","f","0","true"
"null","<div style=""font-size:60px;"">+</div>","null","html-keyboard-response","74","79231","0.0-6.0-0.34","REGA","1","f","rechts","23","","fixation","","","",""
"558","img/0_300.png","70","image-keyboard-response","75","79807","0.0-6.0-1.34","REGA","1","f","rechts","23","","","self","f","0","true"
"null","<div style=""font-size:60px;"">+</div>","null","html-keyboard-response","76","80168","0.0-6.0-0.35","REGA","1","f","rechts","23","","fixation","","","",""
"803","img/90_240.png","74","image-keyboard-response","77","80990","0.0-6.0-1.35","REGA","1","f","rechts","23","","","self","j","90","true"
"null","<div style=""font-size:60px;"">+</div>","null","html-keyboard-response","78","81372","0.0-6.0-0.36","REGA","1","f","rechts","23","","fixation","","","",""
"861","img/30_270.png","70","image-keyboard-response","79","82251","0.0-6.0-1.36","REGA","1","f","rechts","23","","","self","f","30","true"
"null","<div style=""font-size:60px;"">+</div>","null","html-keyboard-response","80","82622","0.0-6.0-0.37","REGA","1","f","rechts","23","","fixation","","","",""
"856","img/150_300.png","74","image-keyboard-response","81","83499","0.0-6.0-1.37","REGA","1","f","rechts","23","","","self","j","150","true"
"null","<div style=""font-size:60px;"">+</div>","null","html-keyboard-response","82","83918","0.0-6.0-0.38","REGA","1","f","rechts","23","","fixation","","","",""
"981","img/30_120.png","74","image-keyboard-response","83","84917","0.0-6.0-1.38","REGA","1","f","rechts","23","","","self","j","30","true"
"null","<div style=""font-size:60px;"">+</div>","null","html-keyboard-response","84","85342","0.0-6.0-0.39","REGA","1","f","rechts","23","","fixation","","","",""
"874","img/150_270.png","74","image-keyboard-response","85","86232","0.0-6.0-1.39","REGA","1","f","rechts","23","","","self","j","150","true"
"null","<div style=""font-size:60px;"">+</div>","null","html-keyboard-response","86","86546","0.0-6.0-0.40","REGA","1","f","rechts","23","","fixation","","","",""
"953","img/30_300.png","70","image-keyboard-response","87","87515","0.0-6.0-1.40","REGA","1","f","rechts","23","","","self","f","30","true"
"null","<div style=""font-size:60px;"">+</div>","null","html-keyboard-response","88","87921","0.0-6.0-0.41","REGA","1","f","rechts","23","","fixation","","","",""
"743","img/0_270.png","70","image-keyboard-response","89","88683","0.0-6.0-1.41","REGA","1","f","rechts","23","","","self","f","0","true"
"null","<div style=""font-size:60px;"">+</div>","null","html-keyboard-response","90","88998","0.0-6.0-0.42","REGA","1","f","rechts","23","","fixation","","","",""
"581","img/0_60.png","70","image-keyboard-response","91","89586","0.0-6.0-1.42","REGA","1","f","rechts","23","","","self","j","0","false"
"null","<div style=""font-size:60px;"">+</div>","null","html-keyboard-response","92","89969","0.0-6.0-0.43","REGA","1","f","rechts","23","","fixation","","","",""
"642","img/0_90.png","74","image-keyboard-response","93","90629","0.0-6.0-1.43","REGA","1","f","rechts","23","","","self","j","0","true"
"null","<div style=""font-size:60px;"">+</div>","null","html-keyboard-response","94","91093","0.0-6.0-0.44","REGA","1","f","rechts","23","","fixation","","","",""
"958","img/120_90.png","70","image-keyboard-response","95","92069","0.0-6.0-1.44","REGA","1","f","rechts","23","","","self","f","120","true"
"null","<div style=""font-size:60px;"">+</div>","null","html-keyboard-response","96","92499","0.0-6.0-0.45","REGA","1","f","rechts","23","","fixation","","","",""
"838","img/150_240.png","74","image-keyboard-response","97","93353","0.0-6.0-1.45","REGA","1","f","rechts","23","","","self","j","150","true"
"null","<div style=""font-size:60px;"">+</div>","null","html-keyboard-response","98","93718","0.0-6.0-0.46","REGA","1","f","rechts","23","","fixation","","","",""
"939","img/90_180.png","74","image-keyboard-response","99","94672","0.0-6.0-1.46","REGA","1","f","rechts","23","","","self","j","90","true"
"null","<div style=""font-size:60px;"">+</div>","null","html-keyboard-response","100","95201","0.0-6.0-0.47","REGA","1","f","rechts","23","","fixation","","","",""
"765","img/120_180.png","74","image-keyboard-response","101","95984","0.0-6.0-1.47","REGA","1","f","rechts","23","","","self","j","120","true"
"null","<div style=""font-size:60px;"">+</div>","null","html-keyboard-response","102","96391","0.0-6.0-0.48","REGA","1","f","rechts","23","","fixation","","","",""
"1295","img/90_30.png","74","image-keyboard-response","103","97708","0.0-6.0-1.48","REGA","1","f","rechts","23","","","self","j","90","true"
"null","<div style=""font-size:60px;"">+</div>","null","html-keyboard-response","104","98125","0.0-6.0-0.49","REGA","1","f","rechts","23","","fixation","","","",""
"1071","img/60_270.png","70","image-keyboard-response","105","99215","0.0-6.0-1.49","REGA","1","f","rechts","23","","","self","f","60","true"
"null","<div style=""font-size:60px;"">+</div>","null","html-keyboard-response","106","99595","0.0-6.0-0.50","REGA","1","f","rechts","23","","fixation","","","",""
"614","img/0_150.png","74","image-keyboard-response","107","100227","0.0-6.0-1.50","REGA","1","f","rechts","23","","","self","j","0","true"
"null","<div style=""font-size:60px;"">+</div>","null","html-keyboard-response","108","100547","0.0-6.0-0.51","REGA","1","f","rechts","23","","fixation","","","",""
"911","img/30_180.png","74","image-keyboard-response","109","101477","0.0-6.0-1.51","REGA","1","f","rechts","23","","","self","j","30","true"
"null","<div style=""font-size:60px;"">+</div>","null","html-keyboard-response","110","101796","0.0-6.0-0.52","REGA","1","f","rechts","23","","fixation","","","",""
"745","img/0_90.png","74","image-keyboard-response","111","102546","0.0-6.0-1.52","REGA","1","f","rechts","23","","","self","j","0","true"
"null","<div style=""font-size:60px;"">+</div>","null","html-keyboard-response","112","103015","0.0-6.0-0.53","REGA","1","f","rechts","23","","fixation","","","",""
"923","img/90_240.png","74","image-keyboard-response","113","103950","0.0-6.0-1.53","REGA","1","f","rechts","23","","","self","j","90","true"
"null","<div style=""font-size:60px;"">+</div>","null","html-keyboard-response","114","104421","0.0-6.0-0.54","REGA","1","f","rechts","23","","fixation","","","",""
"990","img/L150_180.png","70","image-keyboard-response","115","105425","0.0-6.0-1.54","REGA","1","f","rechts","23","","","self","f","150","true"
"null","<div style=""font-size:60px;"">+</div>","null","html-keyboard-response","116","105845","0.0-6.0-0.55","REGA","1","f","rechts","23","","fixation","","","",""
"1225","img/60_330.png","70","image-keyboard-response","117","107079","0.0-6.0-1.55","REGA","1","f","rechts","23","","","self","f","60","true"
"null","<div style=""font-size:60px;"">+</div>","null","html-keyboard-response","118","107597","0.0-6.0-0.56","REGA","1","f","rechts","23","","fixation","","","",""
"662","img/0_30.png","74","image-keyboard-response","119","108271","0.0-6.0-1.56","REGA","1","f","rechts","23","","","self","j","0","true"
"null","<div style=""font-size:60px;"">+</div>","null","html-keyboard-response","120","108736","0.0-6.0-0.57","REGA","1","f","rechts","23","","fixation","","","",""
"980","img/60_30.png","74","image-keyboard-response","121","109722","0.0-6.0-1.57","REGA","1","f","rechts","23","","","self","j","60","true"
"null","<div style=""font-size:60px;"">+</div>","null","html-keyboard-response","122","110246","0.0-6.0-0.58","REGA","1","f","rechts","23","","fixation","","","",""
"976","img/L120_180.png","70","image-keyboard-response","123","111232","0.0-6.0-1.58","REGA","1","f","rechts","23","","","self","f","120","true"
"null","<div style=""font-size:60px;"">+</div>","null","html-keyboard-response","124","111753","0.0-6.0-0.59","REGA","1","f","rechts","23","","fixation","","","",""
"803","img/120_210.png","74","image-keyboard-response","125","112569","0.0-6.0-1.59","REGA","1","f","rechts","23","","","self","j","120","true"
"null","<div style=""font-size:60px;"">+</div>","null","html-keyboard-response","126","112971","0.0-6.0-0.60","REGA","1","f","rechts","23","","fixation","","","",""
"1015","img/150_240.png","74","image-keyboard-response","127","113998","0.0-6.0-1.60","REGA","1","f","rechts","23","","","self","j","150","true"
"null","<div style=""font-size:60px;"">+</div>","null","html-keyboard-response","128","114300","0.0-6.0-0.61","REGA","1","f","rechts","23","","fixation","","","",""
"1060","img/90_180.png","74","image-keyboard-response","129","115370","0.0-6.0-1.61","REGA","1","f","rechts","23","","","self","j","90","true"
"null","<div style=""font-size:60px;"">+</div>","null","html-keyboard-response","130","115753","0.0-6.0-0.62","REGA","1","f","rechts","23","","fixation","","","",""
"778","img/120_180.png","74","image-keyboard-response","131","116541","0.0-6.0-1.62","REGA","1","f","rechts","23","","","self","j","120","true"
"null","<div style=""font-size:60px;"">+</div>","null","html-keyboard-response","132","117066","0.0-6.0-0.63","REGA","1","f","rechts","23","","fixation","","","",""
"887","img/60_180.png","74","image-keyboard-response","133","117969","0.0-6.0-1.63","REGA","1","f","rechts","23","","","self","j","60","true"
"null","<div style=""font-size:60px;"">+</div>","null","html-keyboard-response","134","118331","0.0-6.0-0.64","REGA","1","f","rechts","23","","fixation","","","",""
"1081","img/120_330.png","70","image-keyboard-response","135","119421","0.0-6.0-1.64","REGA","1","f","rechts","23","","","self","f","120","true"
"null","<div style=""font-size:60px;"">+</div>","null","html-keyboard-response","136","119846","0.0-6.0-0.65","REGA","1","f","rechts","23","","fixation","","","",""
"1002","img/L60_180.png","70","image-keyboard-response","137","120860","0.0-6.0-1.65","REGA","1","f","rechts","23","","","self","f","60","true"
"null","<div style=""font-size:60px;"">+</div>","null","html-keyboard-response","138","121221","0.0-6.0-0.66","REGA","1","f","rechts","23","","fixation","","","",""
"865","img/30_60.png","74","image-keyboard-response","139","122098","0.0-6.0-1.66","REGA","1","f","rechts","23","","","self","j","30","true"
"null","<div style=""font-size:60px;"">+</div>","null","html-keyboard-response","140","122410","0.0-6.0-0.67","REGA","1","f","rechts","23","","fixation","","","",""
"633","img/0_60.png","74","image-keyboard-response","141","123053","0.0-6.0-1.67","REGA","1","f","rechts","23","","","self","j","0","true"
"null","<div style=""font-size:60px;"">+</div>","null","html-keyboard-response","142","123410","0.0-6.0-0.68","REGA","1","f","rechts","23","","fixation","","","",""
"930","img/120_90.png","70","image-keyboard-response","143","124349","0.0-6.0-1.68","REGA","1","f","rechts","23","","","self","f","120","true"
"null","<div style=""font-size:60px;"">+</div>","null","html-keyboard-response","144","124723","0.0-6.0-0.69","REGA","1","f","rechts","23","","fixation","","","",""
"1028","img/90_300.png","70","image-keyboard-response","145","125764","0.0-6.0-1.69","REGA","1","f","rechts","23","","","self","f","90","true"
"null","<div style=""font-size:60px;"">+</div>","null","html-keyboard-response","146","126239","0.0-6.0-0.70","REGA","1","f","rechts","23","","fixation","","","",""
"1205","img/30_300.png","70","image-keyboard-response","147","127453","0.0-6.0-1.70","REGA","1","f","rechts","23","","","self","f","30","true"
"null","<div style=""font-size:60px;"">+</div>","null","html-keyboard-response","148","127770","0.0-6.0-0.71","REGA","1","f","rechts","23","","fixation","","","",""
"906","img/60_150.png","70","image-keyboard-response","149","128691","0.0-6.0-1.71","REGA","1","f","rechts","23","","","self","f","60","true"
"null","<div style=""font-size:60px;"">+</div>","null","html-keyboard-response","150","129144","0.0-6.0-0.72","REGA","1","f","rechts","23","","fixation","","","",""
"748","img/150_90.png","70","image-keyboard-response","151","129906","0.0-6.0-1.72","REGA","1","f","rechts","23","","","self","f","150","true"
"null","<div style=""font-size:60px;"">+</div>","null","html-keyboard-response","152","130427","0.0-6.0-0.73","REGA","1","f","rechts","23","","fixation","","","",""
"692","img/150_120.png","70","image-keyboard-response","153","131132","0.0-6.0-1.73","REGA","1","f","rechts","23","","","self","f","150","true"
"null","<div style=""font-size:60px;"">+</div>","null","html-keyboard-response","154","131647","0.0-6.0-0.74","REGA","1","f","rechts","23","","fixation","","","",""
"609","img/0_120.png","74","image-keyboard-response","155","132268","0.0-6.0-1.74","REGA","1","f","rechts","23","","","self","j","0","true"
"null","<div style=""font-size:60px;"">+</div>","null","html-keyboard-response","156","132741","0.0-6.0-0.75","REGA","1","f","rechts","23","","fixation","","","",""
"1113","img/150_60.png","70","image-keyboard-response","157","133867","0.0-6.0-1.75","REGA","1","f","rechts","23","","","self","f","150","true"
"null","<div style=""font-size:60px;"">+</div>","null","html-keyboard-response","158","134334","0.0-6.0-0.76","REGA","1","f","rechts","23","","fixation","","","",""
"756","img/0_240.png","70","image-keyboard-response","159","135103","0.0-6.0-1.76","REGA","1","f","rechts","23","","","self","f","0","true"
"null","<div style=""font-size:60px;"">+</div>","null","html-keyboard-response","160","135567","0.0-6.0-0.77","REGA","1","f","rechts","23","","fixation","","","",""
"651","img/0_270.png","70","image-keyboard-response","161","136228","0.0-6.0-1.77","REGA","1","f","rechts","23","","","self","f","0","true"
"null","<div style=""font-size:60px;"">+</div>","null","html-keyboard-response","162","136537","0.0-6.0-0.78","REGA","1","f","rechts","23","","fixation","","","",""
"854","img/30_120.png","74","image-keyboard-response","163","137400","0.0-6.0-1.78","REGA","1","f","rechts","23","","","self","j","30","true"
"null","<div style=""font-size:60px;"">+</div>","null","html-keyboard-response","164","137755","0.0-6.0-0.79","REGA","1","f","rechts","23","","fixation","","","",""
"680","img/0_330.png","70","image-keyboard-response","165","138445","0.0-6.0-1.79","REGA","1","f","rechts","23","","","self","f","0","true"
"null","<div style=""font-size:60px;"">+</div>","null","html-keyboard-response","166","138866","0.0-6.0-0.80","REGA","1","f","rechts","23","","fixation","","","",""
"1387","img/90_120.png","70","image-keyboard-response","167","140267","0.0-6.0-1.80","REGA","1","f","rechts","23","","","self","f","90","true"
"null","<div style=""font-size:60px;"">+</div>","null","html-keyboard-response","168","140724","0.0-6.0-0.81","REGA","1","f","rechts","23","","fixation","","","",""
"1041","img/90_30.png","74","image-keyboard-response","169","141775","0.0-6.0-1.81","REGA","1","f","rechts","23","","","self","j","90","true"
"null","<div style=""font-size:60px;"">+</div>","null","html-keyboard-response","170","142305","0.0-6.0-0.82","REGA","1","f","rechts","23","","fixation","","","",""
"931","img/30_90.png","74","image-keyboard-response","171","143249","0.0-6.0-1.82","REGA","1","f","rechts","23","","","self","j","30","true"
"null","<div style=""font-size:60px;"">+</div>","null","html-keyboard-response","172","143722","0.0-6.0-0.83","REGA","1","f","rechts","23","","fixation","","","",""
"788","img/0_210.png","70","image-keyboard-response","173","144520","0.0-6.0-1.83","REGA","1","f","rechts","23","","","self","f","0","true"
"null","<div style=""font-size:60px;"">+</div>","null","html-keyboard-response","174","145035","0.0-6.0-0.84","REGA","1","f","rechts","23","","fixation","","","",""
"699","img/120_150.png","70","image-keyboard-response","175","145746","0.0-6.0-1.84","REGA","1","f","rechts","23","","","self","f","120","true"
"null","<div style=""font-size:60px;"">+</div>","null","html-keyboard-response","176","146051","0.0-6.0-0.85","REGA","1","f","rechts","23","","fixation","","","",""
"977","img/90_210.png","74","image-keyboard-response","177","147040","0.0-6.0-1.85","REGA","1","f","rechts","23","","","self","j","90","true"
"null","<div style=""font-size:60px;"">+</div>","null","html-keyboard-response","178","147446","0.0-6.0-0.86","REGA","1","f","rechts","23","","fixation","","","",""
"594","img/0_300.png","70","image-keyboard-response","179","148052","0.0-6.0-1.86","REGA","1","f","rechts","23","","","self","f","0","true"
"null","<div style=""font-size:60px;"">+</div>","null","html-keyboard-response","180","148571","0.0-6.0-0.87","REGA","1","f","rechts","23","","fixation","","","",""
"807","img/60_210.png","74","image-keyboard-response","181","149390","0.0-6.0-1.87","REGA","1","f","rechts","23","","","self","j","60","true"
"null","<div style=""font-size:60px;"">+</div>","null","html-keyboard-response","182","149806","0.0-6.0-0.88","REGA","1","f","rechts","23","","fixation","","","",""
"776","img/90_150.png","70","image-keyboard-response","183","150595","0.0-6.0-1.88","REGA","1","f","rechts","23","","","self","f","90","true"
"null","<div style=""font-size:60px;"">+</div>","null","html-keyboard-response","184","150915","0.0-6.0-0.89","REGA","1","f","rechts","23","","fixation","","","",""
"1402","img/60_270.png","70","image-keyboard-response","185","152327","0.0-6.0-1.89","REGA","1","f","rechts","23","","","self","f","60","true"
"null","<div style=""font-size:60px;"">+</div>","null","html-keyboard-response","186","152742","0.0-6.0-0.90","REGA","1","f","rechts","23","","fixation","","","",""
"894","img/150_270.png","74","image-keyboard-response","187","153643","0.0-6.0-1.90","REGA","1","f","rechts","23","","","self","j","150","true"
"null","<div style=""font-size:60px;"">+</div>","null","html-keyboard-response","188","154007","0.0-6.0-0.91","REGA","1","f","rechts","23","","fixation","","","",""
"771","img/L90_180.png","70","image-keyboard-response","189","154792","0.0-6.0-1.91","REGA","1","f","rechts","23","","","self","f","90","true"
"null","<div style=""font-size:60px;"">+</div>","null","html-keyboard-response","190","155319","0.0-6.0-0.92","REGA","1","f","rechts","23","","fixation","","","",""
"944","img/120_30.png","74","image-keyboard-response","191","156276","0.0-6.0-1.92","REGA","1","f","rechts","23","","","self","j","120","true"
"null","<div style=""font-size:60px;"">+</div>","null","html-keyboard-response","192","156745","0.0-6.0-0.93","REGA","1","f","rechts","23","","fixation","","","",""
"1048","img/30_240.png","70","image-keyboard-response","193","157806","0.0-6.0-1.93","REGA","1","f","rechts","23","","","self","f","30","true"
"null","<div style=""font-size:60px;"">+</div>","null","html-keyboard-response","194","158322","0.0-6.0-0.94","REGA","1","f","rechts","23","","fixation","","","",""
"1080","img/L30_180.png","70","image-keyboard-response","195","159416","0.0-6.0-1.94","REGA","1","f","rechts","23","","","self","f","30","true"
"null","<div style=""font-size:60px;"">+</div>","null","html-keyboard-response","196","159837","0.0-6.0-0.95","REGA","1","f","rechts","23","","fixation","","","",""
"684","img/0_150.png","74","image-keyboard-response","197","160528","0.0-6.0-1.95","REGA","1","f","rechts","23","","","self","j","0","true"
"null","<div style=""font-size:60px;"">+</div>","null","html-keyboard-response","198","161010","0.0-6.0-0.96","REGA","1","f","rechts","23","","fixation","","","",""
"767","img/30_180.png","74","image-keyboard-response","199","161787","0.0-6.0-1.96","REGA","1","f","rechts","23","","","self","j","30","true"
"null","<div style=""font-size:60px;"">+</div>","null","html-keyboard-response","200","162087","0.0-6.0-0.97","REGA","1","f","rechts","23","","fixation","","","",""
"791","img/30_270.png","70","image-keyboard-response","201","162891","0.0-6.0-1.97","REGA","1","f","rechts","23","","","self","f","30","true"
"null","<div style=""font-size:60px;"">+</div>","null","html-keyboard-response","202","163353","0.0-6.0-0.98","REGA","1","f","rechts","23","","fixation","","","",""
"841","img/60_90.png","74","image-keyboard-response","203","164208","0.0-6.0-1.98","REGA","1","f","rechts","23","","","self","j","60","true"
"null","<div style=""font-size:60px;"">+</div>","null","html-keyboard-response","204","164634","0.0-6.0-0.99","REGA","1","f","rechts","23","","fixation","","","",""
"842","img/120_270.png","74","image-keyboard-response","205","165489","0.0-6.0-1.99","REGA","1","f","rechts","23","","","self","j","120","true"
"null","<div style=""font-size:60px;"">+</div>","null","html-keyboard-response","206","166009","0.0-6.0-0.100","REGA","1","f","rechts","23","","fixation","","","",""
"942","img/90_60.png","74","image-keyboard-response","207","166964","0.0-6.0-1.100","REGA","1","f","rechts","23","","","self","j","90","true"
"null","<div style=""font-size:60px;"">+</div>","null","html-keyboard-response","208","167294","0.0-6.0-0.101","REGA","1","f","rechts","23","","fixation","","","",""
"1232","img/150_180.png","74","image-keyboard-response","209","168539","0.0-6.0-1.101","REGA","1","f","rechts","23","","","self","j","150","true"
"null","<div style=""font-size:60px;"">+</div>","null","html-keyboard-response","210","168919","0.0-6.0-0.102","REGA","1","f","rechts","23","","fixation","","","",""
"843","img/90_330.png","70","image-keyboard-response","211","169775","0.0-6.0-1.102","REGA","1","f","rechts","23","","","self","f","90","true"
"null","<div style=""font-size:60px;"">+</div>","null","html-keyboard-response","212","170105","0.0-6.0-0.103","REGA","1","f","rechts","23","","fixation","","","",""
"873","img/150_300.png","74","image-keyboard-response","213","170991","0.0-6.0-1.103","REGA","1","f","rechts","23","","","self","j","150","true"
"null","<div style=""font-size:60px;"">+</div>","null","html-keyboard-response","214","171355","0.0-6.0-0.104","REGA","1","f","rechts","23","","fixation","","","",""
"906","img/60_30.png","74","image-keyboard-response","215","172274","0.0-6.0-1.104","REGA","1","f","rechts","23","","","self","j","60","true"
"null","<div style=""font-size:60px;"">+</div>","null","html-keyboard-response","216","172792","0.0-6.0-0.105","REGA","1","f","rechts","23","","fixation","","","",""
"773","img/60_180.png","74","image-keyboard-response","217","173579","0.0-6.0-1.105","REGA","1","f","rechts","23","","","self","j","60","true"
"null","<div style=""font-size:60px;"">+</div>","null","html-keyboard-response","218","173902","0.0-6.0-0.106","REGA","1","f","rechts","23","","fixation","","","",""
"908","img/60_150.png","70","image-keyboard-response","219","174817","0.0-6.0-1.106","REGA","1","f","rechts","23","","","self","f","60","true"
"null","<div style=""font-size:60px;"">+</div>","null","html-keyboard-response","220","175277","0.0-6.0-0.107","REGA","1","f","rechts","23","","fixation","","","",""
"721","img/120_270.png","74","image-keyboard-response","221","176008","0.0-6.0-1.107","REGA","1","f","rechts","23","","","self","j","120","true"
"null","<div style=""font-size:60px;"">+</div>","null","html-keyboard-response","222","176365","0.0-6.0-0.108","REGA","1","f","rechts","23","","fixation","","","",""
"792","img/L90_180.png","70","image-keyboard-response","223","177167","0.0-6.0-1.108","REGA","1","f","rechts","23","","","self","f","90","true"
"null","<div style=""font-size:60px;"">+</div>","null","html-keyboard-response","224","177538","0.0-6.0-0.109","REGA","1","f","rechts","23","","fixation","","","",""
"904","img/30_240.png","70","image-keyboard-response","225","178450","0.0-6.0-1.109","REGA","1","f","rechts","23","","","self","f","30","true"
"null","<div style=""font-size:60px;"">+</div>","null","html-keyboard-response","226","178911","0.0-6.0-0.110","REGA","1","f","rechts","23","","fixation","","","",""
"595","img/0_90.png","74","image-keyboard-response","227","179520","0.0-6.0-1.110","REGA","1","f","rechts","23","","","self","j","0","true"
"null","<div style=""font-size:60px;"">+</div>","null","html-keyboard-response","228","179850","0.0-6.0-0.111","REGA","1","f","rechts","23","","fixation","","","",""
"722","img/L120_180.png","70","image-keyboard-response","229","180587","0.0-6.0-1.111","REGA","1","f","rechts","23","","","self","f","120","true"
"null","<div style=""font-size:60px;"">+</div>","null","html-keyboard-response","230","181099","0.0-6.0-0.112","REGA","1","f","rechts","23","","fixation","","","",""
"839","img/150_60.png","70","image-keyboard-response","231","181949","0.0-6.0-1.112","REGA","1","f","rechts","23","","","self","f","150","true"
"null","<div style=""font-size:60px;"">+</div>","null","html-keyboard-response","232","182462","0.0-6.0-0.113","REGA","1","f","rechts","23","","fixation","","","",""
"715","img/120_150.png","70","image-keyboard-response","233","183187","0.0-6.0-1.113","REGA","1","f","rechts","23","","","self","f","120","true"
"null","<div style=""font-size:60px;"">+</div>","null","html-keyboard-response","234","183665","0.0-6.0-0.114","REGA","1","f","rechts","23","","fixation","","","",""
"1038","img/90_30.png","74","image-keyboard-response","235","184717","0.0-6.0-1.114","REGA","1","f","rechts","23","","","self","j","90","true"
"null","<div style=""font-size:60px;"">+</div>","null","html-keyboard-response","236","185025","0.0-6.0-0.115","REGA","1","f","rechts","23","","fixation","","","",""
"961","img/30_120.png","74","image-keyboard-response","237","185999","0.0-6.0-1.115","REGA","1","f","rechts","23","","","self","j","30","true"
"null","<div style=""font-size:60px;"">+</div>","null","html-keyboard-response","238","186430","0.0-6.0-0.116","REGA","1","f","rechts","23","","fixation","","","",""
"952","img/150_240.png","74","image-keyboard-response","239","187394","0.0-6.0-1.116","REGA","1","f","rechts","23","","","self","j","150","true"
"null","<div style=""font-size:60px;"">+</div>","null","html-keyboard-response","240","187821","0.0-6.0-0.117","REGA","1","f","rechts","23","","fixation","","","",""
"899","img/150_120.png","70","image-keyboard-response","241","188732","0.0-6.0-1.117","REGA","1","f","rechts","23","","","self","f","150","true"
"null","<div style=""font-size:60px;"">+</div>","null","html-keyboard-response","242","189087","0.0-6.0-0.118","REGA","1","f","rechts","23","","fixation","","","",""
"824","img/120_210.png","74","image-keyboard-response","243","189926","0.0-6.0-1.118","REGA","1","f","rechts","23","","","self","j","120","true"
"null","<div style=""font-size:60px;"">+</div>","null","html-keyboard-response","244","190258","0.0-6.0-0.119","REGA","1","f","rechts","23","","fixation","","","",""
"895","img/90_210.png","74","image-keyboard-response","245","191163","0.0-6.0-1.119","REGA","1","f","rechts","23","","","self","j","90","true"
"null","<div style=""font-size:60px;"">+</div>","null","html-keyboard-response","246","191619","0.0-6.0-0.120","REGA","1","f","rechts","23","","fixation","","","",""
"691","img/0_60.png","74","image-keyboard-response","247","192323","0.0-6.0-1.120","REGA","1","f","rechts","23","","","self","j","0","true"
"null","<div style=""font-size:60px;"">+</div>","null","html-keyboard-response","248","192697","0.0-6.0-0.121","REGA","1","f","rechts","23","","fixation","","","",""
"885","img/60_210.png","74","image-keyboard-response","249","193592","0.0-6.0-1.121","REGA","1","f","rechts","23","","","self","j","60","true"
"null","<div style=""font-size:60px;"">+</div>","null","html-keyboard-response","250","194010","0.0-6.0-0.122","REGA","1","f","rechts","23","","fixation","","","",""
"572","img/0_270.png","70","image-keyboard-response","251","194594","0.0-6.0-1.122","REGA","1","f","rechts","23","","","self","f","0","true"
"null","<div style=""font-size:60px;"">+</div>","null","html-keyboard-response","252","194947","0.0-6.0-0.123","REGA","1","f","rechts","23","","fixation","","","",""
"1235","img/90_330.png","70","image-keyboard-response","253","196191","0.0-6.0-1.123","REGA","1","f","rechts","23","","","self","f","90","true"
"null","<div style=""font-size:60px;"">+</div>","null","html-keyboard-response","254","196526","0.0-6.0-0.124","REGA","1","f","rechts","23","","fixation","","","",""
"925","img/90_240.png","74","image-keyboard-response","255","197465","0.0-6.0-1.124","REGA","1","f","rechts","23","","","self","j","90","true"
"null","<div style=""font-size:60px;"">+</div>","null","html-keyboard-response","256","197775","0.0-6.0-0.125","REGA","1","f","rechts","23","","fixation","","","",""
"1015","img/60_90.png","74","image-keyboard-response","257","198800","0.0-6.0-1.125","REGA","1","f","rechts","23","","","self","j","60","true"
"null","<div style=""font-size:60px;"">+</div>","null","html-keyboard-response","258","199118","0.0-6.0-0.126","REGA","1","f","rechts","23","","fixation","","","",""
"978","img/30_180.png","74","image-keyboard-response","259","200107","0.0-6.0-1.126","REGA","1","f","rechts","23","","","self","j","30","true"
"null","<div style=""font-size:60px;"">+</div>","null","html-keyboard-response","260","200525","0.0-6.0-0.127","REGA","1","f","rechts","23","","fixation","","","",""
"999","img/150_270.png","74","image-keyboard-response","261","201534","0.0-6.0-1.127","REGA","1","f","rechts","23","","","self","j","150","true"
"null","<div style=""font-size:60px;"">+</div>","null","html-keyboard-response","262","202043","0.0-6.0-0.128","REGA","1","f","rechts","23","","fixation","","","",""
"822","img/150_300.png","74","image-keyboard-response","263","202875","0.0-6.0-1.128","REGA","1","f","rechts","23","","","self","j","150","true"
"null","<div style=""font-size:60px;"">+</div>","null","html-keyboard-response","264","203387","0.0-6.0-0.129","REGA","1","f","rechts","23","","fixation","","","",""
"1173","img/30_300.png","70","image-keyboard-response","265","204573","0.0-6.0-1.129","REGA","1","f","rechts","23","","","self","f","30","true"
"null","<div style=""font-size:60px;"">+</div>","null","html-keyboard-response","266","204995","0.0-6.0-0.130","REGA","1","f","rechts","23","","fixation","","","",""
"913","img/150_90.png","70","image-keyboard-response","267","205923","0.0-6.0-1.130","REGA","1","f","rechts","23","","","self","f","150","true"
"null","<div style=""font-size:60px;"">+</div>","null","html-keyboard-response","268","206432","0.0-6.0-0.131","REGA","1","f","rechts","23","","fixation","","","",""
"1180","img/60_270.png","70","image-keyboard-response","269","207622","0.0-6.0-1.131","REGA","1","f","rechts","23","","","self","f","60","true"
"null","<div style=""font-size:60px;"">+</div>","null","html-keyboard-response","270","208026","0.0-6.0-0.132","REGA","1","f","rechts","23","","fixation","","","",""
"831","img/90_180.png","74","image-keyboard-response","271","208869","0.0-6.0-1.132","REGA","1","f","rechts","23","","","self","j","90","true"
"null","<div style=""font-size:60px;"">+</div>","null","html-keyboard-response","272","209231","0.0-6.0-0.133","REGA","1","f","rechts","23","","fixation","","","",""
"911","img/L30_180.png","70","image-keyboard-response","273","210152","0.0-6.0-1.133","REGA","1","f","rechts","23","","","self","f","30","true"
"null","<div style=""font-size:60px;"">+</div>","null","html-keyboard-response","274","210582","0.0-6.0-0.134","REGA","1","f","rechts","23","","fixation","","","",""
"728","img/0_30.png","74","image-keyboard-response","275","211323","0.0-6.0-1.134","REGA","1","f","rechts","23","","","self","j","0","true"
"null","<div style=""font-size:60px;"">+</div>","null","html-keyboard-response","276","211699","0.0-6.0-0.135","REGA","1","f","rechts","23","","fixation","","","",""
"711","img/30_90.png","74","image-keyboard-response","277","212425","0.0-6.0-1.135","REGA","1","f","rechts","23","","","self","j","30","true"
"null","<div style=""font-size:60px;"">+</div>","null","html-keyboard-response","278","212778","0.0-6.0-0.136","REGA","1","f","rechts","23","","fixation","","","",""
"817","img/90_120.png","70","image-keyboard-response","279","213609","0.0-6.0-1.136","REGA","1","f","rechts","23","","","self","f","90","true"
"null","<div style=""font-size:60px;"">+</div>","null","html-keyboard-response","280","214137","0.0-6.0-0.137","REGA","1","f","rechts","23","","fixation","","","",""
"607","img/0_150.png","74","image-keyboard-response","281","214755","0.0-6.0-1.137","REGA","1","f","rechts","23","","","self","j","0","true"
"null","<div style=""font-size:60px;"">+</div>","null","html-keyboard-response","282","215059","0.0-6.0-0.138","REGA","1","f","rechts","23","","fixation","","","",""
"617","img/0_240.png","70","image-keyboard-response","283","215689","0.0-6.0-1.138","REGA","1","f","rechts","23","","","self","f","0","true"
"null","<div style=""font-size:60px;"">+</div>","null","html-keyboard-response","284","216153","0.0-6.0-0.139","REGA","1","f","rechts","23","","fixation","","","",""
"1334","img/120_30.png","74","image-keyboard-response","285","217498","0.0-6.0-1.139","REGA","1","f","rechts","23","","","self","j","120","true"
"null","<div style=""font-size:60px;"">+</div>","null","html-keyboard-response","286","217903","0.0-6.0-0.140","REGA","1","f","rechts","23","","fixation","","","",""
"764","img/L60_180.png","70","image-keyboard-response","287","218682","0.0-6.0-1.140","REGA","1","f","rechts","23","","","self","f","60","true"
"null","<div style=""font-size:60px;"">+</div>","null","html-keyboard-response","288","219216","0.0-6.0-0.141","REGA","1","f","rechts","23","","fixation","","","",""
"869","img/120_90.png","70","image-keyboard-response","289","220098","0.0-6.0-1.141","REGA","1","f","rechts","23","","","self","f","120","true"
"null","<div style=""font-size:60px;"">+</div>","null","html-keyboard-response","290","220529","0.0-6.0-0.142","REGA","1","f","rechts","23","","fixation","","","",""
"876","img/150_180.png","74","image-keyboard-response","291","221415","0.0-6.0-1.142","REGA","1","f","rechts","23","","","self","j","150","true"
"null","<div style=""font-size:60px;"">+</div>","null","html-keyboard-response","292","221732","0.0-6.0-0.143","REGA","1","f","rechts","23","","fixation","","","",""
"1275","img/120_330.png","70","image-keyboard-response","293","223023","0.0-6.0-1.143","REGA","1","f","rechts","23","","","self","f","120","true"
"null","<div style=""font-size:60px;"">+</div>","null","html-keyboard-response","294","223482","0.0-6.0-0.144","REGA","1","f","rechts","23","","fixation","","","",""
"968","img/30_60.png","74","image-keyboard-response","295","224464","0.0-6.0-1.144","REGA","1","f","rechts","23","","","self","j","30","true"
"null","<div style=""font-size:60px;"">+</div>","null","html-keyboard-response","296","224889","0.0-6.0-0.145","REGA","1","f","rechts","23","","fixation","","","",""
"882","img/30_270.png","70","image-keyboard-response","297","225781","0.0-6.0-1.145","REGA","1","f","rechts","23","","","self","f","30","true"
"null","<div style=""font-size:60px;"">+</div>","null","html-keyboard-response","298","226092","0.0-6.0-0.146","REGA","1","f","rechts","23","","fixation","","","",""
"708","img/0_120.png","74","image-keyboard-response","299","226814","0.0-6.0-1.146","REGA","1","f","rechts","23","","","self","j","0","true"
"null","<div style=""font-size:60px;"">+</div>","null","html-keyboard-response","300","227185","0.0-6.0-0.147","REGA","1","f","rechts","23","","fixation","","","",""
"796","img/0_210.png","70","image-keyboard-response","301","227994","0.0-6.0-1.147","REGA","1","f","rechts","23","","","self","f","0","true"
"null","<div style=""font-size:60px;"">+</div>","null","html-keyboard-response","302","228420","0.0-6.0-0.148","REGA","1","f","rechts","23","","fixation","","","",""
"778","img/120_180.png","74","image-keyboard-response","303","229211","0.0-6.0-1.148","REGA","1","f","rechts","23","","","self","j","120","true"
"null","<div style=""font-size:60px;"">+</div>","null","html-keyboard-response","304","229592","0.0-6.0-0.149","REGA","1","f","rechts","23","","fixation","","","",""
"843","img/L150_180.png","70","image-keyboard-response","305","230448","0.0-6.0-1.149","REGA","1","f","rechts","23","","","self","f","150","true"
"null","<div style=""font-size:60px;"">+</div>","null","html-keyboard-response","306","230810","0.0-6.0-0.150","REGA","1","f","rechts","23","","fixation","","","",""
"784","img/0_300.png","70","image-keyboard-response","307","231608","0.0-6.0-1.150","REGA","1","f","rechts","23","","","self","f","0","true"
"null","<div style=""font-size:60px;"">+</div>","null","html-keyboard-response","308","231922","0.0-6.0-0.151","REGA","1","f","rechts","23","","fixation","","","",""
"887","img/90_150.png","70","image-keyboard-response","309","232822","0.0-6.0-1.151","REGA","1","f","rechts","23","","","self","f","90","true"
"null","<div style=""font-size:60px;"">+</div>","null","html-keyboard-response","310","233202","0.0-6.0-0.152","REGA","1","f","rechts","23","","fixation","","","",""
"1261","img/60_330.png","70","image-keyboard-response","311","234477","0.0-6.0-1.152","REGA","1","f","rechts","23","","","self","f","60","true"
"null","<div style=""font-size:60px;"">+</div>","null","html-keyboard-response","312","234983","0.0-6.0-0.153","REGA","1","f","rechts","23","","fixation","","","",""
"948","img/90_60.png","74","image-keyboard-response","313","235939","0.0-6.0-1.153","REGA","1","f","rechts","23","","","self","j","90","true"
"null","<div style=""font-size:60px;"">+</div>","null","html-keyboard-response","314","236312","0.0-6.0-0.154","REGA","1","f","rechts","23","","fixation","","","",""
"638","img/0_330.png","70","image-keyboard-response","315","236963","0.0-6.0-1.154","REGA","1","f","rechts","23","","","self","f","0","true"
"null","<div style=""font-size:60px;"">+</div>","null","html-keyboard-response","316","237421","0.0-6.0-0.155","REGA","1","f","rechts","23","","fixation","","","",""
"923","img/90_300.png","70","image-keyboard-response","317","238357","0.0-6.0-1.155","REGA","1","f","rechts","23","","","self","f","90","true"
"null","<div style=""font-size:60px;"">+</div>","null","html-keyboard-response","318","238890","0.0-6.0-0.156","REGA","1","f","rechts","23","","fixation","","","",""
"839","img/L30_180.png","70","image-keyboard-response","319","239742","0.0-6.0-1.156","REGA","1","f","rechts","23","","","self","f","30","true"
"null","<div style=""font-size:60px;"">+</div>","null","html-keyboard-response","320","240249","0.0-6.0-0.157","REGA","1","f","rechts","23","","fixation","","","",""
"806","img/60_210.png","74","image-keyboard-response","321","241069","0.0-6.0-1.157","REGA","1","f","rechts","23","","","self","j","60","true"
"null","<div style=""font-size:60px;"">+</div>","null","html-keyboard-response","322","241579","0.0-6.0-0.158","REGA","1","f","rechts","23","","fixation","","","",""
"1074","img/60_270.png","70","image-keyboard-response","323","242667","0.0-6.0-1.158","REGA","1","f","rechts","23","","","self","f","60","true"
"null","<div style=""font-size:60px;"">+</div>","null","html-keyboard-response","324","243174","0.0-6.0-0.159","REGA","1","f","rechts","23","","fixation","","","",""
"617","img/0_270.png","70","image-keyboard-response","325","243802","0.0-6.0-1.159","REGA","1","f","rechts","23","","","self","f","0","true"
"null","<div style=""font-size:60px;"">+</div>","null","html-keyboard-response","326","244284","0.0-6.0-0.160","REGA","1","f","rechts","23","","fixation","","","",""
"1016","img/90_30.png","74","image-keyboard-response","327","245310","0.0-6.0-1.160","REGA","1","f","rechts","23","","","self","j","90","true"
"null","<div style=""font-size:60px;"">+</div>","null","html-keyboard-response","328","245643","0.0-6.0-0.161","REGA","1","f","rechts","23","","fixation","","","",""
"926","img/30_270.png","70","image-keyboard-response","329","246579","0.0-6.0-1.161","REGA","1","f","rechts","23","","","self","f","30","true"
"null","<div style=""font-size:60px;"">+</div>","null","html-keyboard-response","330","247034","0.0-6.0-0.162","REGA","1","f","rechts","23","","fixation","","","",""
"997","img/150_300.png","74","image-keyboard-response","331","248045","0.0-6.0-1.162","REGA","1","f","rechts","23","","","self","j","150","true"
"null","<div style=""font-size:60px;"">+</div>","null","html-keyboard-response","332","248471","0.0-6.0-0.163","REGA","1","f","rechts","23","","fixation","","","",""
"683","img/120_270.png","74","image-keyboard-response","333","249168","0.0-6.0-1.163","REGA","1","f","rechts","23","","","self","j","120","true"
"null","<div style=""font-size:60px;"">+</div>","null","html-keyboard-response","334","249596","0.0-6.0-0.164","REGA","1","f","rechts","23","","fixation","","","",""
"711","img/120_180.png","74","image-keyboard-response","335","250317","0.0-6.0-1.164","REGA","1","f","rechts","23","","","self","j","120","true"
"null","<div style=""font-size:60px;"">+</div>","null","html-keyboard-response","336","250643","0.0-6.0-0.165","REGA","1","f","rechts","23","","fixation","","","",""
"820","img/L90_180.png","70","image-keyboard-response","337","251476","0.0-6.0-1.165","REGA","1","f","rechts","23","","","self","f","90","true"
"null","<div style=""font-size:60px;"">+</div>","null","html-keyboard-response","338","251957","0.0-6.0-0.166","REGA","1","f","rechts","23","","fixation","","","",""
"796","img/120_150.png","70","image-keyboard-response","339","252770","0.0-6.0-1.166","REGA","1","f","rechts","23","","","self","f","120","true"
"null","<div style=""font-size:60px;"">+</div>","null","html-keyboard-response","340","253191","0.0-6.0-0.167","REGA","1","f","rechts","23","","fixation","","","",""
"1139","img/60_90.png","74","image-keyboard-response","341","254344","0.0-6.0-1.167","REGA","1","f","rechts","23","","","self","j","60","true"
"null","<div style=""font-size:60px;"">+</div>","null","html-keyboard-response","342","254662","0.0-6.0-0.168","REGA","1","f","rechts","23","","fixation","","","",""
"729","img/30_90.png","74","image-keyboard-response","343","255401","0.0-6.0-1.168","REGA","1","f","rechts","23","","","self","j","30","true"
"null","<div style=""font-size:60px;"">+</div>","null","html-keyboard-response","344","255910","0.0-6.0-0.169","REGA","1","f","rechts","23","","fixation","","","",""
"955","img/30_180.png","74","image-keyboard-response","345","256875","0.0-6.0-1.169","REGA","1","f","rechts","23","","","self","j","30","true"
"null","<div style=""font-size:60px;"">+</div>","null","html-keyboard-response","346","257394","0.0-6.0-0.170","REGA","1","f","rechts","23","","fixation","","","",""
"886","img/150_120.png","70","image-keyboard-response","347","258293","0.0-6.0-1.170","REGA","1","f","rechts","23","","","self","f","150","true"
"null","<div style=""font-size:60px;"">+</div>","null","html-keyboard-response","348","258769","0.0-6.0-0.171","REGA","1","f","rechts","23","","fixation","","","",""
"669","img/0_150.png","74","image-keyboard-response","349","259451","0.0-6.0-1.171","REGA","1","f","rechts","23","","","self","j","0","true"
"null","<div style=""font-size:60px;"">+</div>","null","html-keyboard-response","350","259956","0.0-6.0-0.172","REGA","1","f","rechts","23","","fixation","","","",""
"678","img/0_330.png","70","image-keyboard-response","351","260647","0.0-6.0-1.172","REGA","1","f","rechts","23","","","self","f","0","true"
"null","<div style=""font-size:60px;"">+</div>","null","html-keyboard-response","352","261113","0.0-6.0-0.173","REGA","1","f","rechts","23","","fixation","","","",""
"587","img/0_90.png","74","image-keyboard-response","353","261712","0.0-6.0-1.173","REGA","1","f","rechts","23","","","self","j","0","true"
"null","<div style=""font-size:60px;"">+</div>","null","html-keyboard-response","354","262177","0.0-6.0-0.174","REGA","1","f","rechts","23","","fixation","","","",""
"955","img/150_90.png","70","image-keyboard-response","355","263142","0.0-6.0-1.174","REGA","1","f","rechts","23","","","self","f","150","true"
"null","<div style=""font-size:60px;"">+</div>","null","html-keyboard-response","356","263599","0.0-6.0-0.175","REGA","1","f","rechts","23","","fixation","","","",""
"685","img/L120_180.png","70","image-keyboard-response","357","264289","0.0-6.0-1.175","REGA","1","f","rechts","23","","","self","f","120","true"
"null","<div style=""font-size:60px;"">+</div>","null","html-keyboard-response","358","264694","0.0-6.0-0.176","REGA","1","f","rechts","23","","fixation","","","",""
"1304","img/60_330.png","70","image-keyboard-response","359","266008","0.0-6.0-1.176","REGA","1","f","rechts","23","","","self","f","60","true"
"null","<div style=""font-size:60px;"">+</div>","null","html-keyboard-response","360","266334","0.0-6.0-0.177","REGA","1","f","rechts","23","","fixation","","","",""
"811","img/90_120.png","70","image-keyboard-response","361","267156","0.0-6.0-1.177","REGA","1","f","rechts","23","","","self","f","90","true"
"null","<div style=""font-size:60px;"">+</div>","null","html-keyboard-response","362","267537","0.0-6.0-0.178","REGA","1","f","rechts","23","","fixation","","","",""
"846","img/90_240.png","74","image-keyboard-response","363","268396","0.0-6.0-1.178","REGA","1","f","rechts","23","","","self","j","90","true"
"null","<div style=""font-size:60px;"">+</div>","null","html-keyboard-response","364","268708","0.0-6.0-0.179","REGA","1","f","rechts","23","","fixation","","","",""
"965","img/60_30.png","74","image-keyboard-response","365","269678","0.0-6.0-1.179","REGA","1","f","rechts","23","","","self","j","60","true"
"null","<div style=""font-size:60px;"">+</div>","null","html-keyboard-response","366","270051","0.0-6.0-0.180","REGA","1","f","rechts","23","","fixation","","","",""
"1031","img/120_30.png","74","image-keyboard-response","367","271096","0.0-6.0-1.180","REGA","1","f","rechts","23","","","self","j","120","true"
"null","<div style=""font-size:60px;"">+</div>","null","html-keyboard-response","368","271414","0.0-6.0-0.181","REGA","1","f","rechts","23","","fixation","","","",""
"953","img/90_150.png","70","image-keyboard-response","369","272377","0.0-6.0-1.181","REGA","1","f","rechts","23","","","self","f","90","true"
"null","<div style=""font-size:60px;"">+</div>","null","html-keyboard-response","370","272694","0.0-6.0-0.182","REGA","1","f","rechts","23","","fixation","","","",""
"885","img/150_240.png","74","image-keyboard-response","371","273594","0.0-6.0-1.182","REGA","1","f","rechts","23","","","self","j","150","true"
"null","<div style=""font-size:60px;"">+</div>","null","html-keyboard-response","372","274069","0.0-6.0-0.183","REGA","1","f","rechts","23","","fixation","","","",""
"816","img/150_60.png","70","image-keyboard-response","373","274898","0.0-6.0-1.183","REGA","1","f","rechts","23","","","self","f","150","true"
"null","<div style=""font-size:60px;"">+</div>","null","html-keyboard-response","374","275227","0.0-6.0-0.184","REGA","1","f","rechts","23","","fixation","","","",""
"816","img/150_270.png","74","image-keyboard-response","375","276056","0.0-6.0-1.184","REGA","1","f","rechts","23","","","self","j","150","true"
"null","<div style=""font-size:60px;"">+</div>","null","html-keyboard-response","376","276569","0.0-6.0-0.185","REGA","1","f","rechts","23","","fixation","","","",""
"850","img/120_330.png","70","image-keyboard-response","377","277429","0.0-6.0-1.185","REGA","1","f","rechts","23","","","self","f","120","true"
"null","<div style=""font-size:60px;"">+</div>","null","html-keyboard-response","378","277903","0.0-6.0-0.186","REGA","1","f","rechts","23","","fixation","","","",""
"1014","img/30_60.png","74","image-keyboard-response","379","278926","0.0-6.0-1.186","REGA","1","f","rechts","23","","","self","j","30","true"
"null","<div style=""font-size:60px;"">+</div>","null","html-keyboard-response","380","279308","0.0-6.0-0.187","REGA","1","f","rechts","23","","fixation","","","",""
"784","img/L60_180.png","70","image-keyboard-response","381","280106","0.0-6.0-1.187","REGA","1","f","rechts","23","","","self","f","60","true"
"null","<div style=""font-size:60px;"">+</div>","null","html-keyboard-response","382","280466","0.0-6.0-0.188","REGA","1","f","rechts","23","","fixation","","","",""
"1057","img/90_330.png","70","image-keyboard-response","383","281535","0.0-6.0-1.188","REGA","1","f","rechts","23","","","self","f","90","true"
"null","<div style=""font-size:60px;"">+</div>","null","html-keyboard-response","384","282055","0.0-6.0-0.189","REGA","1","f","rechts","23","","fixation","","","",""
"905","img/30_120.png","74","image-keyboard-response","385","282976","0.0-6.0-1.189","REGA","1","f","rechts","23","","","self","j","30","true"
"null","<div style=""font-size:60px;"">+</div>","null","html-keyboard-response","386","283509","0.0-6.0-0.190","REGA","1","f","rechts","23","","fixation","","","",""
"580","img/0_120.png","74","image-keyboard-response","387","284102","0.0-6.0-1.190","REGA","1","f","rechts","23","","","self","j","0","true"
"null","<div style=""font-size:60px;"">+</div>","null","html-keyboard-response","388","284416","0.0-6.0-0.191","REGA","1","f","rechts","23","","fixation","","","",""
"1157","img/60_180.png","74","image-keyboard-response","389","285586","0.0-6.0-1.191","REGA","1","f","rechts","23","","","self","j","60","true"
"null","<div style=""font-size:60px;"">+</div>","null","html-keyboard-response","390","285916","0.0-6.0-0.192","REGA","1","f","rechts","23","","fixation","","","",""
"1161","img/30_240.png","70","image-keyboard-response","391","287093","0.0-6.0-1.192","REGA","1","f","rechts","23","","","self","f","30","true"
"null","<div style=""font-size:60px;"">+</div>","null","html-keyboard-response","392","287461","0.0-6.0-0.193","REGA","1","f","rechts","23","","fixation","","","",""
"946","img/60_150.png","70","image-keyboard-response","393","288420","0.0-6.0-1.193","REGA","1","f","rechts","23","","","self","f","60","true"
"null","<div style=""font-size:60px;"">+</div>","null","html-keyboard-response","394","288930","0.0-6.0-0.194","REGA","1","f","rechts","23","","fixation","","","",""
"781","img/90_210.png","74","image-keyboard-response","395","289727","0.0-6.0-1.194","REGA","1","f","rechts","23","","","self","j","90","true"
"null","<div style=""font-size:60px;"">+</div>","null","html-keyboard-response","396","290133","0.0-6.0-0.195","REGA","1","f","rechts","23","","fixation","","","",""
"876","img/90_60.png","74","image-keyboard-response","397","291020","0.0-6.0-1.195","REGA","1","f","rechts","23","","","self","j","90","true"
"null","<div style=""font-size:60px;"">+</div>","null","html-keyboard-response","398","291495","0.0-6.0-0.196","REGA","1","f","rechts","23","","fixation","","","",""
"919","img/120_90.png","70","image-keyboard-response","399","292427","0.0-6.0-1.196","REGA","1","f","rechts","23","","","self","f","120","true"
"null","<div style=""font-size:60px;"">+</div>","null","html-keyboard-response","400","292885","0.0-6.0-0.197","REGA","1","f","rechts","23","","fixation","","","",""
"686","img/90_180.png","74","image-keyboard-response","401","293585","0.0-6.0-1.197","REGA","1","f","rechts","23","","","self","j","90","true"
"null","<div style=""font-size:60px;"">+</div>","null","html-keyboard-response","402","293964","0.0-6.0-0.198","REGA","1","f","rechts","23","","fixation","","","",""
"620","img/0_30.png","74","image-keyboard-response","403","294598","0.0-6.0-1.198","REGA","1","f","rechts","23","","","self","j","0","true"
"null","<div style=""font-size:60px;"">+</div>","null","html-keyboard-response","404","295026","0.0-6.0-0.199","REGA","1","f","rechts","23","","fixation","","","",""
"604","img/0_240.png","70","image-keyboard-response","405","295643","0.0-6.0-1.199","REGA","1","f","rechts","23","","","self","f","0","true"
"null","<div style=""font-size:60px;"">+</div>","null","html-keyboard-response","406","296025","0.0-6.0-0.200","REGA","1","f","rechts","23","","fixation","","","",""
"754","img/150_180.png","74","image-keyboard-response","407","296793","0.0-6.0-1.200","REGA","1","f","rechts","23","","","self","j","150","true"
"null","<div style=""font-size:60px;"">+</div>","null","html-keyboard-response","408","297197","0.0-6.0-0.201","REGA","1","f","rechts","23","","fixation","","","",""
"591","img/0_60.png","74","image-keyboard-response","409","297801","0.0-6.0-1.201","REGA","1","f","rechts","23","","","self","j","0","true"
"null","<div style=""font-size:60px;"">+</div>","null","html-keyboard-response","410","298259","0.0-6.0-0.202","REGA","1","f","rechts","23","","fixation","","","",""
"1376","img/30_300.png","70","image-keyboard-response","411","299649","0.0-6.0-1.202","REGA","1","f","rechts","23","","","self","f","30","true"
"null","<div style=""font-size:60px;"">+</div>","null","html-keyboard-response","412","300166","0.0-6.0-0.203","REGA","1","f","rechts","23","","fixation","","","",""
"876","img/L150_180.png","70","image-keyboard-response","413","301055","0.0-6.0-1.203","REGA","1","f","rechts","23","","","self","f","150","true"
"null","<div style=""font-size:60px;"">+</div>","null","html-keyboard-response","414","301418","0.0-6.0-0.204","REGA","1","f","rechts","23","","fixation","","","",""
"974","img/90_300.png","70","image-keyboard-response","415","302405","0.0-6.0-1.204","REGA","1","f","rechts","23","","","self","f","90","true"
"null","<div style=""font-size:60px;"">+</div>","null","html-keyboard-response","416","302887","0.0-6.0-0.205","REGA","1","f","rechts","23","","fixation","","","",""
"686","img/120_210.png","74","image-keyboard-response","417","303585","0.0-6.0-1.205","REGA","1","f","rechts","23","","","self","j","120","true"
"null","<div style=""font-size:60px;"">+</div>","null","html-keyboard-response","418","303903","0.0-6.0-0.206","REGA","1","f","rechts","23","","fixation","","","",""
"614","img/0_300.png","70","image-keyboard-response","419","304531","0.0-6.0-1.206","REGA","1","f","rechts","23","","","self","f","0","true"
"null","<div style=""font-size:60px;"">+</div>","null","html-keyboard-response","420","304841","0.0-6.0-0.207","REGA","1","f","rechts","23","","fixation","","","",""
"633","img/0_210.png","70","image-keyboard-response","421","305487","0.0-6.0-1.207","REGA","1","f","rechts","23","","","self","f","0","true"
"3663","<p>Du hast in 97% der Versuche korrekt entschieden.</p><p>Deine durchschnittliche Reaktionszeit war  902ms.</p><p>Dr&uuml;cke eine beliebige Taste, um die Session zu beenden. Vielen Dank!</p>","74","html-keyboard-response","422","309155","0.0-7.0","REGA","1","f","rechts","23","","","","","",""
