"rt","stimulus","key_press","trial_type","trial_index","time_elapsed","internal_node_id","subject","session","sex","handedness","age","responses","test_part","condition","correct_response","angle","correct"
"1849","<p>Mental Rotation Experiment.</p> <p>Dr&uuml;cke eine beliebige Taste, um anzufangen.</p>","72","html-keyboard-response","0","1885","0.0-0.0","REGA","3","f","rechts","23","","","","","",""
"4988","","","survey-text","1","6880","0.0-1.0","REGA","3","f","rechts","23","{""Q0"":""REGA""}","","","","",""
"4570","","","survey-text","2","11450","0.0-2.0","REGA","3","f","rechts","23","{""Q0"":""3""}","","","","",""
"10639","","","survey-multi-choice","3","22094","0.0-3.0","REGA","3","f","rechts","23","{""Q0"":""f"",""Q1"":""rechts""}","","","","",""
"4081","","","survey-text","4","26176","0.0-4.0","REGA","3","f","rechts","23","{""Q0"":""23""}","","","","",""
"9275","<p> Stell dir vor, dass du vor einem runden Tisch stehst, auf dem sich ein blauer Ball am Tischrand befindet. Entlang des Tischrands ist jeweils ein verschieden langer Pfeil. Nun bewegst du dich entlang dieses Pfeils bis an seine Spitze. Wenn du am Ende des Pfeils angekommen bist, schau zur Tischmitte. </p> <img src='img/90_180.png'></img> <br> <p>Entscheide dann, ob der Ball von deiner neuen (vorgestellten) Position links oder rechts von dir liegt.</p> <p>Dr&uuml;cke die <strong>'f'</strong>-Taste f&uuml;r links, die <strong>'j'</strong>-Taste f&uuml;r rechts.</p> <br><p> Das Bild wird jeweils 1 Sekunde lang pr&auml;sentiert. Du hast 3 Sekunden Zeit eine Entscheidung zu treffen.</p>","70","html-keyboard-response","5","35459","0.0-5.0","REGA","3","f","rechts","23","","","","","",""
"null","<div style=""font-size:60px;"">+</div>","null","html-keyboard-response","6","36997","0.0-6.0-0.0","REGA","3","f","rechts","23","","fixation","","","",""
"877","img/90_180.png","74","image-keyboard-response","7","37885","0.0-6.0-1.0","REGA","3","f","rechts","23","","","self","j","90","true"
"null","<div style=""font-size:60px;"">+</div>","null","html-keyboard-response","8","38350","0.0-6.0-0.1","REGA","3","f","rechts","23","","fixation","","","",""
"704","img/L60_180.png","70","image-keyboard-response","9","39072","0.0-6.0-1.1","REGA","3","f","rechts","23","","","self","f","60","true"
"null","<div style=""font-size:60px;"">+</div>","null","html-keyboard-response","10","39552","0.0-6.0-0.2","REGA","3","f","rechts","23","","fixation","","","",""
"918","img/30_300.png","70","image-keyboard-response","11","40489","0.0-6.0-1.2","REGA","3","f","rechts","23","","","self","f","30","true"
"null","<div style=""font-size:60px;"">+</div>","null","html-keyboard-response","12","41023","0.0-6.0-0.3","REGA","3","f","rechts","23","","fixation","","","",""
"1202","img/30_240.png","70","image-keyboard-response","13","42242","0.0-6.0-1.3","REGA","3","f","rechts","23","","","self","f","30","true"
"null","<div style=""font-size:60px;"">+</div>","null","html-keyboard-response","14","42767","0.0-6.0-0.4","REGA","3","f","rechts","23","","fixation","","","",""
"650","img/0_270.png","70","image-keyboard-response","15","43459","0.0-6.0-1.4","REGA","3","f","rechts","23","","","self","f","0","true"
"null","<div style=""font-size:60px;"">+</div>","null","html-keyboard-response","16","43788","0.0-6.0-0.5","REGA","3","f","rechts","23","","fixation","","","",""
"933","img/90_300.png","70","image-keyboard-response","17","44740","0.0-6.0-1.5","REGA","3","f","rechts","23","","","self","f","90","true"
"null","<div style=""font-size:60px;"">+</div>","null","html-keyboard-response","18","45149","0.0-6.0-0.6","REGA","3","f","rechts","23","","fixation","","","",""
"678","img/0_240.png","70","image-keyboard-response","19","45845","0.0-6.0-1.6","REGA","3","f","rechts","23","","","self","f","0","true"
"null","<div style=""font-size:60px;"">+</div>","null","html-keyboard-response","20","46368","0.0-6.0-0.7","REGA","3","f","rechts","23","","fixation","","","",""
"662","img/0_150.png","74","image-keyboard-response","21","47047","0.0-6.0-1.7","REGA","3","f","rechts","23","","","self","j","0","true"
"null","<div style=""font-size:60px;"">+</div>","null","html-keyboard-response","22","47350","0.0-6.0-0.8","REGA","3","f","rechts","23","","fixation","","","",""
"971","img/90_240.png","74","image-keyboard-response","23","48343","0.0-6.0-1.8","REGA","3","f","rechts","23","","","self","j","90","true"
"null","<div style=""font-size:60px;"">+</div>","null","html-keyboard-response","24","48694","0.0-6.0-0.9","REGA","3","f","rechts","23","","fixation","","","",""
"796","img/90_210.png","74","image-keyboard-response","25","49510","0.0-6.0-1.9","REGA","3","f","rechts","23","","","self","j","90","true"
"null","<div style=""font-size:60px;"">+</div>","null","html-keyboard-response","26","50024","0.0-6.0-0.10","REGA","3","f","rechts","23","","fixation","","","",""
"676","img/120_270.png","74","image-keyboard-response","27","50716","0.0-6.0-1.10","REGA","3","f","rechts","23","","","self","j","120","true"
"null","<div style=""font-size:60px;"">+</div>","null","html-keyboard-response","28","51148","0.0-6.0-0.11","REGA","3","f","rechts","23","","fixation","","","",""
"640","img/0_90.png","74","image-keyboard-response","29","51805","0.0-6.0-1.11","REGA","3","f","rechts","23","","","self","j","0","true"
"null","<div style=""font-size:60px;"">+</div>","null","html-keyboard-response","30","52273","0.0-6.0-0.12","REGA","3","f","rechts","23","","fixation","","","",""
"908","img/90_60.png","74","image-keyboard-response","31","53199","0.0-6.0-1.12","REGA","3","f","rechts","23","","","self","j","90","true"
"null","<div style=""font-size:60px;"">+</div>","null","html-keyboard-response","32","53619","0.0-6.0-0.13","REGA","3","f","rechts","23","","fixation","","","",""
"922","img/120_150.png","70","image-keyboard-response","33","54562","0.0-6.0-1.13","REGA","3","f","rechts","23","","","self","f","120","true"
"null","<div style=""font-size:60px;"">+</div>","null","html-keyboard-response","34","55071","0.0-6.0-0.14","REGA","3","f","rechts","23","","fixation","","","",""
"999","img/90_330.png","70","image-keyboard-response","35","56094","0.0-6.0-1.14","REGA","3","f","rechts","23","","","self","f","90","true"
"null","<div style=""font-size:60px;"">+</div>","null","html-keyboard-response","36","56446","0.0-6.0-0.15","REGA","3","f","rechts","23","","fixation","","","",""
"955","img/30_90.png","74","image-keyboard-response","37","57420","0.0-6.0-1.15","REGA","3","f","rechts","23","","","self","j","30","true"
"null","<div style=""font-size:60px;"">+</div>","null","html-keyboard-response","38","57776","0.0-6.0-0.16","REGA","3","f","rechts","23","","fixation","","","",""
"901","img/90_30.png","74","image-keyboard-response","39","58714","0.0-6.0-1.16","REGA","3","f","rechts","23","","","self","j","90","true"
"null","<div style=""font-size:60px;"">+</div>","null","html-keyboard-response","40","59227","0.0-6.0-0.17","REGA","3","f","rechts","23","","fixation","","","",""
"1043","img/150_60.png","70","image-keyboard-response","41","60287","0.0-6.0-1.17","REGA","3","f","rechts","23","","","self","f","150","true"
"null","<div style=""font-size:60px;"">+</div>","null","html-keyboard-response","42","60759","0.0-6.0-0.18","REGA","3","f","rechts","23","","fixation","","","",""
"1100","img/30_270.png","70","image-keyboard-response","43","61887","0.0-6.0-1.18","REGA","3","f","rechts","23","","","self","f","30","true"
"null","<div style=""font-size:60px;"">+</div>","null","html-keyboard-response","44","62257","0.0-6.0-0.19","REGA","3","f","rechts","23","","fixation","","","",""
"847","img/60_150.png","70","image-keyboard-response","45","63124","0.0-6.0-1.19","REGA","3","f","rechts","23","","","self","f","60","true"
"null","<div style=""font-size:60px;"">+</div>","null","html-keyboard-response","46","63543","0.0-6.0-0.20","REGA","3","f","rechts","23","","fixation","","","",""
"1083","img/60_270.png","70","image-keyboard-response","47","64643","0.0-6.0-1.20","REGA","3","f","rechts","23","","","self","f","60","true"
"null","<div style=""font-size:60px;"">+</div>","null","html-keyboard-response","48","65152","0.0-6.0-0.21","REGA","3","f","rechts","23","","fixation","","","",""
"879","img/150_300.png","74","image-keyboard-response","49","66051","0.0-6.0-1.21","REGA","3","f","rechts","23","","","self","j","150","true"
"null","<div style=""font-size:60px;"">+</div>","null","html-keyboard-response","50","66510","0.0-6.0-0.22","REGA","3","f","rechts","23","","fixation","","","",""
"882","img/150_90.png","70","image-keyboard-response","51","67411","0.0-6.0-1.22","REGA","3","f","rechts","23","","","self","f","150","true"
"null","<div style=""font-size:60px;"">+</div>","null","html-keyboard-response","52","67886","0.0-6.0-0.23","REGA","3","f","rechts","23","","fixation","","","",""
"632","img/0_210.png","70","image-keyboard-response","53","68536","0.0-6.0-1.23","REGA","3","f","rechts","23","","","self","f","0","true"
"null","<div style=""font-size:60px;"">+</div>","null","html-keyboard-response","54","69042","0.0-6.0-0.24","REGA","3","f","rechts","23","","fixation","","","",""
"748","img/L150_180.png","70","image-keyboard-response","55","69807","0.0-6.0-1.24","REGA","3","f","rechts","23","","","self","f","150","true"
"null","<div style=""font-size:60px;"">+</div>","null","html-keyboard-response","56","70324","0.0-6.0-0.25","REGA","3","f","rechts","23","","fixation","","","",""
"723","img/L120_180.png","70","image-keyboard-response","57","71066","0.0-6.0-1.25","REGA","3","f","rechts","23","","","self","f","120","true"
"null","<div style=""font-size:60px;"">+</div>","null","html-keyboard-response","58","71493","0.0-6.0-0.26","REGA","3","f","rechts","23","","fixation","","","",""
"863","img/120_180.png","74","image-keyboard-response","59","72373","0.0-6.0-1.26","REGA","3","f","rechts","23","","","self","j","120","true"
"null","<div style=""font-size:60px;"">+</div>","null","html-keyboard-response","60","72885","0.0-6.0-0.27","REGA","3","f","rechts","23","","fixation","","","",""
"851","img/150_180.png","74","image-keyboard-response","61","73755","0.0-6.0-1.27","REGA","3","f","rechts","23","","","self","j","150","true"
"null","<div style=""font-size:60px;"">+</div>","null","html-keyboard-response","62","74217","0.0-6.0-0.28","REGA","3","f","rechts","23","","fixation","","","",""
"622","img/0_60.png","74","image-keyboard-response","63","74858","0.0-6.0-1.28","REGA","3","f","rechts","23","","","self","j","0","true"
"null","<div style=""font-size:60px;"">+</div>","null","html-keyboard-response","64","75309","0.0-6.0-0.29","REGA","3","f","rechts","23","","fixation","","","",""
"689","img/0_300.png","70","image-keyboard-response","65","76017","0.0-6.0-1.29","REGA","3","f","rechts","23","","","self","f","0","true"
"null","<div style=""font-size:60px;"">+</div>","null","html-keyboard-response","66","76347","0.0-6.0-0.30","REGA","3","f","rechts","23","","fixation","","","",""
"776","img/90_150.png","70","image-keyboard-response","67","77143","0.0-6.0-1.30","REGA","3","f","rechts","23","","","self","f","90","true"
"null","<div style=""font-size:60px;"">+</div>","null","html-keyboard-response","68","77503","0.0-6.0-0.31","REGA","3","f","rechts","23","","fixation","","","",""
"779","img/150_240.png","74","image-keyboard-response","69","78300","0.0-6.0-1.31","REGA","3","f","rechts","23","","","self","j","150","true"
"null","<div style=""font-size:60px;"">+</div>","null","html-keyboard-response","70","78764","0.0-6.0-0.32","REGA","3","f","rechts","23","","fixation","","","",""
"764","img/L90_180.png","70","image-keyboard-response","71","79549","0.0-6.0-1.32","REGA","3","f","rechts","23","","","self","f","90","true"
"null","<div style=""font-size:60px;"">+</div>","null","html-keyboard-response","72","80061","0.0-6.0-0.33","REGA","3","f","rechts","23","","fixation","","","",""
"754","img/120_90.png","70","image-keyboard-response","73","80831","0.0-6.0-1.33","REGA","3","f","rechts","23","","","self","f","120","true"
"null","<div style=""font-size:60px;"">+</div>","null","html-keyboard-response","74","81343","0.0-6.0-0.34","REGA","3","f","rechts","23","","fixation","","","",""
"734","img/150_120.png","70","image-keyboard-response","75","82094","0.0-6.0-1.34","REGA","3","f","rechts","23","","","self","f","150","true"
"null","<div style=""font-size:60px;"">+</div>","null","html-keyboard-response","76","82467","0.0-6.0-0.35","REGA","3","f","rechts","23","","fixation","","","",""
"610","img/0_30.png","74","image-keyboard-response","77","83094","0.0-6.0-1.35","REGA","3","f","rechts","23","","","self","j","0","true"
"null","<div style=""font-size:60px;"">+</div>","null","html-keyboard-response","78","83497","0.0-6.0-0.36","REGA","3","f","rechts","23","","fixation","","","",""
"757","img/60_30.png","74","image-keyboard-response","79","84276","0.0-6.0-1.36","REGA","3","f","rechts","23","","","self","j","60","true"
"null","<div style=""font-size:60px;"">+</div>","null","html-keyboard-response","80","84701","0.0-6.0-0.37","REGA","3","f","rechts","23","","fixation","","","",""
"869","img/30_60.png","74","image-keyboard-response","81","85591","0.0-6.0-1.37","REGA","3","f","rechts","23","","","self","j","30","true"
"null","<div style=""font-size:60px;"">+</div>","null","html-keyboard-response","82","85998","0.0-6.0-0.38","REGA","3","f","rechts","23","","fixation","","","",""
"725","img/30_120.png","74","image-keyboard-response","83","86740","0.0-6.0-1.38","REGA","3","f","rechts","23","","","self","j","30","true"
"null","<div style=""font-size:60px;"">+</div>","null","html-keyboard-response","84","87044","0.0-6.0-0.39","REGA","3","f","rechts","23","","fixation","","","",""
"1026","img/30_180.png","74","image-keyboard-response","85","88089","0.0-6.0-1.39","REGA","3","f","rechts","23","","","self","j","30","true"
"null","<div style=""font-size:60px;"">+</div>","null","html-keyboard-response","86","88547","0.0-6.0-0.40","REGA","3","f","rechts","23","","fixation","","","",""
"796","img/90_120.png","70","image-keyboard-response","87","89360","0.0-6.0-1.40","REGA","3","f","rechts","23","","","self","f","90","true"
"null","<div style=""font-size:60px;"">+</div>","null","html-keyboard-response","88","89719","0.0-6.0-0.41","REGA","3","f","rechts","23","","fixation","","","",""
"907","img/120_210.png","74","image-keyboard-response","89","90643","0.0-6.0-1.41","REGA","3","f","rechts","23","","","self","j","120","true"
"null","<div style=""font-size:60px;"">+</div>","null","html-keyboard-response","90","91156","0.0-6.0-0.42","REGA","3","f","rechts","23","","fixation","","","",""
"808","img/60_90.png","74","image-keyboard-response","91","91981","0.0-6.0-1.42","REGA","3","f","rechts","23","","","self","j","60","true"
"null","<div style=""font-size:60px;"">+</div>","null","html-keyboard-response","92","92500","0.0-6.0-0.43","REGA","3","f","rechts","23","","fixation","","","",""
"1050","img/120_30.png","74","image-keyboard-response","93","93568","0.0-6.0-1.43","REGA","3","f","rechts","23","","","self","j","120","true"
"null","<div style=""font-size:60px;"">+</div>","null","html-keyboard-response","94","93874","0.0-6.0-0.44","REGA","3","f","rechts","23","","fixation","","","",""
"1097","img/60_210.png","74","image-keyboard-response","95","94995","0.0-6.0-1.44","REGA","3","f","rechts","23","","","self","j","60","true"
"null","<div style=""font-size:60px;"">+</div>","null","html-keyboard-response","96","95360","0.0-6.0-0.45","REGA","3","f","rechts","23","","fixation","","","",""
"596","img/0_330.png","70","image-keyboard-response","97","95973","0.0-6.0-1.45","REGA","3","f","rechts","23","","","self","f","0","true"
"null","<div style=""font-size:60px;"">+</div>","null","html-keyboard-response","98","96437","0.0-6.0-0.46","REGA","3","f","rechts","23","","fixation","","","",""
"1074","img/60_330.png","70","image-keyboard-response","99","97528","0.0-6.0-1.46","REGA","3","f","rechts","23","","","self","f","60","true"
"null","<div style=""font-size:60px;"">+</div>","null","html-keyboard-response","100","97858","0.0-6.0-0.47","REGA","3","f","rechts","23","","fixation","","","",""
"811","img/60_180.png","74","image-keyboard-response","101","98686","0.0-6.0-1.47","REGA","3","f","rechts","23","","","self","j","60","true"
"null","<div style=""font-size:60px;"">+</div>","null","html-keyboard-response","102","99111","0.0-6.0-0.48","REGA","3","f","rechts","23","","fixation","","","",""
"1210","img/120_330.png","70","image-keyboard-response","103","100340","0.0-6.0-1.48","REGA","3","f","rechts","23","","","self","f","120","true"
"null","<div style=""font-size:60px;"">+</div>","null","html-keyboard-response","104","100861","0.0-6.0-0.49","REGA","3","f","rechts","23","","fixation","","","",""
"798","img/150_270.png","74","image-keyboard-response","105","101679","0.0-6.0-1.49","REGA","3","f","rechts","23","","","self","j","150","true"
"null","<div style=""font-size:60px;"">+</div>","null","html-keyboard-response","106","102001","0.0-6.0-0.50","REGA","3","f","rechts","23","","fixation","","","",""
"988","img/L30_180.png","70","image-keyboard-response","107","103007","0.0-6.0-1.50","REGA","3","f","rechts","23","","","self","f","30","true"
"null","<div style=""font-size:60px;"">+</div>","null","html-keyboard-response","108","103360","0.0-6.0-0.51","REGA","3","f","rechts","23","","fixation","","","",""
"719","img/0_120.png","74","image-keyboard-response","109","104098","0.0-6.0-1.51","REGA","3","f","rechts","23","","","self","j","0","true"
"null","<div style=""font-size:60px;"">+</div>","null","html-keyboard-response","110","104454","0.0-6.0-0.52","REGA","3","f","rechts","23","","fixation","","","",""
"794","img/90_150.png","70","image-keyboard-response","111","105257","0.0-6.0-1.52","REGA","3","f","rechts","23","","","self","f","90","true"
"null","<div style=""font-size:60px;"">+</div>","null","html-keyboard-response","112","105579","0.0-6.0-0.53","REGA","3","f","rechts","23","","fixation","","","",""
"869","img/150_120.png","70","image-keyboard-response","113","106461","0.0-6.0-1.53","REGA","3","f","rechts","23","","","self","f","150","true"
"null","<div style=""font-size:60px;"">+</div>","null","html-keyboard-response","114","106970","0.0-6.0-0.54","REGA","3","f","rechts","23","","fixation","","","",""
"762","img/90_210.png","74","image-keyboard-response","115","107744","0.0-6.0-1.54","REGA","3","f","rechts","23","","","self","j","90","true"
"null","<div style=""font-size:60px;"">+</div>","null","html-keyboard-response","116","108111","0.0-6.0-0.55","REGA","3","f","rechts","23","","fixation","","","",""
"782","img/60_90.png","74","image-keyboard-response","117","108901","0.0-6.0-1.55","REGA","3","f","rechts","23","","","self","j","60","true"
"null","<div style=""font-size:60px;"">+</div>","null","html-keyboard-response","118","109223","0.0-6.0-0.56","REGA","3","f","rechts","23","","fixation","","","",""
"728","img/150_240.png","74","image-keyboard-response","119","109959","0.0-6.0-1.56","REGA","3","f","rechts","23","","","self","j","150","true"
"null","<div style=""font-size:60px;"">+</div>","null","html-keyboard-response","120","110471","0.0-6.0-0.57","REGA","3","f","rechts","23","","fixation","","","",""
"817","img/L120_180.png","70","image-keyboard-response","121","111298","0.0-6.0-1.57","REGA","3","f","rechts","23","","","self","f","120","true"
"null","<div style=""font-size:60px;"">+</div>","null","html-keyboard-response","122","111814","0.0-6.0-0.58","REGA","3","f","rechts","23","","fixation","","","",""
"944","img/60_150.png","70","image-keyboard-response","123","112772","0.0-6.0-1.58","REGA","3","f","rechts","23","","","self","f","60","true"
"null","<div style=""font-size:60px;"">+</div>","null","html-keyboard-response","124","113080","0.0-6.0-0.59","REGA","3","f","rechts","23","","fixation","","","",""
"788","img/150_60.png","70","image-keyboard-response","125","113882","0.0-6.0-1.59","REGA","3","f","rechts","23","","","self","f","150","true"
"null","<div style=""font-size:60px;"">+</div>","null","html-keyboard-response","126","114349","0.0-6.0-0.60","REGA","3","f","rechts","23","","fixation","","","",""
"845","img/60_180.png","74","image-keyboard-response","127","115201","0.0-6.0-1.60","REGA","3","f","rechts","23","","","self","j","60","true"
"null","<div style=""font-size:60px;"">+</div>","null","html-keyboard-response","128","115613","0.0-6.0-0.61","REGA","3","f","rechts","23","","fixation","","","",""
"926","img/90_300.png","70","image-keyboard-response","129","116552","0.0-6.0-1.61","REGA","3","f","rechts","23","","","self","f","90","true"
"null","<div style=""font-size:60px;"">+</div>","null","html-keyboard-response","130","116910","0.0-6.0-0.62","REGA","3","f","rechts","23","","fixation","","","",""
"722","img/L90_180.png","70","image-keyboard-response","131","117643","0.0-6.0-1.62","REGA","3","f","rechts","23","","","self","f","90","true"
"null","<div style=""font-size:60px;"">+</div>","null","html-keyboard-response","132","117973","0.0-6.0-0.63","REGA","3","f","rechts","23","","fixation","","","",""
"591","img/0_150.png","74","image-keyboard-response","133","118576","0.0-6.0-1.63","REGA","3","f","rechts","23","","","self","j","0","true"
"null","<div style=""font-size:60px;"">+</div>","null","html-keyboard-response","134","119004","0.0-6.0-0.64","REGA","3","f","rechts","23","","fixation","","","",""
"531","img/0_60.png","74","image-keyboard-response","135","119544","0.0-6.0-1.64","REGA","3","f","rechts","23","","","self","j","0","true"
"null","<div style=""font-size:60px;"">+</div>","null","html-keyboard-response","136","119956","0.0-6.0-0.65","REGA","3","f","rechts","23","","fixation","","","",""
"665","img/0_240.png","70","image-keyboard-response","137","120636","0.0-6.0-1.65","REGA","3","f","rechts","23","","","self","f","0","true"
"null","<div style=""font-size:60px;"">+</div>","null","html-keyboard-response","138","121064","0.0-6.0-0.66","REGA","3","f","rechts","23","","fixation","","","",""
"862","img/90_60.png","74","image-keyboard-response","139","121939","0.0-6.0-1.66","REGA","3","f","rechts","23","","","self","j","90","true"
"null","<div style=""font-size:60px;"">+</div>","null","html-keyboard-response","140","122394","0.0-6.0-0.67","REGA","3","f","rechts","23","","fixation","","","",""
"545","img/0_90.png","74","image-keyboard-response","141","122952","0.0-6.0-1.67","REGA","3","f","rechts","23","","","self","j","0","true"
"null","<div style=""font-size:60px;"">+</div>","null","html-keyboard-response","142","123317","0.0-6.0-0.68","REGA","3","f","rechts","23","","fixation","","","",""
"772","img/150_90.png","70","image-keyboard-response","143","124102","0.0-6.0-1.68","REGA","3","f","rechts","23","","","self","f","150","true"
"null","<div style=""font-size:60px;"">+</div>","null","html-keyboard-response","144","124458","0.0-6.0-0.69","REGA","3","f","rechts","23","","fixation","","","",""
"803","img/60_210.png","74","image-keyboard-response","145","125270","0.0-6.0-1.69","REGA","3","f","rechts","23","","","self","j","60","true"
"null","<div style=""font-size:60px;"">+</div>","null","html-keyboard-response","146","125740","0.0-6.0-0.70","REGA","3","f","rechts","23","","fixation","","","",""
"621","img/L150_180.png","70","image-keyboard-response","147","126373","0.0-6.0-1.70","REGA","3","f","rechts","23","","","self","f","150","true"
"null","<div style=""font-size:60px;"">+</div>","null","html-keyboard-response","148","126832","0.0-6.0-0.71","REGA","3","f","rechts","23","","fixation","","","",""
"723","img/L60_180.png","70","image-keyboard-response","149","127565","0.0-6.0-1.71","REGA","3","f","rechts","23","","","self","f","60","true"
"null","<div style=""font-size:60px;"">+</div>","null","html-keyboard-response","150","128021","0.0-6.0-0.72","REGA","3","f","rechts","23","","fixation","","","",""
"620","img/120_180.png","74","image-keyboard-response","151","128656","0.0-6.0-1.72","REGA","3","f","rechts","23","","","self","j","120","true"
"null","<div style=""font-size:60px;"">+</div>","null","html-keyboard-response","152","129083","0.0-6.0-0.73","REGA","3","f","rechts","23","","fixation","","","",""
"744","img/60_30.png","74","image-keyboard-response","153","129838","0.0-6.0-1.73","REGA","3","f","rechts","23","","","self","j","60","true"
"null","<div style=""font-size:60px;"">+</div>","null","html-keyboard-response","154","130209","0.0-6.0-0.74","REGA","3","f","rechts","23","","fixation","","","",""
"539","img/0_210.png","70","image-keyboard-response","155","130761","0.0-6.0-1.74","REGA","3","f","rechts","23","","","self","f","0","true"
"null","<div style=""font-size:60px;"">+</div>","null","html-keyboard-response","156","131270","0.0-6.0-0.75","REGA","3","f","rechts","23","","fixation","","","",""
"663","img/150_270.png","74","image-keyboard-response","157","131944","0.0-6.0-1.75","REGA","3","f","rechts","23","","","self","j","150","true"
"null","<div style=""font-size:60px;"">+</div>","null","html-keyboard-response","158","132255","0.0-6.0-0.76","REGA","3","f","rechts","23","","fixation","","","",""
"564","img/0_270.png","70","image-keyboard-response","159","132831","0.0-6.0-1.76","REGA","3","f","rechts","23","","","self","f","0","true"
"null","<div style=""font-size:60px;"">+</div>","null","html-keyboard-response","160","133303","0.0-6.0-0.77","REGA","3","f","rechts","23","","fixation","","","",""
"955","img/30_240.png","70","image-keyboard-response","161","134270","0.0-6.0-1.77","REGA","3","f","rechts","23","","","self","f","30","true"
"null","<div style=""font-size:60px;"">+</div>","null","html-keyboard-response","162","134693","0.0-6.0-0.78","REGA","3","f","rechts","23","","fixation","","","",""
"770","img/150_300.png","74","image-keyboard-response","163","135476","0.0-6.0-1.78","REGA","3","f","rechts","23","","","self","j","150","true"
"null","<div style=""font-size:60px;"">+</div>","null","html-keyboard-response","164","135989","0.0-6.0-0.79","REGA","3","f","rechts","23","","fixation","","","",""
"737","img/30_120.png","74","image-keyboard-response","165","136735","0.0-6.0-1.79","REGA","3","f","rechts","23","","","self","j","30","true"
"null","<div style=""font-size:60px;"">+</div>","null","html-keyboard-response","166","137100","0.0-6.0-0.80","REGA","3","f","rechts","23","","fixation","","","",""
"793","img/90_330.png","70","image-keyboard-response","167","137905","0.0-6.0-1.80","REGA","3","f","rechts","23","","","self","f","90","true"
"null","<div style=""font-size:60px;"">+</div>","null","html-keyboard-response","168","138225","0.0-6.0-0.81","REGA","3","f","rechts","23","","fixation","","","",""
"972","img/30_60.png","74","image-keyboard-response","169","139209","0.0-6.0-1.81","REGA","3","f","rechts","23","","","self","j","30","true"
"null","<div style=""font-size:60px;"">+</div>","null","html-keyboard-response","170","139679","0.0-6.0-0.82","REGA","3","f","rechts","23","","fixation","","","",""
"710","img/30_270.png","70","image-keyboard-response","171","140403","0.0-6.0-1.82","REGA","3","f","rechts","23","","","self","f","30","true"
"null","<div style=""font-size:60px;"">+</div>","null","html-keyboard-response","172","140725","0.0-6.0-0.83","REGA","3","f","rechts","23","","fixation","","","",""
"551","img/0_120.png","74","image-keyboard-response","173","141287","0.0-6.0-1.83","REGA","3","f","rechts","23","","","self","j","0","true"
"null","<div style=""font-size:60px;"">+</div>","null","html-keyboard-response","174","141804","0.0-6.0-0.84","REGA","3","f","rechts","23","","fixation","","","",""
"920","img/120_30.png","74","image-keyboard-response","175","142734","0.0-6.0-1.84","REGA","3","f","rechts","23","","","self","j","120","true"
"null","<div style=""font-size:60px;"">+</div>","null","html-keyboard-response","176","143101","0.0-6.0-0.85","REGA","3","f","rechts","23","","fixation","","","",""
"617","img/0_30.png","74","image-keyboard-response","177","143732","0.0-6.0-1.85","REGA","3","f","rechts","23","","","self","j","0","true"
"null","<div style=""font-size:60px;"">+</div>","null","html-keyboard-response","178","144085","0.0-6.0-0.86","REGA","3","f","rechts","23","","fixation","","","",""
"850","img/120_270.png","74","image-keyboard-response","179","144947","0.0-6.0-1.86","REGA","3","f","rechts","23","","","self","j","120","true"
"null","<div style=""font-size:60px;"">+</div>","null","html-keyboard-response","180","145323","0.0-6.0-0.87","REGA","3","f","rechts","23","","fixation","","","",""
"555","img/0_300.png","70","image-keyboard-response","181","145891","0.0-6.0-1.87","REGA","3","f","rechts","23","","","self","f","0","true"
"null","<div style=""font-size:60px;"">+</div>","null","html-keyboard-response","182","146199","0.0-6.0-0.88","REGA","3","f","rechts","23","","fixation","","","",""
"968","img/60_330.png","70","image-keyboard-response","183","147176","0.0-6.0-1.88","REGA","3","f","rechts","23","","","self","f","60","true"
"null","<div style=""font-size:60px;"">+</div>","null","html-keyboard-response","184","147544","0.0-6.0-0.89","REGA","3","f","rechts","23","","fixation","","","",""
"856","img/90_120.png","70","image-keyboard-response","185","148412","0.0-6.0-1.89","REGA","3","f","rechts","23","","","self","f","90","true"
"null","<div style=""font-size:60px;"">+</div>","null","html-keyboard-response","186","148793","0.0-6.0-0.90","REGA","3","f","rechts","23","","fixation","","","",""
"721","img/150_180.png","74","image-keyboard-response","187","149528","0.0-6.0-1.90","REGA","3","f","rechts","23","","","self","j","150","true"
"null","<div style=""font-size:60px;"">+</div>","null","html-keyboard-response","188","149948","0.0-6.0-0.91","REGA","3","f","rechts","23","","fixation","","","",""
"705","img/120_210.png","74","image-keyboard-response","189","150662","0.0-6.0-1.91","REGA","3","f","rechts","23","","","self","j","120","true"
"null","<div style=""font-size:60px;"">+</div>","null","html-keyboard-response","190","151025","0.0-6.0-0.92","REGA","3","f","rechts","23","","fixation","","","",""
"1108","img/60_270.png","70","image-keyboard-response","191","152147","0.0-6.0-1.92","REGA","3","f","rechts","23","","","self","f","60","true"
"null","<div style=""font-size:60px;"">+</div>","null","html-keyboard-response","192","152652","0.0-6.0-0.93","REGA","3","f","rechts","23","","fixation","","","",""
"924","img/L30_180.png","70","image-keyboard-response","193","153586","0.0-6.0-1.93","REGA","3","f","rechts","23","","","self","f","30","true"
"null","<div style=""font-size:60px;"">+</div>","null","html-keyboard-response","194","154106","0.0-6.0-0.94","REGA","3","f","rechts","23","","fixation","","","",""
"554","img/0_330.png","70","image-keyboard-response","195","154665","0.0-6.0-1.94","REGA","3","f","rechts","23","","","self","f","0","true"
"null","<div style=""font-size:60px;"">+</div>","null","html-keyboard-response","196","155075","0.0-6.0-0.95","REGA","3","f","rechts","23","","fixation","","","",""
"881","img/90_30.png","74","image-keyboard-response","197","155972","0.0-6.0-1.95","REGA","3","f","rechts","23","","","self","j","90","true"
"null","<div style=""font-size:60px;"">+</div>","null","html-keyboard-response","198","156278","0.0-6.0-0.96","REGA","3","f","rechts","23","","fixation","","","",""
"680","img/30_90.png","74","image-keyboard-response","199","156972","0.0-6.0-1.96","REGA","3","f","rechts","23","","","self","j","30","true"
"null","<div style=""font-size:60px;"">+</div>","null","html-keyboard-response","200","157403","0.0-6.0-0.97","REGA","3","f","rechts","23","","fixation","","","",""
"1009","img/90_240.png","74","image-keyboard-response","201","158425","0.0-6.0-1.97","REGA","3","f","rechts","23","","","self","j","90","true"
"null","<div style=""font-size:60px;"">+</div>","null","html-keyboard-response","202","158840","0.0-6.0-0.98","REGA","3","f","rechts","23","","fixation","","","",""
"1402","img/120_330.png","70","image-keyboard-response","203","160248","0.0-6.0-1.98","REGA","3","f","rechts","23","","","self","f","120","true"
"null","<div style=""font-size:60px;"">+</div>","null","html-keyboard-response","204","160622","0.0-6.0-0.99","REGA","3","f","rechts","23","","fixation","","","",""
"759","img/120_150.png","70","image-keyboard-response","205","161394","0.0-6.0-1.99","REGA","3","f","rechts","23","","","self","f","120","true"
"null","<div style=""font-size:60px;"">+</div>","null","html-keyboard-response","206","161920","0.0-6.0-0.100","REGA","3","f","rechts","23","","fixation","","","",""
"864","img/120_90.png","70","image-keyboard-response","207","162798","0.0-6.0-1.100","REGA","3","f","rechts","23","","","self","f","120","true"
"null","<div style=""font-size:60px;"">+</div>","null","html-keyboard-response","208","163214","0.0-6.0-0.101","REGA","3","f","rechts","23","","fixation","","","",""
"947","img/30_180.png","74","image-keyboard-response","209","164175","0.0-6.0-1.101","REGA","3","f","rechts","23","","","self","j","30","true"
"null","<div style=""font-size:60px;"">+</div>","null","html-keyboard-response","210","164686","0.0-6.0-0.102","REGA","3","f","rechts","23","","fixation","","","",""
"938","img/30_300.png","70","image-keyboard-response","211","165637","0.0-6.0-1.102","REGA","3","f","rechts","23","","","self","f","30","true"
"null","<div style=""font-size:60px;"">+</div>","null","html-keyboard-response","212","166092","0.0-6.0-0.103","REGA","3","f","rechts","23","","fixation","","","",""
"869","img/90_180.png","74","image-keyboard-response","213","166974","0.0-6.0-1.103","REGA","3","f","rechts","23","","","self","j","90","true"
"null","<div style=""font-size:60px;"">+</div>","null","html-keyboard-response","214","167297","0.0-6.0-0.104","REGA","3","f","rechts","23","","fixation","","","",""
"1016","img/90_300.png","70","image-keyboard-response","215","168326","0.0-6.0-1.104","REGA","3","f","rechts","23","","","self","f","90","true"
"null","<div style=""font-size:60px;"">+</div>","null","html-keyboard-response","216","168842","0.0-6.0-0.105","REGA","3","f","rechts","23","","fixation","","","",""
"722","img/60_270.png","70","image-keyboard-response","217","169573","0.0-6.0-1.105","REGA","3","f","rechts","23","","","self","f","60","true"
"null","<div style=""font-size:60px;"">+</div>","null","html-keyboard-response","218","170077","0.0-6.0-0.106","REGA","3","f","rechts","23","","fixation","","","",""
"580","img/0_90.png","74","image-keyboard-response","219","170667","0.0-6.0-1.106","REGA","3","f","rechts","23","","","self","j","0","true"
"null","<div style=""font-size:60px;"">+</div>","null","html-keyboard-response","220","171123","0.0-6.0-0.107","REGA","3","f","rechts","23","","fixation","","","",""
"542","img/0_300.png","70","image-keyboard-response","221","171676","0.0-6.0-1.107","REGA","3","f","rechts","23","","","self","f","0","true"
"null","<div style=""font-size:60px;"">+</div>","null","html-keyboard-response","222","172201","0.0-6.0-0.108","REGA","3","f","rechts","23","","fixation","","","",""
"526","img/0_330.png","70","image-keyboard-response","223","172736","0.0-6.0-1.108","REGA","3","f","rechts","23","","","self","f","0","true"
"null","<div style=""font-size:60px;"">+</div>","null","html-keyboard-response","224","173061","0.0-6.0-0.109","REGA","3","f","rechts","23","","fixation","","","",""
"606","img/0_150.png","74","image-keyboard-response","225","173680","0.0-6.0-1.109","REGA","3","f","rechts","23","","","self","j","0","true"
"null","<div style=""font-size:60px;"">+</div>","null","html-keyboard-response","226","174094","0.0-6.0-0.110","REGA","3","f","rechts","23","","fixation","","","",""
"703","img/90_180.png","74","image-keyboard-response","227","174807","0.0-6.0-1.110","REGA","3","f","rechts","23","","","self","j","90","true"
"null","<div style=""font-size:60px;"">+</div>","null","html-keyboard-response","228","175266","0.0-6.0-0.111","REGA","3","f","rechts","23","","fixation","","","",""
"629","img/150_120.png","70","image-keyboard-response","229","175908","0.0-6.0-1.111","REGA","3","f","rechts","23","","","self","f","150","true"
"null","<div style=""font-size:60px;"">+</div>","null","html-keyboard-response","230","176376","0.0-6.0-0.112","REGA","3","f","rechts","23","","fixation","","","",""
"996","img/120_30.png","74","image-keyboard-response","231","177382","0.0-6.0-1.112","REGA","3","f","rechts","23","","","self","j","120","true"
"null","<div style=""font-size:60px;"">+</div>","null","html-keyboard-response","232","177858","0.0-6.0-0.113","REGA","3","f","rechts","23","","fixation","","","",""
"914","img/60_150.png","70","image-keyboard-response","233","178787","0.0-6.0-1.113","REGA","3","f","rechts","23","","","self","f","60","true"
"null","<div style=""font-size:60px;"">+</div>","null","html-keyboard-response","234","179094","0.0-6.0-0.114","REGA","3","f","rechts","23","","fixation","","","",""
"907","img/60_90.png","74","image-keyboard-response","235","180015","0.0-6.0-1.114","REGA","3","f","rechts","23","","","self","j","60","true"
"null","<div style=""font-size:60px;"">+</div>","null","html-keyboard-response","236","180345","0.0-6.0-0.115","REGA","3","f","rechts","23","","fixation","","","",""
"1042","img/150_300.png","74","image-keyboard-response","237","181397","0.0-6.0-1.115","REGA","3","f","rechts","23","","","self","j","150","true"
"null","<div style=""font-size:60px;"">+</div>","null","html-keyboard-response","238","181813","0.0-6.0-0.116","REGA","3","f","rechts","23","","fixation","","","",""
"843","img/90_150.png","70","image-keyboard-response","239","182669","0.0-6.0-1.116","REGA","3","f","rechts","23","","","self","f","90","true"
"null","<div style=""font-size:60px;"">+</div>","null","html-keyboard-response","240","183033","0.0-6.0-0.117","REGA","3","f","rechts","23","","fixation","","","",""
"681","img/30_60.png","74","image-keyboard-response","241","183725","0.0-6.0-1.117","REGA","3","f","rechts","23","","","self","j","30","true"
"null","<div style=""font-size:60px;"">+</div>","null","html-keyboard-response","242","184190","0.0-6.0-0.118","REGA","3","f","rechts","23","","fixation","","","",""
"853","img/150_90.png","70","image-keyboard-response","243","185054","0.0-6.0-1.118","REGA","3","f","rechts","23","","","self","f","150","true"
"null","<div style=""font-size:60px;"">+</div>","null","html-keyboard-response","244","185473","0.0-6.0-0.119","REGA","3","f","rechts","23","","fixation","","","",""
"727","img/90_210.png","74","image-keyboard-response","245","186213","0.0-6.0-1.119","REGA","3","f","rechts","23","","","self","j","90","true"
"null","<div style=""font-size:60px;"">+</div>","null","html-keyboard-response","246","186675","0.0-6.0-0.120","REGA","3","f","rechts","23","","fixation","","","",""
"1161","img/30_240.png","70","image-keyboard-response","247","187845","0.0-6.0-1.120","REGA","3","f","rechts","23","","","self","f","30","true"
"null","<div style=""font-size:60px;"">+</div>","null","html-keyboard-response","248","188267","0.0-6.0-0.121","REGA","3","f","rechts","23","","fixation","","","",""
"995","img/30_180.png","74","image-keyboard-response","249","189272","0.0-6.0-1.121","REGA","3","f","rechts","23","","","self","j","30","true"
"null","<div style=""font-size:60px;"">+</div>","null","html-keyboard-response","250","189785","0.0-6.0-0.122","REGA","3","f","rechts","23","","fixation","","","",""
"656","img/150_180.png","74","image-keyboard-response","251","190453","0.0-6.0-1.122","REGA","3","f","rechts","23","","","self","j","150","true"
"null","<div style=""font-size:60px;"">+</div>","null","html-keyboard-response","252","190971","0.0-6.0-0.123","REGA","3","f","rechts","23","","fixation","","","",""
"1216","img/30_270.png","70","image-keyboard-response","253","192197","0.0-6.0-1.123","REGA","3","f","rechts","23","","","self","f","30","true"
"null","<div style=""font-size:60px;"">+</div>","null","html-keyboard-response","254","192502","0.0-6.0-0.124","REGA","3","f","rechts","23","","fixation","","","",""
"790","img/L30_180.png","70","image-keyboard-response","255","193302","0.0-6.0-1.124","REGA","3","f","rechts","23","","","self","f","30","true"
"null","<div style=""font-size:60px;"">+</div>","null","html-keyboard-response","256","193832","0.0-6.0-0.125","REGA","3","f","rechts","23","","fixation","","","",""
"684","img/120_150.png","70","image-keyboard-response","257","194527","0.0-6.0-1.125","REGA","3","f","rechts","23","","","self","f","120","true"
"null","<div style=""font-size:60px;"">+</div>","null","html-keyboard-response","258","194957","0.0-6.0-0.126","REGA","3","f","rechts","23","","fixation","","","",""
"632","img/0_60.png","74","image-keyboard-response","259","195596","0.0-6.0-1.126","REGA","3","f","rechts","23","","","self","j","0","true"
"null","<div style=""font-size:60px;"">+</div>","null","html-keyboard-response","260","196051","0.0-6.0-0.127","REGA","3","f","rechts","23","","fixation","","","",""
"818","img/120_270.png","74","image-keyboard-response","261","196879","0.0-6.0-1.127","REGA","3","f","rechts","23","","","self","j","120","true"
"null","<div style=""font-size:60px;"">+</div>","null","html-keyboard-response","262","197253","0.0-6.0-0.128","REGA","3","f","rechts","23","","fixation","","","",""
"578","img/0_270.png","70","image-keyboard-response","263","197845","0.0-6.0-1.128","REGA","3","f","rechts","23","","","self","f","0","true"
"null","<div style=""font-size:60px;"">+</div>","null","html-keyboard-response","264","198207","0.0-6.0-0.129","REGA","3","f","rechts","23","","fixation","","","",""
"738","img/L60_180.png","70","image-keyboard-response","265","198958","0.0-6.0-1.129","REGA","3","f","rechts","23","","","self","f","60","true"
"null","<div style=""font-size:60px;"">+</div>","null","html-keyboard-response","266","199333","0.0-6.0-0.130","REGA","3","f","rechts","23","","fixation","","","",""
"844","img/30_90.png","74","image-keyboard-response","267","200187","0.0-6.0-1.130","REGA","3","f","rechts","23","","","self","j","30","true"
"null","<div style=""font-size:60px;"">+</div>","null","html-keyboard-response","268","200504","0.0-6.0-0.131","REGA","3","f","rechts","23","","fixation","","","",""
"521","img/0_120.png","74","image-keyboard-response","269","201038","0.0-6.0-1.131","REGA","3","f","rechts","23","","","self","j","0","true"
"null","<div style=""font-size:60px;"">+</div>","null","html-keyboard-response","270","201566","0.0-6.0-0.132","REGA","3","f","rechts","23","","fixation","","","",""
"913","img/150_240.png","74","image-keyboard-response","271","202492","0.0-6.0-1.132","REGA","3","f","rechts","23","","","self","j","150","true"
"null","<div style=""font-size:60px;"">+</div>","null","html-keyboard-response","272","202973","0.0-6.0-0.133","REGA","3","f","rechts","23","","fixation","","","",""
"1477","img/120_330.png","70","image-keyboard-response","273","204459","0.0-6.0-1.133","REGA","3","f","rechts","23","","","self","f","120","true"
"null","<div style=""font-size:60px;"">+</div>","null","html-keyboard-response","274","204819","0.0-6.0-0.134","REGA","3","f","rechts","23","","fixation","","","",""
"1059","img/30_300.png","70","image-keyboard-response","275","205888","0.0-6.0-1.134","REGA","3","f","rechts","23","","","self","f","30","true"
"null","<div style=""font-size:60px;"">+</div>","null","html-keyboard-response","276","206192","0.0-6.0-0.135","REGA","3","f","rechts","23","","fixation","","","",""
"810","img/150_270.png","74","image-keyboard-response","277","207015","0.0-6.0-1.135","REGA","3","f","rechts","23","","","self","j","150","true"
"null","<div style=""font-size:60px;"">+</div>","null","html-keyboard-response","278","207489","0.0-6.0-0.136","REGA","3","f","rechts","23","","fixation","","","",""
"715","img/150_60.png","70","image-keyboard-response","279","208218","0.0-6.0-1.136","REGA","3","f","rechts","23","","","self","f","150","true"
"null","<div style=""font-size:60px;"">+</div>","null","html-keyboard-response","280","208631","0.0-6.0-0.137","REGA","3","f","rechts","23","","fixation","","","",""
"848","img/90_120.png","70","image-keyboard-response","281","209489","0.0-6.0-1.137","REGA","3","f","rechts","23","","","self","f","90","true"
"null","<div style=""font-size:60px;"">+</div>","null","html-keyboard-response","282","209864","0.0-6.0-0.138","REGA","3","f","rechts","23","","fixation","","","",""
"785","img/120_210.png","74","image-keyboard-response","283","210661","0.0-6.0-1.138","REGA","3","f","rechts","23","","","self","j","120","true"
"null","<div style=""font-size:60px;"">+</div>","null","html-keyboard-response","284","210990","0.0-6.0-0.139","REGA","3","f","rechts","23","","fixation","","","",""
"557","img/0_30.png","74","image-keyboard-response","285","211560","0.0-6.0-1.139","REGA","3","f","rechts","23","","","self","j","0","true"
"null","<div style=""font-size:60px;"">+</div>","null","html-keyboard-response","286","211927","0.0-6.0-0.140","REGA","3","f","rechts","23","","fixation","","","",""
"798","img/60_30.png","74","image-keyboard-response","287","212742","0.0-6.0-1.140","REGA","3","f","rechts","23","","","self","j","60","true"
"null","<div style=""font-size:60px;"">+</div>","null","html-keyboard-response","288","213068","0.0-6.0-0.141","REGA","3","f","rechts","23","","fixation","","","",""
"863","img/60_210.png","74","image-keyboard-response","289","213943","0.0-6.0-1.141","REGA","3","f","rechts","23","","","self","j","60","true"
"null","<div style=""font-size:60px;"">+</div>","null","html-keyboard-response","290","214410","0.0-6.0-0.142","REGA","3","f","rechts","23","","fixation","","","",""
"880","img/30_120.png","74","image-keyboard-response","291","215306","0.0-6.0-1.142","REGA","3","f","rechts","23","","","self","j","30","true"
"null","<div style=""font-size:60px;"">+</div>","null","html-keyboard-response","292","215723","0.0-6.0-0.143","REGA","3","f","rechts","23","","fixation","","","",""
"749","img/120_180.png","74","image-keyboard-response","293","216485","0.0-6.0-1.143","REGA","3","f","rechts","23","","","self","j","120","true"
"null","<div style=""font-size:60px;"">+</div>","null","html-keyboard-response","294","216801","0.0-6.0-0.144","REGA","3","f","rechts","23","","fixation","","","",""
"718","img/L150_180.png","70","image-keyboard-response","295","217533","0.0-6.0-1.144","REGA","3","f","rechts","23","","","self","f","150","true"
"null","<div style=""font-size:60px;"">+</div>","null","html-keyboard-response","296","217988","0.0-6.0-0.145","REGA","3","f","rechts","23","","fixation","","","",""
"1333","img/60_180.png","74","image-keyboard-response","297","219334","0.0-6.0-1.145","REGA","3","f","rechts","23","","","self","j","60","true"
"null","<div style=""font-size:60px;"">+</div>","null","html-keyboard-response","298","219815","0.0-6.0-0.146","REGA","3","f","rechts","23","","fixation","","","",""
"574","img/0_240.png","70","image-keyboard-response","299","220402","0.0-6.0-1.146","REGA","3","f","rechts","23","","","self","f","0","true"
"null","<div style=""font-size:60px;"">+</div>","null","html-keyboard-response","300","220706","0.0-6.0-0.147","REGA","3","f","rechts","23","","fixation","","","",""
"923","img/90_240.png","74","image-keyboard-response","301","221639","0.0-6.0-1.147","REGA","3","f","rechts","23","","","self","j","90","true"
"null","<div style=""font-size:60px;"">+</div>","null","html-keyboard-response","302","222098","0.0-6.0-0.148","REGA","3","f","rechts","23","","fixation","","","",""
"664","img/L120_180.png","70","image-keyboard-response","303","222776","0.0-6.0-1.148","REGA","3","f","rechts","23","","","self","f","120","true"
"null","<div style=""font-size:60px;"">+</div>","null","html-keyboard-response","304","223285","0.0-6.0-0.149","REGA","3","f","rechts","23","","fixation","","","",""
"625","img/L90_180.png","70","image-keyboard-response","305","223924","0.0-6.0-1.149","REGA","3","f","rechts","23","","","self","f","90","true"
"null","<div style=""font-size:60px;"">+</div>","null","html-keyboard-response","306","224255","0.0-6.0-0.150","REGA","3","f","rechts","23","","fixation","","","",""
"1504","img/90_330.png","74","image-keyboard-response","307","225768","0.0-6.0-1.150","REGA","3","f","rechts","23","","","self","f","90","false"
"null","<div style=""font-size:60px;"">+</div>","null","html-keyboard-response","308","226239","0.0-6.0-0.151","REGA","3","f","rechts","23","","fixation","","","",""
"934","img/60_330.png","70","image-keyboard-response","309","227186","0.0-6.0-1.151","REGA","3","f","rechts","23","","","self","f","60","true"
"null","<div style=""font-size:60px;"">+</div>","null","html-keyboard-response","310","227613","0.0-6.0-0.152","REGA","3","f","rechts","23","","fixation","","","",""
"632","img/0_210.png","70","image-keyboard-response","311","228261","0.0-6.0-1.152","REGA","3","f","rechts","23","","","self","f","0","true"
"null","<div style=""font-size:60px;"">+</div>","null","html-keyboard-response","312","228740","0.0-6.0-0.153","REGA","3","f","rechts","23","","fixation","","","",""
"985","img/90_30.png","74","image-keyboard-response","313","229741","0.0-6.0-1.153","REGA","3","f","rechts","23","","","self","j","90","true"
"null","<div style=""font-size:60px;"">+</div>","null","html-keyboard-response","314","230051","0.0-6.0-0.154","REGA","3","f","rechts","23","","fixation","","","",""
"957","img/120_90.png","70","image-keyboard-response","315","231021","0.0-6.0-1.154","REGA","3","f","rechts","23","","","self","f","120","true"
"null","<div style=""font-size:60px;"">+</div>","null","html-keyboard-response","316","231349","0.0-6.0-0.155","REGA","3","f","rechts","23","","fixation","","","",""
"875","img/90_60.png","74","image-keyboard-response","317","232238","0.0-6.0-1.155","REGA","3","f","rechts","23","","","self","j","90","true"
"null","<div style=""font-size:60px;"">+</div>","null","html-keyboard-response","318","232599","0.0-6.0-0.156","REGA","3","f","rechts","23","","fixation","","","",""
"730","img/60_90.png","74","image-keyboard-response","319","233340","0.0-6.0-1.156","REGA","3","f","rechts","23","","","self","j","60","true"
"null","<div style=""font-size:60px;"">+</div>","null","html-keyboard-response","320","233802","0.0-6.0-0.157","REGA","3","f","rechts","23","","fixation","","","",""
"741","img/90_120.png","70","image-keyboard-response","321","234555","0.0-6.0-1.157","REGA","3","f","rechts","23","","","self","f","90","true"
"null","<div style=""font-size:60px;"">+</div>","null","html-keyboard-response","322","235007","0.0-6.0-0.158","REGA","3","f","rechts","23","","fixation","","","",""
"705","img/30_90.png","74","image-keyboard-response","323","235725","0.0-6.0-1.158","REGA","3","f","rechts","23","","","self","j","30","true"
"null","<div style=""font-size:60px;"">+</div>","null","html-keyboard-response","324","236148","0.0-6.0-0.159","REGA","3","f","rechts","23","","fixation","","","",""
"868","img/120_30.png","74","image-keyboard-response","325","237030","0.0-6.0-1.159","REGA","3","f","rechts","23","","","self","j","120","true"
"null","<div style=""font-size:60px;"">+</div>","null","html-keyboard-response","326","237459","0.0-6.0-0.160","REGA","3","f","rechts","23","","fixation","","","",""
"883","img/90_300.png","70","image-keyboard-response","327","238356","0.0-6.0-1.160","REGA","3","f","rechts","23","","","self","f","90","true"
"null","<div style=""font-size:60px;"">+</div>","null","html-keyboard-response","328","238866","0.0-6.0-0.161","REGA","3","f","rechts","23","","fixation","","","",""
"850","img/120_270.png","74","image-keyboard-response","329","239731","0.0-6.0-1.161","REGA","3","f","rechts","23","","","self","j","120","true"
"null","<div style=""font-size:60px;"">+</div>","null","html-keyboard-response","330","240148","0.0-6.0-0.162","REGA","3","f","rechts","23","","fixation","","","",""
"776","img/90_210.png","74","image-keyboard-response","331","240934","0.0-6.0-1.162","REGA","3","f","rechts","23","","","self","j","90","true"
"null","<div style=""font-size:60px;"">+</div>","null","html-keyboard-response","332","241397","0.0-6.0-0.163","REGA","3","f","rechts","23","","fixation","","","",""
"551","img/0_240.png","70","image-keyboard-response","333","241958","0.0-6.0-1.163","REGA","3","f","rechts","23","","","self","f","0","true"
"null","<div style=""font-size:60px;"">+</div>","null","html-keyboard-response","334","242272","0.0-6.0-0.164","REGA","3","f","rechts","23","","fixation","","","",""
"722","img/0_30.png","74","image-keyboard-response","335","243004","0.0-6.0-1.164","REGA","3","f","rechts","23","","","self","j","0","true"
"null","<div style=""font-size:60px;"">+</div>","null","html-keyboard-response","336","243462","0.0-6.0-0.165","REGA","3","f","rechts","23","","fixation","","","",""
"702","img/L60_180.png","70","image-keyboard-response","337","244174","0.0-6.0-1.165","REGA","3","f","rechts","23","","","self","f","60","true"
"null","<div style=""font-size:60px;"">+</div>","null","html-keyboard-response","338","244540","0.0-6.0-0.166","REGA","3","f","rechts","23","","fixation","","","",""
"749","img/60_180.png","74","image-keyboard-response","339","245299","0.0-6.0-1.166","REGA","3","f","rechts","23","","","self","j","60","true"
"null","<div style=""font-size:60px;"">+</div>","null","html-keyboard-response","340","245729","0.0-6.0-0.167","REGA","3","f","rechts","23","","fixation","","","",""
"731","img/60_210.png","74","image-keyboard-response","341","246469","0.0-6.0-1.167","REGA","3","f","rechts","23","","","self","j","60","true"
"null","<div style=""font-size:60px;"">+</div>","null","html-keyboard-response","342","246899","0.0-6.0-0.168","REGA","3","f","rechts","23","","fixation","","","",""
"713","img/60_270.png","74","image-keyboard-response","343","247628","0.0-6.0-1.168","REGA","3","f","rechts","23","","","self","f","60","false"
"null","<div style=""font-size:60px;"">+</div>","null","html-keyboard-response","344","247993","0.0-6.0-0.169","REGA","3","f","rechts","23","","fixation","","","",""
"709","img/90_330.png","70","image-keyboard-response","345","248707","0.0-6.0-1.169","REGA","3","f","rechts","23","","","self","f","90","true"
"null","<div style=""font-size:60px;"">+</div>","null","html-keyboard-response","346","249079","0.0-6.0-0.170","REGA","3","f","rechts","23","","fixation","","","",""
"765","img/90_150.png","70","image-keyboard-response","347","249855","0.0-6.0-1.170","REGA","3","f","rechts","23","","","self","f","90","true"
"null","<div style=""font-size:60px;"">+</div>","null","html-keyboard-response","348","250219","0.0-6.0-0.171","REGA","3","f","rechts","23","","fixation","","","",""
"725","img/90_180.png","74","image-keyboard-response","349","250958","0.0-6.0-1.171","REGA","3","f","rechts","23","","","self","j","90","true"
"null","<div style=""font-size:60px;"">+</div>","null","html-keyboard-response","350","251373","0.0-6.0-0.172","REGA","3","f","rechts","23","","fixation","","","",""
"851","img/30_180.png","74","image-keyboard-response","351","252240","0.0-6.0-1.172","REGA","3","f","rechts","23","","","self","j","30","true"
"null","<div style=""font-size:60px;"">+</div>","null","html-keyboard-response","352","252594","0.0-6.0-0.173","REGA","3","f","rechts","23","","fixation","","","",""
"885","img/90_60.png","74","image-keyboard-response","353","253489","0.0-6.0-1.173","REGA","3","f","rechts","23","","","self","j","90","true"
"null","<div style=""font-size:60px;"">+</div>","null","html-keyboard-response","354","254008","0.0-6.0-0.174","REGA","3","f","rechts","23","","fixation","","","",""
"884","img/30_300.png","70","image-keyboard-response","355","254905","0.0-6.0-1.174","REGA","3","f","rechts","23","","","self","f","30","true"
"null","<div style=""font-size:60px;"">+</div>","null","html-keyboard-response","356","255369","0.0-6.0-0.175","REGA","3","f","rechts","23","","fixation","","","",""
"835","img/150_240.png","74","image-keyboard-response","357","256212","0.0-6.0-1.175","REGA","3","f","rechts","23","","","self","j","150","true"
"null","<div style=""font-size:60px;"">+</div>","null","html-keyboard-response","358","256635","0.0-6.0-0.176","REGA","3","f","rechts","23","","fixation","","","",""
"629","img/0_90.png","74","image-keyboard-response","359","257280","0.0-6.0-1.176","REGA","3","f","rechts","23","","","self","j","0","true"
"null","<div style=""font-size:60px;"">+</div>","null","html-keyboard-response","360","257604","0.0-6.0-0.177","REGA","3","f","rechts","23","","fixation","","","",""
"767","img/150_120.png","70","image-keyboard-response","361","258384","0.0-6.0-1.177","REGA","3","f","rechts","23","","","self","f","150","true"
"null","<div style=""font-size:60px;"">+</div>","null","html-keyboard-response","362","258837","0.0-6.0-0.178","REGA","3","f","rechts","23","","fixation","","","",""
"1009","img/150_270.png","74","image-keyboard-response","363","259858","0.0-6.0-1.178","REGA","3","f","rechts","23","","","self","j","150","true"
"null","<div style=""font-size:60px;"">+</div>","null","html-keyboard-response","364","260167","0.0-6.0-0.179","REGA","3","f","rechts","23","","fixation","","","",""
"811","img/60_150.png","70","image-keyboard-response","365","260991","0.0-6.0-1.179","REGA","3","f","rechts","23","","","self","f","60","true"
"null","<div style=""font-size:60px;"">+</div>","null","html-keyboard-response","366","261508","0.0-6.0-0.180","REGA","3","f","rechts","23","","fixation","","","",""
"640","img/0_330.png","70","image-keyboard-response","367","262162","0.0-6.0-1.180","REGA","3","f","rechts","23","","","self","f","0","true"
"null","<div style=""font-size:60px;"">+</div>","null","html-keyboard-response","368","262618","0.0-6.0-0.181","REGA","3","f","rechts","23","","fixation","","","",""
"1094","img/L30_180.png","70","image-keyboard-response","369","263728","0.0-6.0-1.181","REGA","3","f","rechts","23","","","self","f","30","true"
"null","<div style=""font-size:60px;"">+</div>","null","html-keyboard-response","370","264089","0.0-6.0-0.182","REGA","3","f","rechts","23","","fixation","","","",""
"718","img/L120_180.png","70","image-keyboard-response","371","264819","0.0-6.0-1.182","REGA","3","f","rechts","23","","","self","f","120","true"
"null","<div style=""font-size:60px;"">+</div>","null","html-keyboard-response","372","265199","0.0-6.0-0.183","REGA","3","f","rechts","23","","fixation","","","",""
"607","img/120_150.png","70","image-keyboard-response","373","265819","0.0-6.0-1.183","REGA","3","f","rechts","23","","","self","f","120","true"
"null","<div style=""font-size:60px;"">+</div>","null","html-keyboard-response","374","266151","0.0-6.0-0.184","REGA","3","f","rechts","23","","fixation","","","",""
"1073","img/30_270.png","70","image-keyboard-response","375","267237","0.0-6.0-1.184","REGA","3","f","rechts","23","","","self","f","30","true"
"null","<div style=""font-size:60px;"">+</div>","null","html-keyboard-response","376","267651","0.0-6.0-0.185","REGA","3","f","rechts","23","","fixation","","","",""
"573","img/0_270.png","70","image-keyboard-response","377","268239","0.0-6.0-1.185","REGA","3","f","rechts","23","","","self","f","0","true"
"null","<div style=""font-size:60px;"">+</div>","null","html-keyboard-response","378","268698","0.0-6.0-0.186","REGA","3","f","rechts","23","","fixation","","","",""
"742","img/90_240.png","74","image-keyboard-response","379","269450","0.0-6.0-1.186","REGA","3","f","rechts","23","","","self","j","90","true"
"null","<div style=""font-size:60px;"">+</div>","null","html-keyboard-response","380","269808","0.0-6.0-0.187","REGA","3","f","rechts","23","","fixation","","","",""
"806","img/60_30.png","74","image-keyboard-response","381","270625","0.0-6.0-1.187","REGA","3","f","rechts","23","","","self","j","60","true"
"null","<div style=""font-size:60px;"">+</div>","null","html-keyboard-response","382","271152","0.0-6.0-0.188","REGA","3","f","rechts","23","","fixation","","","",""
"919","img/30_240.png","70","image-keyboard-response","383","272085","0.0-6.0-1.188","REGA","3","f","rechts","23","","","self","f","30","true"
"null","<div style=""font-size:60px;"">+</div>","null","html-keyboard-response","384","272418","0.0-6.0-0.189","REGA","3","f","rechts","23","","fixation","","","",""
"869","img/150_90.png","70","image-keyboard-response","385","273300","0.0-6.0-1.189","REGA","3","f","rechts","23","","","self","f","150","true"
"null","<div style=""font-size:60px;"">+</div>","null","html-keyboard-response","386","273810","0.0-6.0-0.190","REGA","3","f","rechts","23","","fixation","","","",""
"882","img/30_120.png","74","image-keyboard-response","387","274708","0.0-6.0-1.190","REGA","3","f","rechts","23","","","self","j","30","true"
"null","<div style=""font-size:60px;"">+</div>","null","html-keyboard-response","388","275170","0.0-6.0-0.191","REGA","3","f","rechts","23","","fixation","","","",""
"520","img/0_120.png","74","image-keyboard-response","389","275707","0.0-6.0-1.191","REGA","3","f","rechts","23","","","self","j","0","true"
"null","<div style=""font-size:60px;"">+</div>","null","html-keyboard-response","390","276170","0.0-6.0-0.192","REGA","3","f","rechts","23","","fixation","","","",""
"956","img/60_330.png","70","image-keyboard-response","391","277136","0.0-6.0-1.192","REGA","3","f","rechts","23","","","self","f","60","true"
"null","<div style=""font-size:60px;"">+</div>","null","html-keyboard-response","392","277669","0.0-6.0-0.193","REGA","3","f","rechts","23","","fixation","","","",""
"514","img/0_210.png","70","image-keyboard-response","393","278195","0.0-6.0-1.193","REGA","3","f","rechts","23","","","self","f","0","true"
"null","<div style=""font-size:60px;"">+</div>","null","html-keyboard-response","394","278622","0.0-6.0-0.194","REGA","3","f","rechts","23","","fixation","","","",""
"694","img/150_180.png","74","image-keyboard-response","395","279332","0.0-6.0-1.194","REGA","3","f","rechts","23","","","self","j","150","true"
"null","<div style=""font-size:60px;"">+</div>","null","html-keyboard-response","396","279654","0.0-6.0-0.195","REGA","3","f","rechts","23","","fixation","","","",""
"746","img/0_300.png","70","image-keyboard-response","397","280411","0.0-6.0-1.195","REGA","3","f","rechts","23","","","self","f","0","true"
"null","<div style=""font-size:60px;"">+</div>","null","html-keyboard-response","398","280871","0.0-6.0-0.196","REGA","3","f","rechts","23","","fixation","","","",""
"704","img/L150_180.png","70","image-keyboard-response","399","281581","0.0-6.0-1.196","REGA","3","f","rechts","23","","","self","f","150","true"
"null","<div style=""font-size:60px;"">+</div>","null","html-keyboard-response","400","281903","0.0-6.0-0.197","REGA","3","f","rechts","23","","fixation","","","",""
"588","img/0_150.png","74","image-keyboard-response","401","282506","0.0-6.0-1.197","REGA","3","f","rechts","23","","","self","j","0","true"
"null","<div style=""font-size:60px;"">+</div>","null","html-keyboard-response","402","282982","0.0-6.0-0.198","REGA","3","f","rechts","23","","fixation","","","",""
"1082","img/120_330.png","70","image-keyboard-response","403","284077","0.0-6.0-1.198","REGA","3","f","rechts","23","","","self","f","120","true"
"null","<div style=""font-size:60px;"">+</div>","null","html-keyboard-response","404","284389","0.0-6.0-0.199","REGA","3","f","rechts","23","","fixation","","","",""
"855","img/150_300.png","74","image-keyboard-response","405","285260","0.0-6.0-1.199","REGA","3","f","rechts","23","","","self","j","150","true"
"null","<div style=""font-size:60px;"">+</div>","null","html-keyboard-response","406","285576","0.0-6.0-0.200","REGA","3","f","rechts","23","","fixation","","","",""
"615","img/0_60.png","74","image-keyboard-response","407","286204","0.0-6.0-1.200","REGA","3","f","rechts","23","","","self","j","0","true"
"null","<div style=""font-size:60px;"">+</div>","null","html-keyboard-response","408","286686","0.0-6.0-0.201","REGA","3","f","rechts","23","","fixation","","","",""
"764","img/30_60.png","74","image-keyboard-response","409","287463","0.0-6.0-1.201","REGA","3","f","rechts","23","","","self","j","30","true"
"null","<div style=""font-size:60px;"">+</div>","null","html-keyboard-response","410","287982","0.0-6.0-0.202","REGA","3","f","rechts","23","","fixation","","","",""
"656","img/120_90.png","70","image-keyboard-response","411","288646","0.0-6.0-1.202","REGA","3","f","rechts","23","","","self","f","120","true"
"null","<div style=""font-size:60px;"">+</div>","null","html-keyboard-response","412","289124","0.0-6.0-0.203","REGA","3","f","rechts","23","","fixation","","","",""
"657","img/L90_180.png","70","image-keyboard-response","413","289794","0.0-6.0-1.203","REGA","3","f","rechts","23","","","self","f","90","true"
"null","<div style=""font-size:60px;"">+</div>","null","html-keyboard-response","414","290310","0.0-6.0-0.204","REGA","3","f","rechts","23","","fixation","","","",""
"617","img/120_180.png","74","image-keyboard-response","415","290940","0.0-6.0-1.204","REGA","3","f","rechts","23","","","self","j","120","true"
"null","<div style=""font-size:60px;"">+</div>","null","html-keyboard-response","416","291403","0.0-6.0-0.205","REGA","3","f","rechts","23","","fixation","","","",""
"808","img/90_30.png","74","image-keyboard-response","417","292224","0.0-6.0-1.205","REGA","3","f","rechts","23","","","self","j","90","true"
"null","<div style=""font-size:60px;"">+</div>","null","html-keyboard-response","418","292576","0.0-6.0-0.206","REGA","3","f","rechts","23","","fixation","","","",""
"1141","img/120_210.png","74","image-keyboard-response","419","293731","0.0-6.0-1.206","REGA","3","f","rechts","23","","","self","j","120","true"
"null","<div style=""font-size:60px;"">+</div>","null","html-keyboard-response","420","294096","0.0-6.0-0.207","REGA","3","f","rechts","23","","fixation","","","",""
"869","img/150_60.png","70","image-keyboard-response","421","294978","0.0-6.0-1.207","REGA","3","f","rechts","23","","","self","f","150","true"
"2932","<p>Du hast in 96% der Versuche korrekt entschieden.</p><p>Deine durchschnittliche Reaktionszeit war  806ms.</p><p>Dr&uuml;cke eine beliebige Taste, um die Session zu beenden. Vielen Dank!</p>","72","html-keyboard-response","422","297914","0.0-7.0","REGA","3","f","rechts","23","","","","","",""
