"rt","stimulus","key_press","trial_type","trial_index","time_elapsed","internal_node_id","subject","session","sex","handedness","age","responses","test_part","condition","correct_response","angle","correct"
"12420","<p>Mental Rotation Experiment.</p> <p>Dr&uuml;cke eine beliebige Taste, um anzufangen.</p>","13","html-keyboard-response","0","12459","0.0-0.0","VASC","1","f","rechts","21","","","","","",""
"4818","","","survey-text","1","17279","0.0-1.0","VASC","1","f","rechts","21","{""Q0"":""VASC""}","","","","",""
"3559","","","survey-text","2","20840","0.0-2.0","VASC","1","f","rechts","21","{""Q0"":""1""}","","","","",""
"3763","","","survey-multi-choice","3","24609","0.0-3.0","VASC","1","f","rechts","21","{""Q0"":""f"",""Q1"":""rechts""}","","","","",""
"9042","","","survey-text","4","33653","0.0-4.0","VASC","1","f","rechts","21","{""Q0"":""21""}","","","","",""
"44908","<p>Stell dir vor, dass du vor einem runden Tisch stehst, auf dem sich ein blauer Ball am Tischrand befindet. Entlang des Tischrands ist jeweils ein verschieden langer Pfeil. Nun bleibst du an deinem Platz vor dem Tisch und rotierst den Tisch entlang des Pfeils (gleiche Richtung und Länge). </p> <img src='img/30_180.png'></img> <br><p> Nachdem du diese (vorgestellte) Rotation durchgef&uuml;hrt hast, schau in Richtung der Tischmitte, und entscheide dann, ob der Ball links oder rechts von dir liegt.</p> <p>Dr&uuml;cke die <strong>'f'</strong>-Taste f&uuml;r links, die <strong>'j'</strong>-Taste f&uuml;r rechts.</p><br><p> Das Bild wird jeweils 1 Sekunde lang pr&auml;sentiert. Du hast 3 Sekunden Zeit eine Entscheidung zu treffen.</p>","13","html-keyboard-response","5","78571","0.0-5.0","VASC","1","f","rechts","21","","","","","",""
"null","<div style=""font-size:60px;"">+</div>","null","html-keyboard-response","6","80099","0.0-6.0-0.0","VASC","1","f","rechts","21","","fixation","","","",""
"1468","img/60_330.png","74","image-keyboard-response","7","81588","0.0-6.0-1.0","VASC","1","f","rechts","21","","","object","j","60","true"
"null","<div style=""font-size:60px;"">+</div>","null","html-keyboard-response","8","82006","0.0-6.0-0.1","VASC","1","f","rechts","21","","fixation","","","",""
"1347","img/120_180.png","70","image-keyboard-response","9","83371","0.0-6.0-1.1","VASC","1","f","rechts","21","","","object","f","120","true"
"null","<div style=""font-size:60px;"">+</div>","null","html-keyboard-response","10","83692","0.0-6.0-0.2","VASC","1","f","rechts","21","","fixation","","","",""
"1359","img/0_240.png","70","image-keyboard-response","11","85071","0.0-6.0-1.2","VASC","1","f","rechts","21","","","object","f","0","true"
"null","<div style=""font-size:60px;"">+</div>","null","html-keyboard-response","12","85378","0.0-6.0-0.3","VASC","1","f","rechts","21","","fixation","","","",""
"944","img/0_330.png","70","image-keyboard-response","13","86327","0.0-6.0-1.3","VASC","1","f","rechts","21","","","object","f","0","true"
"null","<div style=""font-size:60px;"">+</div>","null","html-keyboard-response","14","86806","0.0-6.0-0.4","VASC","1","f","rechts","21","","fixation","","","",""
"1462","img/120_90.png","70","image-keyboard-response","15","88286","0.0-6.0-1.4","VASC","1","f","rechts","21","","","object","f","120","true"
"null","<div style=""font-size:60px;"">+</div>","null","html-keyboard-response","16","88712","0.0-6.0-0.5","VASC","1","f","rechts","21","","fixation","","","",""
"1043","img/150_60.png","70","image-keyboard-response","17","89772","0.0-6.0-1.5","VASC","1","f","rechts","21","","","object","f","150","true"
"null","<div style=""font-size:60px;"">+</div>","null","html-keyboard-response","18","90088","0.0-6.0-0.6","VASC","1","f","rechts","21","","fixation","","","",""
"1098","img/90_330.png","74","image-keyboard-response","19","91202","0.0-6.0-1.6","VASC","1","f","rechts","21","","","object","j","90","true"
"null","<div style=""font-size:60px;"">+</div>","null","html-keyboard-response","20","91667","0.0-6.0-0.7","VASC","1","f","rechts","21","","fixation","","","",""
"1406","img/90_150.png","74","image-keyboard-response","21","93079","0.0-6.0-1.7","VASC","1","f","rechts","21","","","object","j","90","true"
"null","<div style=""font-size:60px;"">+</div>","null","html-keyboard-response","22","93402","0.0-6.0-0.8","VASC","1","f","rechts","21","","fixation","","","",""
"1187","img/30_300.png","74","image-keyboard-response","23","94608","0.0-6.0-1.8","VASC","1","f","rechts","21","","","object","f","30","false"
"null","<div style=""font-size:60px;"">+</div>","null","html-keyboard-response","24","95026","0.0-6.0-0.9","VASC","1","f","rechts","21","","fixation","","","",""
"1479","img/L90_180.png","74","image-keyboard-response","25","96523","0.0-6.0-1.9","VASC","1","f","rechts","21","","","object","j","90","true"
"null","<div style=""font-size:60px;"">+</div>","null","html-keyboard-response","26","96949","0.0-6.0-0.10","VASC","1","f","rechts","21","","fixation","","","",""
"2001","img/L120_180.png","74","image-keyboard-response","27","98970","0.0-6.0-1.10","VASC","1","f","rechts","21","","","object","j","120","true"
"null","<div style=""font-size:60px;"">+</div>","null","html-keyboard-response","28","99278","0.0-6.0-0.11","VASC","1","f","rechts","21","","fixation","","","",""
"1284","img/120_30.png","70","image-keyboard-response","29","100572","0.0-6.0-1.11","VASC","1","f","rechts","21","","","object","f","120","true"
"null","<div style=""font-size:60px;"">+</div>","null","html-keyboard-response","30","101090","0.0-6.0-0.12","VASC","1","f","rechts","21","","fixation","","","",""
"1744","img/60_90.png","70","image-keyboard-response","31","102854","0.0-6.0-1.12","VASC","1","f","rechts","21","","","object","j","60","false"
"null","<div style=""font-size:60px;"">+</div>","null","html-keyboard-response","32","103169","0.0-6.0-0.13","VASC","1","f","rechts","21","","fixation","","","",""
"1492","img/90_300.png","74","image-keyboard-response","33","104679","0.0-6.0-1.13","VASC","1","f","rechts","21","","","object","j","90","true"
"null","<div style=""font-size:60px;"">+</div>","null","html-keyboard-response","34","105091","0.0-6.0-0.14","VASC","1","f","rechts","21","","fixation","","","",""
"1672","img/30_120.png","74","image-keyboard-response","35","106782","0.0-6.0-1.14","VASC","1","f","rechts","21","","","object","j","30","true"
"null","<div style=""font-size:60px;"">+</div>","null","html-keyboard-response","36","107241","0.0-6.0-0.15","VASC","1","f","rechts","21","","fixation","","","",""
"1582","img/60_150.png","74","image-keyboard-response","37","108841","0.0-6.0-1.15","VASC","1","f","rechts","21","","","object","j","60","true"
"null","<div style=""font-size:60px;"">+</div>","null","html-keyboard-response","38","109302","0.0-6.0-0.16","VASC","1","f","rechts","21","","fixation","","","",""
"2318","img/60_270.png","74","image-keyboard-response","39","111636","0.0-6.0-1.16","VASC","1","f","rechts","21","","","object","f","60","false"
"null","<div style=""font-size:60px;"">+</div>","null","html-keyboard-response","40","112116","0.0-6.0-0.17","VASC","1","f","rechts","21","","fixation","","","",""
"1775","img/150_180.png","70","image-keyboard-response","41","113909","0.0-6.0-1.17","VASC","1","f","rechts","21","","","object","f","150","true"
"null","<div style=""font-size:60px;"">+</div>","null","html-keyboard-response","42","114423","0.0-6.0-0.18","VASC","1","f","rechts","21","","fixation","","","",""
"1791","img/120_150.png","74","image-keyboard-response","43","116233","0.0-6.0-1.18","VASC","1","f","rechts","21","","","object","j","120","true"
"null","<div style=""font-size:60px;"">+</div>","null","html-keyboard-response","44","116743","0.0-6.0-0.19","VASC","1","f","rechts","21","","fixation","","","",""
"1949","img/30_180.png","70","image-keyboard-response","45","118703","0.0-6.0-1.19","VASC","1","f","rechts","21","","","object","f","30","true"
"null","<div style=""font-size:60px;"">+</div>","null","html-keyboard-response","46","119230","0.0-6.0-0.20","VASC","1","f","rechts","21","","fixation","","","",""
"2203","img/90_60.png","70","image-keyboard-response","47","121455","0.0-6.0-1.20","VASC","1","f","rechts","21","","","object","f","90","true"
"null","<div style=""font-size:60px;"">+</div>","null","html-keyboard-response","48","121807","0.0-6.0-0.21","VASC","1","f","rechts","21","","fixation","","","",""
"2321","img/90_240.png","74","image-keyboard-response","49","124146","0.0-6.0-1.21","VASC","1","f","rechts","21","","","object","f","90","false"
"null","<div style=""font-size:60px;"">+</div>","null","html-keyboard-response","50","124502","0.0-6.0-0.22","VASC","1","f","rechts","21","","fixation","","","",""
"2247","img/150_120.png","70","image-keyboard-response","51","126768","0.0-6.0-1.22","VASC","1","f","rechts","21","","","object","f","150","true"
"null","<div style=""font-size:60px;"">+</div>","null","html-keyboard-response","52","127076","0.0-6.0-0.23","VASC","1","f","rechts","21","","fixation","","","",""
"1199","img/0_30.png","74","image-keyboard-response","53","128293","0.0-6.0-1.23","VASC","1","f","rechts","21","","","object","j","0","true"
"null","<div style=""font-size:60px;"">+</div>","null","html-keyboard-response","54","128811","0.0-6.0-0.24","VASC","1","f","rechts","21","","fixation","","","",""
"1635","img/150_270.png","74","image-keyboard-response","55","130464","0.0-6.0-1.24","VASC","1","f","rechts","21","","","object","j","150","true"
"null","<div style=""font-size:60px;"">+</div>","null","html-keyboard-response","56","130779","0.0-6.0-0.25","VASC","1","f","rechts","21","","fixation","","","",""
"1747","img/90_180.png","70","image-keyboard-response","57","132545","0.0-6.0-1.25","VASC","1","f","rechts","21","","","object","f","90","true"
"null","<div style=""font-size:60px;"">+</div>","null","html-keyboard-response","58","133070","0.0-6.0-0.26","VASC","1","f","rechts","21","","fixation","","","",""
"1528","img/0_90.png","74","image-keyboard-response","59","134616","0.0-6.0-1.26","VASC","1","f","rechts","21","","","object","j","0","true"
"null","<div style=""font-size:60px;"">+</div>","null","html-keyboard-response","60","135069","0.0-6.0-0.27","VASC","1","f","rechts","21","","fixation","","","",""
"1926","img/60_180.png","70","image-keyboard-response","61","137012","0.0-6.0-1.27","VASC","1","f","rechts","21","","","object","f","60","true"
"null","<div style=""font-size:60px;"">+</div>","null","html-keyboard-response","62","137542","0.0-6.0-0.28","VASC","1","f","rechts","21","","fixation","","","",""
"2344","img/L150_180.png","74","image-keyboard-response","63","139897","0.0-6.0-1.28","VASC","1","f","rechts","21","","","object","j","150","true"
"null","<div style=""font-size:60px;"">+</div>","null","html-keyboard-response","64","140206","0.0-6.0-0.29","VASC","1","f","rechts","21","","fixation","","","",""
"2264","img/150_90.png","70","image-keyboard-response","65","142488","0.0-6.0-1.29","VASC","1","f","rechts","21","","","object","f","150","true"
"null","<div style=""font-size:60px;"">+</div>","null","html-keyboard-response","66","142844","0.0-6.0-0.30","VASC","1","f","rechts","21","","fixation","","","",""
"1585","img/120_270.png","74","image-keyboard-response","67","144446","0.0-6.0-1.30","VASC","1","f","rechts","21","","","object","j","120","true"
"null","<div style=""font-size:60px;"">+</div>","null","html-keyboard-response","68","144876","0.0-6.0-0.31","VASC","1","f","rechts","21","","fixation","","","",""
"1388","img/60_30.png","70","image-keyboard-response","69","146282","0.0-6.0-1.31","VASC","1","f","rechts","21","","","object","f","60","true"
"null","<div style=""font-size:60px;"">+</div>","null","html-keyboard-response","70","146595","0.0-6.0-0.32","VASC","1","f","rechts","21","","fixation","","","",""
"1409","img/L30_180.png","74","image-keyboard-response","71","148026","0.0-6.0-1.32","VASC","1","f","rechts","21","","","object","j","30","true"
"null","<div style=""font-size:60px;"">+</div>","null","html-keyboard-response","72","148390","0.0-6.0-0.33","VASC","1","f","rechts","21","","fixation","","","",""
"1055","img/0_120.png","74","image-keyboard-response","73","149452","0.0-6.0-1.33","VASC","1","f","rechts","21","","","object","j","0","true"
"null","<div style=""font-size:60px;"">+</div>","null","html-keyboard-response","74","149860","0.0-6.0-0.34","VASC","1","f","rechts","21","","fixation","","","",""
"1119","img/0_210.png","70","image-keyboard-response","75","150996","0.0-6.0-1.34","VASC","1","f","rechts","21","","","object","f","0","true"
"null","<div style=""font-size:60px;"">+</div>","null","html-keyboard-response","76","151516","0.0-6.0-0.35","VASC","1","f","rechts","21","","fixation","","","",""
"1687","img/90_210.png","70","image-keyboard-response","77","153224","0.0-6.0-1.35","VASC","1","f","rechts","21","","","object","f","90","true"
"null","<div style=""font-size:60px;"">+</div>","null","html-keyboard-response","78","153696","0.0-6.0-0.36","VASC","1","f","rechts","21","","fixation","","","",""
"1375","img/150_240.png","74","image-keyboard-response","79","155090","0.0-6.0-1.36","VASC","1","f","rechts","21","","","object","j","150","true"
"null","<div style=""font-size:60px;"">+</div>","null","html-keyboard-response","80","155601","0.0-6.0-0.37","VASC","1","f","rechts","21","","fixation","","","",""
"1333","img/0_270.png","70","image-keyboard-response","81","156957","0.0-6.0-1.37","VASC","1","f","rechts","21","","","object","f","0","true"
"null","<div style=""font-size:60px;"">+</div>","null","html-keyboard-response","82","157476","0.0-6.0-0.38","VASC","1","f","rechts","21","","fixation","","","",""
"1287","img/150_300.png","74","image-keyboard-response","83","158770","0.0-6.0-1.38","VASC","1","f","rechts","21","","","object","j","150","true"
"null","<div style=""font-size:60px;"">+</div>","null","html-keyboard-response","84","159273","0.0-6.0-0.39","VASC","1","f","rechts","21","","fixation","","","",""
"939","img/90_30.png","70","image-keyboard-response","85","160232","0.0-6.0-1.39","VASC","1","f","rechts","21","","","object","f","90","true"
"null","<div style=""font-size:60px;"">+</div>","null","html-keyboard-response","86","160696","0.0-6.0-0.40","VASC","1","f","rechts","21","","fixation","","","",""
"1386","img/30_270.png","70","image-keyboard-response","87","162100","0.0-6.0-1.40","VASC","1","f","rechts","21","","","object","f","30","true"
"null","<div style=""font-size:60px;"">+</div>","null","html-keyboard-response","88","162510","0.0-6.0-0.41","VASC","1","f","rechts","21","","fixation","","","",""
"1281","img/30_90.png","74","image-keyboard-response","89","163810","0.0-6.0-1.41","VASC","1","f","rechts","21","","","object","j","30","true"
"null","<div style=""font-size:60px;"">+</div>","null","html-keyboard-response","90","164232","0.0-6.0-0.42","VASC","1","f","rechts","21","","fixation","","","",""
"1188","img/120_330.png","74","image-keyboard-response","91","165438","0.0-6.0-1.42","VASC","1","f","rechts","21","","","object","j","120","true"
"null","<div style=""font-size:60px;"">+</div>","null","html-keyboard-response","92","165842","0.0-6.0-0.43","VASC","1","f","rechts","21","","fixation","","","",""
"1923","img/120_210.png","70","image-keyboard-response","93","167781","0.0-6.0-1.43","VASC","1","f","rechts","21","","","object","f","120","true"
"null","<div style=""font-size:60px;"">+</div>","null","html-keyboard-response","94","168142","0.0-6.0-0.44","VASC","1","f","rechts","21","","fixation","","","",""
"1792","img/L60_180.png","74","image-keyboard-response","95","169953","0.0-6.0-1.44","VASC","1","f","rechts","21","","","object","j","60","true"
"null","<div style=""font-size:60px;"">+</div>","null","html-keyboard-response","96","170468","0.0-6.0-0.45","VASC","1","f","rechts","21","","fixation","","","",""
"1060","img/0_60.png","74","image-keyboard-response","97","171538","0.0-6.0-1.45","VASC","1","f","rechts","21","","","object","j","0","true"
"null","<div style=""font-size:60px;"">+</div>","null","html-keyboard-response","98","171970","0.0-6.0-0.46","VASC","1","f","rechts","21","","fixation","","","",""
"1003","img/0_150.png","74","image-keyboard-response","99","172990","0.0-6.0-1.46","VASC","1","f","rechts","21","","","object","j","0","true"
"null","<div style=""font-size:60px;"">+</div>","null","html-keyboard-response","100","173366","0.0-6.0-0.47","VASC","1","f","rechts","21","","fixation","","","",""
"1333","img/30_240.png","70","image-keyboard-response","101","174720","0.0-6.0-1.47","VASC","1","f","rechts","21","","","object","f","30","true"
"null","<div style=""font-size:60px;"">+</div>","null","html-keyboard-response","102","175232","0.0-6.0-0.48","VASC","1","f","rechts","21","","fixation","","","",""
"1608","img/90_120.png","70","image-keyboard-response","103","176860","0.0-6.0-1.48","VASC","1","f","rechts","21","","","object","j","90","false"
"null","<div style=""font-size:60px;"">+</div>","null","html-keyboard-response","104","177175","0.0-6.0-0.49","VASC","1","f","rechts","21","","fixation","","","",""
"1119","img/0_300.png","70","image-keyboard-response","105","178313","0.0-6.0-1.49","VASC","1","f","rechts","21","","","object","f","0","true"
"null","<div style=""font-size:60px;"">+</div>","null","html-keyboard-response","106","178786","0.0-6.0-0.50","VASC","1","f","rechts","21","","fixation","","","",""
"2348","img/30_60.png","70","image-keyboard-response","107","181150","0.0-6.0-1.50","VASC","1","f","rechts","21","","","object","j","30","false"
"null","<div style=""font-size:60px;"">+</div>","null","html-keyboard-response","108","181616","0.0-6.0-0.51","VASC","1","f","rechts","21","","fixation","","","",""
"2120","img/60_210.png","70","image-keyboard-response","109","183753","0.0-6.0-1.51","VASC","1","f","rechts","21","","","object","f","60","true"
"null","<div style=""font-size:60px;"">+</div>","null","html-keyboard-response","110","184218","0.0-6.0-0.52","VASC","1","f","rechts","21","","fixation","","","",""
"1407","img/L30_180.png","74","image-keyboard-response","111","185635","0.0-6.0-1.52","VASC","1","f","rechts","21","","","object","j","30","true"
"null","<div style=""font-size:60px;"">+</div>","null","html-keyboard-response","112","185937","0.0-6.0-0.53","VASC","1","f","rechts","21","","fixation","","","",""
"1733","img/150_90.png","70","image-keyboard-response","113","187681","0.0-6.0-1.53","VASC","1","f","rechts","21","","","object","f","150","true"
"null","<div style=""font-size:60px;"">+</div>","null","html-keyboard-response","114","188040","0.0-6.0-0.54","VASC","1","f","rechts","21","","fixation","","","",""
"1002","img/0_330.png","70","image-keyboard-response","115","189055","0.0-6.0-1.54","VASC","1","f","rechts","21","","","object","f","0","true"
"null","<div style=""font-size:60px;"">+</div>","null","html-keyboard-response","116","189415","0.0-6.0-0.55","VASC","1","f","rechts","21","","fixation","","","",""
"1330","img/150_300.png","74","image-keyboard-response","117","190754","0.0-6.0-1.55","VASC","1","f","rechts","21","","","object","j","150","true"
"null","<div style=""font-size:60px;"">+</div>","null","html-keyboard-response","118","191056","0.0-6.0-0.56","VASC","1","f","rechts","21","","fixation","","","",""
"1788","img/L90_180.png","74","image-keyboard-response","119","192857","0.0-6.0-1.56","VASC","1","f","rechts","21","","","object","j","90","true"
"null","<div style=""font-size:60px;"">+</div>","null","html-keyboard-response","120","193329","0.0-6.0-0.57","VASC","1","f","rechts","21","","fixation","","","",""
"969","img/0_300.png","70","image-keyboard-response","121","194309","0.0-6.0-1.57","VASC","1","f","rechts","21","","","object","f","0","true"
"null","<div style=""font-size:60px;"">+</div>","null","html-keyboard-response","122","194829","0.0-6.0-0.58","VASC","1","f","rechts","21","","fixation","","","",""
"2171","img/60_150.png","74","image-keyboard-response","123","197013","0.0-6.0-1.58","VASC","1","f","rechts","21","","","object","j","60","true"
"null","<div style=""font-size:60px;"">+</div>","null","html-keyboard-response","124","197478","0.0-6.0-0.59","VASC","1","f","rechts","21","","fixation","","","",""
"2970","img/120_270.png","74","image-keyboard-response","125","200456","0.0-6.0-1.59","VASC","1","f","rechts","21","","","object","j","120","true"
"null","<div style=""font-size:60px;"">+</div>","null","html-keyboard-response","126","200922","0.0-6.0-0.60","VASC","1","f","rechts","21","","fixation","","","",""
"935","img/0_30.png","74","image-keyboard-response","127","201869","0.0-6.0-1.60","VASC","1","f","rechts","21","","","object","j","0","true"
"null","<div style=""font-size:60px;"">+</div>","null","html-keyboard-response","128","202323","0.0-6.0-0.61","VASC","1","f","rechts","21","","fixation","","","",""
"1347","img/0_210.png","70","image-keyboard-response","129","203681","0.0-6.0-1.61","VASC","1","f","rechts","21","","","object","f","0","true"
"null","<div style=""font-size:60px;"">+</div>","null","html-keyboard-response","130","204155","0.0-6.0-0.62","VASC","1","f","rechts","21","","fixation","","","",""
"808","img/0_60.png","74","image-keyboard-response","131","204973","0.0-6.0-1.62","VASC","1","f","rechts","21","","","object","j","0","true"
"null","<div style=""font-size:60px;"">+</div>","null","html-keyboard-response","132","205328","0.0-6.0-0.63","VASC","1","f","rechts","21","","fixation","","","",""
"2675","img/60_330.png","74","image-keyboard-response","133","208016","0.0-6.0-1.63","VASC","1","f","rechts","21","","","object","j","60","true"
"null","<div style=""font-size:60px;"">+</div>","null","html-keyboard-response","134","208419","0.0-6.0-0.64","VASC","1","f","rechts","21","","fixation","","","",""
"1729","img/30_180.png","70","image-keyboard-response","135","210160","0.0-6.0-1.64","VASC","1","f","rechts","21","","","object","f","30","true"
"null","<div style=""font-size:60px;"">+</div>","null","html-keyboard-response","136","210617","0.0-6.0-0.65","VASC","1","f","rechts","21","","fixation","","","",""
"1733","img/90_240.png","74","image-keyboard-response","137","212363","0.0-6.0-1.65","VASC","1","f","rechts","21","","","object","f","90","false"
"null","<div style=""font-size:60px;"">+</div>","null","html-keyboard-response","138","212866","0.0-6.0-0.66","VASC","1","f","rechts","21","","fixation","","","",""
"991","img/0_240.png","70","image-keyboard-response","139","213861","0.0-6.0-1.66","VASC","1","f","rechts","21","","","object","f","0","true"
"null","<div style=""font-size:60px;"">+</div>","null","html-keyboard-response","140","214320","0.0-6.0-0.67","VASC","1","f","rechts","21","","fixation","","","",""
"1780","img/30_270.png","70","image-keyboard-response","141","216110","0.0-6.0-1.67","VASC","1","f","rechts","21","","","object","f","30","true"
"null","<div style=""font-size:60px;"">+</div>","null","html-keyboard-response","142","216522","0.0-6.0-0.68","VASC","1","f","rechts","21","","fixation","","","",""
"2806","img/L150_180.png","74","image-keyboard-response","143","219334","0.0-6.0-1.68","VASC","1","f","rechts","21","","","object","j","150","true"
"null","<div style=""font-size:60px;"">+</div>","null","html-keyboard-response","144","219642","0.0-6.0-0.69","VASC","1","f","rechts","21","","fixation","","","",""
"2477","img/90_60.png","70","image-keyboard-response","145","222135","0.0-6.0-1.69","VASC","1","f","rechts","21","","","object","f","90","true"
"null","<div style=""font-size:60px;"">+</div>","null","html-keyboard-response","146","222615","0.0-6.0-0.70","VASC","1","f","rechts","21","","fixation","","","",""
"796","img/0_90.png","74","image-keyboard-response","147","223424","0.0-6.0-1.70","VASC","1","f","rechts","21","","","object","j","0","true"
"null","<div style=""font-size:60px;"">+</div>","null","html-keyboard-response","148","223740","0.0-6.0-0.71","VASC","1","f","rechts","21","","fixation","","","",""
"1565","img/60_210.png","70","image-keyboard-response","149","225315","0.0-6.0-1.71","VASC","1","f","rechts","21","","","object","f","60","true"
"null","<div style=""font-size:60px;"">+</div>","null","html-keyboard-response","150","225818","0.0-6.0-0.72","VASC","1","f","rechts","21","","fixation","","","",""
"2816","img/90_210.png","74","image-keyboard-response","151","228644","0.0-6.0-1.72","VASC","1","f","rechts","21","","","object","f","90","false"
"null","<div style=""font-size:60px;"">+</div>","null","html-keyboard-response","152","228999","0.0-6.0-0.73","VASC","1","f","rechts","21","","fixation","","","",""
"null","img/90_120.png","null","image-keyboard-response","153","232027","0.0-6.0-1.73","VASC","1","f","rechts","21","","","object","j","90","false"
"null","<div style=""font-size:60px;"">+</div>","null","html-keyboard-response","154","232494","0.0-6.0-0.74","VASC","1","f","rechts","21","","fixation","","","",""
"1862","img/90_150.png","74","image-keyboard-response","155","234371","0.0-6.0-1.74","VASC","1","f","rechts","21","","","object","j","90","true"
"null","<div style=""font-size:60px;"">+</div>","null","html-keyboard-response","156","234740","0.0-6.0-0.75","VASC","1","f","rechts","21","","fixation","","","",""
"1528","img/60_180.png","70","image-keyboard-response","157","236283","0.0-6.0-1.75","VASC","1","f","rechts","21","","","object","f","60","true"
"null","<div style=""font-size:60px;"">+</div>","null","html-keyboard-response","158","236792","0.0-6.0-0.76","VASC","1","f","rechts","21","","fixation","","","",""
"2532","img/30_300.png","74","image-keyboard-response","159","239337","0.0-6.0-1.76","VASC","1","f","rechts","21","","","object","f","30","false"
"null","<div style=""font-size:60px;"">+</div>","null","html-keyboard-response","160","239791","0.0-6.0-0.77","VASC","1","f","rechts","21","","fixation","","","",""
"845","img/0_150.png","74","image-keyboard-response","161","240646","0.0-6.0-1.77","VASC","1","f","rechts","21","","","object","j","0","true"
"null","<div style=""font-size:60px;"">+</div>","null","html-keyboard-response","162","241025","0.0-6.0-0.78","VASC","1","f","rechts","21","","fixation","","","",""
"2396","img/120_210.png","70","image-keyboard-response","163","243431","0.0-6.0-1.78","VASC","1","f","rechts","21","","","object","f","120","true"
"null","<div style=""font-size:60px;"">+</div>","null","html-keyboard-response","164","243896","0.0-6.0-0.79","VASC","1","f","rechts","21","","fixation","","","",""
"1598","img/90_180.png","70","image-keyboard-response","165","245507","0.0-6.0-1.79","VASC","1","f","rechts","21","","","object","f","90","true"
"null","<div style=""font-size:60px;"">+</div>","null","html-keyboard-response","166","245817","0.0-6.0-0.80","VASC","1","f","rechts","21","","fixation","","","",""
"1074","img/30_120.png","74","image-keyboard-response","167","246905","0.0-6.0-1.80","VASC","1","f","rechts","21","","","object","j","30","true"
"null","<div style=""font-size:60px;"">+</div>","null","html-keyboard-response","168","247432","0.0-6.0-0.81","VASC","1","f","rechts","21","","fixation","","","",""
"2691","img/150_120.png","70","image-keyboard-response","169","250137","0.0-6.0-1.81","VASC","1","f","rechts","21","","","object","f","150","true"
"null","<div style=""font-size:60px;"">+</div>","null","html-keyboard-response","170","250555","0.0-6.0-0.82","VASC","1","f","rechts","21","","fixation","","","",""
"1679","img/120_180.png","70","image-keyboard-response","171","252247","0.0-6.0-1.82","VASC","1","f","rechts","21","","","object","f","120","true"
"null","<div style=""font-size:60px;"">+</div>","null","html-keyboard-response","172","252774","0.0-6.0-0.83","VASC","1","f","rechts","21","","fixation","","","",""
"1305","img/90_300.png","74","image-keyboard-response","173","254092","0.0-6.0-1.83","VASC","1","f","rechts","21","","","object","j","90","true"
"null","<div style=""font-size:60px;"">+</div>","null","html-keyboard-response","174","254509","0.0-6.0-0.84","VASC","1","f","rechts","21","","fixation","","","",""
"1076","img/60_30.png","70","image-keyboard-response","175","255597","0.0-6.0-1.84","VASC","1","f","rechts","21","","","object","f","60","true"
"null","<div style=""font-size:60px;"">+</div>","null","html-keyboard-response","176","256056","0.0-6.0-0.85","VASC","1","f","rechts","21","","fixation","","","",""
"2415","img/120_30.png","70","image-keyboard-response","177","258484","0.0-6.0-1.85","VASC","1","f","rechts","21","","","object","f","120","true"
"null","<div style=""font-size:60px;"">+</div>","null","html-keyboard-response","178","258965","0.0-6.0-0.86","VASC","1","f","rechts","21","","fixation","","","",""
"1625","img/150_240.png","74","image-keyboard-response","179","260604","0.0-6.0-1.86","VASC","1","f","rechts","21","","","object","j","150","true"
"null","<div style=""font-size:60px;"">+</div>","null","html-keyboard-response","180","260975","0.0-6.0-0.87","VASC","1","f","rechts","21","","fixation","","","",""
"854","img/0_120.png","74","image-keyboard-response","181","261843","0.0-6.0-1.87","VASC","1","f","rechts","21","","","object","j","0","true"
"null","<div style=""font-size:60px;"">+</div>","null","html-keyboard-response","182","262306","0.0-6.0-0.88","VASC","1","f","rechts","21","","fixation","","","",""
"1673","img/150_270.png","74","image-keyboard-response","183","263993","0.0-6.0-1.88","VASC","1","f","rechts","21","","","object","j","150","true"
"null","<div style=""font-size:60px;"">+</div>","null","html-keyboard-response","184","264322","0.0-6.0-0.89","VASC","1","f","rechts","21","","fixation","","","",""
"1085","img/90_330.png","74","image-keyboard-response","185","265421","0.0-6.0-1.89","VASC","1","f","rechts","21","","","object","j","90","true"
"null","<div style=""font-size:60px;"">+</div>","null","html-keyboard-response","186","265933","0.0-6.0-0.90","VASC","1","f","rechts","21","","fixation","","","",""
"null","img/L60_180.png","null","image-keyboard-response","187","268958","0.0-6.0-1.90","VASC","1","f","rechts","21","","","object","j","60","false"
"null","<div style=""font-size:60px;"">+</div>","null","html-keyboard-response","188","269326","0.0-6.0-0.91","VASC","1","f","rechts","21","","fixation","","","",""
"1515","img/120_150.png","70","image-keyboard-response","189","270855","0.0-6.0-1.91","VASC","1","f","rechts","21","","","object","j","120","false"
"null","<div style=""font-size:60px;"">+</div>","null","html-keyboard-response","190","271324","0.0-6.0-0.92","VASC","1","f","rechts","21","","fixation","","","",""
"1836","img/150_180.png","70","image-keyboard-response","191","273173","0.0-6.0-1.92","VASC","1","f","rechts","21","","","object","f","150","true"
"null","<div style=""font-size:60px;"">+</div>","null","html-keyboard-response","192","273583","0.0-6.0-0.93","VASC","1","f","rechts","21","","fixation","","","",""
"2391","img/60_270.png","70","image-keyboard-response","193","275989","0.0-6.0-1.93","VASC","1","f","rechts","21","","","object","f","60","true"
"null","<div style=""font-size:60px;"">+</div>","null","html-keyboard-response","194","276346","0.0-6.0-0.94","VASC","1","f","rechts","21","","fixation","","","",""
"1626","img/120_90.png","70","image-keyboard-response","195","277985","0.0-6.0-1.94","VASC","1","f","rechts","21","","","object","f","120","true"
"null","<div style=""font-size:60px;"">+</div>","null","html-keyboard-response","196","278506","0.0-6.0-0.95","VASC","1","f","rechts","21","","fixation","","","",""
"1368","img/60_90.png","70","image-keyboard-response","197","279890","0.0-6.0-1.95","VASC","1","f","rechts","21","","","object","j","60","false"
"null","<div style=""font-size:60px;"">+</div>","null","html-keyboard-response","198","280350","0.0-6.0-0.96","VASC","1","f","rechts","21","","fixation","","","",""
"852","img/0_270.png","70","image-keyboard-response","199","281215","0.0-6.0-1.96","VASC","1","f","rechts","21","","","object","f","0","true"
"null","<div style=""font-size:60px;"">+</div>","null","html-keyboard-response","200","281724","0.0-6.0-0.97","VASC","1","f","rechts","21","","fixation","","","",""
"974","img/120_330.png","74","image-keyboard-response","201","282711","0.0-6.0-1.97","VASC","1","f","rechts","21","","","object","j","120","true"
"null","<div style=""font-size:60px;"">+</div>","null","html-keyboard-response","202","283177","0.0-6.0-0.98","VASC","1","f","rechts","21","","fixation","","","",""
"1244","img/90_30.png","70","image-keyboard-response","203","284434","0.0-6.0-1.98","VASC","1","f","rechts","21","","","object","f","90","true"
"null","<div style=""font-size:60px;"">+</div>","null","html-keyboard-response","204","284958","0.0-6.0-0.99","VASC","1","f","rechts","21","","fixation","","","",""
"2528","img/30_60.png","74","image-keyboard-response","205","287498","0.0-6.0-1.99","VASC","1","f","rechts","21","","","object","j","30","true"
"null","<div style=""font-size:60px;"">+</div>","null","html-keyboard-response","206","287964","0.0-6.0-0.100","VASC","1","f","rechts","21","","fixation","","","",""
"1023","img/30_90.png","74","image-keyboard-response","207","289000","0.0-6.0-1.100","VASC","1","f","rechts","21","","","object","j","30","true"
"null","<div style=""font-size:60px;"">+</div>","null","html-keyboard-response","208","289308","0.0-6.0-0.101","VASC","1","f","rechts","21","","fixation","","","",""
"1145","img/30_240.png","70","image-keyboard-response","209","290465","0.0-6.0-1.101","VASC","1","f","rechts","21","","","object","f","30","true"
"null","<div style=""font-size:60px;"">+</div>","null","html-keyboard-response","210","290832","0.0-6.0-0.102","VASC","1","f","rechts","21","","fixation","","","",""
"1508","img/L120_180.png","74","image-keyboard-response","211","292354","0.0-6.0-1.102","VASC","1","f","rechts","21","","","object","j","120","true"
"null","<div style=""font-size:60px;"">+</div>","null","html-keyboard-response","212","292770","0.0-6.0-0.103","VASC","1","f","rechts","21","","fixation","","","",""
"1350","img/150_60.png","70","image-keyboard-response","213","294133","0.0-6.0-1.103","VASC","1","f","rechts","21","","","object","f","150","true"
"null","<div style=""font-size:60px;"">+</div>","null","html-keyboard-response","214","294659","0.0-6.0-0.104","VASC","1","f","rechts","21","","fixation","","","",""
"1040","img/60_330.png","74","image-keyboard-response","215","295704","0.0-6.0-1.104","VASC","1","f","rechts","21","","","object","j","60","true"
"null","<div style=""font-size:60px;"">+</div>","null","html-keyboard-response","216","296114","0.0-6.0-0.105","VASC","1","f","rechts","21","","fixation","","","",""
"1518","img/60_90.png","70","image-keyboard-response","217","297642","0.0-6.0-1.105","VASC","1","f","rechts","21","","","object","j","60","false"
"null","<div style=""font-size:60px;"">+</div>","null","html-keyboard-response","218","298005","0.0-6.0-0.106","VASC","1","f","rechts","21","","fixation","","","",""
"1280","img/150_60.png","70","image-keyboard-response","219","299295","0.0-6.0-1.106","VASC","1","f","rechts","21","","","object","f","150","true"
"null","<div style=""font-size:60px;"">+</div>","null","html-keyboard-response","220","299726","0.0-6.0-0.107","VASC","1","f","rechts","21","","fixation","","","",""
"1622","img/60_210.png","70","image-keyboard-response","221","301352","0.0-6.0-1.107","VASC","1","f","rechts","21","","","object","f","60","true"
"null","<div style=""font-size:60px;"">+</div>","null","html-keyboard-response","222","301667","0.0-6.0-0.108","VASC","1","f","rechts","21","","fixation","","","",""
"1950","img/150_90.png","70","image-keyboard-response","223","303626","0.0-6.0-1.108","VASC","1","f","rechts","21","","","object","f","150","true"
"null","<div style=""font-size:60px;"">+</div>","null","html-keyboard-response","224","304053","0.0-6.0-0.109","VASC","1","f","rechts","21","","fixation","","","",""
"956","img/0_210.png","70","image-keyboard-response","225","305022","0.0-6.0-1.109","VASC","1","f","rechts","21","","","object","f","0","true"
"null","<div style=""font-size:60px;"">+</div>","null","html-keyboard-response","226","305334","0.0-6.0-0.110","VASC","1","f","rechts","21","","fixation","","","",""
"1383","img/90_240.png","74","image-keyboard-response","227","306730","0.0-6.0-1.110","VASC","1","f","rechts","21","","","object","f","90","false"
"null","<div style=""font-size:60px;"">+</div>","null","html-keyboard-response","228","307083","0.0-6.0-0.111","VASC","1","f","rechts","21","","fixation","","","",""
"1484","img/60_180.png","70","image-keyboard-response","229","308577","0.0-6.0-1.111","VASC","1","f","rechts","21","","","object","f","60","true"
"null","<div style=""font-size:60px;"">+</div>","null","html-keyboard-response","230","308942","0.0-6.0-0.112","VASC","1","f","rechts","21","","fixation","","","",""
"1695","img/60_270.png","74","image-keyboard-response","231","310648","0.0-6.0-1.112","VASC","1","f","rechts","21","","","object","f","60","false"
"null","<div style=""font-size:60px;"">+</div>","null","html-keyboard-response","232","311021","0.0-6.0-0.113","VASC","1","f","rechts","21","","fixation","","","",""
"814","img/0_90.png","74","image-keyboard-response","233","311848","0.0-6.0-1.113","VASC","1","f","rechts","21","","","object","j","0","true"
"null","<div style=""font-size:60px;"">+</div>","null","html-keyboard-response","234","312209","0.0-6.0-0.114","VASC","1","f","rechts","21","","fixation","","","",""
"1272","img/30_180.png","70","image-keyboard-response","235","313494","0.0-6.0-1.114","VASC","1","f","rechts","21","","","object","f","30","true"
"null","<div style=""font-size:60px;"">+</div>","null","html-keyboard-response","236","313804","0.0-6.0-0.115","VASC","1","f","rechts","21","","fixation","","","",""
"1160","img/30_270.png","70","image-keyboard-response","237","314978","0.0-6.0-1.115","VASC","1","f","rechts","21","","","object","f","30","true"
"null","<div style=""font-size:60px;"">+</div>","null","html-keyboard-response","238","315396","0.0-6.0-0.116","VASC","1","f","rechts","21","","fixation","","","",""
"894","img/0_300.png","70","image-keyboard-response","239","316304","0.0-6.0-1.116","VASC","1","f","rechts","21","","","object","f","0","true"
"null","<div style=""font-size:60px;"">+</div>","null","html-keyboard-response","240","316768","0.0-6.0-0.117","VASC","1","f","rechts","21","","fixation","","","",""
"1028","img/0_30.png","74","image-keyboard-response","241","317801","0.0-6.0-1.117","VASC","1","f","rechts","21","","","object","j","0","true"
"null","<div style=""font-size:60px;"">+</div>","null","html-keyboard-response","242","318129","0.0-6.0-0.118","VASC","1","f","rechts","21","","fixation","","","",""
"2814","img/90_120.png","74","image-keyboard-response","243","320956","0.0-6.0-1.118","VASC","1","f","rechts","21","","","object","j","90","true"
"null","<div style=""font-size:60px;"">+</div>","null","html-keyboard-response","244","321314","0.0-6.0-0.119","VASC","1","f","rechts","21","","fixation","","","",""
"944","img/0_120.png","74","image-keyboard-response","245","322268","0.0-6.0-1.119","VASC","1","f","rechts","21","","","object","j","0","true"
"null","<div style=""font-size:60px;"">+</div>","null","html-keyboard-response","246","322691","0.0-6.0-0.120","VASC","1","f","rechts","21","","fixation","","","",""
"962","img/90_60.png","70","image-keyboard-response","247","323664","0.0-6.0-1.120","VASC","1","f","rechts","21","","","object","f","90","true"
"null","<div style=""font-size:60px;"">+</div>","null","html-keyboard-response","248","324145","0.0-6.0-0.121","VASC","1","f","rechts","21","","fixation","","","",""
"1598","img/30_60.png","70","image-keyboard-response","249","325752","0.0-6.0-1.121","VASC","1","f","rechts","21","","","object","j","30","false"
"null","<div style=""font-size:60px;"">+</div>","null","html-keyboard-response","250","326269","0.0-6.0-0.122","VASC","1","f","rechts","21","","fixation","","","",""
"2211","img/L150_180.png","74","image-keyboard-response","251","328494","0.0-6.0-1.122","VASC","1","f","rechts","21","","","object","j","150","true"
"null","<div style=""font-size:60px;"">+</div>","null","html-keyboard-response","252","329006","0.0-6.0-0.123","VASC","1","f","rechts","21","","fixation","","","",""
"1318","img/30_90.png","74","image-keyboard-response","253","330335","0.0-6.0-1.123","VASC","1","f","rechts","21","","","object","j","30","true"
"null","<div style=""font-size:60px;"">+</div>","null","html-keyboard-response","254","330695","0.0-6.0-0.124","VASC","1","f","rechts","21","","fixation","","","",""
"773","img/0_60.png","74","image-keyboard-response","255","331482","0.0-6.0-1.124","VASC","1","f","rechts","21","","","object","j","0","true"
"null","<div style=""font-size:60px;"">+</div>","null","html-keyboard-response","256","331947","0.0-6.0-0.125","VASC","1","f","rechts","21","","fixation","","","",""
"2584","img/120_150.png","74","image-keyboard-response","257","334535","0.0-6.0-1.125","VASC","1","f","rechts","21","","","object","j","120","true"
"null","<div style=""font-size:60px;"">+</div>","null","html-keyboard-response","258","334892","0.0-6.0-0.126","VASC","1","f","rechts","21","","fixation","","","",""
"2330","img/120_210.png","74","image-keyboard-response","259","337235","0.0-6.0-1.126","VASC","1","f","rechts","21","","","object","f","120","false"
"null","<div style=""font-size:60px;"">+</div>","null","html-keyboard-response","260","337593","0.0-6.0-0.127","VASC","1","f","rechts","21","","fixation","","","",""
"1290","img/0_330.png","70","image-keyboard-response","261","338896","0.0-6.0-1.127","VASC","1","f","rechts","21","","","object","f","0","true"
"null","<div style=""font-size:60px;"">+</div>","null","html-keyboard-response","262","339217","0.0-6.0-0.128","VASC","1","f","rechts","21","","fixation","","","",""
"1342","img/150_240.png","74","image-keyboard-response","263","340573","0.0-6.0-1.128","VASC","1","f","rechts","21","","","object","j","150","true"
"null","<div style=""font-size:60px;"">+</div>","null","html-keyboard-response","264","340887","0.0-6.0-0.129","VASC","1","f","rechts","21","","fixation","","","",""
"918","img/150_300.png","74","image-keyboard-response","265","341819","0.0-6.0-1.129","VASC","1","f","rechts","21","","","object","j","150","true"
"null","<div style=""font-size:60px;"">+</div>","null","html-keyboard-response","266","342294","0.0-6.0-0.130","VASC","1","f","rechts","21","","fixation","","","",""
"1426","img/L30_180.png","74","image-keyboard-response","267","343732","0.0-6.0-1.130","VASC","1","f","rechts","21","","","object","j","30","true"
"null","<div style=""font-size:60px;"">+</div>","null","html-keyboard-response","268","344184","0.0-6.0-0.131","VASC","1","f","rechts","21","","fixation","","","",""
"null","img/30_240.png","null","image-keyboard-response","269","347206","0.0-6.0-1.131","VASC","1","f","rechts","21","","","object","f","30","false"
"null","<div style=""font-size:60px;"">+</div>","null","html-keyboard-response","270","347614","0.0-6.0-0.132","VASC","1","f","rechts","21","","fixation","","","",""
"1708","img/30_120.png","74","image-keyboard-response","271","349335","0.0-6.0-1.132","VASC","1","f","rechts","21","","","object","j","30","true"
"null","<div style=""font-size:60px;"">+</div>","null","html-keyboard-response","272","349660","0.0-6.0-0.133","VASC","1","f","rechts","21","","fixation","","","",""
"1035","img/0_270.png","70","image-keyboard-response","273","350708","0.0-6.0-1.133","VASC","1","f","rechts","21","","","object","f","0","true"
"null","<div style=""font-size:60px;"">+</div>","null","html-keyboard-response","274","351128","0.0-6.0-0.134","VASC","1","f","rechts","21","","fixation","","","",""
"1242","img/L60_180.png","74","image-keyboard-response","275","352386","0.0-6.0-1.134","VASC","1","f","rechts","21","","","object","j","60","true"
"null","<div style=""font-size:60px;"">+</div>","null","html-keyboard-response","276","352903","0.0-6.0-0.135","VASC","1","f","rechts","21","","fixation","","","",""
"884","img/0_150.png","74","image-keyboard-response","277","353800","0.0-6.0-1.135","VASC","1","f","rechts","21","","","object","j","0","true"
"null","<div style=""font-size:60px;"">+</div>","null","html-keyboard-response","278","354308","0.0-6.0-0.136","VASC","1","f","rechts","21","","fixation","","","",""
"2400","img/30_300.png","74","image-keyboard-response","279","356722","0.0-6.0-1.136","VASC","1","f","rechts","21","","","object","f","30","false"
"null","<div style=""font-size:60px;"">+</div>","null","html-keyboard-response","280","357228","0.0-6.0-0.137","VASC","1","f","rechts","21","","fixation","","","",""
"null","img/60_150.png","null","image-keyboard-response","281","360269","0.0-6.0-1.137","VASC","1","f","rechts","21","","","object","j","60","false"
"null","<div style=""font-size:60px;"">+</div>","null","html-keyboard-response","282","360729","0.0-6.0-0.138","VASC","1","f","rechts","21","","fixation","","","",""
"2730","img/90_150.png","74","image-keyboard-response","283","363472","0.0-6.0-1.138","VASC","1","f","rechts","21","","","object","j","90","true"
"null","<div style=""font-size:60px;"">+</div>","null","html-keyboard-response","284","363883","0.0-6.0-0.139","VASC","1","f","rechts","21","","fixation","","","",""
"1018","img/120_30.png","70","image-keyboard-response","285","364906","0.0-6.0-1.139","VASC","1","f","rechts","21","","","object","f","120","true"
"null","<div style=""font-size:60px;"">+</div>","null","html-keyboard-response","286","365415","0.0-6.0-0.140","VASC","1","f","rechts","21","","fixation","","","",""
"1099","img/90_330.png","74","image-keyboard-response","287","366528","0.0-6.0-1.140","VASC","1","f","rechts","21","","","object","j","90","true"
"null","<div style=""font-size:60px;"">+</div>","null","html-keyboard-response","288","366893","0.0-6.0-0.141","VASC","1","f","rechts","21","","fixation","","","",""
"1620","img/90_180.png","70","image-keyboard-response","289","368519","0.0-6.0-1.141","VASC","1","f","rechts","21","","","object","f","90","true"
"null","<div style=""font-size:60px;"">+</div>","null","html-keyboard-response","290","368986","0.0-6.0-0.142","VASC","1","f","rechts","21","","fixation","","","",""
"1386","img/150_270.png","74","image-keyboard-response","291","370386","0.0-6.0-1.142","VASC","1","f","rechts","21","","","object","j","150","true"
"null","<div style=""font-size:60px;"">+</div>","null","html-keyboard-response","292","370751","0.0-6.0-0.143","VASC","1","f","rechts","21","","fixation","","","",""
"880","img/60_30.png","70","image-keyboard-response","293","371646","0.0-6.0-1.143","VASC","1","f","rechts","21","","","object","f","60","true"
"null","<div style=""font-size:60px;"">+</div>","null","html-keyboard-response","294","372097","0.0-6.0-0.144","VASC","1","f","rechts","21","","fixation","","","",""
"1390","img/L90_180.png","74","image-keyboard-response","295","373499","0.0-6.0-1.144","VASC","1","f","rechts","21","","","object","j","90","true"
"null","<div style=""font-size:60px;"">+</div>","null","html-keyboard-response","296","374002","0.0-6.0-0.145","VASC","1","f","rechts","21","","fixation","","","",""
"1444","img/120_330.png","74","image-keyboard-response","297","375460","0.0-6.0-1.145","VASC","1","f","rechts","21","","","object","j","120","true"
"null","<div style=""font-size:60px;"">+</div>","null","html-keyboard-response","298","375877","0.0-6.0-0.146","VASC","1","f","rechts","21","","fixation","","","",""
"1776","img/150_180.png","70","image-keyboard-response","299","377664","0.0-6.0-1.146","VASC","1","f","rechts","21","","","object","f","150","true"
"null","<div style=""font-size:60px;"">+</div>","null","html-keyboard-response","300","378020","0.0-6.0-0.147","VASC","1","f","rechts","21","","fixation","","","",""
"1577","img/90_30.png","70","image-keyboard-response","301","379610","0.0-6.0-1.147","VASC","1","f","rechts","21","","","object","f","90","true"
"null","<div style=""font-size:60px;"">+</div>","null","html-keyboard-response","302","379973","0.0-6.0-0.148","VASC","1","f","rechts","21","","fixation","","","",""
"2046","img/L120_180.png","74","image-keyboard-response","303","382034","0.0-6.0-1.148","VASC","1","f","rechts","21","","","object","j","120","true"
"null","<div style=""font-size:60px;"">+</div>","null","html-keyboard-response","304","382499","0.0-6.0-0.149","VASC","1","f","rechts","21","","fixation","","","",""
"979","img/0_240.png","70","image-keyboard-response","305","383492","0.0-6.0-1.149","VASC","1","f","rechts","21","","","object","f","0","true"
"null","<div style=""font-size:60px;"">+</div>","null","html-keyboard-response","306","384008","0.0-6.0-0.150","VASC","1","f","rechts","21","","fixation","","","",""
"1067","img/90_300.png","74","image-keyboard-response","307","385088","0.0-6.0-1.150","VASC","1","f","rechts","21","","","object","j","90","true"
"null","<div style=""font-size:60px;"">+</div>","null","html-keyboard-response","308","385415","0.0-6.0-0.151","VASC","1","f","rechts","21","","fixation","","","",""
"1369","img/120_180.png","70","image-keyboard-response","309","386797","0.0-6.0-1.151","VASC","1","f","rechts","21","","","object","f","120","true"
"null","<div style=""font-size:60px;"">+</div>","null","html-keyboard-response","310","387258","0.0-6.0-0.152","VASC","1","f","rechts","21","","fixation","","","",""
"2255","img/120_270.png","74","image-keyboard-response","311","389526","0.0-6.0-1.152","VASC","1","f","rechts","21","","","object","j","120","true"
"null","<div style=""font-size:60px;"">+</div>","null","html-keyboard-response","312","389882","0.0-6.0-0.153","VASC","1","f","rechts","21","","fixation","","","",""
"2572","img/90_210.png","70","image-keyboard-response","313","392461","0.0-6.0-1.153","VASC","1","f","rechts","21","","","object","f","90","true"
"null","<div style=""font-size:60px;"">+</div>","null","html-keyboard-response","314","392974","0.0-6.0-0.154","VASC","1","f","rechts","21","","fixation","","","",""
"2039","img/120_90.png","70","image-keyboard-response","315","395027","0.0-6.0-1.154","VASC","1","f","rechts","21","","","object","f","120","true"
"null","<div style=""font-size:60px;"">+</div>","null","html-keyboard-response","316","395540","0.0-6.0-0.155","VASC","1","f","rechts","21","","fixation","","","",""
"1448","img/150_120.png","70","image-keyboard-response","317","397002","0.0-6.0-1.155","VASC","1","f","rechts","21","","","object","f","150","true"
"null","<div style=""font-size:60px;"">+</div>","null","html-keyboard-response","318","397320","0.0-6.0-0.156","VASC","1","f","rechts","21","","fixation","","","",""
"918","img/0_90.png","74","image-keyboard-response","319","398252","0.0-6.0-1.156","VASC","1","f","rechts","21","","","object","j","0","true"
"null","<div style=""font-size:60px;"">+</div>","null","html-keyboard-response","320","398617","0.0-6.0-0.157","VASC","1","f","rechts","21","","fixation","","","",""
"2935","img/30_60.png","70","image-keyboard-response","321","401564","0.0-6.0-1.157","VASC","1","f","rechts","21","","","object","j","30","false"
"null","<div style=""font-size:60px;"">+</div>","null","html-keyboard-response","322","401966","0.0-6.0-0.158","VASC","1","f","rechts","21","","fixation","","","",""
"812","img/0_270.png","70","image-keyboard-response","323","402784","0.0-6.0-1.158","VASC","1","f","rechts","21","","","object","f","0","true"
"null","<div style=""font-size:60px;"">+</div>","null","html-keyboard-response","324","403310","0.0-6.0-0.159","VASC","1","f","rechts","21","","fixation","","","",""
"996","img/90_300.png","74","image-keyboard-response","325","404317","0.0-6.0-1.159","VASC","1","f","rechts","21","","","object","j","90","true"
"null","<div style=""font-size:60px;"">+</div>","null","html-keyboard-response","326","404623","0.0-6.0-0.160","VASC","1","f","rechts","21","","fixation","","","",""
"973","img/0_30.png","74","image-keyboard-response","327","405611","0.0-6.0-1.160","VASC","1","f","rechts","21","","","object","j","0","true"
"null","<div style=""font-size:60px;"">+</div>","null","html-keyboard-response","328","406123","0.0-6.0-0.161","VASC","1","f","rechts","21","","fixation","","","",""
"2205","img/L120_180.png","74","image-keyboard-response","329","408336","0.0-6.0-1.161","VASC","1","f","rechts","21","","","object","j","120","true"
"null","<div style=""font-size:60px;"">+</div>","null","html-keyboard-response","330","408693","0.0-6.0-0.162","VASC","1","f","rechts","21","","fixation","","","",""
"895","img/0_60.png","74","image-keyboard-response","331","409603","0.0-6.0-1.162","VASC","1","f","rechts","21","","","object","j","0","true"
"null","<div style=""font-size:60px;"">+</div>","null","html-keyboard-response","332","410083","0.0-6.0-0.163","VASC","1","f","rechts","21","","fixation","","","",""
"1063","img/120_180.png","70","image-keyboard-response","333","411156","0.0-6.0-1.163","VASC","1","f","rechts","21","","","object","f","120","true"
"null","<div style=""font-size:60px;"">+</div>","null","html-keyboard-response","334","411677","0.0-6.0-0.164","VASC","1","f","rechts","21","","fixation","","","",""
"1359","img/90_30.png","70","image-keyboard-response","335","413046","0.0-6.0-1.164","VASC","1","f","rechts","21","","","object","f","90","true"
"null","<div style=""font-size:60px;"">+</div>","null","html-keyboard-response","336","413365","0.0-6.0-0.165","VASC","1","f","rechts","21","","fixation","","","",""
"894","img/0_210.png","70","image-keyboard-response","337","414273","0.0-6.0-1.165","VASC","1","f","rechts","21","","","object","f","0","true"
"null","<div style=""font-size:60px;"">+</div>","null","html-keyboard-response","338","414755","0.0-6.0-0.166","VASC","1","f","rechts","21","","fixation","","","",""
"936","img/120_270.png","74","image-keyboard-response","339","415699","0.0-6.0-1.166","VASC","1","f","rechts","21","","","object","j","120","true"
"null","<div style=""font-size:60px;"">+</div>","null","html-keyboard-response","340","416115","0.0-6.0-0.167","VASC","1","f","rechts","21","","fixation","","","",""
"949","img/120_30.png","70","image-keyboard-response","341","417074","0.0-6.0-1.167","VASC","1","f","rechts","21","","","object","f","120","true"
"null","<div style=""font-size:60px;"">+</div>","null","html-keyboard-response","342","417492","0.0-6.0-0.168","VASC","1","f","rechts","21","","fixation","","","",""
"1450","img/L90_180.png","74","image-keyboard-response","343","418952","0.0-6.0-1.168","VASC","1","f","rechts","21","","","object","j","90","true"
"null","<div style=""font-size:60px;"">+</div>","null","html-keyboard-response","344","419477","0.0-6.0-0.169","VASC","1","f","rechts","21","","fixation","","","",""
"1417","img/60_180.png","70","image-keyboard-response","345","420907","0.0-6.0-1.169","VASC","1","f","rechts","21","","","object","f","60","true"
"null","<div style=""font-size:60px;"">+</div>","null","html-keyboard-response","346","421269","0.0-6.0-0.170","VASC","1","f","rechts","21","","fixation","","","",""
"1643","img/150_270.png","74","image-keyboard-response","347","422922","0.0-6.0-1.170","VASC","1","f","rechts","21","","","object","j","150","true"
"null","<div style=""font-size:60px;"">+</div>","null","html-keyboard-response","348","423323","0.0-6.0-0.171","VASC","1","f","rechts","21","","fixation","","","",""
"828","img/0_150.png","74","image-keyboard-response","349","424161","0.0-6.0-1.171","VASC","1","f","rechts","21","","","object","j","0","true"
"null","<div style=""font-size:60px;"">+</div>","null","html-keyboard-response","350","424637","0.0-6.0-0.172","VASC","1","f","rechts","21","","fixation","","","",""
"1023","img/90_330.png","74","image-keyboard-response","351","425671","0.0-6.0-1.172","VASC","1","f","rechts","21","","","object","j","90","true"
"null","<div style=""font-size:60px;"">+</div>","null","html-keyboard-response","352","426032","0.0-6.0-0.173","VASC","1","f","rechts","21","","fixation","","","",""
"1422","img/30_180.png","70","image-keyboard-response","353","427468","0.0-6.0-1.173","VASC","1","f","rechts","21","","","object","f","30","true"
"null","<div style=""font-size:60px;"">+</div>","null","html-keyboard-response","354","427851","0.0-6.0-0.174","VASC","1","f","rechts","21","","fixation","","","",""
"2612","img/120_150.png","74","image-keyboard-response","355","430477","0.0-6.0-1.174","VASC","1","f","rechts","21","","","object","j","120","true"
"null","<div style=""font-size:60px;"">+</div>","null","html-keyboard-response","356","430786","0.0-6.0-0.175","VASC","1","f","rechts","21","","fixation","","","",""
"1181","img/120_210.png","74","image-keyboard-response","357","431980","0.0-6.0-1.175","VASC","1","f","rechts","21","","","object","f","120","false"
"null","<div style=""font-size:60px;"">+</div>","null","html-keyboard-response","358","432447","0.0-6.0-0.176","VASC","1","f","rechts","21","","fixation","","","",""
"1639","img/90_150.png","70","image-keyboard-response","359","434095","0.0-6.0-1.176","VASC","1","f","rechts","21","","","object","j","90","false"
"null","<div style=""font-size:60px;"">+</div>","null","html-keyboard-response","360","434602","0.0-6.0-0.177","VASC","1","f","rechts","21","","fixation","","","",""
"2849","img/L150_180.png","74","image-keyboard-response","361","437464","0.0-6.0-1.177","VASC","1","f","rechts","21","","","object","j","150","true"
"null","<div style=""font-size:60px;"">+</div>","null","html-keyboard-response","362","437975","0.0-6.0-0.178","VASC","1","f","rechts","21","","fixation","","","",""
"1562","img/30_270.png","74","image-keyboard-response","363","439550","0.0-6.0-1.178","VASC","1","f","rechts","21","","","object","f","30","false"
"null","<div style=""font-size:60px;"">+</div>","null","html-keyboard-response","364","439966","0.0-6.0-0.179","VASC","1","f","rechts","21","","fixation","","","",""
"1860","img/90_180.png","70","image-keyboard-response","365","441835","0.0-6.0-1.179","VASC","1","f","rechts","21","","","object","f","90","true"
"null","<div style=""font-size:60px;"">+</div>","null","html-keyboard-response","366","442307","0.0-6.0-0.180","VASC","1","f","rechts","21","","fixation","","","",""
"1573","img/30_300.png","70","image-keyboard-response","367","443893","0.0-6.0-1.180","VASC","1","f","rechts","21","","","object","f","30","true"
"null","<div style=""font-size:60px;"">+</div>","null","html-keyboard-response","368","444343","0.0-6.0-0.181","VASC","1","f","rechts","21","","fixation","","","",""
"2265","img/90_120.png","74","image-keyboard-response","369","446621","0.0-6.0-1.181","VASC","1","f","rechts","21","","","object","j","90","true"
"null","<div style=""font-size:60px;"">+</div>","null","html-keyboard-response","370","446978","0.0-6.0-0.182","VASC","1","f","rechts","21","","fixation","","","",""
"null","img/90_210.png","null","image-keyboard-response","371","450010","0.0-6.0-1.182","VASC","1","f","rechts","21","","","object","f","90","false"
"null","<div style=""font-size:60px;"">+</div>","null","html-keyboard-response","372","450326","0.0-6.0-0.183","VASC","1","f","rechts","21","","fixation","","","",""
"938","img/120_330.png","74","image-keyboard-response","373","451273","0.0-6.0-1.183","VASC","1","f","rechts","21","","","object","j","120","true"
"null","<div style=""font-size:60px;"">+</div>","null","html-keyboard-response","374","451575","0.0-6.0-0.184","VASC","1","f","rechts","21","","fixation","","","",""
"1326","img/150_90.png","70","image-keyboard-response","375","452914","0.0-6.0-1.184","VASC","1","f","rechts","21","","","object","f","150","true"
"null","<div style=""font-size:60px;"">+</div>","null","html-keyboard-response","376","453330","0.0-6.0-0.185","VASC","1","f","rechts","21","","fixation","","","",""
"830","img/0_330.png","70","image-keyboard-response","377","454165","0.0-6.0-1.185","VASC","1","f","rechts","21","","","object","f","0","true"
"null","<div style=""font-size:60px;"">+</div>","null","html-keyboard-response","378","454691","0.0-6.0-0.186","VASC","1","f","rechts","21","","fixation","","","",""
"1083","img/30_120.png","74","image-keyboard-response","379","455786","0.0-6.0-1.186","VASC","1","f","rechts","21","","","object","j","30","true"
"null","<div style=""font-size:60px;"">+</div>","null","html-keyboard-response","380","456113","0.0-6.0-0.187","VASC","1","f","rechts","21","","fixation","","","",""
"973","img/0_300.png","70","image-keyboard-response","381","457099","0.0-6.0-1.187","VASC","1","f","rechts","21","","","object","f","0","true"
"null","<div style=""font-size:60px;"">+</div>","null","html-keyboard-response","382","457511","0.0-6.0-0.188","VASC","1","f","rechts","21","","fixation","","","",""
"1637","img/60_210.png","70","image-keyboard-response","383","459161","0.0-6.0-1.188","VASC","1","f","rechts","21","","","object","f","60","true"
"null","<div style=""font-size:60px;"">+</div>","null","html-keyboard-response","384","459667","0.0-6.0-0.189","VASC","1","f","rechts","21","","fixation","","","",""
"1179","img/60_270.png","70","image-keyboard-response","385","460859","0.0-6.0-1.189","VASC","1","f","rechts","21","","","object","f","60","true"
"null","<div style=""font-size:60px;"">+</div>","null","html-keyboard-response","386","461278","0.0-6.0-0.190","VASC","1","f","rechts","21","","fixation","","","",""
"1176","img/L60_180.png","74","image-keyboard-response","387","462466","0.0-6.0-1.190","VASC","1","f","rechts","21","","","object","j","60","true"
"null","<div style=""font-size:60px;"">+</div>","null","html-keyboard-response","388","462973","0.0-6.0-0.191","VASC","1","f","rechts","21","","fixation","","","",""
"850","img/60_150.png","74","image-keyboard-response","389","463829","0.0-6.0-1.191","VASC","1","f","rechts","21","","","object","j","60","true"
"null","<div style=""font-size:60px;"">+</div>","null","html-keyboard-response","390","464334","0.0-6.0-0.192","VASC","1","f","rechts","21","","fixation","","","",""
"846","img/0_240.png","70","image-keyboard-response","391","465191","0.0-6.0-1.192","VASC","1","f","rechts","21","","","object","f","0","true"
"null","<div style=""font-size:60px;"">+</div>","null","html-keyboard-response","392","465568","0.0-6.0-0.193","VASC","1","f","rechts","21","","fixation","","","",""
"null","img/90_240.png","null","image-keyboard-response","393","468589","0.0-6.0-1.193","VASC","1","f","rechts","21","","","object","f","90","false"
"null","<div style=""font-size:60px;"">+</div>","null","html-keyboard-response","394","468916","0.0-6.0-0.194","VASC","1","f","rechts","21","","fixation","","","",""
"1352","img/30_90.png","74","image-keyboard-response","395","470286","0.0-6.0-1.194","VASC","1","f","rechts","21","","","object","j","30","true"
"null","<div style=""font-size:60px;"">+</div>","null","html-keyboard-response","396","470741","0.0-6.0-0.195","VASC","1","f","rechts","21","","fixation","","","",""
"1467","img/150_240.png","74","image-keyboard-response","397","472222","0.0-6.0-1.195","VASC","1","f","rechts","21","","","object","j","150","true"
"null","<div style=""font-size:60px;"">+</div>","null","html-keyboard-response","398","472694","0.0-6.0-0.196","VASC","1","f","rechts","21","","fixation","","","",""
"1403","img/L30_180.png","74","image-keyboard-response","399","474112","0.0-6.0-1.196","VASC","1","f","rechts","21","","","object","j","30","true"
"null","<div style=""font-size:60px;"">+</div>","null","html-keyboard-response","400","474476","0.0-6.0-0.197","VASC","1","f","rechts","21","","fixation","","","",""
"2769","img/150_120.png","74","image-keyboard-response","401","477255","0.0-6.0-1.197","VASC","1","f","rechts","21","","","object","f","150","false"
"null","<div style=""font-size:60px;"">+</div>","null","html-keyboard-response","402","477626","0.0-6.0-0.198","VASC","1","f","rechts","21","","fixation","","","",""
"1040","img/60_30.png","70","image-keyboard-response","403","478679","0.0-6.0-1.198","VASC","1","f","rechts","21","","","object","f","60","true"
"null","<div style=""font-size:60px;"">+</div>","null","html-keyboard-response","404","479095","0.0-6.0-0.199","VASC","1","f","rechts","21","","fixation","","","",""
"1541","img/150_300.png","74","image-keyboard-response","405","480649","0.0-6.0-1.199","VASC","1","f","rechts","21","","","object","j","150","true"
"null","<div style=""font-size:60px;"">+</div>","null","html-keyboard-response","406","481005","0.0-6.0-0.200","VASC","1","f","rechts","21","","fixation","","","",""
"1270","img/30_240.png","70","image-keyboard-response","407","482279","0.0-6.0-1.200","VASC","1","f","rechts","21","","","object","f","30","true"
"null","<div style=""font-size:60px;"">+</div>","null","html-keyboard-response","408","482791","0.0-6.0-0.201","VASC","1","f","rechts","21","","fixation","","","",""
"null","img/60_90.png","null","image-keyboard-response","409","485821","0.0-6.0-1.201","VASC","1","f","rechts","21","","","object","j","60","false"
"null","<div style=""font-size:60px;"">+</div>","null","html-keyboard-response","410","486338","0.0-6.0-0.202","VASC","1","f","rechts","21","","fixation","","","",""
"1484","img/60_330.png","74","image-keyboard-response","411","487837","0.0-6.0-1.202","VASC","1","f","rechts","21","","","object","j","60","true"
"null","<div style=""font-size:60px;"">+</div>","null","html-keyboard-response","412","488301","0.0-6.0-0.203","VASC","1","f","rechts","21","","fixation","","","",""
"1131","img/120_90.png","70","image-keyboard-response","413","489446","0.0-6.0-1.203","VASC","1","f","rechts","21","","","object","f","120","true"
"null","<div style=""font-size:60px;"">+</div>","null","html-keyboard-response","414","489879","0.0-6.0-0.204","VASC","1","f","rechts","21","","fixation","","","",""
"1072","img/150_60.png","70","image-keyboard-response","415","490965","0.0-6.0-1.204","VASC","1","f","rechts","21","","","object","f","150","true"
"null","<div style=""font-size:60px;"">+</div>","null","html-keyboard-response","416","491332","0.0-6.0-0.205","VASC","1","f","rechts","21","","fixation","","","",""
"913","img/0_120.png","74","image-keyboard-response","417","492259","0.0-6.0-1.205","VASC","1","f","rechts","21","","","object","j","0","true"
"null","<div style=""font-size:60px;"">+</div>","null","html-keyboard-response","418","492582","0.0-6.0-0.206","VASC","1","f","rechts","21","","fixation","","","",""
"1768","img/150_180.png","70","image-keyboard-response","419","494363","0.0-6.0-1.206","VASC","1","f","rechts","21","","","object","f","150","true"
"null","<div style=""font-size:60px;"">+</div>","null","html-keyboard-response","420","494738","0.0-6.0-0.207","VASC","1","f","rechts","21","","fixation","","","",""
"1399","img/90_60.png","70","image-keyboard-response","421","496151","0.0-6.0-1.207","VASC","1","f","rechts","21","","","object","f","90","true"
"694337","<p>Du hast in 84% der Versuche korrekt entschieden.</p><p>Deine durchschnittliche Reaktionszeit war  1466ms.</p><p>Dr&uuml;cke eine beliebige Taste, um die Session zu beenden. Vielen Dank!</p>","32","html-keyboard-response","422","1190494","0.0-7.0","VASC","1","f","rechts","21","","","","","",""
