"rt","stimulus","key_press","trial_type","trial_index","time_elapsed","internal_node_id","subject","session","sex","handedness","age","responses","test_part","condition","correct_response","angle","correct"
"12186","<p>Mental Rotation Experiment.</p> <p>Dr&uuml;cke eine beliebige Taste, um anzufangen.</p>","13","html-keyboard-response","0","12221","0.0-0.0","VASC","3","f","rechts","21","","","","","",""
"7116","","","survey-text","1","19339","0.0-1.0","VASC","3","f","rechts","21","{""Q0"":""VASC""}","","","","",""
"4378","","","survey-text","2","23722","0.0-2.0","VASC","3","f","rechts","21","{""Q0"":""3""}","","","","",""
"3673","","","survey-multi-choice","3","27399","0.0-3.0","VASC","3","f","rechts","21","{""Q0"":""f"",""Q1"":""rechts""}","","","","",""
"3327","","","survey-text","4","30731","0.0-4.0","VASC","3","f","rechts","21","{""Q0"":""21""}","","","","",""
"29909","<p>Stell dir vor, dass du vor einem runden Tisch stehst, auf dem sich ein blauer Ball am Tischrand befindet. Entlang des Tischrands ist jeweils ein verschieden langer Pfeil. Nun bleibst du an deinem Platz vor dem Tisch und rotierst den Tisch entlang des Pfeils (gleiche Richtung und Länge). </p> <img src='img/30_180.png'></img> <br><p> Nachdem du diese (vorgestellte) Rotation durchgef&uuml;hrt hast, schau in Richtung der Tischmitte, und entscheide dann, ob der Ball links oder rechts von dir liegt.</p> <p>Dr&uuml;cke die <strong>'f'</strong>-Taste f&uuml;r links, die <strong>'j'</strong>-Taste f&uuml;r rechts.</p><br><p> Das Bild wird jeweils 1 Sekunde lang pr&auml;sentiert. Du hast 3 Sekunden Zeit eine Entscheidung zu treffen.</p>","13","html-keyboard-response","5","60650","0.0-5.0","VASC","3","f","rechts","21","","","","","",""
"null","<div style=""font-size:60px;"">+</div>","null","html-keyboard-response","6","62085","0.0-6.0-0.0","VASC","3","f","rechts","21","","fixation","","","",""
"1314","img/150_270.png","74","image-keyboard-response","7","63407","0.0-6.0-1.0","VASC","3","f","rechts","21","","","object","j","150","true"
"null","<div style=""font-size:60px;"">+</div>","null","html-keyboard-response","8","63763","0.0-6.0-0.1","VASC","3","f","rechts","21","","fixation","","","",""
"1219","img/90_210.png","74","image-keyboard-response","9","65000","0.0-6.0-1.1","VASC","3","f","rechts","21","","","object","f","90","false"
"null","<div style=""font-size:60px;"">+</div>","null","html-keyboard-response","10","65365","0.0-6.0-0.2","VASC","3","f","rechts","21","","fixation","","","",""
"764","img/0_90.png","74","image-keyboard-response","11","66150","0.0-6.0-1.2","VASC","3","f","rechts","21","","","object","j","0","true"
"null","<div style=""font-size:60px;"">+</div>","null","html-keyboard-response","12","66679","0.0-6.0-0.3","VASC","3","f","rechts","21","","fixation","","","",""
"1714","img/90_120.png","74","image-keyboard-response","13","68410","0.0-6.0-1.3","VASC","3","f","rechts","21","","","object","j","90","true"
"null","<div style=""font-size:60px;"">+</div>","null","html-keyboard-response","14","68861","0.0-6.0-0.4","VASC","3","f","rechts","21","","fixation","","","",""
"1082","img/90_150.png","74","image-keyboard-response","15","69962","0.0-6.0-1.4","VASC","3","f","rechts","21","","","object","j","90","true"
"null","<div style=""font-size:60px;"">+</div>","null","html-keyboard-response","16","70320","0.0-6.0-0.5","VASC","3","f","rechts","21","","fixation","","","",""
"1230","img/L150_180.png","74","image-keyboard-response","17","71571","0.0-6.0-1.5","VASC","3","f","rechts","21","","","object","j","150","true"
"null","<div style=""font-size:60px;"">+</div>","null","html-keyboard-response","18","71883","0.0-6.0-0.6","VASC","3","f","rechts","21","","fixation","","","",""
"964","img/L120_180.png","74","image-keyboard-response","19","72864","0.0-6.0-1.6","VASC","3","f","rechts","21","","","object","j","120","true"
"null","<div style=""font-size:60px;"">+</div>","null","html-keyboard-response","20","73242","0.0-6.0-0.7","VASC","3","f","rechts","21","","fixation","","","",""
"1112","img/L60_180.png","74","image-keyboard-response","21","74372","0.0-6.0-1.7","VASC","3","f","rechts","21","","","object","j","60","true"
"null","<div style=""font-size:60px;"">+</div>","null","html-keyboard-response","22","74741","0.0-6.0-0.8","VASC","3","f","rechts","21","","fixation","","","",""
"1297","img/150_90.png","70","image-keyboard-response","23","76059","0.0-6.0-1.8","VASC","3","f","rechts","21","","","object","f","150","true"
"null","<div style=""font-size:60px;"">+</div>","null","html-keyboard-response","24","76429","0.0-6.0-0.9","VASC","3","f","rechts","21","","fixation","","","",""
"794","img/120_30.png","70","image-keyboard-response","25","77241","0.0-6.0-1.9","VASC","3","f","rechts","21","","","object","f","120","true"
"null","<div style=""font-size:60px;"">+</div>","null","html-keyboard-response","26","77769","0.0-6.0-0.10","VASC","3","f","rechts","21","","fixation","","","",""
"825","img/0_120.png","74","image-keyboard-response","27","78613","0.0-6.0-1.10","VASC","3","f","rechts","21","","","object","j","0","true"
"null","<div style=""font-size:60px;"">+</div>","null","html-keyboard-response","28","78978","0.0-6.0-0.11","VASC","3","f","rechts","21","","fixation","","","",""
"955","img/90_240.png","74","image-keyboard-response","29","79952","0.0-6.0-1.11","VASC","3","f","rechts","21","","","object","f","90","false"
"null","<div style=""font-size:60px;"">+</div>","null","html-keyboard-response","30","80307","0.0-6.0-0.12","VASC","3","f","rechts","21","","fixation","","","",""
"818","img/150_300.png","74","image-keyboard-response","31","81142","0.0-6.0-1.12","VASC","3","f","rechts","21","","","object","j","150","true"
"null","<div style=""font-size:60px;"">+</div>","null","html-keyboard-response","32","81505","0.0-6.0-0.13","VASC","3","f","rechts","21","","fixation","","","",""
"1083","img/30_240.png","74","image-keyboard-response","33","82607","0.0-6.0-1.13","VASC","3","f","rechts","21","","","object","f","30","false"
"null","<div style=""font-size:60px;"">+</div>","null","html-keyboard-response","34","83120","0.0-6.0-0.14","VASC","3","f","rechts","21","","fixation","","","",""
"828","img/0_30.png","74","image-keyboard-response","35","83956","0.0-6.0-1.14","VASC","3","f","rechts","21","","","object","j","0","true"
"null","<div style=""font-size:60px;"">+</div>","null","html-keyboard-response","36","84261","0.0-6.0-0.15","VASC","3","f","rechts","21","","fixation","","","",""
"1423","img/30_300.png","70","image-keyboard-response","37","85700","0.0-6.0-1.15","VASC","3","f","rechts","21","","","object","f","30","true"
"null","<div style=""font-size:60px;"">+</div>","null","html-keyboard-response","38","86213","0.0-6.0-0.16","VASC","3","f","rechts","21","","fixation","","","",""
"1879","img/0_270.png","70","image-keyboard-response","39","88100","0.0-6.0-1.16","VASC","3","f","rechts","21","","","object","f","0","true"
"null","<div style=""font-size:60px;"">+</div>","null","html-keyboard-response","40","88629","0.0-6.0-0.17","VASC","3","f","rechts","21","","fixation","","","",""
"947","img/30_270.png","70","image-keyboard-response","41","89593","0.0-6.0-1.17","VASC","3","f","rechts","21","","","object","f","30","true"
"null","<div style=""font-size:60px;"">+</div>","null","html-keyboard-response","42","89974","0.0-6.0-0.18","VASC","3","f","rechts","21","","fixation","","","",""
"840","img/0_240.png","70","image-keyboard-response","43","90831","0.0-6.0-1.18","VASC","3","f","rechts","21","","","object","f","0","true"
"null","<div style=""font-size:60px;"">+</div>","null","html-keyboard-response","44","91285","0.0-6.0-0.19","VASC","3","f","rechts","21","","fixation","","","",""
"955","img/30_90.png","74","image-keyboard-response","45","92259","0.0-6.0-1.19","VASC","3","f","rechts","21","","","object","j","30","true"
"null","<div style=""font-size:60px;"">+</div>","null","html-keyboard-response","46","92628","0.0-6.0-0.20","VASC","3","f","rechts","21","","fixation","","","",""
"1008","img/90_300.png","74","image-keyboard-response","47","93655","0.0-6.0-1.20","VASC","3","f","rechts","21","","","object","j","90","true"
"null","<div style=""font-size:60px;"">+</div>","null","html-keyboard-response","48","93965","0.0-6.0-0.21","VASC","3","f","rechts","21","","fixation","","","",""
"1540","img/30_120.png","74","image-keyboard-response","49","95522","0.0-6.0-1.21","VASC","3","f","rechts","21","","","object","j","30","true"
"null","<div style=""font-size:60px;"">+</div>","null","html-keyboard-response","50","95887","0.0-6.0-0.22","VASC","3","f","rechts","21","","fixation","","","",""
"1311","img/60_210.png","70","image-keyboard-response","51","97220","0.0-6.0-1.22","VASC","3","f","rechts","21","","","object","f","60","true"
"null","<div style=""font-size:60px;"">+</div>","null","html-keyboard-response","52","97544","0.0-6.0-0.23","VASC","3","f","rechts","21","","fixation","","","",""
"1009","img/150_240.png","74","image-keyboard-response","53","98571","0.0-6.0-1.23","VASC","3","f","rechts","21","","","object","j","150","true"
"null","<div style=""font-size:60px;"">+</div>","null","html-keyboard-response","54","98935","0.0-6.0-0.24","VASC","3","f","rechts","21","","fixation","","","",""
"795","img/60_30.png","70","image-keyboard-response","55","99740","0.0-6.0-1.24","VASC","3","f","rechts","21","","","object","f","60","true"
"null","<div style=""font-size:60px;"">+</div>","null","html-keyboard-response","56","100060","0.0-6.0-0.25","VASC","3","f","rechts","21","","fixation","","","",""
"1135","img/30_60.png","70","image-keyboard-response","57","101212","0.0-6.0-1.25","VASC","3","f","rechts","21","","","object","j","30","false"
"null","<div style=""font-size:60px;"">+</div>","null","html-keyboard-response","58","101592","0.0-6.0-0.26","VASC","3","f","rechts","21","","fixation","","","",""
"954","img/150_120.png","70","image-keyboard-response","59","102564","0.0-6.0-1.26","VASC","3","f","rechts","21","","","object","f","150","true"
"null","<div style=""font-size:60px;"">+</div>","null","html-keyboard-response","60","102887","0.0-6.0-0.27","VASC","3","f","rechts","21","","fixation","","","",""
"918","img/0_300.png","70","image-keyboard-response","61","103825","0.0-6.0-1.27","VASC","3","f","rechts","21","","","object","f","0","true"
"null","<div style=""font-size:60px;"">+</div>","null","html-keyboard-response","62","104137","0.0-6.0-0.28","VASC","3","f","rechts","21","","fixation","","","",""
"693","img/0_210.png","70","image-keyboard-response","63","104838","0.0-6.0-1.28","VASC","3","f","rechts","21","","","object","f","0","true"
"null","<div style=""font-size:60px;"">+</div>","null","html-keyboard-response","64","105294","0.0-6.0-0.29","VASC","3","f","rechts","21","","fixation","","","",""
"1416","img/150_180.png","70","image-keyboard-response","65","106727","0.0-6.0-1.29","VASC","3","f","rechts","21","","","object","f","150","true"
"null","<div style=""font-size:60px;"">+</div>","null","html-keyboard-response","66","107059","0.0-6.0-0.30","VASC","3","f","rechts","21","","fixation","","","",""
"2412","img/120_210.png","70","image-keyboard-response","67","109489","0.0-6.0-1.30","VASC","3","f","rechts","21","","","object","f","120","true"
"null","<div style=""font-size:60px;"">+</div>","null","html-keyboard-response","68","109797","0.0-6.0-0.31","VASC","3","f","rechts","21","","fixation","","","",""
"1120","img/60_180.png","70","image-keyboard-response","69","110935","0.0-6.0-1.31","VASC","3","f","rechts","21","","","object","f","60","true"
"null","<div style=""font-size:60px;"">+</div>","null","html-keyboard-response","70","111438","0.0-6.0-0.32","VASC","3","f","rechts","21","","fixation","","","",""
"965","img/120_330.png","74","image-keyboard-response","71","112420","0.0-6.0-1.32","VASC","3","f","rechts","21","","","object","j","120","true"
"null","<div style=""font-size:60px;"">+</div>","null","html-keyboard-response","72","112783","0.0-6.0-0.33","VASC","3","f","rechts","21","","fixation","","","",""
"722","img/0_60.png","74","image-keyboard-response","73","113522","0.0-6.0-1.33","VASC","3","f","rechts","21","","","object","j","0","true"
"null","<div style=""font-size:60px;"">+</div>","null","html-keyboard-response","74","113828","0.0-6.0-0.34","VASC","3","f","rechts","21","","fixation","","","",""
"654","img/0_150.png","74","image-keyboard-response","75","114502","0.0-6.0-1.34","VASC","3","f","rechts","21","","","object","j","0","true"
"null","<div style=""font-size:60px;"">+</div>","null","html-keyboard-response","76","114922","0.0-6.0-0.35","VASC","3","f","rechts","21","","fixation","","","",""
"1507","img/90_180.png","70","image-keyboard-response","77","116447","0.0-6.0-1.35","VASC","3","f","rechts","21","","","object","f","90","true"
"null","<div style=""font-size:60px;"">+</div>","null","html-keyboard-response","78","116953","0.0-6.0-0.36","VASC","3","f","rechts","21","","fixation","","","",""
"830","img/30_180.png","70","image-keyboard-response","79","117795","0.0-6.0-1.36","VASC","3","f","rechts","21","","","object","f","30","true"
"null","<div style=""font-size:60px;"">+</div>","null","html-keyboard-response","80","118155","0.0-6.0-0.37","VASC","3","f","rechts","21","","fixation","","","",""
"981","img/120_90.png","70","image-keyboard-response","81","119144","0.0-6.0-1.37","VASC","3","f","rechts","21","","","object","f","120","true"
"null","<div style=""font-size:60px;"">+</div>","null","html-keyboard-response","82","119657","0.0-6.0-0.38","VASC","3","f","rechts","21","","fixation","","","",""
"766","img/0_330.png","70","image-keyboard-response","83","120441","0.0-6.0-1.38","VASC","3","f","rechts","21","","","object","f","0","true"
"null","<div style=""font-size:60px;"">+</div>","null","html-keyboard-response","84","120860","0.0-6.0-0.39","VASC","3","f","rechts","21","","fixation","","","",""
"1105","img/L90_180.png","74","image-keyboard-response","85","121982","0.0-6.0-1.39","VASC","3","f","rechts","21","","","object","j","90","true"
"null","<div style=""font-size:60px;"">+</div>","null","html-keyboard-response","86","122454","0.0-6.0-0.40","VASC","3","f","rechts","21","","fixation","","","",""
"906","img/90_330.png","74","image-keyboard-response","87","123377","0.0-6.0-1.40","VASC","3","f","rechts","21","","","object","j","90","true"
"null","<div style=""font-size:60px;"">+</div>","null","html-keyboard-response","88","123878","0.0-6.0-0.41","VASC","3","f","rechts","21","","fixation","","","",""
"1799","img/120_180.png","70","image-keyboard-response","89","125696","0.0-6.0-1.41","VASC","3","f","rechts","21","","","object","f","120","true"
"null","<div style=""font-size:60px;"">+</div>","null","html-keyboard-response","90","126204","0.0-6.0-0.42","VASC","3","f","rechts","21","","fixation","","","",""
"1072","img/60_150.png","74","image-keyboard-response","91","127281","0.0-6.0-1.42","VASC","3","f","rechts","21","","","object","j","60","true"
"null","<div style=""font-size:60px;"">+</div>","null","html-keyboard-response","92","127642","0.0-6.0-0.43","VASC","3","f","rechts","21","","fixation","","","",""
"822","img/90_30.png","70","image-keyboard-response","93","128484","0.0-6.0-1.43","VASC","3","f","rechts","21","","","object","f","90","true"
"null","<div style=""font-size:60px;"">+</div>","null","html-keyboard-response","94","128909","0.0-6.0-0.44","VASC","3","f","rechts","21","","fixation","","","",""
"705","img/90_60.png","70","image-keyboard-response","95","129632","0.0-6.0-1.44","VASC","3","f","rechts","21","","","object","f","90","true"
"null","<div style=""font-size:60px;"">+</div>","null","html-keyboard-response","96","130137","0.0-6.0-0.45","VASC","3","f","rechts","21","","fixation","","","",""
"732","img/60_330.png","74","image-keyboard-response","97","130882","0.0-6.0-1.45","VASC","3","f","rechts","21","","","object","j","60","true"
"null","<div style=""font-size:60px;"">+</div>","null","html-keyboard-response","98","131247","0.0-6.0-0.46","VASC","3","f","rechts","21","","fixation","","","",""
"1506","img/60_270.png","74","image-keyboard-response","99","132771","0.0-6.0-1.46","VASC","3","f","rechts","21","","","object","f","60","false"
"null","<div style=""font-size:60px;"">+</div>","null","html-keyboard-response","100","133190","0.0-6.0-0.47","VASC","3","f","rechts","21","","fixation","","","",""
"1354","img/L30_180.png","74","image-keyboard-response","101","134549","0.0-6.0-1.47","VASC","3","f","rechts","21","","","object","j","30","true"
"null","<div style=""font-size:60px;"">+</div>","null","html-keyboard-response","102","134906","0.0-6.0-0.48","VASC","3","f","rechts","21","","fixation","","","",""
"1170","img/120_270.png","74","image-keyboard-response","103","136102","0.0-6.0-1.48","VASC","3","f","rechts","21","","","object","j","120","true"
"null","<div style=""font-size:60px;"">+</div>","null","html-keyboard-response","104","136406","0.0-6.0-0.49","VASC","3","f","rechts","21","","fixation","","","",""
"870","img/150_60.png","70","image-keyboard-response","105","137294","0.0-6.0-1.49","VASC","3","f","rechts","21","","","object","f","150","true"
"null","<div style=""font-size:60px;"">+</div>","null","html-keyboard-response","106","137765","0.0-6.0-0.50","VASC","3","f","rechts","21","","fixation","","","",""
"1053","img/60_90.png","70","image-keyboard-response","107","138835","0.0-6.0-1.50","VASC","3","f","rechts","21","","","object","j","60","false"
"null","<div style=""font-size:60px;"">+</div>","null","html-keyboard-response","108","139254","0.0-6.0-0.51","VASC","3","f","rechts","21","","fixation","","","",""
"2267","img/120_150.png","74","image-keyboard-response","109","141540","0.0-6.0-1.51","VASC","3","f","rechts","21","","","object","j","120","true"
"null","<div style=""font-size:60px;"">+</div>","null","html-keyboard-response","110","142004","0.0-6.0-0.52","VASC","3","f","rechts","21","","fixation","","","",""
"1334","img/60_150.png","74","image-keyboard-response","111","143346","0.0-6.0-1.52","VASC","3","f","rechts","21","","","object","j","60","true"
"null","<div style=""font-size:60px;"">+</div>","null","html-keyboard-response","112","143770","0.0-6.0-0.53","VASC","3","f","rechts","21","","fixation","","","",""
"759","img/0_150.png","74","image-keyboard-response","113","144538","0.0-6.0-1.53","VASC","3","f","rechts","21","","","object","j","0","true"
"null","<div style=""font-size:60px;"">+</div>","null","html-keyboard-response","114","144973","0.0-6.0-0.54","VASC","3","f","rechts","21","","fixation","","","",""
"895","img/120_30.png","70","image-keyboard-response","115","145878","0.0-6.0-1.54","VASC","3","f","rechts","21","","","object","f","120","true"
"null","<div style=""font-size:60px;"">+</div>","null","html-keyboard-response","116","146204","0.0-6.0-0.55","VASC","3","f","rechts","21","","fixation","","","",""
"771","img/150_60.png","70","image-keyboard-response","117","146981","0.0-6.0-1.55","VASC","3","f","rechts","21","","","object","f","150","true"
"null","<div style=""font-size:60px;"">+</div>","null","html-keyboard-response","118","147486","0.0-6.0-0.56","VASC","3","f","rechts","21","","fixation","","","",""
"1073","img/150_90.png","70","image-keyboard-response","119","148567","0.0-6.0-1.56","VASC","3","f","rechts","21","","","object","f","150","true"
"null","<div style=""font-size:60px;"">+</div>","null","html-keyboard-response","120","149082","0.0-6.0-0.57","VASC","3","f","rechts","21","","fixation","","","",""
"1241","img/L90_180.png","74","image-keyboard-response","121","150332","0.0-6.0-1.57","VASC","3","f","rechts","21","","","object","j","90","true"
"null","<div style=""font-size:60px;"">+</div>","null","html-keyboard-response","122","150645","0.0-6.0-0.58","VASC","3","f","rechts","21","","fixation","","","",""
"1644","img/120_90.png","70","image-keyboard-response","123","152298","0.0-6.0-1.58","VASC","3","f","rechts","21","","","object","f","120","true"
"null","<div style=""font-size:60px;"">+</div>","null","html-keyboard-response","124","152662","0.0-6.0-0.59","VASC","3","f","rechts","21","","fixation","","","",""
"1136","img/150_180.png","70","image-keyboard-response","125","153806","0.0-6.0-1.59","VASC","3","f","rechts","21","","","object","f","150","true"
"null","<div style=""font-size:60px;"">+</div>","null","html-keyboard-response","126","154176","0.0-6.0-0.60","VASC","3","f","rechts","21","","fixation","","","",""
"1763","img/L150_180.png","74","image-keyboard-response","127","155945","0.0-6.0-1.60","VASC","3","f","rechts","21","","","object","j","150","true"
"null","<div style=""font-size:60px;"">+</div>","null","html-keyboard-response","128","156411","0.0-6.0-0.61","VASC","3","f","rechts","21","","fixation","","","",""
"2363","img/90_120.png","70","image-keyboard-response","129","158787","0.0-6.0-1.61","VASC","3","f","rechts","21","","","object","j","90","false"
"null","<div style=""font-size:60px;"">+</div>","null","html-keyboard-response","130","159241","0.0-6.0-0.62","VASC","3","f","rechts","21","","fixation","","","",""
"754","img/0_300.png","70","image-keyboard-response","131","159996","0.0-6.0-1.62","VASC","3","f","rechts","21","","","object","f","0","true"
"null","<div style=""font-size:60px;"">+</div>","null","html-keyboard-response","132","160458","0.0-6.0-0.63","VASC","3","f","rechts","21","","fixation","","","",""
"559","img/0_270.png","70","image-keyboard-response","133","161030","0.0-6.0-1.63","VASC","3","f","rechts","21","","","object","f","0","true"
"null","<div style=""font-size:60px;"">+</div>","null","html-keyboard-response","134","161459","0.0-6.0-0.64","VASC","3","f","rechts","21","","fixation","","","",""
"1194","img/120_180.png","70","image-keyboard-response","135","162662","0.0-6.0-1.64","VASC","3","f","rechts","21","","","object","f","120","true"
"null","<div style=""font-size:60px;"">+</div>","null","html-keyboard-response","136","163130","0.0-6.0-0.65","VASC","3","f","rechts","21","","fixation","","","",""
"1057","img/30_240.png","70","image-keyboard-response","137","164203","0.0-6.0-1.65","VASC","3","f","rechts","21","","","object","f","30","true"
"null","<div style=""font-size:60px;"">+</div>","null","html-keyboard-response","138","164662","0.0-6.0-0.66","VASC","3","f","rechts","21","","fixation","","","",""
"1017","img/90_60.png","70","image-keyboard-response","139","165688","0.0-6.0-1.66","VASC","3","f","rechts","21","","","object","f","90","true"
"null","<div style=""font-size:60px;"">+</div>","null","html-keyboard-response","140","166168","0.0-6.0-0.67","VASC","3","f","rechts","21","","fixation","","","",""
"750","img/0_210.png","70","image-keyboard-response","141","166927","0.0-6.0-1.67","VASC","3","f","rechts","21","","","object","f","0","true"
"null","<div style=""font-size:60px;"">+</div>","null","html-keyboard-response","142","167230","0.0-6.0-0.68","VASC","3","f","rechts","21","","fixation","","","",""
"804","img/150_300.png","74","image-keyboard-response","143","168039","0.0-6.0-1.68","VASC","3","f","rechts","21","","","object","j","150","true"
"null","<div style=""font-size:60px;"">+</div>","null","html-keyboard-response","144","168570","0.0-6.0-0.69","VASC","3","f","rechts","21","","fixation","","","",""
"1283","img/L30_180.png","74","image-keyboard-response","145","169862","0.0-6.0-1.69","VASC","3","f","rechts","21","","","object","j","30","true"
"null","<div style=""font-size:60px;"">+</div>","null","html-keyboard-response","146","170364","0.0-6.0-0.70","VASC","3","f","rechts","21","","fixation","","","",""
"1300","img/150_270.png","74","image-keyboard-response","147","171674","0.0-6.0-1.70","VASC","3","f","rechts","21","","","object","j","150","true"
"null","<div style=""font-size:60px;"">+</div>","null","html-keyboard-response","148","172053","0.0-6.0-0.71","VASC","3","f","rechts","21","","fixation","","","",""
"737","img/120_270.png","74","image-keyboard-response","149","172800","0.0-6.0-1.71","VASC","3","f","rechts","21","","","object","j","120","true"
"null","<div style=""font-size:60px;"">+</div>","null","html-keyboard-response","150","173304","0.0-6.0-0.72","VASC","3","f","rechts","21","","fixation","","","",""
"721","img/0_60.png","74","image-keyboard-response","151","174034","0.0-6.0-1.72","VASC","3","f","rechts","21","","","object","j","0","true"
"null","<div style=""font-size:60px;"">+</div>","null","html-keyboard-response","152","174492","0.0-6.0-0.73","VASC","3","f","rechts","21","","fixation","","","",""
"1782","img/90_240.png","70","image-keyboard-response","153","176285","0.0-6.0-1.73","VASC","3","f","rechts","21","","","object","f","90","true"
"null","<div style=""font-size:60px;"">+</div>","null","html-keyboard-response","154","176739","0.0-6.0-0.74","VASC","3","f","rechts","21","","fixation","","","",""
"1708","img/30_300.png","70","image-keyboard-response","155","178458","0.0-6.0-1.74","VASC","3","f","rechts","21","","","object","f","30","true"
"null","<div style=""font-size:60px;"">+</div>","null","html-keyboard-response","156","178882","0.0-6.0-0.75","VASC","3","f","rechts","21","","fixation","","","",""
"866","img/90_150.png","74","image-keyboard-response","157","179762","0.0-6.0-1.75","VASC","3","f","rechts","21","","","object","j","90","true"
"null","<div style=""font-size:60px;"">+</div>","null","html-keyboard-response","158","180272","0.0-6.0-0.76","VASC","3","f","rechts","21","","fixation","","","",""
"1075","img/150_240.png","70","image-keyboard-response","159","181352","0.0-6.0-1.76","VASC","3","f","rechts","21","","","object","j","150","false"
"null","<div style=""font-size:60px;"">+</div>","null","html-keyboard-response","160","181819","0.0-6.0-0.77","VASC","3","f","rechts","21","","fixation","","","",""
"1329","img/150_120.png","70","image-keyboard-response","161","183160","0.0-6.0-1.77","VASC","3","f","rechts","21","","","object","f","150","true"
"null","<div style=""font-size:60px;"">+</div>","null","html-keyboard-response","162","183616","0.0-6.0-0.78","VASC","3","f","rechts","21","","fixation","","","",""
"1107","img/60_180.png","70","image-keyboard-response","163","184736","0.0-6.0-1.78","VASC","3","f","rechts","21","","","object","f","60","true"
"null","<div style=""font-size:60px;"">+</div>","null","html-keyboard-response","164","185194","0.0-6.0-0.79","VASC","3","f","rechts","21","","fixation","","","",""
"1670","img/120_210.png","70","image-keyboard-response","165","186874","0.0-6.0-1.79","VASC","3","f","rechts","21","","","object","f","120","true"
"null","<div style=""font-size:60px;"">+</div>","null","html-keyboard-response","166","187289","0.0-6.0-0.80","VASC","3","f","rechts","21","","fixation","","","",""
"940","img/30_120.png","74","image-keyboard-response","167","188243","0.0-6.0-1.80","VASC","3","f","rechts","21","","","object","j","30","true"
"null","<div style=""font-size:60px;"">+</div>","null","html-keyboard-response","168","188711","0.0-6.0-0.81","VASC","3","f","rechts","21","","fixation","","","",""
"916","img/30_180.png","70","image-keyboard-response","169","189640","0.0-6.0-1.81","VASC","3","f","rechts","21","","","object","f","30","true"
"null","<div style=""font-size:60px;"">+</div>","null","html-keyboard-response","170","190008","0.0-6.0-0.82","VASC","3","f","rechts","21","","fixation","","","",""
"792","img/0_330.png","70","image-keyboard-response","171","190810","0.0-6.0-1.82","VASC","3","f","rechts","21","","","object","f","0","true"
"null","<div style=""font-size:60px;"">+</div>","null","html-keyboard-response","172","191264","0.0-6.0-0.83","VASC","3","f","rechts","21","","fixation","","","",""
"954","img/L60_180.png","74","image-keyboard-response","173","192226","0.0-6.0-1.83","VASC","3","f","rechts","21","","","object","j","60","true"
"null","<div style=""font-size:60px;"">+</div>","null","html-keyboard-response","174","192583","0.0-6.0-0.84","VASC","3","f","rechts","21","","fixation","","","",""
"1040","img/90_210.png","70","image-keyboard-response","175","193636","0.0-6.0-1.84","VASC","3","f","rechts","21","","","object","f","90","true"
"null","<div style=""font-size:60px;"">+</div>","null","html-keyboard-response","176","193947","0.0-6.0-0.85","VASC","3","f","rechts","21","","fixation","","","",""
"1005","img/90_330.png","74","image-keyboard-response","177","194962","0.0-6.0-1.85","VASC","3","f","rechts","21","","","object","j","90","true"
"null","<div style=""font-size:60px;"">+</div>","null","html-keyboard-response","178","195384","0.0-6.0-0.86","VASC","3","f","rechts","21","","fixation","","","",""
"736","img/120_330.png","74","image-keyboard-response","179","196133","0.0-6.0-1.86","VASC","3","f","rechts","21","","","object","j","120","true"
"null","<div style=""font-size:60px;"">+</div>","null","html-keyboard-response","180","196445","0.0-6.0-0.87","VASC","3","f","rechts","21","","fixation","","","",""
"1881","img/60_90.png","74","image-keyboard-response","181","198337","0.0-6.0-1.87","VASC","3","f","rechts","21","","","object","j","60","true"
"null","<div style=""font-size:60px;"">+</div>","null","html-keyboard-response","182","198650","0.0-6.0-0.88","VASC","3","f","rechts","21","","fixation","","","",""
"1080","img/90_300.png","74","image-keyboard-response","183","199744","0.0-6.0-1.88","VASC","3","f","rechts","21","","","object","j","90","true"
"null","<div style=""font-size:60px;"">+</div>","null","html-keyboard-response","184","200259","0.0-6.0-0.89","VASC","3","f","rechts","21","","fixation","","","",""
"null","img/60_270.png","null","image-keyboard-response","185","203277","0.0-6.0-1.89","VASC","3","f","rechts","21","","","object","f","60","false"
"null","<div style=""font-size:60px;"">+</div>","null","html-keyboard-response","186","203602","0.0-6.0-0.90","VASC","3","f","rechts","21","","fixation","","","",""
"1631","img/120_150.png","74","image-keyboard-response","187","205242","0.0-6.0-1.90","VASC","3","f","rechts","21","","","object","j","120","true"
"null","<div style=""font-size:60px;"">+</div>","null","html-keyboard-response","188","205557","0.0-6.0-0.91","VASC","3","f","rechts","21","","fixation","","","",""
"730","img/0_240.png","70","image-keyboard-response","189","206300","0.0-6.0-1.91","VASC","3","f","rechts","21","","","object","f","0","true"
"null","<div style=""font-size:60px;"">+</div>","null","html-keyboard-response","190","206760","0.0-6.0-0.92","VASC","3","f","rechts","21","","fixation","","","",""
"898","img/30_270.png","70","image-keyboard-response","191","207672","0.0-6.0-1.92","VASC","3","f","rechts","21","","","object","f","30","true"
"null","<div style=""font-size:60px;"">+</div>","null","html-keyboard-response","192","207978","0.0-6.0-0.93","VASC","3","f","rechts","21","","fixation","","","",""
"1010","img/60_210.png","70","image-keyboard-response","193","209003","0.0-6.0-1.93","VASC","3","f","rechts","21","","","object","f","60","true"
"null","<div style=""font-size:60px;"">+</div>","null","html-keyboard-response","194","209410","0.0-6.0-0.94","VASC","3","f","rechts","21","","fixation","","","",""
"1143","img/L120_180.png","74","image-keyboard-response","195","210566","0.0-6.0-1.94","VASC","3","f","rechts","21","","","object","j","120","true"
"null","<div style=""font-size:60px;"">+</div>","null","html-keyboard-response","196","210973","0.0-6.0-0.95","VASC","3","f","rechts","21","","fixation","","","",""
"1099","img/30_60.png","74","image-keyboard-response","197","212086","0.0-6.0-1.95","VASC","3","f","rechts","21","","","object","j","30","true"
"null","<div style=""font-size:60px;"">+</div>","null","html-keyboard-response","198","212440","0.0-6.0-0.96","VASC","3","f","rechts","21","","fixation","","","",""
"665","img/0_90.png","74","image-keyboard-response","199","213120","0.0-6.0-1.96","VASC","3","f","rechts","21","","","object","j","0","true"
"null","<div style=""font-size:60px;"">+</div>","null","html-keyboard-response","200","213636","0.0-6.0-0.97","VASC","3","f","rechts","21","","fixation","","","",""
"855","img/90_180.png","70","image-keyboard-response","201","214505","0.0-6.0-1.97","VASC","3","f","rechts","21","","","object","f","90","true"
"null","<div style=""font-size:60px;"">+</div>","null","html-keyboard-response","202","214931","0.0-6.0-0.98","VASC","3","f","rechts","21","","fixation","","","",""
"953","img/30_90.png","74","image-keyboard-response","203","215900","0.0-6.0-1.98","VASC","3","f","rechts","21","","","object","j","30","true"
"null","<div style=""font-size:60px;"">+</div>","null","html-keyboard-response","204","216229","0.0-6.0-0.99","VASC","3","f","rechts","21","","fixation","","","",""
"1020","img/90_30.png","70","image-keyboard-response","205","217258","0.0-6.0-1.99","VASC","3","f","rechts","21","","","object","f","90","true"
"null","<div style=""font-size:60px;"">+</div>","null","html-keyboard-response","206","217713","0.0-6.0-0.100","VASC","3","f","rechts","21","","fixation","","","",""
"760","img/60_30.png","70","image-keyboard-response","207","218486","0.0-6.0-1.100","VASC","3","f","rechts","21","","","object","f","60","true"
"null","<div style=""font-size:60px;"">+</div>","null","html-keyboard-response","208","218838","0.0-6.0-0.101","VASC","3","f","rechts","21","","fixation","","","",""
"703","img/0_30.png","74","image-keyboard-response","209","219554","0.0-6.0-1.101","VASC","3","f","rechts","21","","","object","j","0","true"
"null","<div style=""font-size:60px;"">+</div>","null","html-keyboard-response","210","220009","0.0-6.0-0.102","VASC","3","f","rechts","21","","fixation","","","",""
"679","img/0_120.png","74","image-keyboard-response","211","220702","0.0-6.0-1.102","VASC","3","f","rechts","21","","","object","j","0","true"
"null","<div style=""font-size:60px;"">+</div>","null","html-keyboard-response","212","221009","0.0-6.0-0.103","VASC","3","f","rechts","21","","fixation","","","",""
"862","img/60_330.png","74","image-keyboard-response","213","221884","0.0-6.0-1.103","VASC","3","f","rechts","21","","","object","j","60","true"
"null","<div style=""font-size:60px;"">+</div>","null","html-keyboard-response","214","222290","0.0-6.0-0.104","VASC","3","f","rechts","21","","fixation","","","",""
"1060","img/60_150.png","70","image-keyboard-response","215","223355","0.0-6.0-1.104","VASC","3","f","rechts","21","","","object","j","60","false"
"null","<div style=""font-size:60px;"">+</div>","null","html-keyboard-response","216","223684","0.0-6.0-0.105","VASC","3","f","rechts","21","","fixation","","","",""
"812","img/0_30.png","74","image-keyboard-response","217","224506","0.0-6.0-1.105","VASC","3","f","rechts","21","","","object","j","0","true"
"null","<div style=""font-size:60px;"">+</div>","null","html-keyboard-response","218","224870","0.0-6.0-0.106","VASC","3","f","rechts","21","","fixation","","","",""
"613","img/0_90.png","74","image-keyboard-response","219","225493","0.0-6.0-1.106","VASC","3","f","rechts","21","","","object","j","0","true"
"null","<div style=""font-size:60px;"">+</div>","null","html-keyboard-response","220","225995","0.0-6.0-0.107","VASC","3","f","rechts","21","","fixation","","","",""
"1661","img/90_120.png","70","image-keyboard-response","221","227666","0.0-6.0-1.107","VASC","3","f","rechts","21","","","object","j","90","false"
"null","<div style=""font-size:60px;"">+</div>","null","html-keyboard-response","222","228135","0.0-6.0-0.108","VASC","3","f","rechts","21","","fixation","","","",""
"837","img/30_120.png","74","image-keyboard-response","223","228986","0.0-6.0-1.108","VASC","3","f","rechts","21","","","object","j","30","true"
"null","<div style=""font-size:60px;"">+</div>","null","html-keyboard-response","224","229401","0.0-6.0-0.109","VASC","3","f","rechts","21","","fixation","","","",""
"2403","img/60_270.png","70","image-keyboard-response","225","231810","0.0-6.0-1.109","VASC","3","f","rechts","21","","","object","f","60","true"
"null","<div style=""font-size:60px;"">+</div>","null","html-keyboard-response","226","232337","0.0-6.0-0.110","VASC","3","f","rechts","21","","fixation","","","",""
"1719","img/90_150.png","74","image-keyboard-response","227","234060","0.0-6.0-1.110","VASC","3","f","rechts","21","","","object","j","90","true"
"null","<div style=""font-size:60px;"">+</div>","null","html-keyboard-response","228","234525","0.0-6.0-0.111","VASC","3","f","rechts","21","","fixation","","","",""
"902","img/120_270.png","74","image-keyboard-response","229","235441","0.0-6.0-1.111","VASC","3","f","rechts","21","","","object","j","120","true"
"null","<div style=""font-size:60px;"">+</div>","null","html-keyboard-response","230","235744","0.0-6.0-0.112","VASC","3","f","rechts","21","","fixation","","","",""
"1135","img/120_180.png","70","image-keyboard-response","231","236892","0.0-6.0-1.112","VASC","3","f","rechts","21","","","object","f","120","true"
"null","<div style=""font-size:60px;"">+</div>","null","html-keyboard-response","232","237355","0.0-6.0-0.113","VASC","3","f","rechts","21","","fixation","","","",""
"2586","img/60_90.png","70","image-keyboard-response","233","239945","0.0-6.0-1.113","VASC","3","f","rechts","21","","","object","j","60","false"
"null","<div style=""font-size:60px;"">+</div>","null","html-keyboard-response","234","240407","0.0-6.0-0.114","VASC","3","f","rechts","21","","fixation","","","",""
"890","img/L30_180.png","74","image-keyboard-response","235","241302","0.0-6.0-1.114","VASC","3","f","rechts","21","","","object","j","30","true"
"null","<div style=""font-size:60px;"">+</div>","null","html-keyboard-response","236","241815","0.0-6.0-0.115","VASC","3","f","rechts","21","","fixation","","","",""
"1059","img/30_240.png","70","image-keyboard-response","237","242888","0.0-6.0-1.115","VASC","3","f","rechts","21","","","object","f","30","true"
"null","<div style=""font-size:60px;"">+</div>","null","html-keyboard-response","238","243360","0.0-6.0-0.116","VASC","3","f","rechts","21","","fixation","","","",""
"2597","img/L150_180.png","74","image-keyboard-response","239","245965","0.0-6.0-1.116","VASC","3","f","rechts","21","","","object","j","150","true"
"null","<div style=""font-size:60px;"">+</div>","null","html-keyboard-response","240","246428","0.0-6.0-0.117","VASC","3","f","rechts","21","","fixation","","","",""
"778","img/120_30.png","70","image-keyboard-response","241","247220","0.0-6.0-1.117","VASC","3","f","rechts","21","","","object","f","120","true"
"null","<div style=""font-size:60px;"">+</div>","null","html-keyboard-response","242","247679","0.0-6.0-0.118","VASC","3","f","rechts","21","","fixation","","","",""
"744","img/0_240.png","70","image-keyboard-response","243","248432","0.0-6.0-1.118","VASC","3","f","rechts","21","","","object","f","0","true"
"null","<div style=""font-size:60px;"">+</div>","null","html-keyboard-response","244","248804","0.0-6.0-0.119","VASC","3","f","rechts","21","","fixation","","","",""
"668","img/0_330.png","70","image-keyboard-response","245","249481","0.0-6.0-1.119","VASC","3","f","rechts","21","","","object","f","0","true"
"null","<div style=""font-size:60px;"">+</div>","null","html-keyboard-response","246","249788","0.0-6.0-0.120","VASC","3","f","rechts","21","","fixation","","","",""
"1605","img/150_240.png","74","image-keyboard-response","247","251402","0.0-6.0-1.120","VASC","3","f","rechts","21","","","object","j","150","true"
"null","<div style=""font-size:60px;"">+</div>","null","html-keyboard-response","248","251815","0.0-6.0-0.121","VASC","3","f","rechts","21","","fixation","","","",""
"1052","img/60_210.png","70","image-keyboard-response","249","252877","0.0-6.0-1.121","VASC","3","f","rechts","21","","","object","f","60","true"
"null","<div style=""font-size:60px;"">+</div>","null","html-keyboard-response","250","253242","0.0-6.0-0.122","VASC","3","f","rechts","21","","fixation","","","",""
"1584","img/30_60.png","74","image-keyboard-response","251","254835","0.0-6.0-1.122","VASC","3","f","rechts","21","","","object","j","30","true"
"null","<div style=""font-size:60px;"">+</div>","null","html-keyboard-response","252","255139","0.0-6.0-0.123","VASC","3","f","rechts","21","","fixation","","","",""
"831","img/90_330.png","74","image-keyboard-response","253","255981","0.0-6.0-1.123","VASC","3","f","rechts","21","","","object","j","90","true"
"null","<div style=""font-size:60px;"">+</div>","null","html-keyboard-response","254","256389","0.0-6.0-0.124","VASC","3","f","rechts","21","","fixation","","","",""
"1142","img/30_270.png","70","image-keyboard-response","255","257536","0.0-6.0-1.124","VASC","3","f","rechts","21","","","object","f","30","true"
"null","<div style=""font-size:60px;"">+</div>","null","html-keyboard-response","256","258055","0.0-6.0-0.125","VASC","3","f","rechts","21","","fixation","","","",""
"727","img/0_300.png","70","image-keyboard-response","257","258796","0.0-6.0-1.125","VASC","3","f","rechts","21","","","object","f","0","true"
"null","<div style=""font-size:60px;"">+</div>","null","html-keyboard-response","258","259164","0.0-6.0-0.126","VASC","3","f","rechts","21","","fixation","","","",""
"814","img/120_330.png","74","image-keyboard-response","259","259988","0.0-6.0-1.126","VASC","3","f","rechts","21","","","object","j","120","true"
"null","<div style=""font-size:60px;"">+</div>","null","html-keyboard-response","260","260320","0.0-6.0-0.127","VASC","3","f","rechts","21","","fixation","","","",""
"1281","img/L120_180.png","74","image-keyboard-response","261","261607","0.0-6.0-1.127","VASC","3","f","rechts","21","","","object","j","120","true"
"null","<div style=""font-size:60px;"">+</div>","null","html-keyboard-response","262","261922","0.0-6.0-0.128","VASC","3","f","rechts","21","","fixation","","","",""
"1025","img/60_330.png","74","image-keyboard-response","263","262958","0.0-6.0-1.128","VASC","3","f","rechts","21","","","object","j","60","true"
"null","<div style=""font-size:60px;"">+</div>","null","html-keyboard-response","264","263274","0.0-6.0-0.129","VASC","3","f","rechts","21","","fixation","","","",""
"null","img/90_210.png","null","image-keyboard-response","265","266306","0.0-6.0-1.129","VASC","3","f","rechts","21","","","object","f","90","false"
"null","<div style=""font-size:60px;"">+</div>","null","html-keyboard-response","266","266687","0.0-6.0-0.130","VASC","3","f","rechts","21","","fixation","","","",""
"1093","img/150_180.png","70","image-keyboard-response","267","267795","0.0-6.0-1.130","VASC","3","f","rechts","21","","","object","f","150","true"
"null","<div style=""font-size:60px;"">+</div>","null","html-keyboard-response","268","268212","0.0-6.0-0.131","VASC","3","f","rechts","21","","fixation","","","",""
"1124","img/L90_180.png","74","image-keyboard-response","269","269350","0.0-6.0-1.131","VASC","3","f","rechts","21","","","object","j","90","true"
"null","<div style=""font-size:60px;"">+</div>","null","html-keyboard-response","270","269718","0.0-6.0-0.132","VASC","3","f","rechts","21","","fixation","","","",""
"1173","img/90_30.png","70","image-keyboard-response","271","270900","0.0-6.0-1.132","VASC","3","f","rechts","21","","","object","f","90","true"
"null","<div style=""font-size:60px;"">+</div>","null","html-keyboard-response","272","271312","0.0-6.0-0.133","VASC","3","f","rechts","21","","fixation","","","",""
"1396","img/150_270.png","74","image-keyboard-response","273","272722","0.0-6.0-1.133","VASC","3","f","rechts","21","","","object","j","150","true"
"null","<div style=""font-size:60px;"">+</div>","null","html-keyboard-response","274","273246","0.0-6.0-0.134","VASC","3","f","rechts","21","","fixation","","","",""
"827","img/0_270.png","70","image-keyboard-response","275","274085","0.0-6.0-1.134","VASC","3","f","rechts","21","","","object","f","0","true"
"null","<div style=""font-size:60px;"">+</div>","null","html-keyboard-response","276","274541","0.0-6.0-0.135","VASC","3","f","rechts","21","","fixation","","","",""
"645","img/0_210.png","70","image-keyboard-response","277","275200","0.0-6.0-1.135","VASC","3","f","rechts","21","","","object","f","0","true"
"null","<div style=""font-size:60px;"">+</div>","null","html-keyboard-response","278","275666","0.0-6.0-0.136","VASC","3","f","rechts","21","","fixation","","","",""
"1970","img/120_150.png","74","image-keyboard-response","279","277645","0.0-6.0-1.136","VASC","3","f","rechts","21","","","object","j","120","true"
"null","<div style=""font-size:60px;"">+</div>","null","html-keyboard-response","280","278151","0.0-6.0-0.137","VASC","3","f","rechts","21","","fixation","","","",""
"1411","img/L60_180.png","74","image-keyboard-response","281","279572","0.0-6.0-1.137","VASC","3","f","rechts","21","","","object","j","60","true"
"null","<div style=""font-size:60px;"">+</div>","null","html-keyboard-response","282","280026","0.0-6.0-0.138","VASC","3","f","rechts","21","","fixation","","","",""
"828","img/90_60.png","70","image-keyboard-response","283","280867","0.0-6.0-1.138","VASC","3","f","rechts","21","","","object","f","90","true"
"null","<div style=""font-size:60px;"">+</div>","null","html-keyboard-response","284","281385","0.0-6.0-0.139","VASC","3","f","rechts","21","","fixation","","","",""
"2341","img/120_210.png","70","image-keyboard-response","285","283731","0.0-6.0-1.139","VASC","3","f","rechts","21","","","object","f","120","true"
"null","<div style=""font-size:60px;"">+</div>","null","html-keyboard-response","286","284242","0.0-6.0-0.140","VASC","3","f","rechts","21","","fixation","","","",""
"1507","img/150_120.png","70","image-keyboard-response","287","285762","0.0-6.0-1.140","VASC","3","f","rechts","21","","","object","f","150","true"
"null","<div style=""font-size:60px;"">+</div>","null","html-keyboard-response","288","286186","0.0-6.0-0.141","VASC","3","f","rechts","21","","fixation","","","",""
"793","img/0_120.png","74","image-keyboard-response","289","286987","0.0-6.0-1.141","VASC","3","f","rechts","21","","","object","j","0","true"
"null","<div style=""font-size:60px;"">+</div>","null","html-keyboard-response","290","287419","0.0-6.0-0.142","VASC","3","f","rechts","21","","fixation","","","",""
"1679","img/30_300.png","70","image-keyboard-response","291","289103","0.0-6.0-1.142","VASC","3","f","rechts","21","","","object","f","30","true"
"null","<div style=""font-size:60px;"">+</div>","null","html-keyboard-response","292","289418","0.0-6.0-0.143","VASC","3","f","rechts","21","","fixation","","","",""
"1153","img/150_90.png","70","image-keyboard-response","293","290577","0.0-6.0-1.143","VASC","3","f","rechts","21","","","object","f","150","true"
"null","<div style=""font-size:60px;"">+</div>","null","html-keyboard-response","294","291091","0.0-6.0-0.144","VASC","3","f","rechts","21","","fixation","","","",""
"812","img/150_300.png","74","image-keyboard-response","295","291917","0.0-6.0-1.144","VASC","3","f","rechts","21","","","object","j","150","true"
"null","<div style=""font-size:60px;"">+</div>","null","html-keyboard-response","296","292280","0.0-6.0-0.145","VASC","3","f","rechts","21","","fixation","","","",""
"1054","img/30_180.png","70","image-keyboard-response","297","293346","0.0-6.0-1.145","VASC","3","f","rechts","21","","","object","f","30","true"
"null","<div style=""font-size:60px;"">+</div>","null","html-keyboard-response","298","293749","0.0-6.0-0.146","VASC","3","f","rechts","21","","fixation","","","",""
"1016","img/90_180.png","70","image-keyboard-response","299","294774","0.0-6.0-1.146","VASC","3","f","rechts","21","","","object","f","90","true"
"null","<div style=""font-size:60px;"">+</div>","null","html-keyboard-response","300","295242","0.0-6.0-0.147","VASC","3","f","rechts","21","","fixation","","","",""
"1364","img/90_300.png","74","image-keyboard-response","301","296619","0.0-6.0-1.147","VASC","3","f","rechts","21","","","object","j","90","true"
"null","<div style=""font-size:60px;"">+</div>","null","html-keyboard-response","302","296978","0.0-6.0-0.148","VASC","3","f","rechts","21","","fixation","","","",""
"903","img/60_30.png","70","image-keyboard-response","303","297890","0.0-6.0-1.148","VASC","3","f","rechts","21","","","object","f","60","true"
"null","<div style=""font-size:60px;"">+</div>","null","html-keyboard-response","304","298242","0.0-6.0-0.149","VASC","3","f","rechts","21","","fixation","","","",""
"1580","img/90_240.png","74","image-keyboard-response","305","299836","0.0-6.0-1.149","VASC","3","f","rechts","21","","","object","f","90","false"
"null","<div style=""font-size:60px;"">+</div>","null","html-keyboard-response","306","300242","0.0-6.0-0.150","VASC","3","f","rechts","21","","fixation","","","",""
"772","img/0_150.png","74","image-keyboard-response","307","301029","0.0-6.0-1.150","VASC","3","f","rechts","21","","","object","j","0","true"
"null","<div style=""font-size:60px;"">+</div>","null","html-keyboard-response","308","301436","0.0-6.0-0.151","VASC","3","f","rechts","21","","fixation","","","",""
"841","img/60_180.png","70","image-keyboard-response","309","302287","0.0-6.0-1.151","VASC","3","f","rechts","21","","","object","f","60","true"
"null","<div style=""font-size:60px;"">+</div>","null","html-keyboard-response","310","302654","0.0-6.0-0.152","VASC","3","f","rechts","21","","fixation","","","",""
"700","img/0_60.png","74","image-keyboard-response","311","303368","0.0-6.0-1.152","VASC","3","f","rechts","21","","","object","j","0","true"
"null","<div style=""font-size:60px;"">+</div>","null","html-keyboard-response","312","303789","0.0-6.0-0.153","VASC","3","f","rechts","21","","fixation","","","",""
"872","img/150_60.png","70","image-keyboard-response","313","304674","0.0-6.0-1.153","VASC","3","f","rechts","21","","","object","f","150","true"
"null","<div style=""font-size:60px;"">+</div>","null","html-keyboard-response","314","304991","0.0-6.0-0.154","VASC","3","f","rechts","21","","fixation","","","",""
"1052","img/30_90.png","74","image-keyboard-response","315","306056","0.0-6.0-1.154","VASC","3","f","rechts","21","","","object","j","30","true"
"null","<div style=""font-size:60px;"">+</div>","null","html-keyboard-response","316","306476","0.0-6.0-0.155","VASC","3","f","rechts","21","","fixation","","","",""
"1152","img/120_90.png","70","image-keyboard-response","317","307633","0.0-6.0-1.155","VASC","3","f","rechts","21","","","object","f","120","true"
"null","<div style=""font-size:60px;"">+</div>","null","html-keyboard-response","318","308040","0.0-6.0-0.156","VASC","3","f","rechts","21","","fixation","","","",""
"968","img/30_90.png","74","image-keyboard-response","319","309017","0.0-6.0-1.156","VASC","3","f","rechts","21","","","object","j","30","true"
"null","<div style=""font-size:60px;"">+</div>","null","html-keyboard-response","320","309369","0.0-6.0-0.157","VASC","3","f","rechts","21","","fixation","","","",""
"1649","img/90_210.png","70","image-keyboard-response","321","311030","0.0-6.0-1.157","VASC","3","f","rechts","21","","","object","f","90","true"
"null","<div style=""font-size:60px;"">+</div>","null","html-keyboard-response","322","311463","0.0-6.0-0.158","VASC","3","f","rechts","21","","fixation","","","",""
"1508","img/120_180.png","70","image-keyboard-response","323","312975","0.0-6.0-1.158","VASC","3","f","rechts","21","","","object","f","120","true"
"null","<div style=""font-size:60px;"">+</div>","null","html-keyboard-response","324","313337","0.0-6.0-0.159","VASC","3","f","rechts","21","","fixation","","","",""
"806","img/120_330.png","74","image-keyboard-response","325","314156","0.0-6.0-1.159","VASC","3","f","rechts","21","","","object","j","120","true"
"null","<div style=""font-size:60px;"">+</div>","null","html-keyboard-response","326","314538","0.0-6.0-0.160","VASC","3","f","rechts","21","","fixation","","","",""
"1188","img/30_120.png","70","image-keyboard-response","327","315732","0.0-6.0-1.160","VASC","3","f","rechts","21","","","object","j","30","false"
"null","<div style=""font-size:60px;"">+</div>","null","html-keyboard-response","328","316195","0.0-6.0-0.161","VASC","3","f","rechts","21","","fixation","","","",""
"1986","img/120_90.png","70","image-keyboard-response","329","318190","0.0-6.0-1.161","VASC","3","f","rechts","21","","","object","f","120","true"
"null","<div style=""font-size:60px;"">+</div>","null","html-keyboard-response","330","318609","0.0-6.0-0.162","VASC","3","f","rechts","21","","fixation","","","",""
"1307","img/L120_180.png","74","image-keyboard-response","331","319929","0.0-6.0-1.162","VASC","3","f","rechts","21","","","object","j","120","true"
"null","<div style=""font-size:60px;"">+</div>","null","html-keyboard-response","332","320250","0.0-6.0-0.163","VASC","3","f","rechts","21","","fixation","","","",""
"840","img/0_300.png","70","image-keyboard-response","333","321099","0.0-6.0-1.163","VASC","3","f","rechts","21","","","object","f","0","true"
"null","<div style=""font-size:60px;"">+</div>","null","html-keyboard-response","334","321454","0.0-6.0-0.164","VASC","3","f","rechts","21","","fixation","","","",""
"917","img/150_60.png","70","image-keyboard-response","335","322380","0.0-6.0-1.164","VASC","3","f","rechts","21","","","object","f","150","true"
"null","<div style=""font-size:60px;"">+</div>","null","html-keyboard-response","336","322844","0.0-6.0-0.165","VASC","3","f","rechts","21","","fixation","","","",""
"813","img/90_300.png","74","image-keyboard-response","337","323665","0.0-6.0-1.165","VASC","3","f","rechts","21","","","object","j","90","true"
"null","<div style=""font-size:60px;"">+</div>","null","html-keyboard-response","338","324090","0.0-6.0-0.166","VASC","3","f","rechts","21","","fixation","","","",""
"768","img/0_60.png","74","image-keyboard-response","339","324867","0.0-6.0-1.166","VASC","3","f","rechts","21","","","object","j","0","true"
"null","<div style=""font-size:60px;"">+</div>","null","html-keyboard-response","340","325245","0.0-6.0-0.167","VASC","3","f","rechts","21","","fixation","","","",""
"1782","img/120_210.png","70","image-keyboard-response","341","327039","0.0-6.0-1.167","VASC","3","f","rechts","21","","","object","f","120","true"
"null","<div style=""font-size:60px;"">+</div>","null","html-keyboard-response","342","327415","0.0-6.0-0.168","VASC","3","f","rechts","21","","fixation","","","",""
"935","img/90_30.png","70","image-keyboard-response","343","328355","0.0-6.0-1.168","VASC","3","f","rechts","21","","","object","f","90","true"
"null","<div style=""font-size:60px;"">+</div>","null","html-keyboard-response","344","328779","0.0-6.0-0.169","VASC","3","f","rechts","21","","fixation","","","",""
"1243","img/150_270.png","74","image-keyboard-response","345","330033","0.0-6.0-1.169","VASC","3","f","rechts","21","","","object","j","150","true"
"null","<div style=""font-size:60px;"">+</div>","null","html-keyboard-response","346","330542","0.0-6.0-0.170","VASC","3","f","rechts","21","","fixation","","","",""
"1226","img/60_150.png","74","image-keyboard-response","347","331774","0.0-6.0-1.170","VASC","3","f","rechts","21","","","object","j","60","true"
"null","<div style=""font-size:60px;"">+</div>","null","html-keyboard-response","348","332230","0.0-6.0-0.171","VASC","3","f","rechts","21","","fixation","","","",""
"769","img/0_330.png","70","image-keyboard-response","349","333013","0.0-6.0-1.171","VASC","3","f","rechts","21","","","object","f","0","true"
"null","<div style=""font-size:60px;"">+</div>","null","html-keyboard-response","350","333372","0.0-6.0-0.172","VASC","3","f","rechts","21","","fixation","","","",""
"865","img/60_30.png","70","image-keyboard-response","351","334250","0.0-6.0-1.172","VASC","3","f","rechts","21","","","object","f","60","true"
"null","<div style=""font-size:60px;"">+</div>","null","html-keyboard-response","352","334700","0.0-6.0-0.173","VASC","3","f","rechts","21","","fixation","","","",""
"762","img/90_330.png","74","image-keyboard-response","353","335476","0.0-6.0-1.173","VASC","3","f","rechts","21","","","object","j","90","true"
"null","<div style=""font-size:60px;"">+</div>","null","html-keyboard-response","354","335887","0.0-6.0-0.174","VASC","3","f","rechts","21","","fixation","","","",""
"1312","img/150_300.png","74","image-keyboard-response","355","337208","0.0-6.0-1.174","VASC","3","f","rechts","21","","","object","j","150","true"
"null","<div style=""font-size:60px;"">+</div>","null","html-keyboard-response","356","337715","0.0-6.0-0.175","VASC","3","f","rechts","21","","fixation","","","",""
"1373","img/90_60.png","70","image-keyboard-response","357","339099","0.0-6.0-1.175","VASC","3","f","rechts","21","","","object","f","90","true"
"null","<div style=""font-size:60px;"">+</div>","null","html-keyboard-response","358","339528","0.0-6.0-0.176","VASC","3","f","rechts","21","","fixation","","","",""
"1321","img/150_90.png","70","image-keyboard-response","359","340854","0.0-6.0-1.176","VASC","3","f","rechts","21","","","object","f","150","true"
"null","<div style=""font-size:60px;"">+</div>","null","html-keyboard-response","360","341216","0.0-6.0-0.177","VASC","3","f","rechts","21","","fixation","","","",""
"1200","img/30_240.png","70","image-keyboard-response","361","342429","0.0-6.0-1.177","VASC","3","f","rechts","21","","","object","f","30","true"
"null","<div style=""font-size:60px;"">+</div>","null","html-keyboard-response","362","342856","0.0-6.0-0.178","VASC","3","f","rechts","21","","fixation","","","",""
"1044","img/60_210.png","70","image-keyboard-response","363","343913","0.0-6.0-1.178","VASC","3","f","rechts","21","","","object","f","60","true"
"null","<div style=""font-size:60px;"">+</div>","null","html-keyboard-response","364","344420","0.0-6.0-0.179","VASC","3","f","rechts","21","","fixation","","","",""
"1628","img/90_150.png","74","image-keyboard-response","365","346061","0.0-6.0-1.179","VASC","3","f","rechts","21","","","object","j","90","true"
"null","<div style=""font-size:60px;"">+</div>","null","html-keyboard-response","366","346593","0.0-6.0-0.180","VASC","3","f","rechts","21","","fixation","","","",""
"788","img/0_30.png","74","image-keyboard-response","367","347390","0.0-6.0-1.180","VASC","3","f","rechts","21","","","object","j","0","true"
"null","<div style=""font-size:60px;"">+</div>","null","html-keyboard-response","368","347701","0.0-6.0-0.181","VASC","3","f","rechts","21","","fixation","","","",""
"727","img/0_210.png","70","image-keyboard-response","369","348437","0.0-6.0-1.181","VASC","3","f","rechts","21","","","object","f","0","true"
"null","<div style=""font-size:60px;"">+</div>","null","html-keyboard-response","370","348968","0.0-6.0-0.182","VASC","3","f","rechts","21","","fixation","","","",""
"1225","img/L90_180.png","74","image-keyboard-response","371","350203","0.0-6.0-1.182","VASC","3","f","rechts","21","","","object","j","90","true"
"null","<div style=""font-size:60px;"">+</div>","null","html-keyboard-response","372","350574","0.0-6.0-0.183","VASC","3","f","rechts","21","","fixation","","","",""
"1750","img/L150_180.png","74","image-keyboard-response","373","352329","0.0-6.0-1.183","VASC","3","f","rechts","21","","","object","j","150","true"
"null","<div style=""font-size:60px;"">+</div>","null","html-keyboard-response","374","352761","0.0-6.0-0.184","VASC","3","f","rechts","21","","fixation","","","",""
"949","img/120_270.png","74","image-keyboard-response","375","353724","0.0-6.0-1.184","VASC","3","f","rechts","21","","","object","j","120","true"
"null","<div style=""font-size:60px;"">+</div>","null","html-keyboard-response","376","354125","0.0-6.0-0.185","VASC","3","f","rechts","21","","fixation","","","",""
"1025","img/90_180.png","70","image-keyboard-response","377","355164","0.0-6.0-1.185","VASC","3","f","rechts","21","","","object","f","90","true"
"null","<div style=""font-size:60px;"">+</div>","null","html-keyboard-response","378","355688","0.0-6.0-0.186","VASC","3","f","rechts","21","","fixation","","","",""
"1887","img/150_120.png","74","image-keyboard-response","379","357584","0.0-6.0-1.186","VASC","3","f","rechts","21","","","object","f","150","false"
"null","<div style=""font-size:60px;"">+</div>","null","html-keyboard-response","380","357960","0.0-6.0-0.187","VASC","3","f","rechts","21","","fixation","","","",""
"1513","img/120_150.png","74","image-keyboard-response","381","359485","0.0-6.0-1.187","VASC","3","f","rechts","21","","","object","j","120","true"
"null","<div style=""font-size:60px;"">+</div>","null","html-keyboard-response","382","359841","0.0-6.0-0.188","VASC","3","f","rechts","21","","fixation","","","",""
"887","img/30_60.png","70","image-keyboard-response","383","360745","0.0-6.0-1.188","VASC","3","f","rechts","21","","","object","j","30","false"
"null","<div style=""font-size:60px;"">+</div>","null","html-keyboard-response","384","361108","0.0-6.0-0.189","VASC","3","f","rechts","21","","fixation","","","",""
"770","img/0_240.png","70","image-keyboard-response","385","361891","0.0-6.0-1.189","VASC","3","f","rechts","21","","","object","f","0","true"
"null","<div style=""font-size:60px;"">+</div>","null","html-keyboard-response","386","362263","0.0-6.0-0.190","VASC","3","f","rechts","21","","fixation","","","",""
"705","img/0_120.png","74","image-keyboard-response","387","362982","0.0-6.0-1.190","VASC","3","f","rechts","21","","","object","j","0","true"
"null","<div style=""font-size:60px;"">+</div>","null","html-keyboard-response","388","363290","0.0-6.0-0.191","VASC","3","f","rechts","21","","fixation","","","",""
"1614","img/60_270.png","70","image-keyboard-response","389","364917","0.0-6.0-1.191","VASC","3","f","rechts","21","","","object","f","60","true"
"null","<div style=""font-size:60px;"">+</div>","null","html-keyboard-response","390","365384","0.0-6.0-0.192","VASC","3","f","rechts","21","","fixation","","","",""
"1636","img/150_180.png","70","image-keyboard-response","391","367034","0.0-6.0-1.192","VASC","3","f","rechts","21","","","object","f","150","true"
"null","<div style=""font-size:60px;"">+</div>","null","html-keyboard-response","392","367489","0.0-6.0-0.193","VASC","3","f","rechts","21","","fixation","","","",""
"2665","img/90_120.png","74","image-keyboard-response","393","370167","0.0-6.0-1.193","VASC","3","f","rechts","21","","","object","j","90","true"
"null","<div style=""font-size:60px;"">+</div>","null","html-keyboard-response","394","370646","0.0-6.0-0.194","VASC","3","f","rechts","21","","fixation","","","",""
"2097","img/90_240.png","70","image-keyboard-response","395","372753","0.0-6.0-1.194","VASC","3","f","rechts","21","","","object","f","90","true"
"null","<div style=""font-size:60px;"">+</div>","null","html-keyboard-response","396","373069","0.0-6.0-0.195","VASC","3","f","rechts","21","","fixation","","","",""
"1207","img/30_180.png","70","image-keyboard-response","397","374289","0.0-6.0-1.195","VASC","3","f","rechts","21","","","object","f","30","true"
"null","<div style=""font-size:60px;"">+</div>","null","html-keyboard-response","398","374706","0.0-6.0-0.196","VASC","3","f","rechts","21","","fixation","","","",""
"905","img/0_90.png","74","image-keyboard-response","399","375627","0.0-6.0-1.196","VASC","3","f","rechts","21","","","object","j","0","true"
"null","<div style=""font-size:60px;"">+</div>","null","html-keyboard-response","400","376003","0.0-6.0-0.197","VASC","3","f","rechts","21","","fixation","","","",""
"740","img/0_150.png","74","image-keyboard-response","401","376754","0.0-6.0-1.197","VASC","3","f","rechts","21","","","object","j","0","true"
"null","<div style=""font-size:60px;"">+</div>","null","html-keyboard-response","402","377207","0.0-6.0-0.198","VASC","3","f","rechts","21","","fixation","","","",""
"849","img/30_270.png","70","image-keyboard-response","403","378069","0.0-6.0-1.198","VASC","3","f","rechts","21","","","object","f","30","true"
"null","<div style=""font-size:60px;"">+</div>","null","html-keyboard-response","404","378385","0.0-6.0-0.199","VASC","3","f","rechts","21","","fixation","","","",""
"null","img/150_240.png","null","image-keyboard-response","405","381415","0.0-6.0-1.199","VASC","3","f","rechts","21","","","object","j","150","false"
"null","<div style=""font-size:60px;"">+</div>","null","html-keyboard-response","406","381825","0.0-6.0-0.200","VASC","3","f","rechts","21","","fixation","","","",""
"1091","img/60_90.png","74","image-keyboard-response","407","382930","0.0-6.0-1.200","VASC","3","f","rechts","21","","","object","j","60","true"
"null","<div style=""font-size:60px;"">+</div>","null","html-keyboard-response","408","383401","0.0-6.0-0.201","VASC","3","f","rechts","21","","fixation","","","",""
"1040","img/60_180.png","70","image-keyboard-response","409","384450","0.0-6.0-1.201","VASC","3","f","rechts","21","","","object","f","60","true"
"null","<div style=""font-size:60px;"">+</div>","null","html-keyboard-response","410","384962","0.0-6.0-0.202","VASC","3","f","rechts","21","","fixation","","","",""
"876","img/L60_180.png","74","image-keyboard-response","411","385854","0.0-6.0-1.202","VASC","3","f","rechts","21","","","object","j","60","true"
"null","<div style=""font-size:60px;"">+</div>","null","html-keyboard-response","412","386321","0.0-6.0-0.203","VASC","3","f","rechts","21","","fixation","","","",""
"1183","img/120_30.png","70","image-keyboard-response","413","387519","0.0-6.0-1.203","VASC","3","f","rechts","21","","","object","f","120","true"
"null","<div style=""font-size:60px;"">+</div>","null","html-keyboard-response","414","387978","0.0-6.0-0.204","VASC","3","f","rechts","21","","fixation","","","",""
"831","img/60_330.png","74","image-keyboard-response","415","388813","0.0-6.0-1.204","VASC","3","f","rechts","21","","","object","j","60","true"
"null","<div style=""font-size:60px;"">+</div>","null","html-keyboard-response","416","389276","0.0-6.0-0.205","VASC","3","f","rechts","21","","fixation","","","",""
"1585","img/30_300.png","70","image-keyboard-response","417","390874","0.0-6.0-1.205","VASC","3","f","rechts","21","","","object","f","30","true"
"null","<div style=""font-size:60px;"">+</div>","null","html-keyboard-response","418","391294","0.0-6.0-0.206","VASC","3","f","rechts","21","","fixation","","","",""
"756","img/0_270.png","70","image-keyboard-response","419","392064","0.0-6.0-1.206","VASC","3","f","rechts","21","","","object","f","0","true"
"null","<div style=""font-size:60px;"">+</div>","null","html-keyboard-response","420","392589","0.0-6.0-0.207","VASC","3","f","rechts","21","","fixation","","","",""
"935","img/L30_180.png","74","image-keyboard-response","421","393528","0.0-6.0-1.207","VASC","3","f","rechts","21","","","object","j","30","true"
"5833","<p>Du hast in 89% der Versuche korrekt entschieden.</p><p>Deine durchschnittliche Reaktionszeit war  1121ms.</p><p>Dr&uuml;cke eine beliebige Taste, um die Session zu beenden. Vielen Dank!</p>","32","html-keyboard-response","422","399371","0.0-7.0","VASC","3","f","rechts","21","","","","","",""
