"rt","stimulus","key_press","trial_type","trial_index","time_elapsed","internal_node_id","subject","session","sex","handedness","age","responses","test_part","condition","correct_response","angle","correct"
"2961","<p>Mental Rotation Experiment.</p> <p>Dr&uuml;cke eine beliebige Taste, um anzufangen.</p>","13","html-keyboard-response","0","2995","0.0-0.0","VASC","4","f","rechts","21","","","","","",""
"8703","","","survey-text","1","11701","0.0-1.0","VASC","4","f","rechts","21","{""Q0"":""VASC""}","","","","",""
"5024","","","survey-text","2","16726","0.0-2.0","VASC","4","f","rechts","21","{""Q0"":""4""}","","","","",""
"6297","","","survey-multi-choice","3","23028","0.0-3.0","VASC","4","f","rechts","21","{""Q0"":""f"",""Q1"":""rechts""}","","","","",""
"3485","","","survey-text","4","26514","0.0-4.0","VASC","4","f","rechts","21","{""Q0"":""21""}","","","","",""
"70209","<p>Stell dir vor, dass du vor einem runden Tisch stehst, auf dem sich ein blauer Ball am Tischrand befindet. Entlang des Tischrands ist jeweils ein verschieden langer Pfeil. Nun bleibst du an deinem Platz vor dem Tisch und rotierst den Tisch entlang des Pfeils (gleiche Richtung und Länge). </p> <img src='img/30_180.png'></img> <br><p> Nachdem du diese (vorgestellte) Rotation durchgef&uuml;hrt hast, schau in Richtung der Tischmitte, und entscheide dann, ob der Ball links oder rechts von dir liegt.</p> <p>Dr&uuml;cke die <strong>'f'</strong>-Taste f&uuml;r links, die <strong>'j'</strong>-Taste f&uuml;r rechts.</p><br><p> Das Bild wird jeweils 1 Sekunde lang pr&auml;sentiert. Du hast 3 Sekunden Zeit eine Entscheidung zu treffen.</p>","13","html-keyboard-response","5","96731","0.0-5.0","VASC","4","f","rechts","21","","","","","",""
"null","<div style=""font-size:60px;"">+</div>","null","html-keyboard-response","6","98198","0.0-6.0-0.0","VASC","4","f","rechts","21","","fixation","","","",""
"2102","img/150_120.png","70","image-keyboard-response","7","100320","0.0-6.0-1.0","VASC","4","f","rechts","21","","","object","f","150","true"
"null","<div style=""font-size:60px;"">+</div>","null","html-keyboard-response","8","100788","0.0-6.0-0.1","VASC","4","f","rechts","21","","fixation","","","",""
"930","img/60_150.png","74","image-keyboard-response","9","101735","0.0-6.0-1.1","VASC","4","f","rechts","21","","","object","j","60","true"
"null","<div style=""font-size:60px;"">+</div>","null","html-keyboard-response","10","102241","0.0-6.0-0.2","VASC","4","f","rechts","21","","fixation","","","",""
"817","img/90_300.png","74","image-keyboard-response","11","103076","0.0-6.0-1.2","VASC","4","f","rechts","21","","","object","j","90","true"
"null","<div style=""font-size:60px;"">+</div>","null","html-keyboard-response","12","103444","0.0-6.0-0.3","VASC","4","f","rechts","21","","fixation","","","",""
"1222","img/L30_180.png","74","image-keyboard-response","13","104683","0.0-6.0-1.3","VASC","4","f","rechts","21","","","object","j","30","true"
"null","<div style=""font-size:60px;"">+</div>","null","html-keyboard-response","14","105146","0.0-6.0-0.4","VASC","4","f","rechts","21","","fixation","","","",""
"1225","img/30_60.png","74","image-keyboard-response","15","106391","0.0-6.0-1.4","VASC","4","f","rechts","21","","","object","j","30","true"
"null","<div style=""font-size:60px;"">+</div>","null","html-keyboard-response","16","106896","0.0-6.0-0.5","VASC","4","f","rechts","21","","fixation","","","",""
"951","img/120_270.png","74","image-keyboard-response","17","107867","0.0-6.0-1.5","VASC","4","f","rechts","21","","","object","j","120","true"
"null","<div style=""font-size:60px;"">+</div>","null","html-keyboard-response","18","108346","0.0-6.0-0.6","VASC","4","f","rechts","21","","fixation","","","",""
"1185","img/L90_180.png","74","image-keyboard-response","19","109544","0.0-6.0-1.6","VASC","4","f","rechts","21","","","object","j","90","true"
"null","<div style=""font-size:60px;"">+</div>","null","html-keyboard-response","20","110054","0.0-6.0-0.7","VASC","4","f","rechts","21","","fixation","","","",""
"910","img/90_330.png","74","image-keyboard-response","21","110984","0.0-6.0-1.7","VASC","4","f","rechts","21","","","object","j","90","true"
"null","<div style=""font-size:60px;"">+</div>","null","html-keyboard-response","22","111491","0.0-6.0-0.8","VASC","4","f","rechts","21","","fixation","","","",""
"961","img/90_180.png","70","image-keyboard-response","23","112471","0.0-6.0-1.8","VASC","4","f","rechts","21","","","object","f","90","true"
"null","<div style=""font-size:60px;"">+</div>","null","html-keyboard-response","24","112945","0.0-6.0-0.9","VASC","4","f","rechts","21","","fixation","","","",""
"835","img/150_300.png","74","image-keyboard-response","25","113796","0.0-6.0-1.9","VASC","4","f","rechts","21","","","object","j","150","true"
"null","<div style=""font-size:60px;"">+</div>","null","html-keyboard-response","26","114319","0.0-6.0-0.10","VASC","4","f","rechts","21","","fixation","","","",""
"797","img/0_240.png","70","image-keyboard-response","27","115136","0.0-6.0-1.10","VASC","4","f","rechts","21","","","object","f","0","true"
"null","<div style=""font-size:60px;"">+</div>","null","html-keyboard-response","28","115460","0.0-6.0-0.11","VASC","4","f","rechts","21","","fixation","","","",""
"995","img/60_180.png","70","image-keyboard-response","29","116471","0.0-6.0-1.11","VASC","4","f","rechts","21","","","object","f","60","true"
"null","<div style=""font-size:60px;"">+</div>","null","html-keyboard-response","30","116976","0.0-6.0-0.12","VASC","4","f","rechts","21","","fixation","","","",""
"806","img/120_30.png","70","image-keyboard-response","31","117800","0.0-6.0-1.12","VASC","4","f","rechts","21","","","object","f","120","true"
"null","<div style=""font-size:60px;"">+</div>","null","html-keyboard-response","32","118127","0.0-6.0-0.13","VASC","4","f","rechts","21","","fixation","","","",""
"2105","img/150_180.png","70","image-keyboard-response","33","120249","0.0-6.0-1.13","VASC","4","f","rechts","21","","","object","f","150","true"
"null","<div style=""font-size:60px;"">+</div>","null","html-keyboard-response","34","120605","0.0-6.0-0.14","VASC","4","f","rechts","21","","fixation","","","",""
"773","img/0_60.png","74","image-keyboard-response","35","121400","0.0-6.0-1.14","VASC","4","f","rechts","21","","","object","j","0","true"
"null","<div style=""font-size:60px;"">+</div>","null","html-keyboard-response","36","121777","0.0-6.0-0.15","VASC","4","f","rechts","21","","fixation","","","",""
"675","img/0_90.png","74","image-keyboard-response","37","122467","0.0-6.0-1.15","VASC","4","f","rechts","21","","","object","j","0","true"
"null","<div style=""font-size:60px;"">+</div>","null","html-keyboard-response","38","122843","0.0-6.0-0.16","VASC","4","f","rechts","21","","fixation","","","",""
"630","img/0_120.png","74","image-keyboard-response","39","123493","0.0-6.0-1.16","VASC","4","f","rechts","21","","","object","j","0","true"
"null","<div style=""font-size:60px;"">+</div>","null","html-keyboard-response","40","123963","0.0-6.0-0.17","VASC","4","f","rechts","21","","fixation","","","",""
"881","img/150_270.png","74","image-keyboard-response","41","124867","0.0-6.0-1.17","VASC","4","f","rechts","21","","","object","j","150","true"
"null","<div style=""font-size:60px;"">+</div>","null","html-keyboard-response","42","125242","0.0-6.0-0.18","VASC","4","f","rechts","21","","fixation","","","",""
"1090","img/90_210.png","70","image-keyboard-response","43","126350","0.0-6.0-1.18","VASC","4","f","rechts","21","","","object","f","90","true"
"null","<div style=""font-size:60px;"">+</div>","null","html-keyboard-response","44","126713","0.0-6.0-0.19","VASC","4","f","rechts","21","","fixation","","","",""
"1073","img/30_90.png","74","image-keyboard-response","45","127803","0.0-6.0-1.19","VASC","4","f","rechts","21","","","object","j","30","true"
"null","<div style=""font-size:60px;"">+</div>","null","html-keyboard-response","46","128322","0.0-6.0-0.20","VASC","4","f","rechts","21","","fixation","","","",""
"778","img/0_150.png","74","image-keyboard-response","47","129119","0.0-6.0-1.20","VASC","4","f","rechts","21","","","object","j","0","true"
"null","<div style=""font-size:60px;"">+</div>","null","html-keyboard-response","48","129571","0.0-6.0-0.21","VASC","4","f","rechts","21","","fixation","","","",""
"755","img/0_330.png","70","image-keyboard-response","49","130335","0.0-6.0-1.21","VASC","4","f","rechts","21","","","object","f","0","true"
"null","<div style=""font-size:60px;"">+</div>","null","html-keyboard-response","50","130761","0.0-6.0-0.22","VASC","4","f","rechts","21","","fixation","","","",""
"1018","img/150_90.png","70","image-keyboard-response","51","131796","0.0-6.0-1.22","VASC","4","f","rechts","21","","","object","f","150","true"
"null","<div style=""font-size:60px;"">+</div>","null","html-keyboard-response","52","132261","0.0-6.0-0.23","VASC","4","f","rechts","21","","fixation","","","",""
"1500","img/30_270.png","70","image-keyboard-response","53","133777","0.0-6.0-1.23","VASC","4","f","rechts","21","","","object","f","30","true"
"null","<div style=""font-size:60px;"">+</div>","null","html-keyboard-response","54","134292","0.0-6.0-0.24","VASC","4","f","rechts","21","","fixation","","","",""
"751","img/30_240.png","70","image-keyboard-response","55","135060","0.0-6.0-1.24","VASC","4","f","rechts","21","","","object","f","30","true"
"null","<div style=""font-size:60px;"">+</div>","null","html-keyboard-response","56","135371","0.0-6.0-0.25","VASC","4","f","rechts","21","","fixation","","","",""
"750","img/0_300.png","70","image-keyboard-response","57","136140","0.0-6.0-1.25","VASC","4","f","rechts","21","","","object","f","0","true"
"null","<div style=""font-size:60px;"">+</div>","null","html-keyboard-response","58","136651","0.0-6.0-0.26","VASC","4","f","rechts","21","","fixation","","","",""
"897","img/60_30.png","70","image-keyboard-response","59","137566","0.0-6.0-1.26","VASC","4","f","rechts","21","","","object","f","60","true"
"null","<div style=""font-size:60px;"">+</div>","null","html-keyboard-response","60","138073","0.0-6.0-0.27","VASC","4","f","rechts","21","","fixation","","","",""
"1570","img/60_90.png","74","image-keyboard-response","61","139661","0.0-6.0-1.27","VASC","4","f","rechts","21","","","object","j","60","true"
"null","<div style=""font-size:60px;"">+</div>","null","html-keyboard-response","62","140181","0.0-6.0-0.28","VASC","4","f","rechts","21","","fixation","","","",""
"1272","img/L60_180.png","74","image-keyboard-response","63","141471","0.0-6.0-1.28","VASC","4","f","rechts","21","","","object","j","60","true"
"null","<div style=""font-size:60px;"">+</div>","null","html-keyboard-response","64","141977","0.0-6.0-0.29","VASC","4","f","rechts","21","","fixation","","","",""
"761","img/0_30.png","74","image-keyboard-response","65","142755","0.0-6.0-1.29","VASC","4","f","rechts","21","","","object","j","0","true"
"null","<div style=""font-size:60px;"">+</div>","null","html-keyboard-response","66","143072","0.0-6.0-0.30","VASC","4","f","rechts","21","","fixation","","","",""
"922","img/L120_180.png","74","image-keyboard-response","67","144013","0.0-6.0-1.30","VASC","4","f","rechts","21","","","object","j","120","true"
"null","<div style=""font-size:60px;"">+</div>","null","html-keyboard-response","68","144431","0.0-6.0-0.31","VASC","4","f","rechts","21","","fixation","","","",""
"881","img/90_30.png","70","image-keyboard-response","69","145329","0.0-6.0-1.31","VASC","4","f","rechts","21","","","object","f","90","true"
"null","<div style=""font-size:60px;"">+</div>","null","html-keyboard-response","70","145743","0.0-6.0-0.32","VASC","4","f","rechts","21","","fixation","","","",""
"1277","img/90_240.png","74","image-keyboard-response","71","147038","0.0-6.0-1.32","VASC","4","f","rechts","21","","","object","f","90","false"
"null","<div style=""font-size:60px;"">+</div>","null","html-keyboard-response","72","147367","0.0-6.0-0.33","VASC","4","f","rechts","21","","fixation","","","",""
"1245","img/30_180.png","70","image-keyboard-response","73","148625","0.0-6.0-1.33","VASC","4","f","rechts","21","","","object","f","30","true"
"null","<div style=""font-size:60px;"">+</div>","null","html-keyboard-response","74","149042","0.0-6.0-0.34","VASC","4","f","rechts","21","","fixation","","","",""
"904","img/120_180.png","70","image-keyboard-response","75","149965","0.0-6.0-1.34","VASC","4","f","rechts","21","","","object","f","120","true"
"null","<div style=""font-size:60px;"">+</div>","null","html-keyboard-response","76","150394","0.0-6.0-0.35","VASC","4","f","rechts","21","","fixation","","","",""
"1181","img/120_150.png","74","image-keyboard-response","77","151595","0.0-6.0-1.35","VASC","4","f","rechts","21","","","object","j","120","true"
"null","<div style=""font-size:60px;"">+</div>","null","html-keyboard-response","78","152099","0.0-6.0-0.36","VASC","4","f","rechts","21","","fixation","","","",""
"887","img/30_120.png","74","image-keyboard-response","79","153003","0.0-6.0-1.36","VASC","4","f","rechts","21","","","object","j","30","true"
"null","<div style=""font-size:60px;"">+</div>","null","html-keyboard-response","80","153458","0.0-6.0-0.37","VASC","4","f","rechts","21","","fixation","","","",""
"1270","img/L150_180.png","74","image-keyboard-response","81","154759","0.0-6.0-1.37","VASC","4","f","rechts","21","","","object","j","150","true"
"null","<div style=""font-size:60px;"">+</div>","null","html-keyboard-response","82","155114","0.0-6.0-0.38","VASC","4","f","rechts","21","","fixation","","","",""
"2331","img/60_270.png","70","image-keyboard-response","83","157462","0.0-6.0-1.38","VASC","4","f","rechts","21","","","object","f","60","true"
"null","<div style=""font-size:60px;"">+</div>","null","html-keyboard-response","84","157934","0.0-6.0-0.39","VASC","4","f","rechts","21","","fixation","","","",""
"810","img/30_300.png","70","image-keyboard-response","85","158762","0.0-6.0-1.39","VASC","4","f","rechts","21","","","object","f","30","true"
"null","<div style=""font-size:60px;"">+</div>","null","html-keyboard-response","86","159068","0.0-6.0-0.40","VASC","4","f","rechts","21","","fixation","","","",""
"970","img/90_150.png","74","image-keyboard-response","87","160058","0.0-6.0-1.40","VASC","4","f","rechts","21","","","object","j","90","true"
"null","<div style=""font-size:60px;"">+</div>","null","html-keyboard-response","88","160460","0.0-6.0-0.41","VASC","4","f","rechts","21","","fixation","","","",""
"1569","img/150_240.png","74","image-keyboard-response","89","162047","0.0-6.0-1.41","VASC","4","f","rechts","21","","","object","j","150","true"
"null","<div style=""font-size:60px;"">+</div>","null","html-keyboard-response","90","162569","0.0-6.0-0.42","VASC","4","f","rechts","21","","fixation","","","",""
"956","img/150_60.png","70","image-keyboard-response","91","163532","0.0-6.0-1.42","VASC","4","f","rechts","21","","","object","f","150","true"
"null","<div style=""font-size:60px;"">+</div>","null","html-keyboard-response","92","163959","0.0-6.0-0.43","VASC","4","f","rechts","21","","fixation","","","",""
"1064","img/90_60.png","70","image-keyboard-response","93","165041","0.0-6.0-1.43","VASC","4","f","rechts","21","","","object","f","90","true"
"null","<div style=""font-size:60px;"">+</div>","null","html-keyboard-response","94","165397","0.0-6.0-0.44","VASC","4","f","rechts","21","","fixation","","","",""
"794","img/60_330.png","74","image-keyboard-response","95","166209","0.0-6.0-1.44","VASC","4","f","rechts","21","","","object","j","60","true"
"null","<div style=""font-size:60px;"">+</div>","null","html-keyboard-response","96","166725","0.0-6.0-0.45","VASC","4","f","rechts","21","","fixation","","","",""
"749","img/0_270.png","70","image-keyboard-response","97","167493","0.0-6.0-1.45","VASC","4","f","rechts","21","","","object","f","0","true"
"null","<div style=""font-size:60px;"">+</div>","null","html-keyboard-response","98","168021","0.0-6.0-0.46","VASC","4","f","rechts","21","","fixation","","","",""
"2183","img/120_210.png","70","image-keyboard-response","99","170222","0.0-6.0-1.46","VASC","4","f","rechts","21","","","object","f","120","true"
"null","<div style=""font-size:60px;"">+</div>","null","html-keyboard-response","100","170701","0.0-6.0-0.47","VASC","4","f","rechts","21","","fixation","","","",""
"925","img/120_90.png","70","image-keyboard-response","101","171643","0.0-6.0-1.47","VASC","4","f","rechts","21","","","object","f","120","true"
"null","<div style=""font-size:60px;"">+</div>","null","html-keyboard-response","102","171999","0.0-6.0-0.48","VASC","4","f","rechts","21","","fixation","","","",""
"1364","img/90_120.png","74","image-keyboard-response","103","173400","0.0-6.0-1.48","VASC","4","f","rechts","21","","","object","j","90","true"
"null","<div style=""font-size:60px;"">+</div>","null","html-keyboard-response","104","173883","0.0-6.0-0.49","VASC","4","f","rechts","21","","fixation","","","",""
"742","img/0_210.png","70","image-keyboard-response","105","174647","0.0-6.0-1.49","VASC","4","f","rechts","21","","","object","f","0","true"
"null","<div style=""font-size:60px;"">+</div>","null","html-keyboard-response","106","175072","0.0-6.0-0.50","VASC","4","f","rechts","21","","fixation","","","",""
"907","img/60_210.png","70","image-keyboard-response","107","175998","0.0-6.0-1.50","VASC","4","f","rechts","21","","","object","f","60","true"
"null","<div style=""font-size:60px;"">+</div>","null","html-keyboard-response","108","176354","0.0-6.0-0.51","VASC","4","f","rechts","21","","fixation","","","",""
"796","img/120_330.png","74","image-keyboard-response","109","177167","0.0-6.0-1.51","VASC","4","f","rechts","21","","","object","j","120","true"
"null","<div style=""font-size:60px;"">+</div>","null","html-keyboard-response","110","177540","0.0-6.0-0.52","VASC","4","f","rechts","21","","fixation","","","",""
"864","img/150_270.png","74","image-keyboard-response","111","178418","0.0-6.0-1.52","VASC","4","f","rechts","21","","","object","j","150","true"
"null","<div style=""font-size:60px;"">+</div>","null","html-keyboard-response","112","178727","0.0-6.0-0.53","VASC","4","f","rechts","21","","fixation","","","",""
"1441","img/150_60.png","70","image-keyboard-response","113","180172","0.0-6.0-1.53","VASC","4","f","rechts","21","","","object","f","150","true"
"null","<div style=""font-size:60px;"">+</div>","null","html-keyboard-response","114","180540","0.0-6.0-0.54","VASC","4","f","rechts","21","","fixation","","","",""
"947","img/30_60.png","74","image-keyboard-response","115","181500","0.0-6.0-1.54","VASC","4","f","rechts","21","","","object","j","30","true"
"null","<div style=""font-size:60px;"">+</div>","null","html-keyboard-response","116","181822","0.0-6.0-0.55","VASC","4","f","rechts","21","","fixation","","","",""
"814","img/0_300.png","70","image-keyboard-response","117","182647","0.0-6.0-1.55","VASC","4","f","rechts","21","","","object","f","0","true"
"null","<div style=""font-size:60px;"">+</div>","null","html-keyboard-response","118","183158","0.0-6.0-0.56","VASC","4","f","rechts","21","","fixation","","","",""
"1603","img/120_270.png","74","image-keyboard-response","119","184774","0.0-6.0-1.56","VASC","4","f","rechts","21","","","object","j","120","true"
"null","<div style=""font-size:60px;"">+</div>","null","html-keyboard-response","120","185137","0.0-6.0-0.57","VASC","4","f","rechts","21","","fixation","","","",""
"1303","img/150_240.png","74","image-keyboard-response","121","186449","0.0-6.0-1.57","VASC","4","f","rechts","21","","","object","j","150","true"
"null","<div style=""font-size:60px;"">+</div>","null","html-keyboard-response","122","186778","0.0-6.0-0.58","VASC","4","f","rechts","21","","fixation","","","",""
"1149","img/30_300.png","70","image-keyboard-response","123","187937","0.0-6.0-1.58","VASC","4","f","rechts","21","","","object","f","30","true"
"null","<div style=""font-size:60px;"">+</div>","null","html-keyboard-response","124","188449","0.0-6.0-0.59","VASC","4","f","rechts","21","","fixation","","","",""
"995","img/60_210.png","70","image-keyboard-response","125","189454","0.0-6.0-1.59","VASC","4","f","rechts","21","","","object","f","60","true"
"null","<div style=""font-size:60px;"">+</div>","null","html-keyboard-response","126","189904","0.0-6.0-0.60","VASC","4","f","rechts","21","","fixation","","","",""
"1442","img/30_120.png","70","image-keyboard-response","127","191355","0.0-6.0-1.60","VASC","4","f","rechts","21","","","object","j","30","false"
"null","<div style=""font-size:60px;"">+</div>","null","html-keyboard-response","128","191808","0.0-6.0-0.61","VASC","4","f","rechts","21","","fixation","","","",""
"859","img/0_150.png","74","image-keyboard-response","129","192681","0.0-6.0-1.61","VASC","4","f","rechts","21","","","object","j","0","true"
"null","<div style=""font-size:60px;"">+</div>","null","html-keyboard-response","130","193181","0.0-6.0-0.62","VASC","4","f","rechts","21","","fixation","","","",""
"997","img/90_210.png","70","image-keyboard-response","131","194190","0.0-6.0-1.62","VASC","4","f","rechts","21","","","object","f","90","true"
"null","<div style=""font-size:60px;"">+</div>","null","html-keyboard-response","132","194605","0.0-6.0-0.63","VASC","4","f","rechts","21","","fixation","","","",""
"854","img/30_90.png","74","image-keyboard-response","133","195471","0.0-6.0-1.63","VASC","4","f","rechts","21","","","object","j","30","true"
"null","<div style=""font-size:60px;"">+</div>","null","html-keyboard-response","134","195854","0.0-6.0-0.64","VASC","4","f","rechts","21","","fixation","","","",""
"957","img/90_330.png","74","image-keyboard-response","135","196824","0.0-6.0-1.64","VASC","4","f","rechts","21","","","object","j","90","true"
"null","<div style=""font-size:60px;"">+</div>","null","html-keyboard-response","136","197354","0.0-6.0-0.65","VASC","4","f","rechts","21","","fixation","","","",""
"2264","img/120_210.png","70","image-keyboard-response","137","199627","0.0-6.0-1.65","VASC","4","f","rechts","21","","","object","f","120","true"
"null","<div style=""font-size:60px;"">+</div>","null","html-keyboard-response","138","200047","0.0-6.0-0.66","VASC","4","f","rechts","21","","fixation","","","",""
"726","img/0_210.png","70","image-keyboard-response","139","200782","0.0-6.0-1.66","VASC","4","f","rechts","21","","","object","f","0","true"
"null","<div style=""font-size:60px;"">+</div>","null","html-keyboard-response","140","201296","0.0-6.0-0.67","VASC","4","f","rechts","21","","fixation","","","",""
"880","img/30_240.png","70","image-keyboard-response","141","202189","0.0-6.0-1.67","VASC","4","f","rechts","21","","","object","f","30","true"
"null","<div style=""font-size:60px;"">+</div>","null","html-keyboard-response","142","202500","0.0-6.0-0.68","VASC","4","f","rechts","21","","fixation","","","",""
"926","img/30_180.png","70","image-keyboard-response","143","203437","0.0-6.0-1.68","VASC","4","f","rechts","21","","","object","f","30","true"
"null","<div style=""font-size:60px;"">+</div>","null","html-keyboard-response","144","203843","0.0-6.0-0.69","VASC","4","f","rechts","21","","fixation","","","",""
"1048","img/60_330.png","74","image-keyboard-response","145","204900","0.0-6.0-1.69","VASC","4","f","rechts","21","","","object","j","60","true"
"null","<div style=""font-size:60px;"">+</div>","null","html-keyboard-response","146","205405","0.0-6.0-0.70","VASC","4","f","rechts","21","","fixation","","","",""
"1046","img/L60_180.png","74","image-keyboard-response","147","206463","0.0-6.0-1.70","VASC","4","f","rechts","21","","","object","j","60","true"
"null","<div style=""font-size:60px;"">+</div>","null","html-keyboard-response","148","206778","0.0-6.0-0.71","VASC","4","f","rechts","21","","fixation","","","",""
"1274","img/120_150.png","74","image-keyboard-response","149","208062","0.0-6.0-1.71","VASC","4","f","rechts","21","","","object","j","120","true"
"null","<div style=""font-size:60px;"">+</div>","null","html-keyboard-response","150","208419","0.0-6.0-0.72","VASC","4","f","rechts","21","","fixation","","","",""
"1463","img/150_90.png","70","image-keyboard-response","151","209895","0.0-6.0-1.72","VASC","4","f","rechts","21","","","object","f","150","true"
"null","<div style=""font-size:60px;"">+</div>","null","html-keyboard-response","152","210298","0.0-6.0-0.73","VASC","4","f","rechts","21","","fixation","","","",""
"827","img/90_30.png","70","image-keyboard-response","153","211133","0.0-6.0-1.73","VASC","4","f","rechts","21","","","object","f","90","true"
"null","<div style=""font-size:60px;"">+</div>","null","html-keyboard-response","154","211548","0.0-6.0-0.74","VASC","4","f","rechts","21","","fixation","","","",""
"1060","img/L150_180.png","74","image-keyboard-response","155","212618","0.0-6.0-1.74","VASC","4","f","rechts","21","","","object","j","150","true"
"null","<div style=""font-size:60px;"">+</div>","null","html-keyboard-response","156","213047","0.0-6.0-0.75","VASC","4","f","rechts","21","","fixation","","","",""
"1201","img/L30_180.png","74","image-keyboard-response","157","214261","0.0-6.0-1.75","VASC","4","f","rechts","21","","","object","j","30","true"
"null","<div style=""font-size:60px;"">+</div>","null","html-keyboard-response","158","214579","0.0-6.0-0.76","VASC","4","f","rechts","21","","fixation","","","",""
"883","img/0_30.png","74","image-keyboard-response","159","215475","0.0-6.0-1.76","VASC","4","f","rechts","21","","","object","j","0","true"
"null","<div style=""font-size:60px;"">+</div>","null","html-keyboard-response","160","215939","0.0-6.0-0.77","VASC","4","f","rechts","21","","fixation","","","",""
"953","img/60_150.png","74","image-keyboard-response","161","216904","0.0-6.0-1.77","VASC","4","f","rechts","21","","","object","j","60","true"
"null","<div style=""font-size:60px;"">+</div>","null","html-keyboard-response","162","217236","0.0-6.0-0.78","VASC","4","f","rechts","21","","fixation","","","",""
"1728","img/90_60.png","70","image-keyboard-response","163","218974","0.0-6.0-1.78","VASC","4","f","rechts","21","","","object","f","90","true"
"null","<div style=""font-size:60px;"">+</div>","null","html-keyboard-response","164","219504","0.0-6.0-0.79","VASC","4","f","rechts","21","","fixation","","","",""
"1495","img/90_240.png","70","image-keyboard-response","165","221010","0.0-6.0-1.79","VASC","4","f","rechts","21","","","object","f","90","true"
"null","<div style=""font-size:60px;"">+</div>","null","html-keyboard-response","166","221487","0.0-6.0-0.80","VASC","4","f","rechts","21","","fixation","","","",""
"1298","img/90_180.png","70","image-keyboard-response","167","222799","0.0-6.0-1.80","VASC","4","f","rechts","21","","","object","f","90","true"
"null","<div style=""font-size:60px;"">+</div>","null","html-keyboard-response","168","223125","0.0-6.0-0.81","VASC","4","f","rechts","21","","fixation","","","",""
"753","img/0_240.png","70","image-keyboard-response","169","223891","0.0-6.0-1.81","VASC","4","f","rechts","21","","","object","f","0","true"
"null","<div style=""font-size:60px;"">+</div>","null","html-keyboard-response","170","224346","0.0-6.0-0.82","VASC","4","f","rechts","21","","fixation","","","",""
"1602","img/60_270.png","70","image-keyboard-response","171","225960","0.0-6.0-1.82","VASC","4","f","rechts","21","","","object","f","60","true"
"null","<div style=""font-size:60px;"">+</div>","null","html-keyboard-response","172","226315","0.0-6.0-0.83","VASC","4","f","rechts","21","","fixation","","","",""
"1173","img/150_180.png","70","image-keyboard-response","173","227501","0.0-6.0-1.83","VASC","4","f","rechts","21","","","object","f","150","true"
"null","<div style=""font-size:60px;"">+</div>","null","html-keyboard-response","174","227861","0.0-6.0-0.84","VASC","4","f","rechts","21","","fixation","","","",""
"2738","img/150_120.png","70","image-keyboard-response","175","230613","0.0-6.0-1.84","VASC","4","f","rechts","21","","","object","f","150","true"
"null","<div style=""font-size:60px;"">+</div>","null","html-keyboard-response","176","231076","0.0-6.0-0.85","VASC","4","f","rechts","21","","fixation","","","",""
"719","img/0_90.png","74","image-keyboard-response","177","231809","0.0-6.0-1.85","VASC","4","f","rechts","21","","","object","j","0","true"
"null","<div style=""font-size:60px;"">+</div>","null","html-keyboard-response","178","232124","0.0-6.0-0.86","VASC","4","f","rechts","21","","fixation","","","",""
"1023","img/90_300.png","74","image-keyboard-response","179","233160","0.0-6.0-1.86","VASC","4","f","rechts","21","","","object","j","90","true"
"null","<div style=""font-size:60px;"">+</div>","null","html-keyboard-response","180","233592","0.0-6.0-0.87","VASC","4","f","rechts","21","","fixation","","","",""
"741","img/120_330.png","74","image-keyboard-response","181","234344","0.0-6.0-1.87","VASC","4","f","rechts","21","","","object","j","120","true"
"null","<div style=""font-size:60px;"">+</div>","null","html-keyboard-response","182","234669","0.0-6.0-0.88","VASC","4","f","rechts","21","","fixation","","","",""
"868","img/60_30.png","70","image-keyboard-response","183","235545","0.0-6.0-1.88","VASC","4","f","rechts","21","","","object","f","60","true"
"null","<div style=""font-size:60px;"">+</div>","null","html-keyboard-response","184","236060","0.0-6.0-0.89","VASC","4","f","rechts","21","","fixation","","","",""
"2169","img/120_90.png","70","image-keyboard-response","185","238238","0.0-6.0-1.89","VASC","4","f","rechts","21","","","object","f","120","true"
"null","<div style=""font-size:60px;"">+</div>","null","html-keyboard-response","186","238642","0.0-6.0-0.90","VASC","4","f","rechts","21","","fixation","","","",""
"838","img/150_300.png","74","image-keyboard-response","187","239495","0.0-6.0-1.90","VASC","4","f","rechts","21","","","object","j","150","true"
"null","<div style=""font-size:60px;"">+</div>","null","html-keyboard-response","188","240000","0.0-6.0-0.91","VASC","4","f","rechts","21","","fixation","","","",""
"1506","img/L120_180.png","74","image-keyboard-response","189","241519","0.0-6.0-1.91","VASC","4","f","rechts","21","","","object","j","120","true"
"null","<div style=""font-size:60px;"">+</div>","null","html-keyboard-response","190","241891","0.0-6.0-0.92","VASC","4","f","rechts","21","","fixation","","","",""
"715","img/120_30.png","70","image-keyboard-response","191","242619","0.0-6.0-1.92","VASC","4","f","rechts","21","","","object","f","120","true"
"null","<div style=""font-size:60px;"">+</div>","null","html-keyboard-response","192","243033","0.0-6.0-0.93","VASC","4","f","rechts","21","","fixation","","","",""
"676","img/0_60.png","74","image-keyboard-response","193","243722","0.0-6.0-1.93","VASC","4","f","rechts","21","","","object","j","0","true"
"null","<div style=""font-size:60px;"">+</div>","null","html-keyboard-response","194","244237","0.0-6.0-0.94","VASC","4","f","rechts","21","","fixation","","","",""
"666","img/0_120.png","74","image-keyboard-response","195","244917","0.0-6.0-1.94","VASC","4","f","rechts","21","","","object","j","0","true"
"null","<div style=""font-size:60px;"">+</div>","null","html-keyboard-response","196","245332","0.0-6.0-0.95","VASC","4","f","rechts","21","","fixation","","","",""
"1631","img/90_150.png","74","image-keyboard-response","197","246976","0.0-6.0-1.95","VASC","4","f","rechts","21","","","object","j","90","true"
"null","<div style=""font-size:60px;"">+</div>","null","html-keyboard-response","198","247432","0.0-6.0-0.96","VASC","4","f","rechts","21","","fixation","","","",""
"992","img/30_270.png","70","image-keyboard-response","199","248439","0.0-6.0-1.96","VASC","4","f","rechts","21","","","object","f","30","true"
"null","<div style=""font-size:60px;"">+</div>","null","html-keyboard-response","200","248791","0.0-6.0-0.97","VASC","4","f","rechts","21","","fixation","","","",""
"1047","img/L90_180.png","74","image-keyboard-response","201","249844","0.0-6.0-1.97","VASC","4","f","rechts","21","","","object","j","90","true"
"null","<div style=""font-size:60px;"">+</div>","null","html-keyboard-response","202","250222","0.0-6.0-0.98","VASC","4","f","rechts","21","","fixation","","","",""
"777","img/0_330.png","70","image-keyboard-response","203","251015","0.0-6.0-1.98","VASC","4","f","rechts","21","","","object","f","0","true"
"null","<div style=""font-size:60px;"">+</div>","null","html-keyboard-response","204","251519","0.0-6.0-0.99","VASC","4","f","rechts","21","","fixation","","","",""
"1765","img/60_90.png","74","image-keyboard-response","205","253297","0.0-6.0-1.99","VASC","4","f","rechts","21","","","object","j","60","true"
"null","<div style=""font-size:60px;"">+</div>","null","html-keyboard-response","206","253612","0.0-6.0-0.100","VASC","4","f","rechts","21","","fixation","","","",""
"961","img/120_180.png","70","image-keyboard-response","207","254579","0.0-6.0-1.100","VASC","4","f","rechts","21","","","object","f","120","true"
"null","<div style=""font-size:60px;"">+</div>","null","html-keyboard-response","208","254984","0.0-6.0-0.101","VASC","4","f","rechts","21","","fixation","","","",""
"1985","img/90_120.png","74","image-keyboard-response","209","256982","0.0-6.0-1.101","VASC","4","f","rechts","21","","","object","j","90","true"
"null","<div style=""font-size:60px;"">+</div>","null","html-keyboard-response","210","257510","0.0-6.0-0.102","VASC","4","f","rechts","21","","fixation","","","",""
"1028","img/60_180.png","70","image-keyboard-response","211","258551","0.0-6.0-1.102","VASC","4","f","rechts","21","","","object","f","60","true"
"null","<div style=""font-size:60px;"">+</div>","null","html-keyboard-response","212","259068","0.0-6.0-0.103","VASC","4","f","rechts","21","","fixation","","","",""
"889","img/0_270.png","70","image-keyboard-response","213","259969","0.0-6.0-1.103","VASC","4","f","rechts","21","","","object","f","0","true"
"null","<div style=""font-size:60px;"">+</div>","null","html-keyboard-response","214","260428","0.0-6.0-0.104","VASC","4","f","rechts","21","","fixation","","","",""
"1165","img/150_180.png","70","image-keyboard-response","215","261601","0.0-6.0-1.104","VASC","4","f","rechts","21","","","object","f","150","true"
"null","<div style=""font-size:60px;"">+</div>","null","html-keyboard-response","216","261911","0.0-6.0-0.105","VASC","4","f","rechts","21","","fixation","","","",""
"1049","img/150_60.png","70","image-keyboard-response","217","262973","0.0-6.0-1.105","VASC","4","f","rechts","21","","","object","f","150","true"
"null","<div style=""font-size:60px;"">+</div>","null","html-keyboard-response","218","263428","0.0-6.0-0.106","VASC","4","f","rechts","21","","fixation","","","",""
"819","img/90_300.png","74","image-keyboard-response","219","264257","0.0-6.0-1.106","VASC","4","f","rechts","21","","","object","j","90","true"
"null","<div style=""font-size:60px;"">+</div>","null","html-keyboard-response","220","264770","0.0-6.0-0.107","VASC","4","f","rechts","21","","fixation","","","",""
"1384","img/150_270.png","74","image-keyboard-response","221","266158","0.0-6.0-1.107","VASC","4","f","rechts","21","","","object","j","150","true"
"null","<div style=""font-size:60px;"">+</div>","null","html-keyboard-response","222","266582","0.0-6.0-0.108","VASC","4","f","rechts","21","","fixation","","","",""
"1217","img/120_180.png","70","image-keyboard-response","223","267809","0.0-6.0-1.108","VASC","4","f","rechts","21","","","object","f","120","true"
"null","<div style=""font-size:60px;"">+</div>","null","html-keyboard-response","224","268332","0.0-6.0-0.109","VASC","4","f","rechts","21","","fixation","","","",""
"927","img/120_330.png","74","image-keyboard-response","225","269274","0.0-6.0-1.109","VASC","4","f","rechts","21","","","object","j","120","true"
"null","<div style=""font-size:60px;"">+</div>","null","html-keyboard-response","226","269645","0.0-6.0-0.110","VASC","4","f","rechts","21","","fixation","","","",""
"777","img/120_30.png","70","image-keyboard-response","227","270432","0.0-6.0-1.110","VASC","4","f","rechts","21","","","object","f","120","true"
"null","<div style=""font-size:60px;"">+</div>","null","html-keyboard-response","228","270739","0.0-6.0-0.111","VASC","4","f","rechts","21","","fixation","","","",""
"1713","img/120_90.png","70","image-keyboard-response","229","272458","0.0-6.0-1.111","VASC","4","f","rechts","21","","","object","f","120","true"
"null","<div style=""font-size:60px;"">+</div>","null","html-keyboard-response","230","272911","0.0-6.0-0.112","VASC","4","f","rechts","21","","fixation","","","",""
"1075","img/L150_180.png","74","image-keyboard-response","231","273999","0.0-6.0-1.112","VASC","4","f","rechts","21","","","object","j","150","true"
"null","<div style=""font-size:60px;"">+</div>","null","html-keyboard-response","232","274365","0.0-6.0-0.113","VASC","4","f","rechts","21","","fixation","","","",""
"1084","img/120_210.png","70","image-keyboard-response","233","275462","0.0-6.0-1.113","VASC","4","f","rechts","21","","","object","f","120","true"
"null","<div style=""font-size:60px;"">+</div>","null","html-keyboard-response","234","275990","0.0-6.0-0.114","VASC","4","f","rechts","21","","fixation","","","",""
"806","img/0_150.png","74","image-keyboard-response","235","276809","0.0-6.0-1.114","VASC","4","f","rechts","21","","","object","j","0","true"
"null","<div style=""font-size:60px;"">+</div>","null","html-keyboard-response","236","277115","0.0-6.0-0.115","VASC","4","f","rechts","21","","fixation","","","",""
"932","img/90_330.png","74","image-keyboard-response","237","278060","0.0-6.0-1.115","VASC","4","f","rechts","21","","","object","j","90","true"
"null","<div style=""font-size:60px;"">+</div>","null","html-keyboard-response","238","278441","0.0-6.0-0.116","VASC","4","f","rechts","21","","fixation","","","",""
"2738","img/90_240.png","70","image-keyboard-response","239","281192","0.0-6.0-1.116","VASC","4","f","rechts","21","","","object","f","90","true"
"null","<div style=""font-size:60px;"">+</div>","null","html-keyboard-response","240","281593","0.0-6.0-0.117","VASC","4","f","rechts","21","","fixation","","","",""
"1145","img/90_60.png","70","image-keyboard-response","241","282751","0.0-6.0-1.117","VASC","4","f","rechts","21","","","object","f","90","true"
"null","<div style=""font-size:60px;"">+</div>","null","html-keyboard-response","242","283063","0.0-6.0-0.118","VASC","4","f","rechts","21","","fixation","","","",""
"1757","img/60_270.png","70","image-keyboard-response","243","284829","0.0-6.0-1.118","VASC","4","f","rechts","21","","","object","f","60","true"
"null","<div style=""font-size:60px;"">+</div>","null","html-keyboard-response","244","285289","0.0-6.0-0.119","VASC","4","f","rechts","21","","fixation","","","",""
"1667","img/120_150.png","74","image-keyboard-response","245","286969","0.0-6.0-1.119","VASC","4","f","rechts","21","","","object","j","120","true"
"null","<div style=""font-size:60px;"">+</div>","null","html-keyboard-response","246","287433","0.0-6.0-0.120","VASC","4","f","rechts","21","","fixation","","","",""
"1199","img/60_210.png","70","image-keyboard-response","247","288647","0.0-6.0-1.120","VASC","4","f","rechts","21","","","object","f","60","true"
"null","<div style=""font-size:60px;"">+</div>","null","html-keyboard-response","248","289008","0.0-6.0-0.121","VASC","4","f","rechts","21","","fixation","","","",""
"1054","img/30_120.png","74","image-keyboard-response","249","290075","0.0-6.0-1.121","VASC","4","f","rechts","21","","","object","j","30","true"
"null","<div style=""font-size:60px;"">+</div>","null","html-keyboard-response","250","290383","0.0-6.0-0.122","VASC","4","f","rechts","21","","fixation","","","",""
"1100","img/90_150.png","74","image-keyboard-response","251","291493","0.0-6.0-1.122","VASC","4","f","rechts","21","","","object","j","90","true"
"null","<div style=""font-size:60px;"">+</div>","null","html-keyboard-response","252","291898","0.0-6.0-0.123","VASC","4","f","rechts","21","","fixation","","","",""
"921","img/60_30.png","70","image-keyboard-response","253","292829","0.0-6.0-1.123","VASC","4","f","rechts","21","","","object","f","60","true"
"null","<div style=""font-size:60px;"">+</div>","null","html-keyboard-response","254","293196","0.0-6.0-0.124","VASC","4","f","rechts","21","","fixation","","","",""
"1052","img/60_150.png","74","image-keyboard-response","255","294259","0.0-6.0-1.124","VASC","4","f","rechts","21","","","object","j","60","true"
"null","<div style=""font-size:60px;"">+</div>","null","html-keyboard-response","256","294787","0.0-6.0-0.125","VASC","4","f","rechts","21","","fixation","","","",""
"941","img/90_30.png","70","image-keyboard-response","257","295733","0.0-6.0-1.125","VASC","4","f","rechts","21","","","object","f","90","true"
"null","<div style=""font-size:60px;"">+</div>","null","html-keyboard-response","258","296086","0.0-6.0-0.126","VASC","4","f","rechts","21","","fixation","","","",""
"1130","img/L60_180.png","74","image-keyboard-response","259","297229","0.0-6.0-1.126","VASC","4","f","rechts","21","","","object","j","60","true"
"null","<div style=""font-size:60px;"">+</div>","null","html-keyboard-response","260","297744","0.0-6.0-0.127","VASC","4","f","rechts","21","","fixation","","","",""
"936","img/30_180.png","70","image-keyboard-response","261","298692","0.0-6.0-1.127","VASC","4","f","rechts","21","","","object","f","30","true"
"null","<div style=""font-size:60px;"">+</div>","null","html-keyboard-response","262","299198","0.0-6.0-0.128","VASC","4","f","rechts","21","","fixation","","","",""
"753","img/0_90.png","74","image-keyboard-response","263","299964","0.0-6.0-1.128","VASC","4","f","rechts","21","","","object","j","0","true"
"null","<div style=""font-size:60px;"">+</div>","null","html-keyboard-response","264","300370","0.0-6.0-0.129","VASC","4","f","rechts","21","","fixation","","","",""
"1382","img/150_300.png","74","image-keyboard-response","265","301762","0.0-6.0-1.129","VASC","4","f","rechts","21","","","object","j","150","true"
"null","<div style=""font-size:60px;"">+</div>","null","html-keyboard-response","266","302068","0.0-6.0-0.130","VASC","4","f","rechts","21","","fixation","","","",""
"1431","img/L120_180.png","74","image-keyboard-response","267","303509","0.0-6.0-1.130","VASC","4","f","rechts","21","","","object","j","120","true"
"null","<div style=""font-size:60px;"">+</div>","null","html-keyboard-response","268","303960","0.0-6.0-0.131","VASC","4","f","rechts","21","","fixation","","","",""
"697","img/0_330.png","70","image-keyboard-response","269","304666","0.0-6.0-1.131","VASC","4","f","rechts","21","","","object","f","0","true"
"null","<div style=""font-size:60px;"">+</div>","null","html-keyboard-response","270","305021","0.0-6.0-0.132","VASC","4","f","rechts","21","","fixation","","","",""
"670","img/0_270.png","70","image-keyboard-response","271","305700","0.0-6.0-1.132","VASC","4","f","rechts","21","","","object","f","0","true"
"null","<div style=""font-size:60px;"">+</div>","null","html-keyboard-response","272","306010","0.0-6.0-0.133","VASC","4","f","rechts","21","","fixation","","","",""
"870","img/60_330.png","74","image-keyboard-response","273","306895","0.0-6.0-1.133","VASC","4","f","rechts","21","","","object","j","60","true"
"null","<div style=""font-size:60px;"">+</div>","null","html-keyboard-response","274","307262","0.0-6.0-0.134","VASC","4","f","rechts","21","","fixation","","","",""
"935","img/150_120.png","70","image-keyboard-response","275","308210","0.0-6.0-1.134","VASC","4","f","rechts","21","","","object","f","150","true"
"null","<div style=""font-size:60px;"">+</div>","null","html-keyboard-response","276","308716","0.0-6.0-0.135","VASC","4","f","rechts","21","","fixation","","","",""
"1358","img/150_90.png","74","image-keyboard-response","277","310089","0.0-6.0-1.135","VASC","4","f","rechts","21","","","object","f","150","false"
"null","<div style=""font-size:60px;"">+</div>","null","html-keyboard-response","278","310618","0.0-6.0-0.136","VASC","4","f","rechts","21","","fixation","","","",""
"2226","img/30_300.png","70","image-keyboard-response","279","312857","0.0-6.0-1.136","VASC","4","f","rechts","21","","","object","f","30","true"
"null","<div style=""font-size:60px;"">+</div>","null","html-keyboard-response","280","313310","0.0-6.0-0.137","VASC","4","f","rechts","21","","fixation","","","",""
"644","img/0_300.png","70","image-keyboard-response","281","313959","0.0-6.0-1.137","VASC","4","f","rechts","21","","","object","f","0","true"
"null","<div style=""font-size:60px;"">+</div>","null","html-keyboard-response","282","314274","0.0-6.0-0.138","VASC","4","f","rechts","21","","fixation","","","",""
"1015","img/L90_180.png","74","image-keyboard-response","283","315298","0.0-6.0-1.138","VASC","4","f","rechts","21","","","object","j","90","true"
"null","<div style=""font-size:60px;"">+</div>","null","html-keyboard-response","284","315757","0.0-6.0-0.139","VASC","4","f","rechts","21","","fixation","","","",""
"1944","img/120_270.png","74","image-keyboard-response","285","317710","0.0-6.0-1.139","VASC","4","f","rechts","21","","","object","j","120","true"
"null","<div style=""font-size:60px;"">+</div>","null","html-keyboard-response","286","318159","0.0-6.0-0.140","VASC","4","f","rechts","21","","fixation","","","",""
"1018","img/30_60.png","74","image-keyboard-response","287","319190","0.0-6.0-1.140","VASC","4","f","rechts","21","","","object","j","30","true"
"null","<div style=""font-size:60px;"">+</div>","null","html-keyboard-response","288","319712","0.0-6.0-0.141","VASC","4","f","rechts","21","","fixation","","","",""
"1347","img/60_90.png","74","image-keyboard-response","289","321068","0.0-6.0-1.141","VASC","4","f","rechts","21","","","object","j","60","true"
"null","<div style=""font-size:60px;"">+</div>","null","html-keyboard-response","290","321593","0.0-6.0-0.142","VASC","4","f","rechts","21","","fixation","","","",""
"1094","img/150_240.png","74","image-keyboard-response","291","322700","0.0-6.0-1.142","VASC","4","f","rechts","21","","","object","j","150","true"
"null","<div style=""font-size:60px;"">+</div>","null","html-keyboard-response","292","323219","0.0-6.0-0.143","VASC","4","f","rechts","21","","fixation","","","",""
"1144","img/30_90.png","74","image-keyboard-response","293","324376","0.0-6.0-1.143","VASC","4","f","rechts","21","","","object","j","30","true"
"null","<div style=""font-size:60px;"">+</div>","null","html-keyboard-response","294","324804","0.0-6.0-0.144","VASC","4","f","rechts","21","","fixation","","","",""
"892","img/30_270.png","70","image-keyboard-response","295","325704","0.0-6.0-1.144","VASC","4","f","rechts","21","","","object","f","30","true"
"null","<div style=""font-size:60px;"">+</div>","null","html-keyboard-response","296","326119","0.0-6.0-0.145","VASC","4","f","rechts","21","","fixation","","","",""
"787","img/0_60.png","74","image-keyboard-response","297","326920","0.0-6.0-1.145","VASC","4","f","rechts","21","","","object","j","0","true"
"null","<div style=""font-size:60px;"">+</div>","null","html-keyboard-response","298","327400","0.0-6.0-0.146","VASC","4","f","rechts","21","","fixation","","","",""
"1053","img/60_180.png","70","image-keyboard-response","299","328460","0.0-6.0-1.146","VASC","4","f","rechts","21","","","object","f","60","true"
"null","<div style=""font-size:60px;"">+</div>","null","html-keyboard-response","300","328915","0.0-6.0-0.147","VASC","4","f","rechts","21","","fixation","","","",""
"641","img/0_120.png","74","image-keyboard-response","301","329562","0.0-6.0-1.147","VASC","4","f","rechts","21","","","object","j","0","true"
"null","<div style=""font-size:60px;"">+</div>","null","html-keyboard-response","302","330024","0.0-6.0-0.148","VASC","4","f","rechts","21","","fixation","","","",""
"684","img/0_210.png","70","image-keyboard-response","303","330722","0.0-6.0-1.148","VASC","4","f","rechts","21","","","object","f","0","true"
"null","<div style=""font-size:60px;"">+</div>","null","html-keyboard-response","304","331227","0.0-6.0-0.149","VASC","4","f","rechts","21","","fixation","","","",""
"618","img/0_240.png","70","image-keyboard-response","305","331856","0.0-6.0-1.149","VASC","4","f","rechts","21","","","object","f","0","true"
"null","<div style=""font-size:60px;"">+</div>","null","html-keyboard-response","306","332368","0.0-6.0-0.150","VASC","4","f","rechts","21","","fixation","","","",""
"1368","img/90_180.png","70","image-keyboard-response","307","333748","0.0-6.0-1.150","VASC","4","f","rechts","21","","","object","f","90","true"
"null","<div style=""font-size:60px;"">+</div>","null","html-keyboard-response","308","334073","0.0-6.0-0.151","VASC","4","f","rechts","21","","fixation","","","",""
"1181","img/L30_180.png","74","image-keyboard-response","309","335267","0.0-6.0-1.151","VASC","4","f","rechts","21","","","object","j","30","true"
"null","<div style=""font-size:60px;"">+</div>","null","html-keyboard-response","310","335682","0.0-6.0-0.152","VASC","4","f","rechts","21","","fixation","","","",""
"911","img/90_210.png","70","image-keyboard-response","311","336606","0.0-6.0-1.152","VASC","4","f","rechts","21","","","object","f","90","true"
"null","<div style=""font-size:60px;"">+</div>","null","html-keyboard-response","312","337120","0.0-6.0-0.153","VASC","4","f","rechts","21","","fixation","","","",""
"857","img/90_120.png","74","image-keyboard-response","313","337989","0.0-6.0-1.153","VASC","4","f","rechts","21","","","object","j","90","true"
"null","<div style=""font-size:60px;"">+</div>","null","html-keyboard-response","314","338495","0.0-6.0-0.154","VASC","4","f","rechts","21","","fixation","","","",""
"629","img/0_30.png","74","image-keyboard-response","315","339137","0.0-6.0-1.154","VASC","4","f","rechts","21","","","object","j","0","true"
"null","<div style=""font-size:60px;"">+</div>","null","html-keyboard-response","316","339653","0.0-6.0-0.155","VASC","4","f","rechts","21","","fixation","","","",""
"798","img/30_240.png","70","image-keyboard-response","317","340463","0.0-6.0-1.155","VASC","4","f","rechts","21","","","object","f","30","true"
"null","<div style=""font-size:60px;"">+</div>","null","html-keyboard-response","318","340839","0.0-6.0-0.156","VASC","4","f","rechts","21","","fixation","","","",""
"1394","img/90_240.png","70","image-keyboard-response","319","342242","0.0-6.0-1.156","VASC","4","f","rechts","21","","","object","f","90","true"
"null","<div style=""font-size:60px;"">+</div>","null","html-keyboard-response","320","342714","0.0-6.0-0.157","VASC","4","f","rechts","21","","fixation","","","",""
"1588","img/30_180.png","70","image-keyboard-response","321","344313","0.0-6.0-1.157","VASC","4","f","rechts","21","","","object","f","30","true"
"null","<div style=""font-size:60px;"">+</div>","null","html-keyboard-response","322","344621","0.0-6.0-0.158","VASC","4","f","rechts","21","","fixation","","","",""
"1729","img/150_240.png","74","image-keyboard-response","323","346359","0.0-6.0-1.158","VASC","4","f","rechts","21","","","object","j","150","true"
"null","<div style=""font-size:60px;"">+</div>","null","html-keyboard-response","324","346669","0.0-6.0-0.159","VASC","4","f","rechts","21","","fixation","","","",""
"678","img/0_270.png","70","image-keyboard-response","325","347359","0.0-6.0-1.159","VASC","4","f","rechts","21","","","object","f","0","true"
"null","<div style=""font-size:60px;"">+</div>","null","html-keyboard-response","326","347669","0.0-6.0-0.160","VASC","4","f","rechts","21","","fixation","","","",""
"1753","img/90_180.png","70","image-keyboard-response","327","349431","0.0-6.0-1.160","VASC","4","f","rechts","21","","","object","f","90","true"
"null","<div style=""font-size:60px;"">+</div>","null","html-keyboard-response","328","349747","0.0-6.0-0.161","VASC","4","f","rechts","21","","fixation","","","",""
"829","img/L90_180.png","74","image-keyboard-response","329","350590","0.0-6.0-1.161","VASC","4","f","rechts","21","","","object","j","90","true"
"null","<div style=""font-size:60px;"">+</div>","null","html-keyboard-response","330","351042","0.0-6.0-0.162","VASC","4","f","rechts","21","","fixation","","","",""
"652","img/0_60.png","74","image-keyboard-response","331","351704","0.0-6.0-1.162","VASC","4","f","rechts","21","","","object","j","0","true"
"null","<div style=""font-size:60px;"">+</div>","null","html-keyboard-response","332","352062","0.0-6.0-0.163","VASC","4","f","rechts","21","","fixation","","","",""
"927","img/60_330.png","74","image-keyboard-response","333","352999","0.0-6.0-1.163","VASC","4","f","rechts","21","","","object","j","60","true"
"null","<div style=""font-size:60px;"">+</div>","null","html-keyboard-response","334","353371","0.0-6.0-0.164","VASC","4","f","rechts","21","","fixation","","","",""
"877","img/90_30.png","70","image-keyboard-response","335","354257","0.0-6.0-1.164","VASC","4","f","rechts","21","","","object","f","90","true"
"null","<div style=""font-size:60px;"">+</div>","null","html-keyboard-response","336","354684","0.0-6.0-0.165","VASC","4","f","rechts","21","","fixation","","","",""
"1359","img/L150_180.png","74","image-keyboard-response","337","356058","0.0-6.0-1.165","VASC","4","f","rechts","21","","","object","j","150","true"
"null","<div style=""font-size:60px;"">+</div>","null","html-keyboard-response","338","356483","0.0-6.0-0.166","VASC","4","f","rechts","21","","fixation","","","",""
"1045","img/120_150.png","74","image-keyboard-response","339","357543","0.0-6.0-1.166","VASC","4","f","rechts","21","","","object","j","120","true"
"null","<div style=""font-size:60px;"">+</div>","null","html-keyboard-response","340","357919","0.0-6.0-0.167","VASC","4","f","rechts","21","","fixation","","","",""
"901","img/120_30.png","70","image-keyboard-response","341","358825","0.0-6.0-1.167","VASC","4","f","rechts","21","","","object","f","120","true"
"null","<div style=""font-size:60px;"">+</div>","null","html-keyboard-response","342","359297","0.0-6.0-0.168","VASC","4","f","rechts","21","","fixation","","","",""
"1476","img/30_60.png","74","image-keyboard-response","343","360783","0.0-6.0-1.168","VASC","4","f","rechts","21","","","object","j","30","true"
"null","<div style=""font-size:60px;"">+</div>","null","html-keyboard-response","344","361186","0.0-6.0-0.169","VASC","4","f","rechts","21","","fixation","","","",""
"697","img/0_240.png","70","image-keyboard-response","345","361895","0.0-6.0-1.169","VASC","4","f","rechts","21","","","object","f","0","true"
"null","<div style=""font-size:60px;"">+</div>","null","html-keyboard-response","346","362202","0.0-6.0-0.170","VASC","4","f","rechts","21","","fixation","","","",""
"1304","img/60_150.png","74","image-keyboard-response","347","363515","0.0-6.0-1.170","VASC","4","f","rechts","21","","","object","j","60","true"
"null","<div style=""font-size:60px;"">+</div>","null","html-keyboard-response","348","363984","0.0-6.0-0.171","VASC","4","f","rechts","21","","fixation","","","",""
"1054","img/120_270.png","74","image-keyboard-response","349","365047","0.0-6.0-1.171","VASC","4","f","rechts","21","","","object","j","120","true"
"null","<div style=""font-size:60px;"">+</div>","null","html-keyboard-response","350","365523","0.0-6.0-0.172","VASC","4","f","rechts","21","","fixation","","","",""
"2191","img/150_270.png","74","image-keyboard-response","351","367727","0.0-6.0-1.172","VASC","4","f","rechts","21","","","object","j","150","true"
"null","<div style=""font-size:60px;"">+</div>","null","html-keyboard-response","352","368082","0.0-6.0-0.173","VASC","4","f","rechts","21","","fixation","","","",""
"1849","img/30_300.png","70","image-keyboard-response","353","369942","0.0-6.0-1.173","VASC","4","f","rechts","21","","","object","f","30","true"
"null","<div style=""font-size:60px;"">+</div>","null","html-keyboard-response","354","370316","0.0-6.0-0.174","VASC","4","f","rechts","21","","fixation","","","",""
"1332","img/60_90.png","74","image-keyboard-response","355","371661","0.0-6.0-1.174","VASC","4","f","rechts","21","","","object","j","60","true"
"null","<div style=""font-size:60px;"">+</div>","null","html-keyboard-response","356","372177","0.0-6.0-0.175","VASC","4","f","rechts","21","","fixation","","","",""
"622","img/0_210.png","70","image-keyboard-response","357","372808","0.0-6.0-1.175","VASC","4","f","rechts","21","","","object","f","0","true"
"null","<div style=""font-size:60px;"">+</div>","null","html-keyboard-response","358","373223","0.0-6.0-0.176","VASC","4","f","rechts","21","","fixation","","","",""
"1538","img/90_150.png","74","image-keyboard-response","359","374765","0.0-6.0-1.176","VASC","4","f","rechts","21","","","object","j","90","true"
"null","<div style=""font-size:60px;"">+</div>","null","html-keyboard-response","360","375147","0.0-6.0-0.177","VASC","4","f","rechts","21","","fixation","","","",""
"979","img/L60_180.png","74","image-keyboard-response","361","376138","0.0-6.0-1.177","VASC","4","f","rechts","21","","","object","j","60","true"
"null","<div style=""font-size:60px;"">+</div>","null","html-keyboard-response","362","376444","0.0-6.0-0.178","VASC","4","f","rechts","21","","fixation","","","",""
"1591","img/120_210.png","70","image-keyboard-response","363","378051","0.0-6.0-1.178","VASC","4","f","rechts","21","","","object","f","120","true"
"null","<div style=""font-size:60px;"">+</div>","null","html-keyboard-response","364","378419","0.0-6.0-0.179","VASC","4","f","rechts","21","","fixation","","","",""
"822","img/30_120.png","74","image-keyboard-response","365","379255","0.0-6.0-1.179","VASC","4","f","rechts","21","","","object","j","30","true"
"null","<div style=""font-size:60px;"">+</div>","null","html-keyboard-response","366","379679","0.0-6.0-0.180","VASC","4","f","rechts","21","","fixation","","","",""
"1702","img/90_210.png","70","image-keyboard-response","367","381393","0.0-6.0-1.180","VASC","4","f","rechts","21","","","object","f","90","true"
"null","<div style=""font-size:60px;"">+</div>","null","html-keyboard-response","368","381913","0.0-6.0-0.181","VASC","4","f","rechts","21","","fixation","","","",""
"1173","img/150_300.png","74","image-keyboard-response","369","383090","0.0-6.0-1.181","VASC","4","f","rechts","21","","","object","j","150","true"
"null","<div style=""font-size:60px;"">+</div>","null","html-keyboard-response","370","383492","0.0-6.0-0.182","VASC","4","f","rechts","21","","fixation","","","",""
"1030","img/30_270.png","70","image-keyboard-response","371","384532","0.0-6.0-1.182","VASC","4","f","rechts","21","","","object","f","30","true"
"null","<div style=""font-size:60px;"">+</div>","null","html-keyboard-response","372","384883","0.0-6.0-0.183","VASC","4","f","rechts","21","","fixation","","","",""
"656","img/0_90.png","74","image-keyboard-response","373","385544","0.0-6.0-1.183","VASC","4","f","rechts","21","","","object","j","0","true"
"null","<div style=""font-size:60px;"">+</div>","null","html-keyboard-response","374","386003","0.0-6.0-0.184","VASC","4","f","rechts","21","","fixation","","","",""
"1113","img/90_300.png","74","image-keyboard-response","375","387131","0.0-6.0-1.184","VASC","4","f","rechts","21","","","object","j","90","true"
"null","<div style=""font-size:60px;"">+</div>","null","html-keyboard-response","376","387613","0.0-6.0-0.185","VASC","4","f","rechts","21","","fixation","","","",""
"1136","img/120_180.png","70","image-keyboard-response","377","388761","0.0-6.0-1.185","VASC","4","f","rechts","21","","","object","f","120","true"
"null","<div style=""font-size:60px;"">+</div>","null","html-keyboard-response","378","389175","0.0-6.0-0.186","VASC","4","f","rechts","21","","fixation","","","",""
"1175","img/L30_180.png","74","image-keyboard-response","379","390359","0.0-6.0-1.186","VASC","4","f","rechts","21","","","object","j","30","true"
"null","<div style=""font-size:60px;"">+</div>","null","html-keyboard-response","380","390690","0.0-6.0-0.187","VASC","4","f","rechts","21","","fixation","","","",""
"965","img/30_240.png","70","image-keyboard-response","381","391664","0.0-6.0-1.187","VASC","4","f","rechts","21","","","object","f","30","true"
"null","<div style=""font-size:60px;"">+</div>","null","html-keyboard-response","382","391986","0.0-6.0-0.188","VASC","4","f","rechts","21","","fixation","","","",""
"943","img/60_30.png","70","image-keyboard-response","383","392945","0.0-6.0-1.188","VASC","4","f","rechts","21","","","object","f","60","true"
"null","<div style=""font-size:60px;"">+</div>","null","html-keyboard-response","384","393251","0.0-6.0-0.189","VASC","4","f","rechts","21","","fixation","","","",""
"855","img/0_120.png","74","image-keyboard-response","385","394116","0.0-6.0-1.189","VASC","4","f","rechts","21","","","object","j","0","true"
"null","<div style=""font-size:60px;"">+</div>","null","html-keyboard-response","386","394629","0.0-6.0-0.190","VASC","4","f","rechts","21","","fixation","","","",""
"667","img/0_330.png","70","image-keyboard-response","387","395311","0.0-6.0-1.190","VASC","4","f","rechts","21","","","object","f","0","true"
"null","<div style=""font-size:60px;"">+</div>","null","html-keyboard-response","388","395722","0.0-6.0-0.191","VASC","4","f","rechts","21","","fixation","","","",""
"1236","img/150_60.png","70","image-keyboard-response","389","396972","0.0-6.0-1.191","VASC","4","f","rechts","21","","","object","f","150","true"
"null","<div style=""font-size:60px;"">+</div>","null","html-keyboard-response","390","397426","0.0-6.0-0.192","VASC","4","f","rechts","21","","fixation","","","",""
"1606","img/150_180.png","70","image-keyboard-response","391","399045","0.0-6.0-1.192","VASC","4","f","rechts","21","","","object","f","150","true"
"null","<div style=""font-size:60px;"">+</div>","null","html-keyboard-response","392","399505","0.0-6.0-0.193","VASC","4","f","rechts","21","","fixation","","","",""
"875","img/90_330.png","74","image-keyboard-response","393","400393","0.0-6.0-1.193","VASC","4","f","rechts","21","","","object","j","90","true"
"null","<div style=""font-size:60px;"">+</div>","null","html-keyboard-response","394","400707","0.0-6.0-0.194","VASC","4","f","rechts","21","","fixation","","","",""
"1507","img/30_90.png","74","image-keyboard-response","395","402228","0.0-6.0-1.194","VASC","4","f","rechts","21","","","object","j","30","true"
"null","<div style=""font-size:60px;"">+</div>","null","html-keyboard-response","396","402707","0.0-6.0-0.195","VASC","4","f","rechts","21","","fixation","","","",""
"1724","img/90_60.png","70","image-keyboard-response","397","404445","0.0-6.0-1.195","VASC","4","f","rechts","21","","","object","f","90","true"
"null","<div style=""font-size:60px;"">+</div>","null","html-keyboard-response","398","404756","0.0-6.0-0.196","VASC","4","f","rechts","21","","fixation","","","",""
"726","img/0_30.png","74","image-keyboard-response","399","405491","0.0-6.0-1.196","VASC","4","f","rechts","21","","","object","j","0","true"
"null","<div style=""font-size:60px;"">+</div>","null","html-keyboard-response","400","405848","0.0-6.0-0.197","VASC","4","f","rechts","21","","fixation","","","",""
"1110","img/L120_180.png","74","image-keyboard-response","401","406973","0.0-6.0-1.197","VASC","4","f","rechts","21","","","object","j","120","true"
"null","<div style=""font-size:60px;"">+</div>","null","html-keyboard-response","402","407302","0.0-6.0-0.198","VASC","4","f","rechts","21","","fixation","","","",""
"1111","img/150_120.png","74","image-keyboard-response","403","408427","0.0-6.0-1.198","VASC","4","f","rechts","21","","","object","f","150","false"
"null","<div style=""font-size:60px;"">+</div>","null","html-keyboard-response","404","408942","0.0-6.0-0.199","VASC","4","f","rechts","21","","fixation","","","",""
"1740","img/120_90.png","70","image-keyboard-response","405","410687","0.0-6.0-1.199","VASC","4","f","rechts","21","","","object","f","120","true"
"null","<div style=""font-size:60px;"">+</div>","null","html-keyboard-response","406","410993","0.0-6.0-0.200","VASC","4","f","rechts","21","","fixation","","","",""
"971","img/150_90.png","70","image-keyboard-response","407","411968","0.0-6.0-1.200","VASC","4","f","rechts","21","","","object","f","150","true"
"null","<div style=""font-size:60px;"">+</div>","null","html-keyboard-response","408","412398","0.0-6.0-0.201","VASC","4","f","rechts","21","","fixation","","","",""
"694","img/0_150.png","74","image-keyboard-response","409","413107","0.0-6.0-1.201","VASC","4","f","rechts","21","","","object","j","0","true"
"null","<div style=""font-size:60px;"">+</div>","null","html-keyboard-response","410","413461","0.0-6.0-0.202","VASC","4","f","rechts","21","","fixation","","","",""
"2610","img/90_120.png","74","image-keyboard-response","411","416081","0.0-6.0-1.202","VASC","4","f","rechts","21","","","object","j","90","true"
"null","<div style=""font-size:60px;"">+</div>","null","html-keyboard-response","412","416452","0.0-6.0-0.203","VASC","4","f","rechts","21","","fixation","","","",""
"871","img/120_330.png","74","image-keyboard-response","413","417337","0.0-6.0-1.203","VASC","4","f","rechts","21","","","object","j","120","true"
"null","<div style=""font-size:60px;"">+</div>","null","html-keyboard-response","414","417748","0.0-6.0-0.204","VASC","4","f","rechts","21","","fixation","","","",""
"1082","img/60_270.png","70","image-keyboard-response","415","418844","0.0-6.0-1.204","VASC","4","f","rechts","21","","","object","f","60","true"
"null","<div style=""font-size:60px;"">+</div>","null","html-keyboard-response","416","419306","0.0-6.0-0.205","VASC","4","f","rechts","21","","fixation","","","",""
"909","img/60_180.png","70","image-keyboard-response","417","420229","0.0-6.0-1.205","VASC","4","f","rechts","21","","","object","f","60","true"
"null","<div style=""font-size:60px;"">+</div>","null","html-keyboard-response","418","420603","0.0-6.0-0.206","VASC","4","f","rechts","21","","fixation","","","",""
"802","img/60_210.png","70","image-keyboard-response","419","421420","0.0-6.0-1.206","VASC","4","f","rechts","21","","","object","f","60","true"
"null","<div style=""font-size:60px;"">+</div>","null","html-keyboard-response","420","421852","0.0-6.0-0.207","VASC","4","f","rechts","21","","fixation","","","",""
"693","img/0_300.png","70","image-keyboard-response","421","422558","0.0-6.0-1.207","VASC","4","f","rechts","21","","","object","f","0","true"
"7245","<p>Du hast in 95% der Versuche korrekt entschieden.</p><p>Deine durchschnittliche Reaktionszeit war  1125ms.</p><p>Dr&uuml;cke eine beliebige Taste, um die Session zu beenden. Vielen Dank!</p>","32","html-keyboard-response","422","429807","0.0-7.0","VASC","4","f","rechts","21","","","","","",""
