"rt","stimulus","key_press","trial_type","trial_index","time_elapsed","internal_node_id","subject","session","sex","handedness","age","responses","test_part","condition","correct_response","angle","correct"
"2330","<p>Mental Rotation Experiment.</p> <p>Dr&uuml;cke eine beliebige Taste, um anzufangen.</p>","13","html-keyboard-response","0","2342","0.0-0.0","VASC","2","f","rechts","21","","","","","",""
"7260","","","survey-text","1","9606","0.0-1.0","VASC","2","f","rechts","21","{""Q0"":""VASC""}","","","","",""
"29223","","","survey-text","2","38829","0.0-2.0","VASC","2","f","rechts","21","{""Q0"":""2""}","","","","",""
"5867","","","survey-multi-choice","3","44703","0.0-3.0","VASC","2","f","rechts","21","{""Q0"":""f"",""Q1"":""rechts""}","","","","",""
"3149","","","survey-text","4","47852","0.0-4.0","VASC","2","f","rechts","21","{""Q0"":""21""}","","","","",""
"105140","<p>Stell dir vor, dass du vor einem runden Tisch stehst, auf dem sich ein blauer Ball am Tischrand befindet. Entlang des Tischrands ist jeweils ein verschieden langer Pfeil. Nun bleibst du an deinem Platz vor dem Tisch und rotierst den Tisch entlang des Pfeils (gleiche Richtung und Länge). </p> <img src='img/30_180.png'></img> <br><p> Nachdem du diese (vorgestellte) Rotation durchgef&uuml;hrt hast, schau in Richtung der Tischmitte, und entscheide dann, ob der Ball links oder rechts von dir liegt.</p> <p>Dr&uuml;cke die <strong>'f'</strong>-Taste f&uuml;r links, die <strong>'j'</strong>-Taste f&uuml;r rechts.</p><br><p> Das Bild wird jeweils 1 Sekunde lang pr&auml;sentiert. Du hast 3 Sekunden Zeit eine Entscheidung zu treffen.</p>","13","html-keyboard-response","5","153000","0.0-5.0","VASC","2","f","rechts","21","","","","","",""
"null","<div style=""font-size:60px;"">+</div>","null","html-keyboard-response","6","154364","0.0-6.0-0.0","VASC","2","f","rechts","21","","fixation","","","",""
"1599","img/120_270.png","74","image-keyboard-response","7","155985","0.0-6.0-1.0","VASC","2","f","rechts","21","","","object","j","120","true"
"null","<div style=""font-size:60px;"">+</div>","null","html-keyboard-response","8","156356","0.0-6.0-0.1","VASC","2","f","rechts","21","","fixation","","","",""
"1014","img/0_210.png","70","image-keyboard-response","9","157388","0.0-6.0-1.1","VASC","2","f","rechts","21","","","object","f","0","true"
"null","<div style=""font-size:60px;"">+</div>","null","html-keyboard-response","10","157856","0.0-6.0-0.2","VASC","2","f","rechts","21","","fixation","","","",""
"1069","img/120_330.png","74","image-keyboard-response","11","158938","0.0-6.0-1.2","VASC","2","f","rechts","21","","","object","j","120","true"
"null","<div style=""font-size:60px;"">+</div>","null","html-keyboard-response","12","159293","0.0-6.0-0.3","VASC","2","f","rechts","21","","fixation","","","",""
"878","img/0_90.png","74","image-keyboard-response","13","160188","0.0-6.0-1.3","VASC","2","f","rechts","21","","","object","j","0","true"
"null","<div style=""font-size:60px;"">+</div>","null","html-keyboard-response","14","160543","0.0-6.0-0.4","VASC","2","f","rechts","21","","fixation","","","",""
"1311","img/120_210.png","74","image-keyboard-response","15","161875","0.0-6.0-1.4","VASC","2","f","rechts","21","","","object","f","120","false"
"null","<div style=""font-size:60px;"">+</div>","null","html-keyboard-response","16","162246","0.0-6.0-0.5","VASC","2","f","rechts","21","","fixation","","","",""
"1379","img/60_210.png","70","image-keyboard-response","17","163642","0.0-6.0-1.5","VASC","2","f","rechts","21","","","object","f","60","true"
"null","<div style=""font-size:60px;"">+</div>","null","html-keyboard-response","18","164110","0.0-6.0-0.6","VASC","2","f","rechts","21","","fixation","","","",""
"1245","img/L120_180.png","74","image-keyboard-response","19","165375","0.0-6.0-1.6","VASC","2","f","rechts","21","","","object","j","120","true"
"null","<div style=""font-size:60px;"">+</div>","null","html-keyboard-response","20","165888","0.0-6.0-0.7","VASC","2","f","rechts","21","","fixation","","","",""
"973","img/60_150.png","74","image-keyboard-response","21","166869","0.0-6.0-1.7","VASC","2","f","rechts","21","","","object","j","60","true"
"null","<div style=""font-size:60px;"">+</div>","null","html-keyboard-response","22","167186","0.0-6.0-0.8","VASC","2","f","rechts","21","","fixation","","","",""
"1408","img/L150_180.png","74","image-keyboard-response","23","168615","0.0-6.0-1.8","VASC","2","f","rechts","21","","","object","j","150","true"
"null","<div style=""font-size:60px;"">+</div>","null","html-keyboard-response","24","168967","0.0-6.0-0.9","VASC","2","f","rechts","21","","fixation","","","",""
"877","img/0_240.png","70","image-keyboard-response","25","169862","0.0-6.0-1.9","VASC","2","f","rechts","21","","","object","f","0","true"
"null","<div style=""font-size:60px;"">+</div>","null","html-keyboard-response","26","170220","0.0-6.0-0.10","VASC","2","f","rechts","21","","fixation","","","",""
"1179","img/90_120.png","70","image-keyboard-response","27","171416","0.0-6.0-1.10","VASC","2","f","rechts","21","","","object","j","90","false"
"null","<div style=""font-size:60px;"">+</div>","null","html-keyboard-response","28","171845","0.0-6.0-0.11","VASC","2","f","rechts","21","","fixation","","","",""
"782","img/0_30.png","74","image-keyboard-response","29","172644","0.0-6.0-1.11","VASC","2","f","rechts","21","","","object","j","0","true"
"null","<div style=""font-size:60px;"">+</div>","null","html-keyboard-response","30","173111","0.0-6.0-0.12","VASC","2","f","rechts","21","","fixation","","","",""
"1130","img/L30_180.png","74","image-keyboard-response","31","174261","0.0-6.0-1.12","VASC","2","f","rechts","21","","","object","j","30","true"
"null","<div style=""font-size:60px;"">+</div>","null","html-keyboard-response","32","174770","0.0-6.0-0.13","VASC","2","f","rechts","21","","fixation","","","",""
"1354","img/30_300.png","70","image-keyboard-response","33","176141","0.0-6.0-1.13","VASC","2","f","rechts","21","","","object","f","30","true"
"null","<div style=""font-size:60px;"">+</div>","null","html-keyboard-response","34","176644","0.0-6.0-0.14","VASC","2","f","rechts","21","","fixation","","","",""
"891","img/0_330.png","70","image-keyboard-response","35","177559","0.0-6.0-1.14","VASC","2","f","rechts","21","","","object","f","0","true"
"null","<div style=""font-size:60px;"">+</div>","null","html-keyboard-response","36","177878","0.0-6.0-0.15","VASC","2","f","rechts","21","","fixation","","","",""
"951","img/30_240.png","70","image-keyboard-response","37","178841","0.0-6.0-1.15","VASC","2","f","rechts","21","","","object","f","30","true"
"null","<div style=""font-size:60px;"">+</div>","null","html-keyboard-response","38","179144","0.0-6.0-0.16","VASC","2","f","rechts","21","","fixation","","","",""
"1284","img/150_120.png","70","image-keyboard-response","39","180450","0.0-6.0-1.16","VASC","2","f","rechts","21","","","object","f","150","true"
"null","<div style=""font-size:60px;"">+</div>","null","html-keyboard-response","40","180825","0.0-6.0-0.17","VASC","2","f","rechts","21","","fixation","","","",""
"875","img/0_120.png","74","image-keyboard-response","41","181725","0.0-6.0-1.17","VASC","2","f","rechts","21","","","object","j","0","true"
"null","<div style=""font-size:60px;"">+</div>","null","html-keyboard-response","42","182106","0.0-6.0-0.18","VASC","2","f","rechts","21","","fixation","","","",""
"1869","img/30_60.png","74","image-keyboard-response","43","183992","0.0-6.0-1.18","VASC","2","f","rechts","21","","","object","j","30","true"
"null","<div style=""font-size:60px;"">+</div>","null","html-keyboard-response","44","184309","0.0-6.0-0.19","VASC","2","f","rechts","21","","fixation","","","",""
"1049","img/30_120.png","74","image-keyboard-response","45","185378","0.0-6.0-1.19","VASC","2","f","rechts","21","","","object","j","30","true"
"null","<div style=""font-size:60px;"">+</div>","null","html-keyboard-response","46","185692","0.0-6.0-0.20","VASC","2","f","rechts","21","","fixation","","","",""
"1172","img/150_240.png","74","image-keyboard-response","47","186884","0.0-6.0-1.20","VASC","2","f","rechts","21","","","object","j","150","true"
"null","<div style=""font-size:60px;"">+</div>","null","html-keyboard-response","48","187254","0.0-6.0-0.21","VASC","2","f","rechts","21","","fixation","","","",""
"1322","img/60_180.png","70","image-keyboard-response","49","188595","0.0-6.0-1.21","VASC","2","f","rechts","21","","","object","f","60","true"
"null","<div style=""font-size:60px;"">+</div>","null","html-keyboard-response","50","189097","0.0-6.0-0.22","VASC","2","f","rechts","21","","fixation","","","",""
"1269","img/90_300.png","74","image-keyboard-response","51","190384","0.0-6.0-1.22","VASC","2","f","rechts","21","","","object","j","90","true"
"null","<div style=""font-size:60px;"">+</div>","null","html-keyboard-response","52","190738","0.0-6.0-0.23","VASC","2","f","rechts","21","","fixation","","","",""
"930","img/60_330.png","74","image-keyboard-response","53","191688","0.0-6.0-1.23","VASC","2","f","rechts","21","","","object","j","60","true"
"null","<div style=""font-size:60px;"">+</div>","null","html-keyboard-response","54","192191","0.0-6.0-0.24","VASC","2","f","rechts","21","","fixation","","","",""
"817","img/0_300.png","70","image-keyboard-response","55","193026","0.0-6.0-1.24","VASC","2","f","rechts","21","","","object","f","0","true"
"null","<div style=""font-size:60px;"">+</div>","null","html-keyboard-response","56","193441","0.0-6.0-0.25","VASC","2","f","rechts","21","","fixation","","","",""
"1086","img/120_90.png","70","image-keyboard-response","57","194546","0.0-6.0-1.25","VASC","2","f","rechts","21","","","object","f","120","true"
"null","<div style=""font-size:60px;"">+</div>","null","html-keyboard-response","58","194849","0.0-6.0-0.26","VASC","2","f","rechts","21","","fixation","","","",""
"1476","img/150_180.png","70","image-keyboard-response","59","196346","0.0-6.0-1.26","VASC","2","f","rechts","21","","","object","f","150","true"
"null","<div style=""font-size:60px;"">+</div>","null","html-keyboard-response","60","196663","0.0-6.0-0.27","VASC","2","f","rechts","21","","fixation","","","",""
"1510","img/L90_180.png","74","image-keyboard-response","61","198194","0.0-6.0-1.27","VASC","2","f","rechts","21","","","object","j","90","true"
"null","<div style=""font-size:60px;"">+</div>","null","html-keyboard-response","62","198708","0.0-6.0-0.28","VASC","2","f","rechts","21","","fixation","","","",""
"1030","img/150_300.png","74","image-keyboard-response","63","199755","0.0-6.0-1.28","VASC","2","f","rechts","21","","","object","j","150","true"
"null","<div style=""font-size:60px;"">+</div>","null","html-keyboard-response","64","200068","0.0-6.0-0.29","VASC","2","f","rechts","21","","fixation","","","",""
"1794","img/90_150.png","74","image-keyboard-response","65","201883","0.0-6.0-1.29","VASC","2","f","rechts","21","","","object","j","90","true"
"null","<div style=""font-size:60px;"">+</div>","null","html-keyboard-response","66","202287","0.0-6.0-0.30","VASC","2","f","rechts","21","","fixation","","","",""
"1236","img/30_180.png","70","image-keyboard-response","67","203535","0.0-6.0-1.30","VASC","2","f","rechts","21","","","object","f","30","true"
"null","<div style=""font-size:60px;"">+</div>","null","html-keyboard-response","68","204002","0.0-6.0-0.31","VASC","2","f","rechts","21","","fixation","","","",""
"1058","img/60_90.png","70","image-keyboard-response","69","205066","0.0-6.0-1.31","VASC","2","f","rechts","21","","","object","j","60","false"
"null","<div style=""font-size:60px;"">+</div>","null","html-keyboard-response","70","205476","0.0-6.0-0.32","VASC","2","f","rechts","21","","fixation","","","",""
"831","img/0_270.png","70","image-keyboard-response","71","206325","0.0-6.0-1.32","VASC","2","f","rechts","21","","","object","f","0","true"
"null","<div style=""font-size:60px;"">+</div>","null","html-keyboard-response","72","206694","0.0-6.0-0.33","VASC","2","f","rechts","21","","fixation","","","",""
"973","img/90_60.png","70","image-keyboard-response","73","207687","0.0-6.0-1.33","VASC","2","f","rechts","21","","","object","f","90","true"
"null","<div style=""font-size:60px;"">+</div>","null","html-keyboard-response","74","208148","0.0-6.0-0.34","VASC","2","f","rechts","21","","fixation","","","",""
"813","img/120_30.png","70","image-keyboard-response","75","208978","0.0-6.0-1.34","VASC","2","f","rechts","21","","","object","f","120","true"
"null","<div style=""font-size:60px;"">+</div>","null","html-keyboard-response","76","209381","0.0-6.0-0.35","VASC","2","f","rechts","21","","fixation","","","",""
"953","img/150_60.png","70","image-keyboard-response","77","210353","0.0-6.0-1.35","VASC","2","f","rechts","21","","","object","f","150","true"
"null","<div style=""font-size:60px;"">+</div>","null","html-keyboard-response","78","210836","0.0-6.0-0.36","VASC","2","f","rechts","21","","fixation","","","",""
"2766","img/90_210.png","74","image-keyboard-response","79","213621","0.0-6.0-1.36","VASC","2","f","rechts","21","","","object","f","90","false"
"null","<div style=""font-size:60px;"">+</div>","null","html-keyboard-response","80","213944","0.0-6.0-0.37","VASC","2","f","rechts","21","","fixation","","","",""
"833","img/30_90.png","74","image-keyboard-response","81","214785","0.0-6.0-1.37","VASC","2","f","rechts","21","","","object","j","30","true"
"null","<div style=""font-size:60px;"">+</div>","null","html-keyboard-response","82","215101","0.0-6.0-0.38","VASC","2","f","rechts","21","","fixation","","","",""
"1782","img/60_270.png","70","image-keyboard-response","83","216901","0.0-6.0-1.38","VASC","2","f","rechts","21","","","object","f","60","true"
"null","<div style=""font-size:60px;"">+</div>","null","html-keyboard-response","84","217257","0.0-6.0-0.39","VASC","2","f","rechts","21","","fixation","","","",""
"1302","img/120_180.png","70","image-keyboard-response","85","218577","0.0-6.0-1.39","VASC","2","f","rechts","21","","","object","f","120","true"
"null","<div style=""font-size:60px;"">+</div>","null","html-keyboard-response","86","218898","0.0-6.0-0.40","VASC","2","f","rechts","21","","fixation","","","",""
"1191","img/L60_180.png","74","image-keyboard-response","87","220107","0.0-6.0-1.40","VASC","2","f","rechts","21","","","object","j","60","true"
"null","<div style=""font-size:60px;"">+</div>","null","html-keyboard-response","88","220415","0.0-6.0-0.41","VASC","2","f","rechts","21","","fixation","","","",""
"1574","img/90_330.png","74","image-keyboard-response","89","222006","0.0-6.0-1.41","VASC","2","f","rechts","21","","","object","j","90","true"
"null","<div style=""font-size:60px;"">+</div>","null","html-keyboard-response","90","222430","0.0-6.0-0.42","VASC","2","f","rechts","21","","fixation","","","",""
"1336","img/150_90.png","70","image-keyboard-response","91","223785","0.0-6.0-1.42","VASC","2","f","rechts","21","","","object","f","150","true"
"null","<div style=""font-size:60px;"">+</div>","null","html-keyboard-response","92","224243","0.0-6.0-0.43","VASC","2","f","rechts","21","","fixation","","","",""
"1257","img/120_150.png","70","image-keyboard-response","93","225519","0.0-6.0-1.43","VASC","2","f","rechts","21","","","object","j","120","false"
"null","<div style=""font-size:60px;"">+</div>","null","html-keyboard-response","94","225843","0.0-6.0-0.44","VASC","2","f","rechts","21","","fixation","","","",""
"1006","img/90_240.png","74","image-keyboard-response","95","226868","0.0-6.0-1.44","VASC","2","f","rechts","21","","","object","f","90","false"
"null","<div style=""font-size:60px;"">+</div>","null","html-keyboard-response","96","227280","0.0-6.0-0.45","VASC","2","f","rechts","21","","fixation","","","",""
"739","img/0_60.png","74","image-keyboard-response","97","228039","0.0-6.0-1.45","VASC","2","f","rechts","21","","","object","j","0","true"
"null","<div style=""font-size:60px;"">+</div>","null","html-keyboard-response","98","228467","0.0-6.0-0.46","VASC","2","f","rechts","21","","fixation","","","",""
"991","img/30_270.png","70","image-keyboard-response","99","229478","0.0-6.0-1.46","VASC","2","f","rechts","21","","","object","f","30","true"
"null","<div style=""font-size:60px;"">+</div>","null","html-keyboard-response","100","229897","0.0-6.0-0.47","VASC","2","f","rechts","21","","fixation","","","",""
"1035","img/150_270.png","74","image-keyboard-response","101","230949","0.0-6.0-1.47","VASC","2","f","rechts","21","","","object","j","150","true"
"null","<div style=""font-size:60px;"">+</div>","null","html-keyboard-response","102","231365","0.0-6.0-0.48","VASC","2","f","rechts","21","","fixation","","","",""
"951","img/60_30.png","70","image-keyboard-response","103","232337","0.0-6.0-1.48","VASC","2","f","rechts","21","","","object","f","60","true"
"null","<div style=""font-size:60px;"">+</div>","null","html-keyboard-response","104","232693","0.0-6.0-0.49","VASC","2","f","rechts","21","","fixation","","","",""
"1177","img/90_180.png","70","image-keyboard-response","105","233890","0.0-6.0-1.49","VASC","2","f","rechts","21","","","object","f","90","true"
"null","<div style=""font-size:60px;"">+</div>","null","html-keyboard-response","106","234412","0.0-6.0-0.50","VASC","2","f","rechts","21","","fixation","","","",""
"842","img/0_150.png","74","image-keyboard-response","107","235273","0.0-6.0-1.50","VASC","2","f","rechts","21","","","object","j","0","true"
"null","<div style=""font-size:60px;"">+</div>","null","html-keyboard-response","108","235800","0.0-6.0-0.51","VASC","2","f","rechts","21","","fixation","","","",""
"1602","img/90_30.png","70","image-keyboard-response","109","237422","0.0-6.0-1.51","VASC","2","f","rechts","21","","","object","f","90","true"
"null","<div style=""font-size:60px;"">+</div>","null","html-keyboard-response","110","237754","0.0-6.0-0.52","VASC","2","f","rechts","21","","fixation","","","",""
"959","img/30_120.png","74","image-keyboard-response","111","238726","0.0-6.0-1.52","VASC","2","f","rechts","21","","","object","j","30","true"
"null","<div style=""font-size:60px;"">+</div>","null","html-keyboard-response","112","239237","0.0-6.0-0.53","VASC","2","f","rechts","21","","fixation","","","",""
"1474","img/90_120.png","74","image-keyboard-response","113","240718","0.0-6.0-1.53","VASC","2","f","rechts","21","","","object","j","90","true"
"null","<div style=""font-size:60px;"">+</div>","null","html-keyboard-response","114","241178","0.0-6.0-0.54","VASC","2","f","rechts","21","","fixation","","","",""
"1528","img/0_240.png","70","image-keyboard-response","115","242719","0.0-6.0-1.54","VASC","2","f","rechts","21","","","object","f","0","true"
"null","<div style=""font-size:60px;"">+</div>","null","html-keyboard-response","116","243134","0.0-6.0-0.55","VASC","2","f","rechts","21","","fixation","","","",""
"685","img/0_90.png","74","image-keyboard-response","117","243831","0.0-6.0-1.55","VASC","2","f","rechts","21","","","object","j","0","true"
"null","<div style=""font-size:60px;"">+</div>","null","html-keyboard-response","118","244288","0.0-6.0-0.56","VASC","2","f","rechts","21","","fixation","","","",""
"1054","img/120_30.png","70","image-keyboard-response","119","245352","0.0-6.0-1.56","VASC","2","f","rechts","21","","","object","f","120","true"
"null","<div style=""font-size:60px;"">+</div>","null","html-keyboard-response","120","245819","0.0-6.0-0.57","VASC","2","f","rechts","21","","fixation","","","",""
"1206","img/L150_180.png","74","image-keyboard-response","121","247039","0.0-6.0-1.57","VASC","2","f","rechts","21","","","object","j","150","true"
"null","<div style=""font-size:60px;"">+</div>","null","html-keyboard-response","122","247554","0.0-6.0-0.58","VASC","2","f","rechts","21","","fixation","","","",""
"1086","img/90_30.png","70","image-keyboard-response","123","248651","0.0-6.0-1.58","VASC","2","f","rechts","21","","","object","f","90","true"
"null","<div style=""font-size:60px;"">+</div>","null","html-keyboard-response","124","249117","0.0-6.0-0.59","VASC","2","f","rechts","21","","fixation","","","",""
"2295","img/150_270.png","74","image-keyboard-response","125","251420","0.0-6.0-1.59","VASC","2","f","rechts","21","","","object","j","150","true"
"null","<div style=""font-size:60px;"">+</div>","null","html-keyboard-response","126","251932","0.0-6.0-0.60","VASC","2","f","rechts","21","","fixation","","","",""
"723","img/0_330.png","70","image-keyboard-response","127","252664","0.0-6.0-1.60","VASC","2","f","rechts","21","","","object","f","0","true"
"null","<div style=""font-size:60px;"">+</div>","null","html-keyboard-response","128","253025","0.0-6.0-0.61","VASC","2","f","rechts","21","","fixation","","","",""
"795","img/0_30.png","74","image-keyboard-response","129","253826","0.0-6.0-1.61","VASC","2","f","rechts","21","","","object","j","0","true"
"null","<div style=""font-size:60px;"">+</div>","null","html-keyboard-response","130","254199","0.0-6.0-0.62","VASC","2","f","rechts","21","","fixation","","","",""
"1232","img/60_150.png","74","image-keyboard-response","131","255443","0.0-6.0-1.62","VASC","2","f","rechts","21","","","object","j","60","true"
"null","<div style=""font-size:60px;"">+</div>","null","html-keyboard-response","132","255920","0.0-6.0-0.63","VASC","2","f","rechts","21","","fixation","","","",""
"1362","img/L90_180.png","74","image-keyboard-response","133","257289","0.0-6.0-1.63","VASC","2","f","rechts","21","","","object","j","90","true"
"null","<div style=""font-size:60px;"">+</div>","null","html-keyboard-response","134","257800","0.0-6.0-0.64","VASC","2","f","rechts","21","","fixation","","","",""
"1435","img/90_240.png","74","image-keyboard-response","135","259243","0.0-6.0-1.64","VASC","2","f","rechts","21","","","object","f","90","false"
"null","<div style=""font-size:60px;"">+</div>","null","html-keyboard-response","136","259659","0.0-6.0-0.65","VASC","2","f","rechts","21","","fixation","","","",""
"935","img/30_240.png","70","image-keyboard-response","137","260608","0.0-6.0-1.65","VASC","2","f","rechts","21","","","object","f","30","true"
"null","<div style=""font-size:60px;"">+</div>","null","html-keyboard-response","138","260916","0.0-6.0-0.66","VASC","2","f","rechts","21","","fixation","","","",""
"1095","img/L60_180.png","74","image-keyboard-response","139","262022","0.0-6.0-1.66","VASC","2","f","rechts","21","","","object","j","60","true"
"null","<div style=""font-size:60px;"">+</div>","null","html-keyboard-response","140","262478","0.0-6.0-0.67","VASC","2","f","rechts","21","","fixation","","","",""
"995","img/60_210.png","70","image-keyboard-response","141","263488","0.0-6.0-1.67","VASC","2","f","rechts","21","","","object","f","60","true"
"null","<div style=""font-size:60px;"">+</div>","null","html-keyboard-response","142","263869","0.0-6.0-0.68","VASC","2","f","rechts","21","","fixation","","","",""
"1171","img/120_180.png","70","image-keyboard-response","143","265050","0.0-6.0-1.68","VASC","2","f","rechts","21","","","object","f","120","true"
"null","<div style=""font-size:60px;"">+</div>","null","html-keyboard-response","144","265425","0.0-6.0-0.69","VASC","2","f","rechts","21","","fixation","","","",""
"900","img/90_330.png","74","image-keyboard-response","145","266335","0.0-6.0-1.69","VASC","2","f","rechts","21","","","object","j","90","true"
"null","<div style=""font-size:60px;"">+</div>","null","html-keyboard-response","146","266842","0.0-6.0-0.70","VASC","2","f","rechts","21","","fixation","","","",""
"1069","img/150_90.png","70","image-keyboard-response","147","267920","0.0-6.0-1.70","VASC","2","f","rechts","21","","","object","f","150","true"
"null","<div style=""font-size:60px;"">+</div>","null","html-keyboard-response","148","268280","0.0-6.0-0.71","VASC","2","f","rechts","21","","fixation","","","",""
"876","img/90_300.png","74","image-keyboard-response","149","269169","0.0-6.0-1.71","VASC","2","f","rechts","21","","","object","j","90","true"
"null","<div style=""font-size:60px;"">+</div>","null","html-keyboard-response","150","269630","0.0-6.0-0.72","VASC","2","f","rechts","21","","fixation","","","",""
"1998","img/90_210.png","70","image-keyboard-response","151","271638","0.0-6.0-1.72","VASC","2","f","rechts","21","","","object","f","90","true"
"null","<div style=""font-size:60px;"">+</div>","null","html-keyboard-response","152","272118","0.0-6.0-0.73","VASC","2","f","rechts","21","","fixation","","","",""
"1427","img/90_180.png","70","image-keyboard-response","153","273556","0.0-6.0-1.73","VASC","2","f","rechts","21","","","object","f","90","true"
"null","<div style=""font-size:60px;"">+</div>","null","html-keyboard-response","154","273930","0.0-6.0-0.74","VASC","2","f","rechts","21","","fixation","","","",""
"1503","img/L30_180.png","74","image-keyboard-response","155","275447","0.0-6.0-1.74","VASC","2","f","rechts","21","","","object","j","30","true"
"null","<div style=""font-size:60px;"">+</div>","null","html-keyboard-response","156","275766","0.0-6.0-0.75","VASC","2","f","rechts","21","","fixation","","","",""
"1237","img/60_330.png","74","image-keyboard-response","157","277019","0.0-6.0-1.75","VASC","2","f","rechts","21","","","object","j","60","true"
"null","<div style=""font-size:60px;"">+</div>","null","html-keyboard-response","158","277375","0.0-6.0-0.76","VASC","2","f","rechts","21","","fixation","","","",""
"1448","img/120_150.png","74","image-keyboard-response","159","278833","0.0-6.0-1.76","VASC","2","f","rechts","21","","","object","j","120","true"
"null","<div style=""font-size:60px;"">+</div>","null","html-keyboard-response","160","279296","0.0-6.0-0.77","VASC","2","f","rechts","21","","fixation","","","",""
"889","img/0_150.png","74","image-keyboard-response","161","280194","0.0-6.0-1.77","VASC","2","f","rechts","21","","","object","j","0","true"
"null","<div style=""font-size:60px;"">+</div>","null","html-keyboard-response","162","280567","0.0-6.0-0.78","VASC","2","f","rechts","21","","fixation","","","",""
"2701","img/30_300.png","70","image-keyboard-response","163","283282","0.0-6.0-1.78","VASC","2","f","rechts","21","","","object","f","30","true"
"null","<div style=""font-size:60px;"">+</div>","null","html-keyboard-response","164","283652","0.0-6.0-0.79","VASC","2","f","rechts","21","","fixation","","","",""
"850","img/120_270.png","74","image-keyboard-response","165","284516","0.0-6.0-1.79","VASC","2","f","rechts","21","","","object","j","120","true"
"null","<div style=""font-size:60px;"">+</div>","null","html-keyboard-response","166","284974","0.0-6.0-0.80","VASC","2","f","rechts","21","","fixation","","","",""
"1957","img/60_270.png","74","image-keyboard-response","167","286938","0.0-6.0-1.80","VASC","2","f","rechts","21","","","object","f","60","false"
"null","<div style=""font-size:60px;"">+</div>","null","html-keyboard-response","168","287452","0.0-6.0-0.81","VASC","2","f","rechts","21","","fixation","","","",""
"998","img/120_90.png","70","image-keyboard-response","169","288463","0.0-6.0-1.81","VASC","2","f","rechts","21","","","object","f","120","true"
"null","<div style=""font-size:60px;"">+</div>","null","html-keyboard-response","170","288779","0.0-6.0-0.82","VASC","2","f","rechts","21","","fixation","","","",""
"1254","img/L120_180.png","74","image-keyboard-response","171","290047","0.0-6.0-1.82","VASC","2","f","rechts","21","","","object","j","120","true"
"null","<div style=""font-size:60px;"">+</div>","null","html-keyboard-response","172","290413","0.0-6.0-0.83","VASC","2","f","rechts","21","","fixation","","","",""
"762","img/0_60.png","74","image-keyboard-response","173","291185","0.0-6.0-1.83","VASC","2","f","rechts","21","","","object","j","0","true"
"null","<div style=""font-size:60px;"">+</div>","null","html-keyboard-response","174","291694","0.0-6.0-0.84","VASC","2","f","rechts","21","","fixation","","","",""
"1648","img/150_240.png","74","image-keyboard-response","175","293355","0.0-6.0-1.84","VASC","2","f","rechts","21","","","object","j","150","true"
"null","<div style=""font-size:60px;"">+</div>","null","html-keyboard-response","176","293808","0.0-6.0-0.85","VASC","2","f","rechts","21","","fixation","","","",""
"1042","img/30_180.png","70","image-keyboard-response","177","294864","0.0-6.0-1.85","VASC","2","f","rechts","21","","","object","f","30","true"
"null","<div style=""font-size:60px;"">+</div>","null","html-keyboard-response","178","295274","0.0-6.0-0.86","VASC","2","f","rechts","21","","fixation","","","",""
"1276","img/150_180.png","70","image-keyboard-response","179","296563","0.0-6.0-1.86","VASC","2","f","rechts","21","","","object","f","150","true"
"null","<div style=""font-size:60px;"">+</div>","null","html-keyboard-response","180","297071","0.0-6.0-0.87","VASC","2","f","rechts","21","","fixation","","","",""
"1106","img/90_150.png","74","image-keyboard-response","181","298183","0.0-6.0-1.87","VASC","2","f","rechts","21","","","object","j","90","true"
"null","<div style=""font-size:60px;"">+</div>","null","html-keyboard-response","182","298698","0.0-6.0-0.88","VASC","2","f","rechts","21","","fixation","","","",""
"1024","img/90_60.png","70","image-keyboard-response","183","299736","0.0-6.0-1.88","VASC","2","f","rechts","21","","","object","f","90","true"
"null","<div style=""font-size:60px;"">+</div>","null","html-keyboard-response","184","300150","0.0-6.0-0.89","VASC","2","f","rechts","21","","fixation","","","",""
"1025","img/150_300.png","74","image-keyboard-response","185","301187","0.0-6.0-1.89","VASC","2","f","rechts","21","","","object","j","150","true"
"null","<div style=""font-size:60px;"">+</div>","null","html-keyboard-response","186","301636","0.0-6.0-0.90","VASC","2","f","rechts","21","","fixation","","","",""
"865","img/150_60.png","70","image-keyboard-response","187","302515","0.0-6.0-1.90","VASC","2","f","rechts","21","","","object","f","150","true"
"null","<div style=""font-size:60px;"">+</div>","null","html-keyboard-response","188","302978","0.0-6.0-0.91","VASC","2","f","rechts","21","","fixation","","","",""
"913","img/30_270.png","70","image-keyboard-response","189","303898","0.0-6.0-1.91","VASC","2","f","rechts","21","","","object","f","30","true"
"null","<div style=""font-size:60px;"">+</div>","null","html-keyboard-response","190","304260","0.0-6.0-0.92","VASC","2","f","rechts","21","","fixation","","","",""
"726","img/0_120.png","74","image-keyboard-response","191","304998","0.0-6.0-1.92","VASC","2","f","rechts","21","","","object","j","0","true"
"null","<div style=""font-size:60px;"">+</div>","null","html-keyboard-response","192","305355","0.0-6.0-0.93","VASC","2","f","rechts","21","","fixation","","","",""
"1105","img/30_90.png","74","image-keyboard-response","193","306474","0.0-6.0-1.93","VASC","2","f","rechts","21","","","object","j","30","true"
"null","<div style=""font-size:60px;"">+</div>","null","html-keyboard-response","194","306838","0.0-6.0-0.94","VASC","2","f","rechts","21","","fixation","","","",""
"928","img/0_210.png","70","image-keyboard-response","195","307779","0.0-6.0-1.94","VASC","2","f","rechts","21","","","object","f","0","true"
"null","<div style=""font-size:60px;"">+</div>","null","html-keyboard-response","196","308292","0.0-6.0-0.95","VASC","2","f","rechts","21","","fixation","","","",""
"1140","img/60_30.png","70","image-keyboard-response","197","309444","0.0-6.0-1.95","VASC","2","f","rechts","21","","","object","f","60","true"
"null","<div style=""font-size:60px;"">+</div>","null","html-keyboard-response","198","309856","0.0-6.0-0.96","VASC","2","f","rechts","21","","fixation","","","",""
"858","img/0_270.png","70","image-keyboard-response","199","310728","0.0-6.0-1.96","VASC","2","f","rechts","21","","","object","f","0","true"
"null","<div style=""font-size:60px;"">+</div>","null","html-keyboard-response","200","311138","0.0-6.0-0.97","VASC","2","f","rechts","21","","fixation","","","",""
"1014","img/120_330.png","74","image-keyboard-response","201","312167","0.0-6.0-1.97","VASC","2","f","rechts","21","","","object","j","120","true"
"null","<div style=""font-size:60px;"">+</div>","null","html-keyboard-response","202","312497","0.0-6.0-0.98","VASC","2","f","rechts","21","","fixation","","","",""
"994","img/120_210.png","74","image-keyboard-response","203","313505","0.0-6.0-1.98","VASC","2","f","rechts","21","","","object","f","120","false"
"null","<div style=""font-size:60px;"">+</div>","null","html-keyboard-response","204","314011","0.0-6.0-0.99","VASC","2","f","rechts","21","","fixation","","","",""
"1277","img/150_120.png","70","image-keyboard-response","205","315295","0.0-6.0-1.99","VASC","2","f","rechts","21","","","object","f","150","true"
"null","<div style=""font-size:60px;"">+</div>","null","html-keyboard-response","206","315746","0.0-6.0-0.100","VASC","2","f","rechts","21","","fixation","","","",""
"1242","img/30_60.png","70","image-keyboard-response","207","317002","0.0-6.0-1.100","VASC","2","f","rechts","21","","","object","j","30","false"
"null","<div style=""font-size:60px;"">+</div>","null","html-keyboard-response","208","317516","0.0-6.0-0.101","VASC","2","f","rechts","21","","fixation","","","",""
"1118","img/60_90.png","70","image-keyboard-response","209","318646","0.0-6.0-1.101","VASC","2","f","rechts","21","","","object","j","60","false"
"null","<div style=""font-size:60px;"">+</div>","null","html-keyboard-response","210","318952","0.0-6.0-0.102","VASC","2","f","rechts","21","","fixation","","","",""
"1176","img/60_180.png","70","image-keyboard-response","211","320144","0.0-6.0-1.102","VASC","2","f","rechts","21","","","object","f","60","true"
"null","<div style=""font-size:60px;"">+</div>","null","html-keyboard-response","212","320463","0.0-6.0-0.103","VASC","2","f","rechts","21","","fixation","","","",""
"871","img/0_300.png","70","image-keyboard-response","213","321347","0.0-6.0-1.103","VASC","2","f","rechts","21","","","object","f","0","true"
"null","<div style=""font-size:60px;"">+</div>","null","html-keyboard-response","214","321665","0.0-6.0-0.104","VASC","2","f","rechts","21","","fixation","","","",""
"1053","img/150_270.png","74","image-keyboard-response","215","322732","0.0-6.0-1.104","VASC","2","f","rechts","21","","","object","j","150","true"
"null","<div style=""font-size:60px;"">+</div>","null","html-keyboard-response","216","323135","0.0-6.0-0.105","VASC","2","f","rechts","21","","fixation","","","",""
"1285","img/30_270.png","70","image-keyboard-response","217","324430","0.0-6.0-1.105","VASC","2","f","rechts","21","","","object","f","30","true"
"null","<div style=""font-size:60px;"">+</div>","null","html-keyboard-response","218","324749","0.0-6.0-0.106","VASC","2","f","rechts","21","","fixation","","","",""
"1142","img/L60_180.png","74","image-keyboard-response","219","325903","0.0-6.0-1.106","VASC","2","f","rechts","21","","","object","j","60","true"
"null","<div style=""font-size:60px;"">+</div>","null","html-keyboard-response","220","326406","0.0-6.0-0.107","VASC","2","f","rechts","21","","fixation","","","",""
"1182","img/120_30.png","70","image-keyboard-response","221","327602","0.0-6.0-1.107","VASC","2","f","rechts","21","","","object","f","120","true"
"null","<div style=""font-size:60px;"">+</div>","null","html-keyboard-response","222","327967","0.0-6.0-0.108","VASC","2","f","rechts","21","","fixation","","","",""
"694","img/60_30.png","70","image-keyboard-response","223","328671","0.0-6.0-1.108","VASC","2","f","rechts","21","","","object","f","60","true"
"null","<div style=""font-size:60px;"">+</div>","null","html-keyboard-response","224","329140","0.0-6.0-0.109","VASC","2","f","rechts","21","","fixation","","","",""
"957","img/30_120.png","74","image-keyboard-response","225","330109","0.0-6.0-1.109","VASC","2","f","rechts","21","","","object","j","30","true"
"null","<div style=""font-size:60px;"">+</div>","null","html-keyboard-response","226","330437","0.0-6.0-0.110","VASC","2","f","rechts","21","","fixation","","","",""
"1183","img/L120_180.png","74","image-keyboard-response","227","331630","0.0-6.0-1.110","VASC","2","f","rechts","21","","","object","j","120","true"
"null","<div style=""font-size:60px;"">+</div>","null","html-keyboard-response","228","332141","0.0-6.0-0.111","VASC","2","f","rechts","21","","fixation","","","",""
"725","img/0_60.png","74","image-keyboard-response","229","332878","0.0-6.0-1.111","VASC","2","f","rechts","21","","","object","j","0","true"
"null","<div style=""font-size:60px;"">+</div>","null","html-keyboard-response","230","333281","0.0-6.0-0.112","VASC","2","f","rechts","21","","fixation","","","",""
"1081","img/L90_180.png","74","image-keyboard-response","231","334375","0.0-6.0-1.112","VASC","2","f","rechts","21","","","object","j","90","true"
"null","<div style=""font-size:60px;"">+</div>","null","html-keyboard-response","232","334891","0.0-6.0-0.113","VASC","2","f","rechts","21","","fixation","","","",""
"801","img/0_120.png","74","image-keyboard-response","233","335701","0.0-6.0-1.113","VASC","2","f","rechts","21","","","object","j","0","true"
"null","<div style=""font-size:60px;"">+</div>","null","html-keyboard-response","234","336019","0.0-6.0-0.114","VASC","2","f","rechts","21","","fixation","","","",""
"1262","img/L150_180.png","74","image-keyboard-response","235","337289","0.0-6.0-1.114","VASC","2","f","rechts","21","","","object","j","150","true"
"null","<div style=""font-size:60px;"">+</div>","null","html-keyboard-response","236","337652","0.0-6.0-0.115","VASC","2","f","rechts","21","","fixation","","","",""
"931","img/150_300.png","70","image-keyboard-response","237","338592","0.0-6.0-1.115","VASC","2","f","rechts","21","","","object","j","150","false"
"null","<div style=""font-size:60px;"">+</div>","null","html-keyboard-response","238","338949","0.0-6.0-0.116","VASC","2","f","rechts","21","","fixation","","","",""
"1333","img/30_180.png","70","image-keyboard-response","239","340294","0.0-6.0-1.116","VASC","2","f","rechts","21","","","object","f","30","true"
"null","<div style=""font-size:60px;"">+</div>","null","html-keyboard-response","240","340720","0.0-6.0-0.117","VASC","2","f","rechts","21","","fixation","","","",""
"1495","img/150_240.png","74","image-keyboard-response","241","342225","0.0-6.0-1.117","VASC","2","f","rechts","21","","","object","j","150","true"
"null","<div style=""font-size:60px;"">+</div>","null","html-keyboard-response","242","342706","0.0-6.0-0.118","VASC","2","f","rechts","21","","fixation","","","",""
"871","img/60_330.png","74","image-keyboard-response","243","343587","0.0-6.0-1.118","VASC","2","f","rechts","21","","","object","j","60","true"
"null","<div style=""font-size:60px;"">+</div>","null","html-keyboard-response","244","344002","0.0-6.0-0.119","VASC","2","f","rechts","21","","fixation","","","",""
"904","img/60_180.png","70","image-keyboard-response","245","344916","0.0-6.0-1.119","VASC","2","f","rechts","21","","","object","f","60","true"
"null","<div style=""font-size:60px;"">+</div>","null","html-keyboard-response","246","345345","0.0-6.0-0.120","VASC","2","f","rechts","21","","fixation","","","",""
"1252","img/150_90.png","70","image-keyboard-response","247","346615","0.0-6.0-1.120","VASC","2","f","rechts","21","","","object","f","150","true"
"null","<div style=""font-size:60px;"">+</div>","null","html-keyboard-response","248","347030","0.0-6.0-0.121","VASC","2","f","rechts","21","","fixation","","","",""
"2751","img/120_210.png","74","image-keyboard-response","249","349792","0.0-6.0-1.121","VASC","2","f","rechts","21","","","object","f","120","false"
"null","<div style=""font-size:60px;"">+</div>","null","html-keyboard-response","250","350304","0.0-6.0-0.122","VASC","2","f","rechts","21","","fixation","","","",""
"777","img/90_60.png","70","image-keyboard-response","251","351090","0.0-6.0-1.122","VASC","2","f","rechts","21","","","object","f","90","true"
"null","<div style=""font-size:60px;"">+</div>","null","html-keyboard-response","252","351602","0.0-6.0-0.123","VASC","2","f","rechts","21","","fixation","","","",""
"648","img/0_30.png","74","image-keyboard-response","253","352263","0.0-6.0-1.123","VASC","2","f","rechts","21","","","object","j","0","true"
"null","<div style=""font-size:60px;"">+</div>","null","html-keyboard-response","254","352619","0.0-6.0-0.124","VASC","2","f","rechts","21","","fixation","","","",""
"721","img/30_240.png","70","image-keyboard-response","255","353354","0.0-6.0-1.124","VASC","2","f","rechts","21","","","object","f","30","true"
"null","<div style=""font-size:60px;"">+</div>","null","html-keyboard-response","256","353869","0.0-6.0-0.125","VASC","2","f","rechts","21","","fixation","","","",""
"740","img/0_330.png","70","image-keyboard-response","257","354625","0.0-6.0-1.125","VASC","2","f","rechts","21","","","object","f","0","true"
"null","<div style=""font-size:60px;"">+</div>","null","html-keyboard-response","258","355096","0.0-6.0-0.126","VASC","2","f","rechts","21","","fixation","","","",""
"829","img/120_90.png","70","image-keyboard-response","259","355929","0.0-6.0-1.126","VASC","2","f","rechts","21","","","object","f","120","true"
"null","<div style=""font-size:60px;"">+</div>","null","html-keyboard-response","260","356459","0.0-6.0-0.127","VASC","2","f","rechts","21","","fixation","","","",""
"1068","img/90_180.png","70","image-keyboard-response","261","357541","0.0-6.0-1.127","VASC","2","f","rechts","21","","","object","f","90","true"
"null","<div style=""font-size:60px;"">+</div>","null","html-keyboard-response","262","358006","0.0-6.0-0.128","VASC","2","f","rechts","21","","fixation","","","",""
"1025","img/90_240.png","70","image-keyboard-response","263","359045","0.0-6.0-1.128","VASC","2","f","rechts","21","","","object","f","90","true"
"null","<div style=""font-size:60px;"">+</div>","null","html-keyboard-response","264","359413","0.0-6.0-0.129","VASC","2","f","rechts","21","","fixation","","","",""
"863","img/90_30.png","70","image-keyboard-response","265","360293","0.0-6.0-1.129","VASC","2","f","rechts","21","","","object","f","90","true"
"null","<div style=""font-size:60px;"">+</div>","null","html-keyboard-response","266","360803","0.0-6.0-0.130","VASC","2","f","rechts","21","","fixation","","","",""
"2206","img/30_300.png","74","image-keyboard-response","267","363022","0.0-6.0-1.130","VASC","2","f","rechts","21","","","object","f","30","false"
"null","<div style=""font-size:60px;"">+</div>","null","html-keyboard-response","268","363440","0.0-6.0-0.131","VASC","2","f","rechts","21","","fixation","","","",""
"1044","img/90_210.png","70","image-keyboard-response","269","364491","0.0-6.0-1.131","VASC","2","f","rechts","21","","","object","f","90","true"
"null","<div style=""font-size:60px;"">+</div>","null","html-keyboard-response","270","364914","0.0-6.0-0.132","VASC","2","f","rechts","21","","fixation","","","",""
"697","img/0_150.png","74","image-keyboard-response","271","365626","0.0-6.0-1.132","VASC","2","f","rechts","21","","","object","j","0","true"
"null","<div style=""font-size:60px;"">+</div>","null","html-keyboard-response","272","365946","0.0-6.0-0.133","VASC","2","f","rechts","21","","fixation","","","",""
"1054","img/120_330.png","74","image-keyboard-response","273","367012","0.0-6.0-1.133","VASC","2","f","rechts","21","","","object","j","120","true"
"null","<div style=""font-size:60px;"">+</div>","null","html-keyboard-response","274","367415","0.0-6.0-0.134","VASC","2","f","rechts","21","","fixation","","","",""
"1837","img/30_60.png","74","image-keyboard-response","275","369262","0.0-6.0-1.134","VASC","2","f","rechts","21","","","object","j","30","true"
"null","<div style=""font-size:60px;"">+</div>","null","html-keyboard-response","276","369729","0.0-6.0-0.135","VASC","2","f","rechts","21","","fixation","","","",""
"700","img/0_90.png","74","image-keyboard-response","277","370443","0.0-6.0-1.135","VASC","2","f","rechts","21","","","object","j","0","true"
"null","<div style=""font-size:60px;"">+</div>","null","html-keyboard-response","278","370760","0.0-6.0-0.136","VASC","2","f","rechts","21","","fixation","","","",""
"916","img/120_180.png","70","image-keyboard-response","279","371690","0.0-6.0-1.136","VASC","2","f","rechts","21","","","object","f","120","true"
"null","<div style=""font-size:60px;"">+</div>","null","html-keyboard-response","280","372151","0.0-6.0-0.137","VASC","2","f","rechts","21","","fixation","","","",""
"1182","img/150_60.png","70","image-keyboard-response","281","373346","0.0-6.0-1.137","VASC","2","f","rechts","21","","","object","f","150","true"
"null","<div style=""font-size:60px;"">+</div>","null","html-keyboard-response","282","373715","0.0-6.0-0.138","VASC","2","f","rechts","21","","fixation","","","",""
"735","img/0_270.png","70","image-keyboard-response","283","374460","0.0-6.0-1.138","VASC","2","f","rechts","21","","","object","f","0","true"
"null","<div style=""font-size:60px;"">+</div>","null","html-keyboard-response","284","374887","0.0-6.0-0.139","VASC","2","f","rechts","21","","fixation","","","",""
"687","img/0_210.png","70","image-keyboard-response","285","375584","0.0-6.0-1.139","VASC","2","f","rechts","21","","","object","f","0","true"
"null","<div style=""font-size:60px;"">+</div>","null","html-keyboard-response","286","375967","0.0-6.0-0.140","VASC","2","f","rechts","21","","fixation","","","",""
"958","img/30_90.png","74","image-keyboard-response","287","376935","0.0-6.0-1.140","VASC","2","f","rechts","21","","","object","j","30","true"
"null","<div style=""font-size:60px;"">+</div>","null","html-keyboard-response","288","377247","0.0-6.0-0.141","VASC","2","f","rechts","21","","fixation","","","",""
"1911","img/150_180.png","70","image-keyboard-response","289","379172","0.0-6.0-1.141","VASC","2","f","rechts","21","","","object","f","150","true"
"null","<div style=""font-size:60px;"">+</div>","null","html-keyboard-response","290","379622","0.0-6.0-0.142","VASC","2","f","rechts","21","","fixation","","","",""
"741","img/0_240.png","70","image-keyboard-response","291","380376","0.0-6.0-1.142","VASC","2","f","rechts","21","","","object","f","0","true"
"null","<div style=""font-size:60px;"">+</div>","null","html-keyboard-response","292","380684","0.0-6.0-0.143","VASC","2","f","rechts","21","","fixation","","","",""
"1558","img/120_150.png","74","image-keyboard-response","293","382255","0.0-6.0-1.143","VASC","2","f","rechts","21","","","object","j","120","true"
"null","<div style=""font-size:60px;"">+</div>","null","html-keyboard-response","294","382575","0.0-6.0-0.144","VASC","2","f","rechts","21","","fixation","","","",""
"983","img/90_330.png","74","image-keyboard-response","295","383571","0.0-6.0-1.144","VASC","2","f","rechts","21","","","object","j","90","true"
"null","<div style=""font-size:60px;"">+</div>","null","html-keyboard-response","296","383899","0.0-6.0-0.145","VASC","2","f","rechts","21","","fixation","","","",""
"731","img/0_300.png","70","image-keyboard-response","297","384640","0.0-6.0-1.145","VASC","2","f","rechts","21","","","object","f","0","true"
"null","<div style=""font-size:60px;"">+</div>","null","html-keyboard-response","298","384998","0.0-6.0-0.146","VASC","2","f","rechts","21","","fixation","","","",""
"1565","img/60_270.png","70","image-keyboard-response","299","386576","0.0-6.0-1.146","VASC","2","f","rechts","21","","","object","f","60","true"
"null","<div style=""font-size:60px;"">+</div>","null","html-keyboard-response","300","386936","0.0-6.0-0.147","VASC","2","f","rechts","21","","fixation","","","",""
"934","img/60_150.png","74","image-keyboard-response","301","387883","0.0-6.0-1.147","VASC","2","f","rechts","21","","","object","j","60","true"
"null","<div style=""font-size:60px;"">+</div>","null","html-keyboard-response","302","388343","0.0-6.0-0.148","VASC","2","f","rechts","21","","fixation","","","",""
"1316","img/120_270.png","74","image-keyboard-response","303","389671","0.0-6.0-1.148","VASC","2","f","rechts","21","","","object","j","120","true"
"null","<div style=""font-size:60px;"">+</div>","null","html-keyboard-response","304","390044","0.0-6.0-0.149","VASC","2","f","rechts","21","","fixation","","","",""
"913","img/60_210.png","70","image-keyboard-response","305","390972","0.0-6.0-1.149","VASC","2","f","rechts","21","","","object","f","60","true"
"null","<div style=""font-size:60px;"">+</div>","null","html-keyboard-response","306","391451","0.0-6.0-0.150","VASC","2","f","rechts","21","","fixation","","","",""
"915","img/90_300.png","74","image-keyboard-response","307","392379","0.0-6.0-1.150","VASC","2","f","rechts","21","","","object","j","90","true"
"null","<div style=""font-size:60px;"">+</div>","null","html-keyboard-response","308","392905","0.0-6.0-0.151","VASC","2","f","rechts","21","","fixation","","","",""
"2449","img/60_90.png","74","image-keyboard-response","309","395363","0.0-6.0-1.151","VASC","2","f","rechts","21","","","object","j","60","true"
"null","<div style=""font-size:60px;"">+</div>","null","html-keyboard-response","310","395767","0.0-6.0-0.152","VASC","2","f","rechts","21","","fixation","","","",""
"1058","img/150_120.png","70","image-keyboard-response","311","396835","0.0-6.0-1.152","VASC","2","f","rechts","21","","","object","f","150","true"
"null","<div style=""font-size:60px;"">+</div>","null","html-keyboard-response","312","397145","0.0-6.0-0.153","VASC","2","f","rechts","21","","fixation","","","",""
"1336","img/90_150.png","74","image-keyboard-response","313","398488","0.0-6.0-1.153","VASC","2","f","rechts","21","","","object","j","90","true"
"null","<div style=""font-size:60px;"">+</div>","null","html-keyboard-response","314","398794","0.0-6.0-0.154","VASC","2","f","rechts","21","","fixation","","","",""
"1403","img/90_120.png","74","image-keyboard-response","315","400210","0.0-6.0-1.154","VASC","2","f","rechts","21","","","object","j","90","true"
"null","<div style=""font-size:60px;"">+</div>","null","html-keyboard-response","316","400664","0.0-6.0-0.155","VASC","2","f","rechts","21","","fixation","","","",""
"975","img/L30_180.png","74","image-keyboard-response","317","401652","0.0-6.0-1.155","VASC","2","f","rechts","21","","","object","j","30","true"
"null","<div style=""font-size:60px;"">+</div>","null","html-keyboard-response","318","402178","0.0-6.0-0.156","VASC","2","f","rechts","21","","fixation","","","",""
"1188","img/150_120.png","74","image-keyboard-response","319","403372","0.0-6.0-1.156","VASC","2","f","rechts","21","","","object","f","150","false"
"null","<div style=""font-size:60px;"">+</div>","null","html-keyboard-response","320","403727","0.0-6.0-0.157","VASC","2","f","rechts","21","","fixation","","","",""
"1333","img/60_210.png","70","image-keyboard-response","321","405069","0.0-6.0-1.157","VASC","2","f","rechts","21","","","object","f","60","true"
"null","<div style=""font-size:60px;"">+</div>","null","html-keyboard-response","322","405422","0.0-6.0-0.158","VASC","2","f","rechts","21","","fixation","","","",""
"1225","img/150_270.png","74","image-keyboard-response","323","406658","0.0-6.0-1.158","VASC","2","f","rechts","21","","","object","j","150","true"
"null","<div style=""font-size:60px;"">+</div>","null","html-keyboard-response","324","407062","0.0-6.0-0.159","VASC","2","f","rechts","21","","fixation","","","",""
"1527","img/L120_180.png","74","image-keyboard-response","325","408604","0.0-6.0-1.159","VASC","2","f","rechts","21","","","object","j","120","true"
"null","<div style=""font-size:60px;"">+</div>","null","html-keyboard-response","326","409025","0.0-6.0-0.160","VASC","2","f","rechts","21","","fixation","","","",""
"1020","img/30_90.png","74","image-keyboard-response","327","410054","0.0-6.0-1.160","VASC","2","f","rechts","21","","","object","j","30","true"
"null","<div style=""font-size:60px;"">+</div>","null","html-keyboard-response","328","410579","0.0-6.0-0.161","VASC","2","f","rechts","21","","fixation","","","",""
"813","img/150_300.png","70","image-keyboard-response","329","411405","0.0-6.0-1.161","VASC","2","f","rechts","21","","","object","j","150","false"
"null","<div style=""font-size:60px;"">+</div>","null","html-keyboard-response","330","411720","0.0-6.0-0.162","VASC","2","f","rechts","21","","fixation","","","",""
"1661","img/150_240.png","74","image-keyboard-response","331","413395","0.0-6.0-1.162","VASC","2","f","rechts","21","","","object","j","150","true"
"null","<div style=""font-size:60px;"">+</div>","null","html-keyboard-response","332","413750","0.0-6.0-0.163","VASC","2","f","rechts","21","","fixation","","","",""
"802","img/0_300.png","70","image-keyboard-response","333","414566","0.0-6.0-1.163","VASC","2","f","rechts","21","","","object","f","0","true"
"null","<div style=""font-size:60px;"">+</div>","null","html-keyboard-response","334","415079","0.0-6.0-0.164","VASC","2","f","rechts","21","","fixation","","","",""
"1523","img/30_300.png","70","image-keyboard-response","335","416614","0.0-6.0-1.164","VASC","2","f","rechts","21","","","object","f","30","true"
"null","<div style=""font-size:60px;"">+</div>","null","html-keyboard-response","336","416938","0.0-6.0-0.165","VASC","2","f","rechts","21","","fixation","","","",""
"1274","img/120_180.png","70","image-keyboard-response","337","418221","0.0-6.0-1.165","VASC","2","f","rechts","21","","","object","f","120","true"
"null","<div style=""font-size:60px;"">+</div>","null","html-keyboard-response","338","418642","0.0-6.0-0.166","VASC","2","f","rechts","21","","fixation","","","",""
"1008","img/120_210.png","74","image-keyboard-response","339","419663","0.0-6.0-1.166","VASC","2","f","rechts","21","","","object","f","120","false"
"null","<div style=""font-size:60px;"">+</div>","null","html-keyboard-response","340","420084","0.0-6.0-0.167","VASC","2","f","rechts","21","","fixation","","","",""
"906","img/90_30.png","70","image-keyboard-response","341","421001","0.0-6.0-1.167","VASC","2","f","rechts","21","","","object","f","90","true"
"null","<div style=""font-size:60px;"">+</div>","null","html-keyboard-response","342","421505","0.0-6.0-0.168","VASC","2","f","rechts","21","","fixation","","","",""
"961","img/60_180.png","70","image-keyboard-response","343","422481","0.0-6.0-1.168","VASC","2","f","rechts","21","","","object","f","60","true"
"null","<div style=""font-size:60px;"">+</div>","null","html-keyboard-response","344","422913","0.0-6.0-0.169","VASC","2","f","rechts","21","","fixation","","","",""
"661","img/0_120.png","74","image-keyboard-response","345","423588","0.0-6.0-1.169","VASC","2","f","rechts","21","","","object","j","0","true"
"null","<div style=""font-size:60px;"">+</div>","null","html-keyboard-response","346","424005","0.0-6.0-0.170","VASC","2","f","rechts","21","","fixation","","","",""
"1033","img/L60_180.png","74","image-keyboard-response","347","425051","0.0-6.0-1.170","VASC","2","f","rechts","21","","","object","j","60","true"
"null","<div style=""font-size:60px;"">+</div>","null","html-keyboard-response","348","425481","0.0-6.0-0.171","VASC","2","f","rechts","21","","fixation","","","",""
"907","img/60_30.png","70","image-keyboard-response","349","426401","0.0-6.0-1.171","VASC","2","f","rechts","21","","","object","f","60","true"
"null","<div style=""font-size:60px;"">+</div>","null","html-keyboard-response","350","426905","0.0-6.0-0.172","VASC","2","f","rechts","21","","fixation","","","",""
"855","img/90_60.png","70","image-keyboard-response","351","427774","0.0-6.0-1.172","VASC","2","f","rechts","21","","","object","f","90","true"
"null","<div style=""font-size:60px;"">+</div>","null","html-keyboard-response","352","428280","0.0-6.0-0.173","VASC","2","f","rechts","21","","fixation","","","",""
"625","img/0_60.png","74","image-keyboard-response","353","428919","0.0-6.0-1.173","VASC","2","f","rechts","21","","","object","j","0","true"
"null","<div style=""font-size:60px;"">+</div>","null","html-keyboard-response","354","429273","0.0-6.0-0.174","VASC","2","f","rechts","21","","fixation","","","",""
"997","img/150_60.png","70","image-keyboard-response","355","430280","0.0-6.0-1.174","VASC","2","f","rechts","21","","","object","f","150","true"
"null","<div style=""font-size:60px;"">+</div>","null","html-keyboard-response","356","430592","0.0-6.0-0.175","VASC","2","f","rechts","21","","fixation","","","",""
"850","img/0_150.png","74","image-keyboard-response","357","431452","0.0-6.0-1.175","VASC","2","f","rechts","21","","","object","j","0","true"
"null","<div style=""font-size:60px;"">+</div>","null","html-keyboard-response","358","431763","0.0-6.0-0.176","VASC","2","f","rechts","21","","fixation","","","",""
"1036","img/120_330.png","74","image-keyboard-response","359","432813","0.0-6.0-1.176","VASC","2","f","rechts","21","","","object","j","120","true"
"null","<div style=""font-size:60px;"">+</div>","null","html-keyboard-response","360","433129","0.0-6.0-0.177","VASC","2","f","rechts","21","","fixation","","","",""
"842","img/90_300.png","74","image-keyboard-response","361","433984","0.0-6.0-1.177","VASC","2","f","rechts","21","","","object","j","90","true"
"null","<div style=""font-size:60px;"">+</div>","null","html-keyboard-response","362","434286","0.0-6.0-0.178","VASC","2","f","rechts","21","","fixation","","","",""
"774","img/0_330.png","70","image-keyboard-response","363","435074","0.0-6.0-1.178","VASC","2","f","rechts","21","","","object","f","0","true"
"null","<div style=""font-size:60px;"">+</div>","null","html-keyboard-response","364","435537","0.0-6.0-0.179","VASC","2","f","rechts","21","","fixation","","","",""
"606","img/0_240.png","70","image-keyboard-response","365","436154","0.0-6.0-1.179","VASC","2","f","rechts","21","","","object","f","0","true"
"null","<div style=""font-size:60px;"">+</div>","null","html-keyboard-response","366","436520","0.0-6.0-0.180","VASC","2","f","rechts","21","","fixation","","","",""
"521","img/0_270.png","70","image-keyboard-response","367","437055","0.0-6.0-1.180","VASC","2","f","rechts","21","","","object","f","0","true"
"null","<div style=""font-size:60px;"">+</div>","null","html-keyboard-response","368","437364","0.0-6.0-0.181","VASC","2","f","rechts","21","","fixation","","","",""
"1343","img/L150_180.png","74","image-keyboard-response","369","438720","0.0-6.0-1.181","VASC","2","f","rechts","21","","","object","j","150","true"
"null","<div style=""font-size:60px;"">+</div>","null","html-keyboard-response","370","439049","0.0-6.0-0.182","VASC","2","f","rechts","21","","fixation","","","",""
"1627","img/60_330.png","74","image-keyboard-response","371","440689","0.0-6.0-1.182","VASC","2","f","rechts","21","","","object","j","60","true"
"null","<div style=""font-size:60px;"">+</div>","null","html-keyboard-response","372","441100","0.0-6.0-0.183","VASC","2","f","rechts","21","","fixation","","","",""
"620","img/0_210.png","70","image-keyboard-response","373","441734","0.0-6.0-1.183","VASC","2","f","rechts","21","","","object","f","0","true"
"null","<div style=""font-size:60px;"">+</div>","null","html-keyboard-response","374","442240","0.0-6.0-0.184","VASC","2","f","rechts","21","","fixation","","","",""
"696","img/120_30.png","70","image-keyboard-response","375","442939","0.0-6.0-1.184","VASC","2","f","rechts","21","","","object","f","120","true"
"null","<div style=""font-size:60px;"">+</div>","null","html-keyboard-response","376","443255","0.0-6.0-0.185","VASC","2","f","rechts","21","","fixation","","","",""
"780","img/60_270.png","74","image-keyboard-response","377","444041","0.0-6.0-1.185","VASC","2","f","rechts","21","","","object","f","60","false"
"null","<div style=""font-size:60px;"">+</div>","null","html-keyboard-response","378","444413","0.0-6.0-0.186","VASC","2","f","rechts","21","","fixation","","","",""
"1247","img/90_210.png","74","image-keyboard-response","379","445673","0.0-6.0-1.186","VASC","2","f","rechts","21","","","object","f","90","false"
"null","<div style=""font-size:60px;"">+</div>","null","html-keyboard-response","380","446131","0.0-6.0-0.187","VASC","2","f","rechts","21","","fixation","","","",""
"2785","img/150_180.png","70","image-keyboard-response","381","448929","0.0-6.0-1.187","VASC","2","f","rechts","21","","","object","f","150","true"
"null","<div style=""font-size:60px;"">+</div>","null","html-keyboard-response","382","449285","0.0-6.0-0.188","VASC","2","f","rechts","21","","fixation","","","",""
"1380","img/30_240.png","70","image-keyboard-response","383","450678","0.0-6.0-1.188","VASC","2","f","rechts","21","","","object","f","30","true"
"null","<div style=""font-size:60px;"">+</div>","null","html-keyboard-response","384","451040","0.0-6.0-0.189","VASC","2","f","rechts","21","","fixation","","","",""
"1339","img/90_120.png","74","image-keyboard-response","385","452389","0.0-6.0-1.189","VASC","2","f","rechts","21","","","object","j","90","true"
"null","<div style=""font-size:60px;"">+</div>","null","html-keyboard-response","386","452900","0.0-6.0-0.190","VASC","2","f","rechts","21","","fixation","","","",""
"2328","img/120_150.png","70","image-keyboard-response","387","455239","0.0-6.0-1.190","VASC","2","f","rechts","21","","","object","j","120","false"
"null","<div style=""font-size:60px;"">+</div>","null","html-keyboard-response","388","455751","0.0-6.0-0.191","VASC","2","f","rechts","21","","fixation","","","",""
"775","img/120_90.png","70","image-keyboard-response","389","456540","0.0-6.0-1.191","VASC","2","f","rechts","21","","","object","f","120","true"
"null","<div style=""font-size:60px;"">+</div>","null","html-keyboard-response","390","457045","0.0-6.0-0.192","VASC","2","f","rechts","21","","fixation","","","",""
"1712","img/60_90.png","70","image-keyboard-response","391","458766","0.0-6.0-1.192","VASC","2","f","rechts","21","","","object","j","60","false"
"null","<div style=""font-size:60px;"">+</div>","null","html-keyboard-response","392","459272","0.0-6.0-0.193","VASC","2","f","rechts","21","","fixation","","","",""
"910","img/30_120.png","74","image-keyboard-response","393","460195","0.0-6.0-1.193","VASC","2","f","rechts","21","","","object","j","30","true"
"null","<div style=""font-size:60px;"">+</div>","null","html-keyboard-response","394","460520","0.0-6.0-0.194","VASC","2","f","rechts","21","","fixation","","","",""
"1349","img/90_180.png","70","image-keyboard-response","395","461884","0.0-6.0-1.194","VASC","2","f","rechts","21","","","object","f","90","true"
"null","<div style=""font-size:60px;"">+</div>","null","html-keyboard-response","396","462413","0.0-6.0-0.195","VASC","2","f","rechts","21","","fixation","","","",""
"1662","img/30_60.png","74","image-keyboard-response","397","464088","0.0-6.0-1.195","VASC","2","f","rechts","21","","","object","j","30","true"
"null","<div style=""font-size:60px;"">+</div>","null","html-keyboard-response","398","464561","0.0-6.0-0.196","VASC","2","f","rechts","21","","fixation","","","",""
"1533","img/120_270.png","74","image-keyboard-response","399","466105","0.0-6.0-1.196","VASC","2","f","rechts","21","","","object","j","120","true"
"null","<div style=""font-size:60px;"">+</div>","null","html-keyboard-response","400","466459","0.0-6.0-0.197","VASC","2","f","rechts","21","","fixation","","","",""
"2888","img/90_150.png","74","image-keyboard-response","401","469358","0.0-6.0-1.197","VASC","2","f","rechts","21","","","object","j","90","true"
"null","<div style=""font-size:60px;"">+</div>","null","html-keyboard-response","402","469867","0.0-6.0-0.198","VASC","2","f","rechts","21","","fixation","","","",""
"1020","img/L30_180.png","74","image-keyboard-response","403","470895","0.0-6.0-1.198","VASC","2","f","rechts","21","","","object","j","30","true"
"null","<div style=""font-size:60px;"">+</div>","null","html-keyboard-response","404","471414","0.0-6.0-0.199","VASC","2","f","rechts","21","","fixation","","","",""
"1145","img/30_180.png","70","image-keyboard-response","405","472572","0.0-6.0-1.199","VASC","2","f","rechts","21","","","object","f","30","true"
"null","<div style=""font-size:60px;"">+</div>","null","html-keyboard-response","406","473039","0.0-6.0-0.200","VASC","2","f","rechts","21","","fixation","","","",""
"1228","img/90_240.png","74","image-keyboard-response","407","474280","0.0-6.0-1.200","VASC","2","f","rechts","21","","","object","f","90","false"
"null","<div style=""font-size:60px;"">+</div>","null","html-keyboard-response","408","474647","0.0-6.0-0.201","VASC","2","f","rechts","21","","fixation","","","",""
"801","img/90_330.png","74","image-keyboard-response","409","475463","0.0-6.0-1.201","VASC","2","f","rechts","21","","","object","j","90","true"
"null","<div style=""font-size:60px;"">+</div>","null","html-keyboard-response","410","475929","0.0-6.0-0.202","VASC","2","f","rechts","21","","fixation","","","",""
"780","img/0_30.png","74","image-keyboard-response","411","476723","0.0-6.0-1.202","VASC","2","f","rechts","21","","","object","j","0","true"
"null","<div style=""font-size:60px;"">+</div>","null","html-keyboard-response","412","477101","0.0-6.0-0.203","VASC","2","f","rechts","21","","fixation","","","",""
"1454","img/L90_180.png","74","image-keyboard-response","413","478568","0.0-6.0-1.203","VASC","2","f","rechts","21","","","object","j","90","true"
"null","<div style=""font-size:60px;"">+</div>","null","html-keyboard-response","414","479050","0.0-6.0-0.204","VASC","2","f","rechts","21","","fixation","","","",""
"869","img/0_90.png","74","image-keyboard-response","415","479928","0.0-6.0-1.204","VASC","2","f","rechts","21","","","object","j","0","true"
"null","<div style=""font-size:60px;"">+</div>","null","html-keyboard-response","416","480383","0.0-6.0-0.205","VASC","2","f","rechts","21","","fixation","","","",""
"1017","img/60_150.png","74","image-keyboard-response","417","481415","0.0-6.0-1.205","VASC","2","f","rechts","21","","","object","j","60","true"
"null","<div style=""font-size:60px;"">+</div>","null","html-keyboard-response","418","481836","0.0-6.0-0.206","VASC","2","f","rechts","21","","fixation","","","",""
"969","img/150_90.png","70","image-keyboard-response","419","482819","0.0-6.0-1.206","VASC","2","f","rechts","21","","","object","f","150","true"
"null","<div style=""font-size:60px;"">+</div>","null","html-keyboard-response","420","483184","0.0-6.0-0.207","VASC","2","f","rechts","21","","fixation","","","",""
"1499","img/30_270.png","70","image-keyboard-response","421","484700","0.0-6.0-1.207","VASC","2","f","rechts","21","","","object","f","30","true"
"65256","<p>Du hast in 87% der Versuche korrekt entschieden.</p><p>Deine durchschnittliche Reaktionszeit war  1132ms.</p><p>Dr&uuml;cke eine beliebige Taste, um die Session zu beenden. Vielen Dank!</p>","32","html-keyboard-response","422","549963","0.0-7.0","VASC","2","f","rechts","21","","","","","",""
