"rt","stimulus","key_press","trial_type","trial_index","time_elapsed","internal_node_id","subject","session","sex","handedness","age","responses","test_part","condition","correct_response","angle","correct"
"16558","<p>Mental Rotation Experiment.</p> <p>Dr&uuml;cke eine beliebige Taste, um anzufangen.</p>","32","html-keyboard-response","0","16597","0.0-0.0","VASC","4","f","rechts","21","","","","","",""
"3750","","","survey-text","1","20355","0.0-1.0","VASC","4","f","rechts","21","{""Q0"":""VASC""}","","","","",""
"2447","","","survey-text","2","22805","0.0-2.0","VASC","4","f","rechts","21","{""Q0"":""4""}","","","","",""
"3252","","","survey-multi-choice","3","26067","0.0-3.0","VASC","4","f","rechts","21","{""Q0"":""f"",""Q1"":""rechts""}","","","","",""
"4397","","","survey-text","4","30466","0.0-4.0","VASC","4","f","rechts","21","{""Q0"":""21""}","","","","",""
"123425","<p> Stell dir vor, dass du vor einem runden Tisch stehst, auf dem sich ein blauer Ball am Tischrand befindet. Entlang des Tischrands ist jeweils ein verschieden langer Pfeil. Nun bewegst du dich entlang dieses Pfeils bis an seine Spitze. Wenn du am Ende des Pfeils angekommen bist, schau zur Tischmitte. </p> <img src='img/90_180.png'></img> <br> <p>Entscheide dann, ob der Ball von deiner neuen (vorgestellten) Position links oder rechts von dir liegt.</p> <p>Dr&uuml;cke die <strong>'f'</strong>-Taste f&uuml;r links, die <strong>'j'</strong>-Taste f&uuml;r rechts.</p> <br><p> Das Bild wird jeweils 1 Sekunde lang pr&auml;sentiert. Du hast 3 Sekunden Zeit eine Entscheidung zu treffen.</p>","13","html-keyboard-response","5","153898","0.0-5.0","VASC","4","f","rechts","21","","","","","",""
"null","<div style=""font-size:60px;"">+</div>","null","html-keyboard-response","6","155313","0.0-6.0-0.0","VASC","4","f","rechts","21","","fixation","","","",""
"1188","img/L150_180.png","70","image-keyboard-response","7","156522","0.0-6.0-1.0","VASC","4","f","rechts","21","","","self","f","150","true"
"null","<div style=""font-size:60px;"">+</div>","null","html-keyboard-response","8","156939","0.0-6.0-0.1","VASC","4","f","rechts","21","","fixation","","","",""
"739","img/150_180.png","74","image-keyboard-response","9","157698","0.0-6.0-1.1","VASC","4","f","rechts","21","","","self","j","150","true"
"null","<div style=""font-size:60px;"">+</div>","null","html-keyboard-response","10","158054","0.0-6.0-0.2","VASC","4","f","rechts","21","","fixation","","","",""
"716","img/0_90.png","74","image-keyboard-response","11","158778","0.0-6.0-1.2","VASC","4","f","rechts","21","","","self","j","0","true"
"null","<div style=""font-size:60px;"">+</div>","null","html-keyboard-response","12","159190","0.0-6.0-0.3","VASC","4","f","rechts","21","","fixation","","","",""
"963","img/30_180.png","74","image-keyboard-response","13","160170","0.0-6.0-1.3","VASC","4","f","rechts","21","","","self","j","30","true"
"null","<div style=""font-size:60px;"">+</div>","null","html-keyboard-response","14","160596","0.0-6.0-0.4","VASC","4","f","rechts","21","","fixation","","","",""
"764","img/0_150.png","74","image-keyboard-response","15","161377","0.0-6.0-1.4","VASC","4","f","rechts","21","","","self","j","0","true"
"null","<div style=""font-size:60px;"">+</div>","null","html-keyboard-response","16","161830","0.0-6.0-0.5","VASC","4","f","rechts","21","","fixation","","","",""
"1115","img/120_270.png","74","image-keyboard-response","17","162963","0.0-6.0-1.5","VASC","4","f","rechts","21","","","self","j","120","true"
"null","<div style=""font-size:60px;"">+</div>","null","html-keyboard-response","18","163471","0.0-6.0-0.6","VASC","4","f","rechts","21","","fixation","","","",""
"607","img/150_240.png","74","image-keyboard-response","19","164096","0.0-6.0-1.6","VASC","4","f","rechts","21","","","self","j","150","true"
"null","<div style=""font-size:60px;"">+</div>","null","html-keyboard-response","20","164424","0.0-6.0-0.7","VASC","4","f","rechts","21","","fixation","","","",""
"692","img/120_180.png","74","image-keyboard-response","21","165132","0.0-6.0-1.7","VASC","4","f","rechts","21","","","self","j","120","true"
"null","<div style=""font-size:60px;"">+</div>","null","html-keyboard-response","22","165642","0.0-6.0-0.8","VASC","4","f","rechts","21","","fixation","","","",""
"1172","img/120_30.png","74","image-keyboard-response","23","166833","0.0-6.0-1.8","VASC","4","f","rechts","21","","","self","j","120","true"
"null","<div style=""font-size:60px;"">+</div>","null","html-keyboard-response","24","167159","0.0-6.0-0.9","VASC","4","f","rechts","21","","fixation","","","",""
"1028","img/150_270.png","74","image-keyboard-response","25","168205","0.0-6.0-1.9","VASC","4","f","rechts","21","","","self","j","150","true"
"null","<div style=""font-size:60px;"">+</div>","null","html-keyboard-response","26","168610","0.0-6.0-0.10","VASC","4","f","rechts","21","","fixation","","","",""
"737","img/0_60.png","74","image-keyboard-response","27","169364","0.0-6.0-1.10","VASC","4","f","rechts","21","","","self","j","0","true"
"null","<div style=""font-size:60px;"">+</div>","null","html-keyboard-response","28","169768","0.0-6.0-0.11","VASC","4","f","rechts","21","","fixation","","","",""
"939","img/150_300.png","74","image-keyboard-response","29","170725","0.0-6.0-1.11","VASC","4","f","rechts","21","","","self","j","150","true"
"null","<div style=""font-size:60px;"">+</div>","null","html-keyboard-response","30","171235","0.0-6.0-0.12","VASC","4","f","rechts","21","","fixation","","","",""
"720","img/0_240.png","70","image-keyboard-response","31","171974","0.0-6.0-1.12","VASC","4","f","rechts","21","","","self","f","0","true"
"null","<div style=""font-size:60px;"">+</div>","null","html-keyboard-response","32","172284","0.0-6.0-0.13","VASC","4","f","rechts","21","","fixation","","","",""
"831","img/60_180.png","74","image-keyboard-response","33","173131","0.0-6.0-1.13","VASC","4","f","rechts","21","","","self","j","60","true"
"null","<div style=""font-size:60px;"">+</div>","null","html-keyboard-response","34","173491","0.0-6.0-0.14","VASC","4","f","rechts","21","","fixation","","","",""
"1028","img/90_120.png","70","image-keyboard-response","35","174539","0.0-6.0-1.14","VASC","4","f","rechts","21","","","self","f","90","true"
"null","<div style=""font-size:60px;"">+</div>","null","html-keyboard-response","36","174909","0.0-6.0-0.15","VASC","4","f","rechts","21","","fixation","","","",""
"772","img/L60_180.png","70","image-keyboard-response","37","175698","0.0-6.0-1.15","VASC","4","f","rechts","21","","","self","f","60","true"
"null","<div style=""font-size:60px;"">+</div>","null","html-keyboard-response","38","176158","0.0-6.0-0.16","VASC","4","f","rechts","21","","fixation","","","",""
"1377","img/30_120.png","74","image-keyboard-response","39","177543","0.0-6.0-1.16","VASC","4","f","rechts","21","","","self","j","30","true"
"null","<div style=""font-size:60px;"">+</div>","null","html-keyboard-response","40","177862","0.0-6.0-0.17","VASC","4","f","rechts","21","","fixation","","","",""
"956","img/60_270.png","70","image-keyboard-response","41","178836","0.0-6.0-1.17","VASC","4","f","rechts","21","","","self","f","60","true"
"null","<div style=""font-size:60px;"">+</div>","null","html-keyboard-response","42","179346","0.0-6.0-0.18","VASC","4","f","rechts","21","","fixation","","","",""
"656","img/0_330.png","70","image-keyboard-response","43","180019","0.0-6.0-1.18","VASC","4","f","rechts","21","","","self","f","0","true"
"null","<div style=""font-size:60px;"">+</div>","null","html-keyboard-response","44","180545","0.0-6.0-0.19","VASC","4","f","rechts","21","","fixation","","","",""
"632","img/0_270.png","70","image-keyboard-response","45","181197","0.0-6.0-1.19","VASC","4","f","rechts","21","","","self","f","0","true"
"null","<div style=""font-size:60px;"">+</div>","null","html-keyboard-response","46","181559","0.0-6.0-0.20","VASC","4","f","rechts","21","","fixation","","","",""
"994","img/60_210.png","74","image-keyboard-response","47","182572","0.0-6.0-1.20","VASC","4","f","rechts","21","","","self","j","60","true"
"null","<div style=""font-size:60px;"">+</div>","null","html-keyboard-response","48","182886","0.0-6.0-0.21","VASC","4","f","rechts","21","","fixation","","","",""
"667","img/0_30.png","74","image-keyboard-response","49","183572","0.0-6.0-1.21","VASC","4","f","rechts","21","","","self","j","0","true"
"null","<div style=""font-size:60px;"">+</div>","null","html-keyboard-response","50","183980","0.0-6.0-0.22","VASC","4","f","rechts","21","","fixation","","","",""
"1068","img/150_60.png","70","image-keyboard-response","51","185071","0.0-6.0-1.22","VASC","4","f","rechts","21","","","self","f","150","true"
"null","<div style=""font-size:60px;"">+</div>","null","html-keyboard-response","52","185590","0.0-6.0-0.23","VASC","4","f","rechts","21","","fixation","","","",""
"1373","img/90_60.png","74","image-keyboard-response","53","186982","0.0-6.0-1.23","VASC","4","f","rechts","21","","","self","j","90","true"
"null","<div style=""font-size:60px;"">+</div>","null","html-keyboard-response","54","187496","0.0-6.0-0.24","VASC","4","f","rechts","21","","fixation","","","",""
"1111","img/60_30.png","74","image-keyboard-response","55","188625","0.0-6.0-1.24","VASC","4","f","rechts","21","","","self","j","60","true"
"null","<div style=""font-size:60px;"">+</div>","null","html-keyboard-response","56","189105","0.0-6.0-0.25","VASC","4","f","rechts","21","","fixation","","","",""
"958","img/120_150.png","70","image-keyboard-response","57","190076","0.0-6.0-1.25","VASC","4","f","rechts","21","","","self","f","120","true"
"null","<div style=""font-size:60px;"">+</div>","null","html-keyboard-response","58","190591","0.0-6.0-0.26","VASC","4","f","rechts","21","","fixation","","","",""
"761","img/0_120.png","74","image-keyboard-response","59","191370","0.0-6.0-1.26","VASC","4","f","rechts","21","","","self","j","0","true"
"null","<div style=""font-size:60px;"">+</div>","null","html-keyboard-response","60","191746","0.0-6.0-0.27","VASC","4","f","rechts","21","","fixation","","","",""
"944","img/60_90.png","74","image-keyboard-response","61","192708","0.0-6.0-1.27","VASC","4","f","rechts","21","","","self","j","60","true"
"null","<div style=""font-size:60px;"">+</div>","null","html-keyboard-response","62","193029","0.0-6.0-0.28","VASC","4","f","rechts","21","","fixation","","","",""
"1001","img/30_300.png","70","image-keyboard-response","63","194047","0.0-6.0-1.28","VASC","4","f","rechts","21","","","self","f","30","true"
"null","<div style=""font-size:60px;"">+</div>","null","html-keyboard-response","64","194404","0.0-6.0-0.29","VASC","4","f","rechts","21","","fixation","","","",""
"1062","img/90_180.png","74","image-keyboard-response","65","195475","0.0-6.0-1.29","VASC","4","f","rechts","21","","","self","j","90","true"
"null","<div style=""font-size:60px;"">+</div>","null","html-keyboard-response","66","195888","0.0-6.0-0.30","VASC","4","f","rechts","21","","fixation","","","",""
"647","img/0_300.png","70","image-keyboard-response","67","196556","0.0-6.0-1.30","VASC","4","f","rechts","21","","","self","f","0","true"
"null","<div style=""font-size:60px;"">+</div>","null","html-keyboard-response","68","197012","0.0-6.0-0.31","VASC","4","f","rechts","21","","fixation","","","",""
"885","img/30_90.png","74","image-keyboard-response","69","197916","0.0-6.0-1.31","VASC","4","f","rechts","21","","","self","j","30","true"
"null","<div style=""font-size:60px;"">+</div>","null","html-keyboard-response","70","198279","0.0-6.0-0.32","VASC","4","f","rechts","21","","fixation","","","",""
"1106","img/120_90.png","70","image-keyboard-response","71","199402","0.0-6.0-1.32","VASC","4","f","rechts","21","","","self","f","120","true"
"null","<div style=""font-size:60px;"">+</div>","null","html-keyboard-response","72","199859","0.0-6.0-0.33","VASC","4","f","rechts","21","","fixation","","","",""
"898","img/90_150.png","70","image-keyboard-response","73","200774","0.0-6.0-1.33","VASC","4","f","rechts","21","","","self","f","90","true"
"null","<div style=""font-size:60px;"">+</div>","null","html-keyboard-response","74","201139","0.0-6.0-0.34","VASC","4","f","rechts","21","","fixation","","","",""
"721","img/L120_180.png","70","image-keyboard-response","75","201866","0.0-6.0-1.34","VASC","4","f","rechts","21","","","self","f","120","true"
"null","<div style=""font-size:60px;"">+</div>","null","html-keyboard-response","76","202218","0.0-6.0-0.35","VASC","4","f","rechts","21","","fixation","","","",""
"990","img/90_30.png","74","image-keyboard-response","77","203227","0.0-6.0-1.35","VASC","4","f","rechts","21","","","self","j","90","true"
"null","<div style=""font-size:60px;"">+</div>","null","html-keyboard-response","78","203754","0.0-6.0-0.36","VASC","4","f","rechts","21","","fixation","","","",""
"816","img/30_270.png","70","image-keyboard-response","79","204589","0.0-6.0-1.36","VASC","4","f","rechts","21","","","self","f","30","true"
"null","<div style=""font-size:60px;"">+</div>","null","html-keyboard-response","80","205119","0.0-6.0-0.37","VASC","4","f","rechts","21","","fixation","","","",""
"934","img/90_330.png","70","image-keyboard-response","81","206062","0.0-6.0-1.37","VASC","4","f","rechts","21","","","self","f","90","true"
"null","<div style=""font-size:60px;"">+</div>","null","html-keyboard-response","82","206590","0.0-6.0-0.38","VASC","4","f","rechts","21","","fixation","","","",""
"1199","img/90_240.png","74","image-keyboard-response","83","207806","0.0-6.0-1.38","VASC","4","f","rechts","21","","","self","j","90","true"
"null","<div style=""font-size:60px;"">+</div>","null","html-keyboard-response","84","208332","0.0-6.0-0.39","VASC","4","f","rechts","21","","fixation","","","",""
"1481","img/150_90.png","70","image-keyboard-response","85","209832","0.0-6.0-1.39","VASC","4","f","rechts","21","","","self","f","150","true"
"null","<div style=""font-size:60px;"">+</div>","null","html-keyboard-response","86","210299","0.0-6.0-0.40","VASC","4","f","rechts","21","","fixation","","","",""
"818","img/60_330.png","70","image-keyboard-response","87","211135","0.0-6.0-1.40","VASC","4","f","rechts","21","","","self","f","60","true"
"null","<div style=""font-size:60px;"">+</div>","null","html-keyboard-response","88","211442","0.0-6.0-0.41","VASC","4","f","rechts","21","","fixation","","","",""
"991","img/120_330.png","70","image-keyboard-response","89","212452","0.0-6.0-1.41","VASC","4","f","rechts","21","","","self","f","120","true"
"null","<div style=""font-size:60px;"">+</div>","null","html-keyboard-response","90","212864","0.0-6.0-0.42","VASC","4","f","rechts","21","","fixation","","","",""
"818","img/120_210.png","74","image-keyboard-response","91","213700","0.0-6.0-1.42","VASC","4","f","rechts","21","","","self","j","120","true"
"null","<div style=""font-size:60px;"">+</div>","null","html-keyboard-response","92","214068","0.0-6.0-0.43","VASC","4","f","rechts","21","","fixation","","","",""
"793","img/0_210.png","70","image-keyboard-response","93","214882","0.0-6.0-1.43","VASC","4","f","rechts","21","","","self","f","0","true"
"null","<div style=""font-size:60px;"">+</div>","null","html-keyboard-response","94","215303","0.0-6.0-0.44","VASC","4","f","rechts","21","","fixation","","","",""
"776","img/30_60.png","74","image-keyboard-response","95","216097","0.0-6.0-1.44","VASC","4","f","rechts","21","","","self","j","30","true"
"null","<div style=""font-size:60px;"">+</div>","null","html-keyboard-response","96","216616","0.0-6.0-0.45","VASC","4","f","rechts","21","","fixation","","","",""
"880","img/60_150.png","70","image-keyboard-response","97","217513","0.0-6.0-1.45","VASC","4","f","rechts","21","","","self","f","60","true"
"null","<div style=""font-size:60px;"">+</div>","null","html-keyboard-response","98","217944","0.0-6.0-0.46","VASC","4","f","rechts","21","","fixation","","","",""
"756","img/150_120.png","70","image-keyboard-response","99","218718","0.0-6.0-1.46","VASC","4","f","rechts","21","","","self","f","150","true"
"null","<div style=""font-size:60px;"">+</div>","null","html-keyboard-response","100","219085","0.0-6.0-0.47","VASC","4","f","rechts","21","","fixation","","","",""
"749","img/L90_180.png","70","image-keyboard-response","101","219854","0.0-6.0-1.47","VASC","4","f","rechts","21","","","self","f","90","true"
"null","<div style=""font-size:60px;"">+</div>","null","html-keyboard-response","102","220335","0.0-6.0-0.48","VASC","4","f","rechts","21","","fixation","","","",""
"867","img/90_300.png","70","image-keyboard-response","103","221226","0.0-6.0-1.48","VASC","4","f","rechts","21","","","self","f","90","true"
"null","<div style=""font-size:60px;"">+</div>","null","html-keyboard-response","104","221699","0.0-6.0-0.49","VASC","4","f","rechts","21","","fixation","","","",""
"996","img/90_210.png","74","image-keyboard-response","105","222713","0.0-6.0-1.49","VASC","4","f","rechts","21","","","self","j","90","true"
"null","<div style=""font-size:60px;"">+</div>","null","html-keyboard-response","106","223120","0.0-6.0-0.50","VASC","4","f","rechts","21","","fixation","","","",""
"969","img/L30_180.png","70","image-keyboard-response","107","224107","0.0-6.0-1.50","VASC","4","f","rechts","21","","","self","f","30","true"
"null","<div style=""font-size:60px;"">+</div>","null","html-keyboard-response","108","224574","0.0-6.0-0.51","VASC","4","f","rechts","21","","fixation","","","",""
"933","img/30_240.png","70","image-keyboard-response","109","225525","0.0-6.0-1.51","VASC","4","f","rechts","21","","","self","f","30","true"
"null","<div style=""font-size:60px;"">+</div>","null","html-keyboard-response","110","225948","0.0-6.0-0.52","VASC","4","f","rechts","21","","fixation","","","",""
"748","img/90_210.png","74","image-keyboard-response","111","226706","0.0-6.0-1.52","VASC","4","f","rechts","21","","","self","j","90","true"
"null","<div style=""font-size:60px;"">+</div>","null","html-keyboard-response","112","227214","0.0-6.0-0.53","VASC","4","f","rechts","21","","fixation","","","",""
"679","img/0_240.png","70","image-keyboard-response","113","227899","0.0-6.0-1.53","VASC","4","f","rechts","21","","","self","f","0","true"
"null","<div style=""font-size:60px;"">+</div>","null","html-keyboard-response","114","228261","0.0-6.0-0.54","VASC","4","f","rechts","21","","fixation","","","",""
"1089","img/150_90.png","70","image-keyboard-response","115","229361","0.0-6.0-1.54","VASC","4","f","rechts","21","","","self","f","150","true"
"null","<div style=""font-size:60px;"">+</div>","null","html-keyboard-response","116","229824","0.0-6.0-0.55","VASC","4","f","rechts","21","","fixation","","","",""
"729","img/0_120.png","74","image-keyboard-response","117","230564","0.0-6.0-1.55","VASC","4","f","rechts","21","","","self","j","0","true"
"null","<div style=""font-size:60px;"">+</div>","null","html-keyboard-response","118","230871","0.0-6.0-0.56","VASC","4","f","rechts","21","","fixation","","","",""
"1131","img/150_300.png","74","image-keyboard-response","119","232015","0.0-6.0-1.56","VASC","4","f","rechts","21","","","self","j","150","true"
"null","<div style=""font-size:60px;"">+</div>","null","html-keyboard-response","120","232371","0.0-6.0-0.57","VASC","4","f","rechts","21","","fixation","","","",""
"734","img/150_180.png","74","image-keyboard-response","121","233119","0.0-6.0-1.57","VASC","4","f","rechts","21","","","self","j","150","true"
"null","<div style=""font-size:60px;"">+</div>","null","html-keyboard-response","122","233636","0.0-6.0-0.58","VASC","4","f","rechts","21","","fixation","","","",""
"809","img/30_90.png","74","image-keyboard-response","123","234457","0.0-6.0-1.58","VASC","4","f","rechts","21","","","self","j","30","true"
"null","<div style=""font-size:60px;"">+</div>","null","html-keyboard-response","124","234919","0.0-6.0-0.59","VASC","4","f","rechts","21","","fixation","","","",""
"1080","img/90_30.png","74","image-keyboard-response","125","236009","0.0-6.0-1.59","VASC","4","f","rechts","21","","","self","j","90","true"
"null","<div style=""font-size:60px;"">+</div>","null","html-keyboard-response","126","236371","0.0-6.0-0.60","VASC","4","f","rechts","21","","fixation","","","",""
"961","img/60_270.png","70","image-keyboard-response","127","237337","0.0-6.0-1.60","VASC","4","f","rechts","21","","","self","f","60","true"
"null","<div style=""font-size:60px;"">+</div>","null","html-keyboard-response","128","237794","0.0-6.0-0.61","VASC","4","f","rechts","21","","fixation","","","",""
"818","img/60_90.png","74","image-keyboard-response","129","238621","0.0-6.0-1.61","VASC","4","f","rechts","21","","","self","j","60","true"
"null","<div style=""font-size:60px;"">+</div>","null","html-keyboard-response","130","239139","0.0-6.0-0.62","VASC","4","f","rechts","21","","fixation","","","",""
"893","img/90_330.png","70","image-keyboard-response","131","240037","0.0-6.0-1.62","VASC","4","f","rechts","21","","","self","f","90","true"
"null","<div style=""font-size:60px;"">+</div>","null","html-keyboard-response","132","240406","0.0-6.0-0.63","VASC","4","f","rechts","21","","fixation","","","",""
"652","img/0_60.png","74","image-keyboard-response","133","241070","0.0-6.0-1.63","VASC","4","f","rechts","21","","","self","j","0","true"
"null","<div style=""font-size:60px;"">+</div>","null","html-keyboard-response","134","241585","0.0-6.0-0.64","VASC","4","f","rechts","21","","fixation","","","",""
"803","img/150_240.png","74","image-keyboard-response","135","242401","0.0-6.0-1.64","VASC","4","f","rechts","21","","","self","j","150","true"
"null","<div style=""font-size:60px;"">+</div>","null","html-keyboard-response","136","242757","0.0-6.0-0.65","VASC","4","f","rechts","21","","fixation","","","",""
"823","img/60_30.png","74","image-keyboard-response","137","243592","0.0-6.0-1.65","VASC","4","f","rechts","21","","","self","j","60","true"
"null","<div style=""font-size:60px;"">+</div>","null","html-keyboard-response","138","244023","0.0-6.0-0.66","VASC","4","f","rechts","21","","fixation","","","",""
"617","img/30_60.png","74","image-keyboard-response","139","244650","0.0-6.0-1.66","VASC","4","f","rechts","21","","","self","j","30","true"
"null","<div style=""font-size:60px;"">+</div>","null","html-keyboard-response","140","245156","0.0-6.0-0.67","VASC","4","f","rechts","21","","fixation","","","",""
"832","img/90_150.png","70","image-keyboard-response","141","246000","0.0-6.0-1.67","VASC","4","f","rechts","21","","","self","f","90","true"
"null","<div style=""font-size:60px;"">+</div>","null","html-keyboard-response","142","246516","0.0-6.0-0.68","VASC","4","f","rechts","21","","fixation","","","",""
"790","img/L90_180.png","70","image-keyboard-response","143","247316","0.0-6.0-1.68","VASC","4","f","rechts","21","","","self","f","90","true"
"null","<div style=""font-size:60px;"">+</div>","null","html-keyboard-response","144","247625","0.0-6.0-0.69","VASC","4","f","rechts","21","","fixation","","","",""
"1172","img/30_180.png","74","image-keyboard-response","145","248813","0.0-6.0-1.69","VASC","4","f","rechts","21","","","self","j","30","true"
"null","<div style=""font-size:60px;"">+</div>","null","html-keyboard-response","146","249136","0.0-6.0-0.70","VASC","4","f","rechts","21","","fixation","","","",""
"1013","img/60_180.png","74","image-keyboard-response","147","250162","0.0-6.0-1.70","VASC","4","f","rechts","21","","","self","j","60","true"
"null","<div style=""font-size:60px;"">+</div>","null","html-keyboard-response","148","250573","0.0-6.0-0.71","VASC","4","f","rechts","21","","fixation","","","",""
"1142","img/120_330.png","70","image-keyboard-response","149","251726","0.0-6.0-1.71","VASC","4","f","rechts","21","","","self","f","120","true"
"null","<div style=""font-size:60px;"">+</div>","null","html-keyboard-response","150","252089","0.0-6.0-0.72","VASC","4","f","rechts","21","","fixation","","","",""
"782","img/120_180.png","74","image-keyboard-response","151","252885","0.0-6.0-1.72","VASC","4","f","rechts","21","","","self","j","120","true"
"null","<div style=""font-size:60px;"">+</div>","null","html-keyboard-response","152","253307","0.0-6.0-0.73","VASC","4","f","rechts","21","","fixation","","","",""
"680","img/0_210.png","70","image-keyboard-response","153","253997","0.0-6.0-1.73","VASC","4","f","rechts","21","","","self","f","0","true"
"null","<div style=""font-size:60px;"">+</div>","null","html-keyboard-response","154","254511","0.0-6.0-0.74","VASC","4","f","rechts","21","","fixation","","","",""
"1155","img/30_240.png","70","image-keyboard-response","155","255674","0.0-6.0-1.74","VASC","4","f","rechts","21","","","self","f","30","true"
"null","<div style=""font-size:60px;"">+</div>","null","html-keyboard-response","156","256083","0.0-6.0-0.75","VASC","4","f","rechts","21","","fixation","","","",""
"929","img/60_210.png","74","image-keyboard-response","157","257025","0.0-6.0-1.75","VASC","4","f","rechts","21","","","self","j","60","true"
"null","<div style=""font-size:60px;"">+</div>","null","html-keyboard-response","158","257457","0.0-6.0-0.76","VASC","4","f","rechts","21","","fixation","","","",""
"632","img/0_300.png","70","image-keyboard-response","159","258105","0.0-6.0-1.76","VASC","4","f","rechts","21","","","self","f","0","true"
"null","<div style=""font-size:60px;"">+</div>","null","html-keyboard-response","160","258410","0.0-6.0-0.77","VASC","4","f","rechts","21","","fixation","","","",""
"965","img/120_270.png","74","image-keyboard-response","161","259387","0.0-6.0-1.77","VASC","4","f","rechts","21","","","self","j","120","true"
"null","<div style=""font-size:60px;"">+</div>","null","html-keyboard-response","162","259895","0.0-6.0-0.78","VASC","4","f","rechts","21","","fixation","","","",""
"615","img/0_270.png","70","image-keyboard-response","163","260524","0.0-6.0-1.78","VASC","4","f","rechts","21","","","self","f","0","true"
"null","<div style=""font-size:60px;"">+</div>","null","html-keyboard-response","164","260852","0.0-6.0-0.79","VASC","4","f","rechts","21","","fixation","","","",""
"772","img/30_300.png","70","image-keyboard-response","165","261638","0.0-6.0-1.79","VASC","4","f","rechts","21","","","self","f","30","true"
"null","<div style=""font-size:60px;"">+</div>","null","html-keyboard-response","166","261946","0.0-6.0-0.80","VASC","4","f","rechts","21","","fixation","","","",""
"1031","img/60_330.png","70","image-keyboard-response","167","262988","0.0-6.0-1.80","VASC","4","f","rechts","21","","","self","f","60","true"
"null","<div style=""font-size:60px;"">+</div>","null","html-keyboard-response","168","263305","0.0-6.0-0.81","VASC","4","f","rechts","21","","fixation","","","",""
"1097","img/90_120.png","70","image-keyboard-response","169","264406","0.0-6.0-1.81","VASC","4","f","rechts","21","","","self","f","90","true"
"null","<div style=""font-size:60px;"">+</div>","null","html-keyboard-response","170","264872","0.0-6.0-0.82","VASC","4","f","rechts","21","","fixation","","","",""
"679","img/0_330.png","70","image-keyboard-response","171","265563","0.0-6.0-1.82","VASC","4","f","rechts","21","","","self","f","0","true"
"null","<div style=""font-size:60px;"">+</div>","null","html-keyboard-response","172","266072","0.0-6.0-0.83","VASC","4","f","rechts","21","","fixation","","","",""
"1763","img/120_30.png","74","image-keyboard-response","173","267848","0.0-6.0-1.83","VASC","4","f","rechts","21","","","self","j","120","true"
"null","<div style=""font-size:60px;"">+</div>","null","html-keyboard-response","174","268228","0.0-6.0-0.84","VASC","4","f","rechts","21","","fixation","","","",""
"1165","img/120_150.png","70","image-keyboard-response","175","269401","0.0-6.0-1.84","VASC","4","f","rechts","21","","","self","f","120","true"
"null","<div style=""font-size:60px;"">+</div>","null","html-keyboard-response","176","269714","0.0-6.0-0.85","VASC","4","f","rechts","21","","fixation","","","",""
"967","img/90_180.png","74","image-keyboard-response","177","270694","0.0-6.0-1.85","VASC","4","f","rechts","21","","","self","j","90","true"
"null","<div style=""font-size:60px;"">+</div>","null","html-keyboard-response","178","271149","0.0-6.0-0.86","VASC","4","f","rechts","21","","fixation","","","",""
"654","img/0_30.png","74","image-keyboard-response","179","271808","0.0-6.0-1.86","VASC","4","f","rechts","21","","","self","j","0","true"
"null","<div style=""font-size:60px;"">+</div>","null","html-keyboard-response","180","272334","0.0-6.0-0.87","VASC","4","f","rechts","21","","fixation","","","",""
"788","img/90_240.png","70","image-keyboard-response","181","273136","0.0-6.0-1.87","VASC","4","f","rechts","21","","","self","j","90","false"
"null","<div style=""font-size:60px;"">+</div>","null","html-keyboard-response","182","273489","0.0-6.0-0.88","VASC","4","f","rechts","21","","fixation","","","",""
"947","img/90_60.png","74","image-keyboard-response","183","274451","0.0-6.0-1.88","VASC","4","f","rechts","21","","","self","j","90","true"
"null","<div style=""font-size:60px;"">+</div>","null","html-keyboard-response","184","274777","0.0-6.0-0.89","VASC","4","f","rechts","21","","fixation","","","",""
"978","img/120_210.png","74","image-keyboard-response","185","275768","0.0-6.0-1.89","VASC","4","f","rechts","21","","","self","j","120","true"
"null","<div style=""font-size:60px;"">+</div>","null","html-keyboard-response","186","276131","0.0-6.0-0.90","VASC","4","f","rechts","21","","fixation","","","",""
"918","img/L120_180.png","70","image-keyboard-response","187","277062","0.0-6.0-1.90","VASC","4","f","rechts","21","","","self","f","120","true"
"null","<div style=""font-size:60px;"">+</div>","null","html-keyboard-response","188","277474","0.0-6.0-0.91","VASC","4","f","rechts","21","","fixation","","","",""
"913","img/30_270.png","70","image-keyboard-response","189","278401","0.0-6.0-1.91","VASC","4","f","rechts","21","","","self","f","30","true"
"null","<div style=""font-size:60px;"">+</div>","null","html-keyboard-response","190","278725","0.0-6.0-0.92","VASC","4","f","rechts","21","","fixation","","","",""
"1384","img/30_120.png","74","image-keyboard-response","191","280121","0.0-6.0-1.92","VASC","4","f","rechts","21","","","self","j","30","true"
"null","<div style=""font-size:60px;"">+</div>","null","html-keyboard-response","192","280479","0.0-6.0-0.93","VASC","4","f","rechts","21","","fixation","","","",""
"1036","img/120_90.png","70","image-keyboard-response","193","281530","0.0-6.0-1.93","VASC","4","f","rechts","21","","","self","f","120","true"
"null","<div style=""font-size:60px;"">+</div>","null","html-keyboard-response","194","282057","0.0-6.0-0.94","VASC","4","f","rechts","21","","fixation","","","",""
"821","img/L30_180.png","70","image-keyboard-response","195","282889","0.0-6.0-1.94","VASC","4","f","rechts","21","","","self","f","30","true"
"null","<div style=""font-size:60px;"">+</div>","null","html-keyboard-response","196","283260","0.0-6.0-0.95","VASC","4","f","rechts","21","","fixation","","","",""
"973","img/150_60.png","70","image-keyboard-response","197","284238","0.0-6.0-1.95","VASC","4","f","rechts","21","","","self","f","150","true"
"null","<div style=""font-size:60px;"">+</div>","null","html-keyboard-response","198","284762","0.0-6.0-0.96","VASC","4","f","rechts","21","","fixation","","","",""
"657","img/0_150.png","74","image-keyboard-response","199","285432","0.0-6.0-1.96","VASC","4","f","rechts","21","","","self","j","0","true"
"null","<div style=""font-size:60px;"">+</div>","null","html-keyboard-response","200","285965","0.0-6.0-0.97","VASC","4","f","rechts","21","","fixation","","","",""
"905","img/150_270.png","74","image-keyboard-response","201","286884","0.0-6.0-1.97","VASC","4","f","rechts","21","","","self","j","150","true"
"null","<div style=""font-size:60px;"">+</div>","null","html-keyboard-response","202","287199","0.0-6.0-0.98","VASC","4","f","rechts","21","","fixation","","","",""
"1082","img/60_150.png","70","image-keyboard-response","203","288299","0.0-6.0-1.98","VASC","4","f","rechts","21","","","self","f","60","true"
"null","<div style=""font-size:60px;"">+</div>","null","html-keyboard-response","204","288777","0.0-6.0-0.99","VASC","4","f","rechts","21","","fixation","","","",""
"871","img/90_300.png","70","image-keyboard-response","205","289663","0.0-6.0-1.99","VASC","4","f","rechts","21","","","self","f","90","true"
"null","<div style=""font-size:60px;"">+</div>","null","html-keyboard-response","206","290024","0.0-6.0-0.100","VASC","4","f","rechts","21","","fixation","","","",""
"806","img/0_90.png","74","image-keyboard-response","207","290843","0.0-6.0-1.100","VASC","4","f","rechts","21","","","self","j","0","true"
"null","<div style=""font-size:60px;"">+</div>","null","html-keyboard-response","208","291194","0.0-6.0-0.101","VASC","4","f","rechts","21","","fixation","","","",""
"884","img/L60_180.png","70","image-keyboard-response","209","292093","0.0-6.0-1.101","VASC","4","f","rechts","21","","","self","f","60","true"
"null","<div style=""font-size:60px;"">+</div>","null","html-keyboard-response","210","292601","0.0-6.0-0.102","VASC","4","f","rechts","21","","fixation","","","",""
"872","img/150_120.png","70","image-keyboard-response","211","293486","0.0-6.0-1.102","VASC","4","f","rechts","21","","","self","f","150","true"
"null","<div style=""font-size:60px;"">+</div>","null","html-keyboard-response","212","293991","0.0-6.0-0.103","VASC","4","f","rechts","21","","fixation","","","",""
"620","img/L150_180.png","70","image-keyboard-response","213","294624","0.0-6.0-1.103","VASC","4","f","rechts","21","","","self","f","150","true"
"null","<div style=""font-size:60px;"">+</div>","null","html-keyboard-response","214","295140","0.0-6.0-0.104","VASC","4","f","rechts","21","","fixation","","","",""
"824","img/60_150.png","70","image-keyboard-response","215","295973","0.0-6.0-1.104","VASC","4","f","rechts","21","","","self","f","60","true"
"null","<div style=""font-size:60px;"">+</div>","null","html-keyboard-response","216","296327","0.0-6.0-0.105","VASC","4","f","rechts","21","","fixation","","","",""
"677","img/L120_180.png","70","image-keyboard-response","217","297009","0.0-6.0-1.105","VASC","4","f","rechts","21","","","self","f","120","true"
"null","<div style=""font-size:60px;"">+</div>","null","html-keyboard-response","218","297469","0.0-6.0-0.106","VASC","4","f","rechts","21","","fixation","","","",""
"832","img/60_180.png","74","image-keyboard-response","219","298310","0.0-6.0-1.106","VASC","4","f","rechts","21","","","self","j","60","true"
"null","<div style=""font-size:60px;"">+</div>","null","html-keyboard-response","220","298624","0.0-6.0-0.107","VASC","4","f","rechts","21","","fixation","","","",""
"735","img/0_210.png","70","image-keyboard-response","221","299369","0.0-6.0-1.107","VASC","4","f","rechts","21","","","self","f","0","true"
"null","<div style=""font-size:60px;"">+</div>","null","html-keyboard-response","222","299734","0.0-6.0-0.108","VASC","4","f","rechts","21","","fixation","","","",""
"624","img/0_30.png","74","image-keyboard-response","223","300369","0.0-6.0-1.108","VASC","4","f","rechts","21","","","self","j","0","true"
"null","<div style=""font-size:60px;"">+</div>","null","html-keyboard-response","224","300671","0.0-6.0-0.109","VASC","4","f","rechts","21","","fixation","","","",""
"617","img/0_60.png","74","image-keyboard-response","225","301303","0.0-6.0-1.109","VASC","4","f","rechts","21","","","self","j","0","true"
"null","<div style=""font-size:60px;"">+</div>","null","html-keyboard-response","226","301759","0.0-6.0-0.110","VASC","4","f","rechts","21","","fixation","","","",""
"971","img/90_330.png","70","image-keyboard-response","227","302744","0.0-6.0-1.110","VASC","4","f","rechts","21","","","self","f","90","true"
"null","<div style=""font-size:60px;"">+</div>","null","html-keyboard-response","228","303114","0.0-6.0-0.111","VASC","4","f","rechts","21","","fixation","","","",""
"918","img/150_120.png","70","image-keyboard-response","229","304040","0.0-6.0-1.111","VASC","4","f","rechts","21","","","self","f","150","true"
"null","<div style=""font-size:60px;"">+</div>","null","html-keyboard-response","230","304500","0.0-6.0-0.112","VASC","4","f","rechts","21","","fixation","","","",""
"733","img/0_330.png","70","image-keyboard-response","231","305243","0.0-6.0-1.112","VASC","4","f","rechts","21","","","self","f","0","true"
"null","<div style=""font-size:60px;"">+</div>","null","html-keyboard-response","232","305766","0.0-6.0-0.113","VASC","4","f","rechts","21","","fixation","","","",""
"606","img/0_300.png","70","image-keyboard-response","233","306379","0.0-6.0-1.113","VASC","4","f","rechts","21","","","self","f","0","true"
"null","<div style=""font-size:60px;"">+</div>","null","html-keyboard-response","234","306689","0.0-6.0-0.114","VASC","4","f","rechts","21","","fixation","","","",""
"1111","img/120_30.png","74","image-keyboard-response","235","307808","0.0-6.0-1.114","VASC","4","f","rechts","21","","","self","j","120","true"
"null","<div style=""font-size:60px;"">+</div>","null","html-keyboard-response","236","308125","0.0-6.0-0.115","VASC","4","f","rechts","21","","fixation","","","",""
"1091","img/30_270.png","70","image-keyboard-response","237","309225","0.0-6.0-1.115","VASC","4","f","rechts","21","","","self","f","30","true"
"null","<div style=""font-size:60px;"">+</div>","null","html-keyboard-response","238","309532","0.0-6.0-0.116","VASC","4","f","rechts","21","","fixation","","","",""
"679","img/0_120.png","74","image-keyboard-response","239","310225","0.0-6.0-1.116","VASC","4","f","rechts","21","","","self","j","0","true"
"null","<div style=""font-size:60px;"">+</div>","null","html-keyboard-response","240","310681","0.0-6.0-0.117","VASC","4","f","rechts","21","","fixation","","","",""
"792","img/150_90.png","70","image-keyboard-response","241","311488","0.0-6.0-1.117","VASC","4","f","rechts","21","","","self","f","150","true"
"null","<div style=""font-size:60px;"">+</div>","null","html-keyboard-response","242","312008","0.0-6.0-0.118","VASC","4","f","rechts","21","","fixation","","","",""
"984","img/120_330.png","70","image-keyboard-response","243","313005","0.0-6.0-1.118","VASC","4","f","rechts","21","","","self","f","120","true"
"null","<div style=""font-size:60px;"">+</div>","null","html-keyboard-response","244","313414","0.0-6.0-0.119","VASC","4","f","rechts","21","","fixation","","","",""
"883","img/60_30.png","74","image-keyboard-response","245","314310","0.0-6.0-1.119","VASC","4","f","rechts","21","","","self","j","60","true"
"null","<div style=""font-size:60px;"">+</div>","null","html-keyboard-response","246","314721","0.0-6.0-0.120","VASC","4","f","rechts","21","","fixation","","","",""
"1515","img/L150_180.png","70","image-keyboard-response","247","316245","0.0-6.0-1.120","VASC","4","f","rechts","21","","","self","f","150","true"
"null","<div style=""font-size:60px;"">+</div>","null","html-keyboard-response","248","316564","0.0-6.0-0.121","VASC","4","f","rechts","21","","fixation","","","",""
"1255","img/30_180.png","74","image-keyboard-response","249","317832","0.0-6.0-1.121","VASC","4","f","rechts","21","","","self","j","30","true"
"null","<div style=""font-size:60px;"">+</div>","null","html-keyboard-response","250","318338","0.0-6.0-0.122","VASC","4","f","rechts","21","","fixation","","","",""
"884","img/L90_180.png","70","image-keyboard-response","251","319228","0.0-6.0-1.122","VASC","4","f","rechts","21","","","self","f","90","true"
"null","<div style=""font-size:60px;"">+</div>","null","html-keyboard-response","252","319682","0.0-6.0-0.123","VASC","4","f","rechts","21","","fixation","","","",""
"800","img/90_30.png","74","image-keyboard-response","253","320487","0.0-6.0-1.123","VASC","4","f","rechts","21","","","self","j","90","true"
"null","<div style=""font-size:60px;"">+</div>","null","html-keyboard-response","254","320902","0.0-6.0-0.124","VASC","4","f","rechts","21","","fixation","","","",""
"870","img/L30_180.png","70","image-keyboard-response","255","321782","0.0-6.0-1.124","VASC","4","f","rechts","21","","","self","f","30","true"
"null","<div style=""font-size:60px;"">+</div>","null","html-keyboard-response","256","322198","0.0-6.0-0.125","VASC","4","f","rechts","21","","fixation","","","",""
"872","img/30_90.png","74","image-keyboard-response","257","323086","0.0-6.0-1.125","VASC","4","f","rechts","21","","","self","j","30","true"
"null","<div style=""font-size:60px;"">+</div>","null","html-keyboard-response","258","323511","0.0-6.0-0.126","VASC","4","f","rechts","21","","fixation","","","",""
"753","img/60_330.png","70","image-keyboard-response","259","324278","0.0-6.0-1.126","VASC","4","f","rechts","21","","","self","f","60","true"
"null","<div style=""font-size:60px;"">+</div>","null","html-keyboard-response","260","324793","0.0-6.0-0.127","VASC","4","f","rechts","21","","fixation","","","",""
"1722","img/150_300.png","74","image-keyboard-response","261","326529","0.0-6.0-1.127","VASC","4","f","rechts","21","","","self","j","150","true"
"null","<div style=""font-size:60px;"">+</div>","null","html-keyboard-response","262","326998","0.0-6.0-0.128","VASC","4","f","rechts","21","","fixation","","","",""
"732","img/0_270.png","70","image-keyboard-response","263","327743","0.0-6.0-1.128","VASC","4","f","rechts","21","","","self","f","0","true"
"null","<div style=""font-size:60px;"">+</div>","null","html-keyboard-response","264","328045","0.0-6.0-0.129","VASC","4","f","rechts","21","","fixation","","","",""
"1024","img/120_270.png","74","image-keyboard-response","265","329082","0.0-6.0-1.129","VASC","4","f","rechts","21","","","self","j","120","true"
"null","<div style=""font-size:60px;"">+</div>","null","html-keyboard-response","266","329550","0.0-6.0-0.130","VASC","4","f","rechts","21","","fixation","","","",""
"834","img/0_240.png","70","image-keyboard-response","267","330397","0.0-6.0-1.130","VASC","4","f","rechts","21","","","self","f","0","true"
"null","<div style=""font-size:60px;"">+</div>","null","html-keyboard-response","268","330910","0.0-6.0-0.131","VASC","4","f","rechts","21","","fixation","","","",""
"965","img/90_60.png","74","image-keyboard-response","269","331884","0.0-6.0-1.131","VASC","4","f","rechts","21","","","self","j","90","true"
"null","<div style=""font-size:60px;"">+</div>","null","html-keyboard-response","270","332299","0.0-6.0-0.132","VASC","4","f","rechts","21","","fixation","","","",""
"868","img/120_210.png","74","image-keyboard-response","271","333177","0.0-6.0-1.132","VASC","4","f","rechts","21","","","self","j","120","true"
"null","<div style=""font-size:60px;"">+</div>","null","html-keyboard-response","272","333531","0.0-6.0-0.133","VASC","4","f","rechts","21","","fixation","","","",""
"883","img/L60_180.png","70","image-keyboard-response","273","334426","0.0-6.0-1.133","VASC","4","f","rechts","21","","","self","f","60","true"
"null","<div style=""font-size:60px;"">+</div>","null","html-keyboard-response","274","334735","0.0-6.0-0.134","VASC","4","f","rechts","21","","fixation","","","",""
"876","img/120_90.png","70","image-keyboard-response","275","335619","0.0-6.0-1.134","VASC","4","f","rechts","21","","","self","f","120","true"
"null","<div style=""font-size:60px;"">+</div>","null","html-keyboard-response","276","336093","0.0-6.0-0.135","VASC","4","f","rechts","21","","fixation","","","",""
"930","img/60_90.png","74","image-keyboard-response","277","337036","0.0-6.0-1.135","VASC","4","f","rechts","21","","","self","j","60","true"
"null","<div style=""font-size:60px;"">+</div>","null","html-keyboard-response","278","337343","0.0-6.0-0.136","VASC","4","f","rechts","21","","fixation","","","",""
"854","img/120_150.png","70","image-keyboard-response","279","338206","0.0-6.0-1.136","VASC","4","f","rechts","21","","","self","f","120","true"
"null","<div style=""font-size:60px;"">+</div>","null","html-keyboard-response","280","338578","0.0-6.0-0.137","VASC","4","f","rechts","21","","fixation","","","",""
"877","img/90_240.png","74","image-keyboard-response","281","339467","0.0-6.0-1.137","VASC","4","f","rechts","21","","","self","j","90","true"
"null","<div style=""font-size:60px;"">+</div>","null","html-keyboard-response","282","339971","0.0-6.0-0.138","VASC","4","f","rechts","21","","fixation","","","",""
"1006","img/90_300.png","70","image-keyboard-response","283","340985","0.0-6.0-1.138","VASC","4","f","rechts","21","","","self","f","90","true"
"null","<div style=""font-size:60px;"">+</div>","null","html-keyboard-response","284","341438","0.0-6.0-0.139","VASC","4","f","rechts","21","","fixation","","","",""
"725","img/0_150.png","74","image-keyboard-response","285","342167","0.0-6.0-1.139","VASC","4","f","rechts","21","","","self","j","0","true"
"null","<div style=""font-size:60px;"">+</div>","null","html-keyboard-response","286","342485","0.0-6.0-0.140","VASC","4","f","rechts","21","","fixation","","","",""
"1062","img/120_180.png","74","image-keyboard-response","287","343561","0.0-6.0-1.140","VASC","4","f","rechts","21","","","self","j","120","true"
"null","<div style=""font-size:60px;"">+</div>","null","html-keyboard-response","288","343990","0.0-6.0-0.141","VASC","4","f","rechts","21","","fixation","","","",""
"824","img/90_120.png","70","image-keyboard-response","289","344829","0.0-6.0-1.141","VASC","4","f","rechts","21","","","self","f","90","true"
"null","<div style=""font-size:60px;"">+</div>","null","html-keyboard-response","290","345251","0.0-6.0-0.142","VASC","4","f","rechts","21","","fixation","","","",""
"785","img/0_90.png","74","image-keyboard-response","291","346046","0.0-6.0-1.142","VASC","4","f","rechts","21","","","self","j","0","true"
"null","<div style=""font-size:60px;"">+</div>","null","html-keyboard-response","292","346564","0.0-6.0-0.143","VASC","4","f","rechts","21","","fixation","","","",""
"887","img/150_240.png","74","image-keyboard-response","293","347464","0.0-6.0-1.143","VASC","4","f","rechts","21","","","self","j","150","true"
"null","<div style=""font-size:60px;"">+</div>","null","html-keyboard-response","294","347923","0.0-6.0-0.144","VASC","4","f","rechts","21","","fixation","","","",""
"866","img/90_210.png","74","image-keyboard-response","295","348802","0.0-6.0-1.144","VASC","4","f","rechts","21","","","self","j","90","true"
"null","<div style=""font-size:60px;"">+</div>","null","html-keyboard-response","296","349330","0.0-6.0-0.145","VASC","4","f","rechts","21","","fixation","","","",""
"674","img/150_180.png","74","image-keyboard-response","297","350020","0.0-6.0-1.145","VASC","4","f","rechts","21","","","self","j","150","true"
"null","<div style=""font-size:60px;"">+</div>","null","html-keyboard-response","298","350533","0.0-6.0-0.146","VASC","4","f","rechts","21","","fixation","","","",""
"1341","img/150_60.png","70","image-keyboard-response","299","351886","0.0-6.0-1.146","VASC","4","f","rechts","21","","","self","f","150","true"
"null","<div style=""font-size:60px;"">+</div>","null","html-keyboard-response","300","352189","0.0-6.0-0.147","VASC","4","f","rechts","21","","fixation","","","",""
"1339","img/30_300.png","70","image-keyboard-response","301","353541","0.0-6.0-1.147","VASC","4","f","rechts","21","","","self","f","30","true"
"null","<div style=""font-size:60px;"">+</div>","null","html-keyboard-response","302","354068","0.0-6.0-0.148","VASC","4","f","rechts","21","","fixation","","","",""
"854","img/30_60.png","74","image-keyboard-response","303","354935","0.0-6.0-1.148","VASC","4","f","rechts","21","","","self","j","30","true"
"null","<div style=""font-size:60px;"">+</div>","null","html-keyboard-response","304","355361","0.0-6.0-0.149","VASC","4","f","rechts","21","","fixation","","","",""
"905","img/60_270.png","70","image-keyboard-response","305","356274","0.0-6.0-1.149","VASC","4","f","rechts","21","","","self","f","60","true"
"null","<div style=""font-size:60px;"">+</div>","null","html-keyboard-response","306","356783","0.0-6.0-0.150","VASC","4","f","rechts","21","","fixation","","","",""
"846","img/150_270.png","74","image-keyboard-response","307","357635","0.0-6.0-1.150","VASC","4","f","rechts","21","","","self","j","150","true"
"null","<div style=""font-size:60px;"">+</div>","null","html-keyboard-response","308","358050","0.0-6.0-0.151","VASC","4","f","rechts","21","","fixation","","","",""
"1002","img/90_150.png","70","image-keyboard-response","309","359065","0.0-6.0-1.151","VASC","4","f","rechts","21","","","self","f","90","true"
"null","<div style=""font-size:60px;"">+</div>","null","html-keyboard-response","310","359582","0.0-6.0-0.152","VASC","4","f","rechts","21","","fixation","","","",""
"785","img/90_180.png","74","image-keyboard-response","311","360379","0.0-6.0-1.152","VASC","4","f","rechts","21","","","self","j","90","true"
"null","<div style=""font-size:60px;"">+</div>","null","html-keyboard-response","312","360785","0.0-6.0-0.153","VASC","4","f","rechts","21","","fixation","","","",""
"1324","img/30_240.png","70","image-keyboard-response","313","362122","0.0-6.0-1.153","VASC","4","f","rechts","21","","","self","f","30","true"
"null","<div style=""font-size:60px;"">+</div>","null","html-keyboard-response","314","362644","0.0-6.0-0.154","VASC","4","f","rechts","21","","fixation","","","",""
"906","img/60_210.png","74","image-keyboard-response","315","363563","0.0-6.0-1.154","VASC","4","f","rechts","21","","","self","j","60","true"
"null","<div style=""font-size:60px;"">+</div>","null","html-keyboard-response","316","364020","0.0-6.0-0.155","VASC","4","f","rechts","21","","fixation","","","",""
"735","img/30_120.png","74","image-keyboard-response","317","364769","0.0-6.0-1.155","VASC","4","f","rechts","21","","","self","j","30","true"
"null","<div style=""font-size:60px;"">+</div>","null","html-keyboard-response","318","365238","0.0-6.0-0.156","VASC","4","f","rechts","21","","fixation","","","",""
"709","img/0_60.png","74","image-keyboard-response","319","365961","0.0-6.0-1.156","VASC","4","f","rechts","21","","","self","j","0","true"
"null","<div style=""font-size:60px;"">+</div>","null","html-keyboard-response","320","366332","0.0-6.0-0.157","VASC","4","f","rechts","21","","fixation","","","",""
"1638","img/60_210.png","74","image-keyboard-response","321","367986","0.0-6.0-1.157","VASC","4","f","rechts","21","","","self","j","60","true"
"null","<div style=""font-size:60px;"">+</div>","null","html-keyboard-response","322","368456","0.0-6.0-0.158","VASC","4","f","rechts","21","","fixation","","","",""
"695","img/0_120.png","74","image-keyboard-response","323","369167","0.0-6.0-1.158","VASC","4","f","rechts","21","","","self","j","0","true"
"null","<div style=""font-size:60px;"">+</div>","null","html-keyboard-response","324","369629","0.0-6.0-0.159","VASC","4","f","rechts","21","","fixation","","","",""
"855","img/120_210.png","74","image-keyboard-response","325","370494","0.0-6.0-1.159","VASC","4","f","rechts","21","","","self","j","120","true"
"null","<div style=""font-size:60px;"">+</div>","null","html-keyboard-response","326","370957","0.0-6.0-0.160","VASC","4","f","rechts","21","","fixation","","","",""
"1304","img/90_30.png","74","image-keyboard-response","327","372271","0.0-6.0-1.160","VASC","4","f","rechts","21","","","self","j","90","true"
"null","<div style=""font-size:60px;"">+</div>","null","html-keyboard-response","328","372675","0.0-6.0-0.161","VASC","4","f","rechts","21","","fixation","","","",""
"1833","img/150_90.png","70","image-keyboard-response","329","374523","0.0-6.0-1.161","VASC","4","f","rechts","21","","","self","f","150","true"
"null","<div style=""font-size:60px;"">+</div>","null","html-keyboard-response","330","375037","0.0-6.0-0.162","VASC","4","f","rechts","21","","fixation","","","",""
"1386","img/150_300.png","74","image-keyboard-response","331","376432","0.0-6.0-1.162","VASC","4","f","rechts","21","","","self","j","150","true"
"null","<div style=""font-size:60px;"">+</div>","null","html-keyboard-response","332","376943","0.0-6.0-0.163","VASC","4","f","rechts","21","","fixation","","","",""
"1147","img/90_150.png","70","image-keyboard-response","333","378099","0.0-6.0-1.163","VASC","4","f","rechts","21","","","self","f","90","true"
"null","<div style=""font-size:60px;"">+</div>","null","html-keyboard-response","334","378466","0.0-6.0-0.164","VASC","4","f","rechts","21","","fixation","","","",""
"710","img/150_240.png","74","image-keyboard-response","335","379179","0.0-6.0-1.164","VASC","4","f","rechts","21","","","self","j","150","true"
"null","<div style=""font-size:60px;"">+</div>","null","html-keyboard-response","336","379592","0.0-6.0-0.165","VASC","4","f","rechts","21","","fixation","","","",""
"1375","img/60_150.png","70","image-keyboard-response","337","380979","0.0-6.0-1.165","VASC","4","f","rechts","21","","","self","f","60","true"
"null","<div style=""font-size:60px;"">+</div>","null","html-keyboard-response","338","381356","0.0-6.0-0.166","VASC","4","f","rechts","21","","fixation","","","",""
"852","img/120_270.png","74","image-keyboard-response","339","382219","0.0-6.0-1.166","VASC","4","f","rechts","21","","","self","j","120","true"
"null","<div style=""font-size:60px;"">+</div>","null","html-keyboard-response","340","382731","0.0-6.0-0.167","VASC","4","f","rechts","21","","fixation","","","",""
"969","img/90_300.png","70","image-keyboard-response","341","383713","0.0-6.0-1.167","VASC","4","f","rechts","21","","","self","f","90","true"
"null","<div style=""font-size:60px;"">+</div>","null","html-keyboard-response","342","384122","0.0-6.0-0.168","VASC","4","f","rechts","21","","fixation","","","",""
"1423","img/120_330.png","70","image-keyboard-response","343","385559","0.0-6.0-1.168","VASC","4","f","rechts","21","","","self","f","120","true"
"null","<div style=""font-size:60px;"">+</div>","null","html-keyboard-response","344","386015","0.0-6.0-0.169","VASC","4","f","rechts","21","","fixation","","","",""
"1456","img/L90_180.png","70","image-keyboard-response","345","387481","0.0-6.0-1.169","VASC","4","f","rechts","21","","","self","f","90","true"
"null","<div style=""font-size:60px;"">+</div>","null","html-keyboard-response","346","387785","0.0-6.0-0.170","VASC","4","f","rechts","21","","fixation","","","",""
"910","img/L30_180.png","70","image-keyboard-response","347","388709","0.0-6.0-1.170","VASC","4","f","rechts","21","","","self","f","30","true"
"null","<div style=""font-size:60px;"">+</div>","null","html-keyboard-response","348","389235","0.0-6.0-0.171","VASC","4","f","rechts","21","","fixation","","","",""
"1546","img/30_60.png","74","image-keyboard-response","349","390790","0.0-6.0-1.171","VASC","4","f","rechts","21","","","self","j","30","true"
"null","<div style=""font-size:60px;"">+</div>","null","html-keyboard-response","350","391249","0.0-6.0-0.172","VASC","4","f","rechts","21","","fixation","","","",""
"980","img/90_60.png","74","image-keyboard-response","351","392240","0.0-6.0-1.172","VASC","4","f","rechts","21","","","self","j","90","true"
"null","<div style=""font-size:60px;"">+</div>","null","html-keyboard-response","352","392664","0.0-6.0-0.173","VASC","4","f","rechts","21","","fixation","","","",""
"972","img/120_150.png","70","image-keyboard-response","353","393648","0.0-6.0-1.173","VASC","4","f","rechts","21","","","self","f","120","true"
"null","<div style=""font-size:60px;"">+</div>","null","html-keyboard-response","354","393958","0.0-6.0-0.174","VASC","4","f","rechts","21","","fixation","","","",""
"895","img/150_60.png","70","image-keyboard-response","355","394862","0.0-6.0-1.174","VASC","4","f","rechts","21","","","self","f","150","true"
"null","<div style=""font-size:60px;"">+</div>","null","html-keyboard-response","356","395391","0.0-6.0-0.175","VASC","4","f","rechts","21","","fixation","","","",""
"1111","img/30_300.png","70","image-keyboard-response","357","396514","0.0-6.0-1.175","VASC","4","f","rechts","21","","","self","f","30","true"
"null","<div style=""font-size:60px;"">+</div>","null","html-keyboard-response","358","396845","0.0-6.0-0.176","VASC","4","f","rechts","21","","fixation","","","",""
"684","img/0_240.png","70","image-keyboard-response","359","397540","0.0-6.0-1.176","VASC","4","f","rechts","21","","","self","f","0","true"
"null","<div style=""font-size:60px;"">+</div>","null","html-keyboard-response","360","398016","0.0-6.0-0.177","VASC","4","f","rechts","21","","fixation","","","",""
"601","img/0_210.png","70","image-keyboard-response","361","398630","0.0-6.0-1.177","VASC","4","f","rechts","21","","","self","f","0","true"
"null","<div style=""font-size:60px;"">+</div>","null","html-keyboard-response","362","399109","0.0-6.0-0.178","VASC","4","f","rechts","21","","fixation","","","",""
"769","img/0_30.png","74","image-keyboard-response","363","399891","0.0-6.0-1.178","VASC","4","f","rechts","21","","","self","j","0","true"
"null","<div style=""font-size:60px;"">+</div>","null","html-keyboard-response","364","400345","0.0-6.0-0.179","VASC","4","f","rechts","21","","fixation","","","",""
"906","img/150_180.png","74","image-keyboard-response","365","401262","0.0-6.0-1.179","VASC","4","f","rechts","21","","","self","j","150","true"
"null","<div style=""font-size:60px;"">+</div>","null","html-keyboard-response","366","401735","0.0-6.0-0.180","VASC","4","f","rechts","21","","fixation","","","",""
"1408","img/30_120.png","74","image-keyboard-response","367","403153","0.0-6.0-1.180","VASC","4","f","rechts","21","","","self","j","30","true"
"null","<div style=""font-size:60px;"">+</div>","null","html-keyboard-response","368","403533","0.0-6.0-0.181","VASC","4","f","rechts","21","","fixation","","","",""
"845","img/30_270.png","70","image-keyboard-response","369","404392","0.0-6.0-1.181","VASC","4","f","rechts","21","","","self","f","30","true"
"null","<div style=""font-size:60px;"">+</div>","null","html-keyboard-response","370","404752","0.0-6.0-0.182","VASC","4","f","rechts","21","","fixation","","","",""
"890","img/150_270.png","74","image-keyboard-response","371","405650","0.0-6.0-1.182","VASC","4","f","rechts","21","","","self","j","150","true"
"null","<div style=""font-size:60px;"">+</div>","null","html-keyboard-response","372","406111","0.0-6.0-0.183","VASC","4","f","rechts","21","","fixation","","","",""
"888","img/60_30.png","74","image-keyboard-response","373","407013","0.0-6.0-1.183","VASC","4","f","rechts","21","","","self","j","60","true"
"null","<div style=""font-size:60px;"">+</div>","null","html-keyboard-response","374","407376","0.0-6.0-0.184","VASC","4","f","rechts","21","","fixation","","","",""
"1062","img/30_180.png","74","image-keyboard-response","375","408451","0.0-6.0-1.184","VASC","4","f","rechts","21","","","self","j","30","true"
"null","<div style=""font-size:60px;"">+</div>","null","html-keyboard-response","376","408766","0.0-6.0-0.185","VASC","4","f","rechts","21","","fixation","","","",""
"1034","img/120_90.png","70","image-keyboard-response","377","409814","0.0-6.0-1.185","VASC","4","f","rechts","21","","","self","f","120","true"
"null","<div style=""font-size:60px;"">+</div>","null","html-keyboard-response","378","410190","0.0-6.0-0.186","VASC","4","f","rechts","21","","fixation","","","",""
"679","img/150_120.png","70","image-keyboard-response","379","410882","0.0-6.0-1.186","VASC","4","f","rechts","21","","","self","f","150","true"
"null","<div style=""font-size:60px;"">+</div>","null","html-keyboard-response","380","411393","0.0-6.0-0.187","VASC","4","f","rechts","21","","fixation","","","",""
"1004","img/60_180.png","74","image-keyboard-response","381","412413","0.0-6.0-1.187","VASC","4","f","rechts","21","","","self","j","60","true"
"null","<div style=""font-size:60px;"">+</div>","null","html-keyboard-response","382","412922","0.0-6.0-0.188","VASC","4","f","rechts","21","","fixation","","","",""
"704","img/30_90.png","74","image-keyboard-response","383","413638","0.0-6.0-1.188","VASC","4","f","rechts","21","","","self","j","30","true"
"null","<div style=""font-size:60px;"">+</div>","null","html-keyboard-response","384","414046","0.0-6.0-0.189","VASC","4","f","rechts","21","","fixation","","","",""
"794","img/L60_180.png","70","image-keyboard-response","385","414854","0.0-6.0-1.189","VASC","4","f","rechts","21","","","self","f","60","true"
"null","<div style=""font-size:60px;"">+</div>","null","html-keyboard-response","386","415233","0.0-6.0-0.190","VASC","4","f","rechts","21","","fixation","","","",""
"992","img/30_240.png","70","image-keyboard-response","387","416237","0.0-6.0-1.190","VASC","4","f","rechts","21","","","self","f","30","true"
"null","<div style=""font-size:60px;"">+</div>","null","html-keyboard-response","388","416702","0.0-6.0-0.191","VASC","4","f","rechts","21","","fixation","","","",""
"669","img/0_270.png","70","image-keyboard-response","389","417386","0.0-6.0-1.191","VASC","4","f","rechts","21","","","self","f","0","true"
"null","<div style=""font-size:60px;"">+</div>","null","html-keyboard-response","390","417749","0.0-6.0-0.192","VASC","4","f","rechts","21","","fixation","","","",""
"907","img/90_210.png","74","image-keyboard-response","391","418667","0.0-6.0-1.192","VASC","4","f","rechts","21","","","self","j","90","true"
"null","<div style=""font-size:60px;"">+</div>","null","html-keyboard-response","392","419187","0.0-6.0-0.193","VASC","4","f","rechts","21","","fixation","","","",""
"638","img/90_240.png","74","image-keyboard-response","393","419838","0.0-6.0-1.193","VASC","4","f","rechts","21","","","self","j","90","true"
"null","<div style=""font-size:60px;"">+</div>","null","html-keyboard-response","394","420141","0.0-6.0-0.194","VASC","4","f","rechts","21","","fixation","","","",""
"1461","img/120_30.png","74","image-keyboard-response","395","421615","0.0-6.0-1.194","VASC","4","f","rechts","21","","","self","j","120","true"
"null","<div style=""font-size:60px;"">+</div>","null","html-keyboard-response","396","422136","0.0-6.0-0.195","VASC","4","f","rechts","21","","fixation","","","",""
"1784","img/60_90.png","74","image-keyboard-response","397","423932","0.0-6.0-1.195","VASC","4","f","rechts","21","","","self","j","60","true"
"null","<div style=""font-size:60px;"">+</div>","null","html-keyboard-response","398","424361","0.0-6.0-0.196","VASC","4","f","rechts","21","","fixation","","","",""
"695","img/0_90.png","74","image-keyboard-response","399","425069","0.0-6.0-1.196","VASC","4","f","rechts","21","","","self","j","0","true"
"null","<div style=""font-size:60px;"">+</div>","null","html-keyboard-response","400","425424","0.0-6.0-0.197","VASC","4","f","rechts","21","","fixation","","","",""
"915","img/90_120.png","70","image-keyboard-response","401","426351","0.0-6.0-1.197","VASC","4","f","rechts","21","","","self","f","90","true"
"null","<div style=""font-size:60px;"">+</div>","null","html-keyboard-response","402","426668","0.0-6.0-0.198","VASC","4","f","rechts","21","","fixation","","","",""
"1234","img/0_300.png","70","image-keyboard-response","403","427915","0.0-6.0-1.198","VASC","4","f","rechts","21","","","self","f","0","true"
"null","<div style=""font-size:60px;"">+</div>","null","html-keyboard-response","404","428247","0.0-6.0-0.199","VASC","4","f","rechts","21","","fixation","","","",""
"915","img/60_330.png","70","image-keyboard-response","405","429174","0.0-6.0-1.199","VASC","4","f","rechts","21","","","self","f","60","true"
"null","<div style=""font-size:60px;"">+</div>","null","html-keyboard-response","406","429527","0.0-6.0-0.200","VASC","4","f","rechts","21","","fixation","","","",""
"1035","img/L120_180.png","70","image-keyboard-response","407","430566","0.0-6.0-1.200","VASC","4","f","rechts","21","","","self","f","120","true"
"null","<div style=""font-size:60px;"">+</div>","null","html-keyboard-response","408","430996","0.0-6.0-0.201","VASC","4","f","rechts","21","","fixation","","","",""
"863","img/120_180.png","74","image-keyboard-response","409","431876","0.0-6.0-1.201","VASC","4","f","rechts","21","","","self","j","120","true"
"null","<div style=""font-size:60px;"">+</div>","null","html-keyboard-response","410","432403","0.0-6.0-0.202","VASC","4","f","rechts","21","","fixation","","","",""
"674","img/0_150.png","74","image-keyboard-response","411","433090","0.0-6.0-1.202","VASC","4","f","rechts","21","","","self","j","0","true"
"null","<div style=""font-size:60px;"">+</div>","null","html-keyboard-response","412","433399","0.0-6.0-0.203","VASC","4","f","rechts","21","","fixation","","","",""
"984","img/0_330.png","70","image-keyboard-response","413","434396","0.0-6.0-1.203","VASC","4","f","rechts","21","","","self","f","0","true"
"null","<div style=""font-size:60px;"">+</div>","null","html-keyboard-response","414","434811","0.0-6.0-0.204","VASC","4","f","rechts","21","","fixation","","","",""
"853","img/90_180.png","74","image-keyboard-response","415","435677","0.0-6.0-1.204","VASC","4","f","rechts","21","","","self","j","90","true"
"null","<div style=""font-size:60px;"">+</div>","null","html-keyboard-response","416","435983","0.0-6.0-0.205","VASC","4","f","rechts","21","","fixation","","","",""
"875","img/L150_180.png","70","image-keyboard-response","417","436871","0.0-6.0-1.205","VASC","4","f","rechts","21","","","self","f","150","true"
"null","<div style=""font-size:60px;"">+</div>","null","html-keyboard-response","418","437232","0.0-6.0-0.206","VASC","4","f","rechts","21","","fixation","","","",""
"1108","img/60_270.png","70","image-keyboard-response","419","438355","0.0-6.0-1.206","VASC","4","f","rechts","21","","","self","f","60","true"
"null","<div style=""font-size:60px;"">+</div>","null","html-keyboard-response","420","438670","0.0-6.0-0.207","VASC","4","f","rechts","21","","fixation","","","",""
"873","img/90_330.png","70","image-keyboard-response","421","439558","0.0-6.0-1.207","VASC","4","f","rechts","21","","","self","f","90","true"
"7035","<p>Du hast in 97% der Versuche korrekt entschieden.</p><p>Deine durchschnittliche Reaktionszeit war  935ms.</p><p>Dr&uuml;cke eine beliebige Taste, um die Session zu beenden. Vielen Dank!</p>","32","html-keyboard-response","422","446595","0.0-7.0","VASC","4","f","rechts","21","","","","","",""
