"rt","stimulus","key_press","trial_type","trial_index","time_elapsed","internal_node_id","subject","session","sex","handedness","age","responses","test_part","condition","correct_response","angle","correct"
"1946","<p>Mental Rotation Experiment.</p> <p>Dr&uuml;cke eine beliebige Taste, um anzufangen.</p>","13","html-keyboard-response","0","1982","0.0-0.0","VASC","1","f","rechts","21","","","","","",""
"4301","","","survey-text","1","6287","0.0-1.0","VASC","1","f","rechts","21","{""Q0"":""VASC""}","","","","",""
"8639","","","survey-text","2","14927","0.0-2.0","VASC","1","f","rechts","21","{""Q0"":""1""}","","","","",""
"6049","","","survey-multi-choice","3","20981","0.0-3.0","VASC","1","f","rechts","21","{""Q0"":""f"",""Q1"":""rechts""}","","","","",""
"2832","","","survey-text","4","23814","0.0-4.0","VASC","1","f","rechts","21","{""Q0"":""21""}","","","","",""
"11818","<p> Stell dir vor, dass du vor einem runden Tisch stehst, auf dem sich ein blauer Ball am Tischrand befindet. Entlang des Tischrands ist jeweils ein verschieden langer Pfeil. Nun bewegst du dich entlang dieses Pfeils bis an seine Spitze. Wenn du am Ende des Pfeils angekommen bist, schau zur Tischmitte. </p> <img src='img/90_180.png'></img> <br> <p>Entscheide dann, ob der Ball von deiner neuen (vorgestellten) Position links oder rechts von dir liegt.</p> <p>Dr&uuml;cke die <strong>'f'</strong>-Taste f&uuml;r links, die <strong>'j'</strong>-Taste f&uuml;r rechts.</p> <br><p> Das Bild wird jeweils 1 Sekunde lang pr&auml;sentiert. Du hast 3 Sekunden Zeit eine Entscheidung zu treffen.</p>","13","html-keyboard-response","5","35640","0.0-5.0","VASC","1","f","rechts","21","","","","","",""
"null","<div style=""font-size:60px;"">+</div>","null","html-keyboard-response","6","37087","0.0-6.0-0.0","VASC","1","f","rechts","21","","fixation","","","",""
"1520","img/60_150.png","70","image-keyboard-response","7","38627","0.0-6.0-1.0","VASC","1","f","rechts","21","","","self","f","60","true"
"null","<div style=""font-size:60px;"">+</div>","null","html-keyboard-response","8","39137","0.0-6.0-0.1","VASC","1","f","rechts","21","","fixation","","","",""
"1957","img/L150_180.png","70","image-keyboard-response","9","41113","0.0-6.0-1.1","VASC","1","f","rechts","21","","","self","f","150","true"
"null","<div style=""font-size:60px;"">+</div>","null","html-keyboard-response","10","41479","0.0-6.0-0.2","VASC","1","f","rechts","21","","fixation","","","",""
"1226","img/150_120.png","70","image-keyboard-response","11","42718","0.0-6.0-1.2","VASC","1","f","rechts","21","","","self","f","150","true"
"null","<div style=""font-size:60px;"">+</div>","null","html-keyboard-response","12","43027","0.0-6.0-0.3","VASC","1","f","rechts","21","","fixation","","","",""
"1327","img/150_270.png","74","image-keyboard-response","13","44373","0.0-6.0-1.3","VASC","1","f","rechts","21","","","self","j","150","true"
"null","<div style=""font-size:60px;"">+</div>","null","html-keyboard-response","14","44729","0.0-6.0-0.4","VASC","1","f","rechts","21","","fixation","","","",""
"873","img/0_330.png","70","image-keyboard-response","15","45621","0.0-6.0-1.4","VASC","1","f","rechts","21","","","self","f","0","true"
"null","<div style=""font-size:60px;"">+</div>","null","html-keyboard-response","16","46151","0.0-6.0-0.5","VASC","1","f","rechts","21","","fixation","","","",""
"1611","img/150_300.png","74","image-keyboard-response","17","47781","0.0-6.0-1.5","VASC","1","f","rechts","21","","","self","j","150","true"
"null","<div style=""font-size:60px;"">+</div>","null","html-keyboard-response","18","48136","0.0-6.0-0.6","VASC","1","f","rechts","21","","fixation","","","",""
"1472","img/90_30.png","74","image-keyboard-response","19","49625","0.0-6.0-1.6","VASC","1","f","rechts","21","","","self","j","90","true"
"null","<div style=""font-size:60px;"">+</div>","null","html-keyboard-response","20","50154","0.0-6.0-0.7","VASC","1","f","rechts","21","","fixation","","","",""
"1062","img/0_210.png","70","image-keyboard-response","21","51235","0.0-6.0-1.7","VASC","1","f","rechts","21","","","self","f","0","true"
"null","<div style=""font-size:60px;"">+</div>","null","html-keyboard-response","22","51746","0.0-6.0-0.8","VASC","1","f","rechts","21","","fixation","","","",""
"1702","img/90_180.png","74","image-keyboard-response","23","53463","0.0-6.0-1.8","VASC","1","f","rechts","21","","","self","j","90","true"
"null","<div style=""font-size:60px;"">+</div>","null","html-keyboard-response","24","53887","0.0-6.0-0.9","VASC","1","f","rechts","21","","fixation","","","",""
"1200","img/150_60.png","70","image-keyboard-response","25","55104","0.0-6.0-1.9","VASC","1","f","rechts","21","","","self","f","150","true"
"null","<div style=""font-size:60px;"">+</div>","null","html-keyboard-response","26","55465","0.0-6.0-0.10","VASC","1","f","rechts","21","","fixation","","","",""
"948","img/0_240.png","70","image-keyboard-response","27","56433","0.0-6.0-1.10","VASC","1","f","rechts","21","","","self","f","0","true"
"null","<div style=""font-size:60px;"">+</div>","null","html-keyboard-response","28","56838","0.0-6.0-0.11","VASC","1","f","rechts","21","","fixation","","","",""
"652","img/0_300.png","70","image-keyboard-response","29","57511","0.0-6.0-1.11","VASC","1","f","rechts","21","","","self","f","0","true"
"null","<div style=""font-size:60px;"">+</div>","null","html-keyboard-response","30","58013","0.0-6.0-0.12","VASC","1","f","rechts","21","","fixation","","","",""
"1468","img/30_180.png","74","image-keyboard-response","31","59501","0.0-6.0-1.12","VASC","1","f","rechts","21","","","self","j","30","true"
"null","<div style=""font-size:60px;"">+</div>","null","html-keyboard-response","32","60030","0.0-6.0-0.13","VASC","1","f","rechts","21","","fixation","","","",""
"1673","img/90_120.png","70","image-keyboard-response","33","61720","0.0-6.0-1.13","VASC","1","f","rechts","21","","","self","f","90","true"
"null","<div style=""font-size:60px;"">+</div>","null","html-keyboard-response","34","62232","0.0-6.0-0.14","VASC","1","f","rechts","21","","fixation","","","",""
"1163","img/120_180.png","74","image-keyboard-response","35","63417","0.0-6.0-1.14","VASC","1","f","rechts","21","","","self","j","120","true"
"null","<div style=""font-size:60px;"">+</div>","null","html-keyboard-response","36","63919","0.0-6.0-0.15","VASC","1","f","rechts","21","","fixation","","","",""
"1237","img/60_210.png","74","image-keyboard-response","37","65173","0.0-6.0-1.15","VASC","1","f","rechts","21","","","self","j","60","true"
"null","<div style=""font-size:60px;"">+</div>","null","html-keyboard-response","38","65528","0.0-6.0-0.16","VASC","1","f","rechts","21","","fixation","","","",""
"2420","img/30_60.png","74","image-keyboard-response","39","67957","0.0-6.0-1.16","VASC","1","f","rechts","21","","","self","j","30","true"
"null","<div style=""font-size:60px;"">+</div>","null","html-keyboard-response","40","68359","0.0-6.0-0.17","VASC","1","f","rechts","21","","fixation","","","",""
"1237","img/L90_180.png","70","image-keyboard-response","41","69616","0.0-6.0-1.17","VASC","1","f","rechts","21","","","self","f","90","true"
"null","<div style=""font-size:60px;"">+</div>","null","html-keyboard-response","42","70078","0.0-6.0-0.18","VASC","1","f","rechts","21","","fixation","","","",""
"1072","img/L60_180.png","70","image-keyboard-response","43","71170","0.0-6.0-1.18","VASC","1","f","rechts","21","","","self","f","60","true"
"null","<div style=""font-size:60px;"">+</div>","null","html-keyboard-response","44","71687","0.0-6.0-0.19","VASC","1","f","rechts","21","","fixation","","","",""
"1332","img/90_60.png","74","image-keyboard-response","45","73037","0.0-6.0-1.19","VASC","1","f","rechts","21","","","self","j","90","true"
"null","<div style=""font-size:60px;"">+</div>","null","html-keyboard-response","46","73438","0.0-6.0-0.20","VASC","1","f","rechts","21","","fixation","","","",""
"2502","img/60_180.png","74","image-keyboard-response","47","75956","0.0-6.0-1.20","VASC","1","f","rechts","21","","","self","j","60","true"
"null","<div style=""font-size:60px;"">+</div>","null","html-keyboard-response","48","76264","0.0-6.0-0.21","VASC","1","f","rechts","21","","fixation","","","",""
"1209","img/150_180.png","74","image-keyboard-response","49","77490","0.0-6.0-1.21","VASC","1","f","rechts","21","","","self","j","150","true"
"null","<div style=""font-size:60px;"">+</div>","null","html-keyboard-response","50","77956","0.0-6.0-0.22","VASC","1","f","rechts","21","","fixation","","","",""
"791","img/0_120.png","74","image-keyboard-response","51","78764","0.0-6.0-1.22","VASC","1","f","rechts","21","","","self","j","0","true"
"null","<div style=""font-size:60px;"">+</div>","null","html-keyboard-response","52","79267","0.0-6.0-0.23","VASC","1","f","rechts","21","","fixation","","","",""
"1134","img/90_240.png","74","image-keyboard-response","53","80417","0.0-6.0-1.23","VASC","1","f","rechts","21","","","self","j","90","true"
"null","<div style=""font-size:60px;"">+</div>","null","html-keyboard-response","54","80939","0.0-6.0-0.24","VASC","1","f","rechts","21","","fixation","","","",""
"990","img/30_90.png","74","image-keyboard-response","55","81948","0.0-6.0-1.24","VASC","1","f","rechts","21","","","self","j","30","true"
"null","<div style=""font-size:60px;"">+</div>","null","html-keyboard-response","56","82415","0.0-6.0-0.25","VASC","1","f","rechts","21","","fixation","","","",""
"1122","img/0_270.png","70","image-keyboard-response","57","83555","0.0-6.0-1.25","VASC","1","f","rechts","21","","","self","f","0","true"
"null","<div style=""font-size:60px;"">+</div>","null","html-keyboard-response","58","83914","0.0-6.0-0.26","VASC","1","f","rechts","21","","fixation","","","",""
"1313","img/150_240.png","74","image-keyboard-response","59","85244","0.0-6.0-1.26","VASC","1","f","rechts","21","","","self","j","150","true"
"null","<div style=""font-size:60px;"">+</div>","null","html-keyboard-response","60","85552","0.0-6.0-0.27","VASC","1","f","rechts","21","","fixation","","","",""
"1061","img/0_90.png","74","image-keyboard-response","61","86625","0.0-6.0-1.27","VASC","1","f","rechts","21","","","self","j","0","true"
"null","<div style=""font-size:60px;"">+</div>","null","html-keyboard-response","62","86932","0.0-6.0-0.28","VASC","1","f","rechts","21","","fixation","","","",""
"666","img/0_60.png","74","image-keyboard-response","63","87616","0.0-6.0-1.28","VASC","1","f","rechts","21","","","self","j","0","true"
"null","<div style=""font-size:60px;"">+</div>","null","html-keyboard-response","64","88120","0.0-6.0-0.29","VASC","1","f","rechts","21","","fixation","","","",""
"1245","img/90_300.png","70","image-keyboard-response","65","89383","0.0-6.0-1.29","VASC","1","f","rechts","21","","","self","f","90","true"
"null","<div style=""font-size:60px;"">+</div>","null","html-keyboard-response","66","89713","0.0-6.0-0.30","VASC","1","f","rechts","21","","fixation","","","",""
"1371","img/120_30.png","74","image-keyboard-response","67","91104","0.0-6.0-1.30","VASC","1","f","rechts","21","","","self","j","120","true"
"null","<div style=""font-size:60px;"">+</div>","null","html-keyboard-response","68","91527","0.0-6.0-0.31","VASC","1","f","rechts","21","","fixation","","","",""
"1168","img/120_330.png","70","image-keyboard-response","69","92714","0.0-6.0-1.31","VASC","1","f","rechts","21","","","self","f","120","true"
"null","<div style=""font-size:60px;"">+</div>","null","html-keyboard-response","70","93027","0.0-6.0-0.32","VASC","1","f","rechts","21","","fixation","","","",""
"1311","img/120_270.png","74","image-keyboard-response","71","94356","0.0-6.0-1.32","VASC","1","f","rechts","21","","","self","j","120","true"
"null","<div style=""font-size:60px;"">+</div>","null","html-keyboard-response","72","94777","0.0-6.0-0.33","VASC","1","f","rechts","21","","fixation","","","",""
"1136","img/0_150.png","74","image-keyboard-response","73","95930","0.0-6.0-1.33","VASC","1","f","rechts","21","","","self","j","0","true"
"null","<div style=""font-size:60px;"">+</div>","null","html-keyboard-response","74","96434","0.0-6.0-0.34","VASC","1","f","rechts","21","","fixation","","","",""
"953","img/L120_180.png","70","image-keyboard-response","75","97405","0.0-6.0-1.34","VASC","1","f","rechts","21","","","self","f","120","true"
"null","<div style=""font-size:60px;"">+</div>","null","html-keyboard-response","76","97761","0.0-6.0-0.35","VASC","1","f","rechts","21","","fixation","","","",""
"748","img/L30_180.png","70","image-keyboard-response","77","98528","0.0-6.0-1.35","VASC","1","f","rechts","21","","","self","f","30","true"
"null","<div style=""font-size:60px;"">+</div>","null","html-keyboard-response","78","99005","0.0-6.0-0.36","VASC","1","f","rechts","21","","fixation","","","",""
"1283","img/60_270.png","70","image-keyboard-response","79","100307","0.0-6.0-1.36","VASC","1","f","rechts","21","","","self","f","60","true"
"null","<div style=""font-size:60px;"">+</div>","null","html-keyboard-response","80","100676","0.0-6.0-0.37","VASC","1","f","rechts","21","","fixation","","","",""
"928","img/120_210.png","74","image-keyboard-response","81","101611","0.0-6.0-1.37","VASC","1","f","rechts","21","","","self","j","120","true"
"null","<div style=""font-size:60px;"">+</div>","null","html-keyboard-response","82","101973","0.0-6.0-0.38","VASC","1","f","rechts","21","","fixation","","","",""
"1568","img/120_150.png","70","image-keyboard-response","83","103560","0.0-6.0-1.38","VASC","1","f","rechts","21","","","self","f","120","true"
"null","<div style=""font-size:60px;"">+</div>","null","html-keyboard-response","84","104067","0.0-6.0-0.39","VASC","1","f","rechts","21","","fixation","","","",""
"1237","img/30_240.png","70","image-keyboard-response","85","105324","0.0-6.0-1.39","VASC","1","f","rechts","21","","","self","f","30","true"
"null","<div style=""font-size:60px;"">+</div>","null","html-keyboard-response","86","105833","0.0-6.0-0.40","VASC","1","f","rechts","21","","fixation","","","",""
"926","img/30_270.png","70","image-keyboard-response","87","106777","0.0-6.0-1.40","VASC","1","f","rechts","21","","","self","f","30","true"
"null","<div style=""font-size:60px;"">+</div>","null","html-keyboard-response","88","107285","0.0-6.0-0.41","VASC","1","f","rechts","21","","fixation","","","",""
"1059","img/90_330.png","70","image-keyboard-response","89","108362","0.0-6.0-1.41","VASC","1","f","rechts","21","","","self","f","90","true"
"null","<div style=""font-size:60px;"">+</div>","null","html-keyboard-response","90","108817","0.0-6.0-0.42","VASC","1","f","rechts","21","","fixation","","","",""
"798","img/30_300.png","70","image-keyboard-response","91","109633","0.0-6.0-1.42","VASC","1","f","rechts","21","","","self","f","30","true"
"null","<div style=""font-size:60px;"">+</div>","null","html-keyboard-response","92","110036","0.0-6.0-0.43","VASC","1","f","rechts","21","","fixation","","","",""
"1089","img/60_330.png","70","image-keyboard-response","93","111141","0.0-6.0-1.43","VASC","1","f","rechts","21","","","self","f","60","true"
"null","<div style=""font-size:60px;"">+</div>","null","html-keyboard-response","94","111506","0.0-6.0-0.44","VASC","1","f","rechts","21","","fixation","","","",""
"1508","img/30_120.png","74","image-keyboard-response","95","113032","0.0-6.0-1.44","VASC","1","f","rechts","21","","","self","j","30","true"
"null","<div style=""font-size:60px;"">+</div>","null","html-keyboard-response","96","113507","0.0-6.0-0.45","VASC","1","f","rechts","21","","fixation","","","",""
"822","img/0_30.png","74","image-keyboard-response","97","114346","0.0-6.0-1.45","VASC","1","f","rechts","21","","","self","j","0","true"
"null","<div style=""font-size:60px;"">+</div>","null","html-keyboard-response","98","114860","0.0-6.0-0.46","VASC","1","f","rechts","21","","fixation","","","",""
"1157","img/60_90.png","74","image-keyboard-response","99","116036","0.0-6.0-1.46","VASC","1","f","rechts","21","","","self","j","60","true"
"null","<div style=""font-size:60px;"">+</div>","null","html-keyboard-response","100","116508","0.0-6.0-0.47","VASC","1","f","rechts","21","","fixation","","","",""
"1367","img/150_90.png","70","image-keyboard-response","101","117891","0.0-6.0-1.47","VASC","1","f","rechts","21","","","self","f","150","true"
"null","<div style=""font-size:60px;"">+</div>","null","html-keyboard-response","102","118247","0.0-6.0-0.48","VASC","1","f","rechts","21","","fixation","","","",""
"874","img/120_90.png","70","image-keyboard-response","103","119141","0.0-6.0-1.48","VASC","1","f","rechts","21","","","self","f","120","true"
"null","<div style=""font-size:60px;"">+</div>","null","html-keyboard-response","104","119449","0.0-6.0-0.49","VASC","1","f","rechts","21","","fixation","","","",""
"1190","img/60_30.png","74","image-keyboard-response","105","120657","0.0-6.0-1.49","VASC","1","f","rechts","21","","","self","j","60","true"
"null","<div style=""font-size:60px;"">+</div>","null","html-keyboard-response","106","121074","0.0-6.0-0.50","VASC","1","f","rechts","21","","fixation","","","",""
"1110","img/90_150.png","70","image-keyboard-response","107","122201","0.0-6.0-1.50","VASC","1","f","rechts","21","","","self","f","90","true"
"null","<div style=""font-size:60px;"">+</div>","null","html-keyboard-response","108","122506","0.0-6.0-0.51","VASC","1","f","rechts","21","","fixation","","","",""
"1253","img/90_210.png","74","image-keyboard-response","109","123777","0.0-6.0-1.51","VASC","1","f","rechts","21","","","self","j","90","true"
"null","<div style=""font-size:60px;"">+</div>","null","html-keyboard-response","110","124301","0.0-6.0-0.52","VASC","1","f","rechts","21","","fixation","","","",""
"971","img/120_150.png","70","image-keyboard-response","111","125281","0.0-6.0-1.52","VASC","1","f","rechts","21","","","self","f","120","true"
"null","<div style=""font-size:60px;"">+</div>","null","html-keyboard-response","112","125597","0.0-6.0-0.53","VASC","1","f","rechts","21","","fixation","","","",""
"1031","img/60_90.png","74","image-keyboard-response","113","126631","0.0-6.0-1.53","VASC","1","f","rechts","21","","","self","j","60","true"
"null","<div style=""font-size:60px;"">+</div>","null","html-keyboard-response","114","127097","0.0-6.0-0.54","VASC","1","f","rechts","21","","fixation","","","",""
"1110","img/0_210.png","70","image-keyboard-response","115","128220","0.0-6.0-1.54","VASC","1","f","rechts","21","","","self","f","0","true"
"null","<div style=""font-size:60px;"">+</div>","null","html-keyboard-response","116","128674","0.0-6.0-0.55","VASC","1","f","rechts","21","","fixation","","","",""
"1124","img/30_60.png","74","image-keyboard-response","117","129804","0.0-6.0-1.55","VASC","1","f","rechts","21","","","self","j","30","true"
"null","<div style=""font-size:60px;"">+</div>","null","html-keyboard-response","118","130159","0.0-6.0-0.56","VASC","1","f","rechts","21","","fixation","","","",""
"1518","img/150_270.png","74","image-keyboard-response","119","131692","0.0-6.0-1.56","VASC","1","f","rechts","21","","","self","j","150","true"
"null","<div style=""font-size:60px;"">+</div>","null","html-keyboard-response","120","131993","0.0-6.0-0.57","VASC","1","f","rechts","21","","fixation","","","",""
"1313","img/0_270.png","70","image-keyboard-response","121","133316","0.0-6.0-1.57","VASC","1","f","rechts","21","","","self","f","0","true"
"null","<div style=""font-size:60px;"">+</div>","null","html-keyboard-response","122","133696","0.0-6.0-0.58","VASC","1","f","rechts","21","","fixation","","","",""
"1753","img/120_30.png","74","image-keyboard-response","123","135454","0.0-6.0-1.58","VASC","1","f","rechts","21","","","self","j","120","true"
"null","<div style=""font-size:60px;"">+</div>","null","html-keyboard-response","124","135760","0.0-6.0-0.59","VASC","1","f","rechts","21","","fixation","","","",""
"1022","img/150_240.png","74","image-keyboard-response","125","136791","0.0-6.0-1.59","VASC","1","f","rechts","21","","","self","j","150","true"
"null","<div style=""font-size:60px;"">+</div>","null","html-keyboard-response","126","137104","0.0-6.0-0.60","VASC","1","f","rechts","21","","fixation","","","",""
"1260","img/150_300.png","74","image-keyboard-response","127","138378","0.0-6.0-1.60","VASC","1","f","rechts","21","","","self","j","150","true"
"null","<div style=""font-size:60px;"">+</div>","null","html-keyboard-response","128","138744","0.0-6.0-0.61","VASC","1","f","rechts","21","","fixation","","","",""
"1826","img/90_120.png","70","image-keyboard-response","129","140584","0.0-6.0-1.61","VASC","1","f","rechts","21","","","self","f","90","true"
"null","<div style=""font-size:60px;"">+</div>","null","html-keyboard-response","130","141088","0.0-6.0-0.62","VASC","1","f","rechts","21","","fixation","","","",""
"767","img/0_30.png","74","image-keyboard-response","131","141864","0.0-6.0-1.62","VASC","1","f","rechts","21","","","self","j","0","true"
"null","<div style=""font-size:60px;"">+</div>","null","html-keyboard-response","132","142323","0.0-6.0-0.63","VASC","1","f","rechts","21","","fixation","","","",""
"1130","img/120_330.png","70","image-keyboard-response","133","143464","0.0-6.0-1.63","VASC","1","f","rechts","21","","","self","f","120","true"
"null","<div style=""font-size:60px;"">+</div>","null","html-keyboard-response","134","143775","0.0-6.0-0.64","VASC","1","f","rechts","21","","fixation","","","",""
"1140","img/150_90.png","74","image-keyboard-response","135","144926","0.0-6.0-1.64","VASC","1","f","rechts","21","","","self","f","150","false"
"null","<div style=""font-size:60px;"">+</div>","null","html-keyboard-response","136","145339","0.0-6.0-0.65","VASC","1","f","rechts","21","","fixation","","","",""
"2418","img/120_210.png","74","image-keyboard-response","137","147766","0.0-6.0-1.65","VASC","1","f","rechts","21","","","self","j","120","true"
"null","<div style=""font-size:60px;"">+</div>","null","html-keyboard-response","138","148074","0.0-6.0-0.66","VASC","1","f","rechts","21","","fixation","","","",""
"1739","img/120_90.png","70","image-keyboard-response","139","149822","0.0-6.0-1.66","VASC","1","f","rechts","21","","","self","f","120","true"
"null","<div style=""font-size:60px;"">+</div>","null","html-keyboard-response","140","150178","0.0-6.0-0.67","VASC","1","f","rechts","21","","fixation","","","",""
"1241","img/60_330.png","70","image-keyboard-response","141","151429","0.0-6.0-1.67","VASC","1","f","rechts","21","","","self","f","60","true"
"null","<div style=""font-size:60px;"">+</div>","null","html-keyboard-response","142","151959","0.0-6.0-0.68","VASC","1","f","rechts","21","","fixation","","","",""
"951","img/120_180.png","74","image-keyboard-response","143","152924","0.0-6.0-1.68","VASC","1","f","rechts","21","","","self","j","120","true"
"null","<div style=""font-size:60px;"">+</div>","null","html-keyboard-response","144","153296","0.0-6.0-0.69","VASC","1","f","rechts","21","","fixation","","","",""
"1003","img/L120_180.png","70","image-keyboard-response","145","154308","0.0-6.0-1.69","VASC","1","f","rechts","21","","","self","f","120","true"
"null","<div style=""font-size:60px;"">+</div>","null","html-keyboard-response","146","154671","0.0-6.0-0.70","VASC","1","f","rechts","21","","fixation","","","",""
"1349","img/30_180.png","74","image-keyboard-response","147","156031","0.0-6.0-1.70","VASC","1","f","rechts","21","","","self","j","30","true"
"null","<div style=""font-size:60px;"">+</div>","null","html-keyboard-response","148","156441","0.0-6.0-0.71","VASC","1","f","rechts","21","","fixation","","","",""
"1750","img/30_240.png","70","image-keyboard-response","149","158202","0.0-6.0-1.71","VASC","1","f","rechts","21","","","self","f","30","true"
"null","<div style=""font-size:60px;"">+</div>","null","html-keyboard-response","150","158710","0.0-6.0-0.72","VASC","1","f","rechts","21","","fixation","","","",""
"1001","img/60_210.png","74","image-keyboard-response","151","159715","0.0-6.0-1.72","VASC","1","f","rechts","21","","","self","j","60","true"
"null","<div style=""font-size:60px;"">+</div>","null","html-keyboard-response","152","160179","0.0-6.0-0.73","VASC","1","f","rechts","21","","fixation","","","",""
"1187","img/120_270.png","74","image-keyboard-response","153","161375","0.0-6.0-1.73","VASC","1","f","rechts","21","","","self","j","120","true"
"null","<div style=""font-size:60px;"">+</div>","null","html-keyboard-response","154","161788","0.0-6.0-0.74","VASC","1","f","rechts","21","","fixation","","","",""
"1744","img/150_60.png","70","image-keyboard-response","155","163545","0.0-6.0-1.74","VASC","1","f","rechts","21","","","self","f","150","true"
"null","<div style=""font-size:60px;"">+</div>","null","html-keyboard-response","156","164057","0.0-6.0-0.75","VASC","1","f","rechts","21","","fixation","","","",""
"1297","img/L60_180.png","70","image-keyboard-response","157","165367","0.0-6.0-1.75","VASC","1","f","rechts","21","","","self","f","60","true"
"null","<div style=""font-size:60px;"">+</div>","null","html-keyboard-response","158","165823","0.0-6.0-0.76","VASC","1","f","rechts","21","","fixation","","","",""
"1719","img/60_30.png","74","image-keyboard-response","159","167550","0.0-6.0-1.76","VASC","1","f","rechts","21","","","self","j","60","true"
"null","<div style=""font-size:60px;"">+</div>","null","html-keyboard-response","160","167963","0.0-6.0-0.77","VASC","1","f","rechts","21","","fixation","","","",""
"801","img/0_150.png","74","image-keyboard-response","161","168773","0.0-6.0-1.77","VASC","1","f","rechts","21","","","self","j","0","true"
"null","<div style=""font-size:60px;"">+</div>","null","html-keyboard-response","162","169198","0.0-6.0-0.78","VASC","1","f","rechts","21","","fixation","","","",""
"1223","img/60_270.png","70","image-keyboard-response","163","170430","0.0-6.0-1.78","VASC","1","f","rechts","21","","","self","f","60","true"
"null","<div style=""font-size:60px;"">+</div>","null","html-keyboard-response","164","170760","0.0-6.0-0.79","VASC","1","f","rechts","21","","fixation","","","",""
"1151","img/90_330.png","70","image-keyboard-response","165","171913","0.0-6.0-1.79","VASC","1","f","rechts","21","","","self","f","90","true"
"null","<div style=""font-size:60px;"">+</div>","null","html-keyboard-response","166","172371","0.0-6.0-0.80","VASC","1","f","rechts","21","","fixation","","","",""
"1598","img/90_30.png","74","image-keyboard-response","167","173984","0.0-6.0-1.80","VASC","1","f","rechts","21","","","self","j","90","true"
"null","<div style=""font-size:60px;"">+</div>","null","html-keyboard-response","168","174310","0.0-6.0-0.81","VASC","1","f","rechts","21","","fixation","","","",""
"2727","img/60_180.png","74","image-keyboard-response","169","177049","0.0-6.0-1.81","VASC","1","f","rechts","21","","","self","j","60","true"
"null","<div style=""font-size:60px;"">+</div>","null","html-keyboard-response","170","177530","0.0-6.0-0.82","VASC","1","f","rechts","21","","fixation","","","",""
"1154","img/L90_180.png","70","image-keyboard-response","171","178697","0.0-6.0-1.82","VASC","1","f","rechts","21","","","self","f","90","true"
"null","<div style=""font-size:60px;"">+</div>","null","html-keyboard-response","172","178999","0.0-6.0-0.83","VASC","1","f","rechts","21","","fixation","","","",""
"1296","img/90_60.png","74","image-keyboard-response","173","180308","0.0-6.0-1.83","VASC","1","f","rechts","21","","","self","j","90","true"
"null","<div style=""font-size:60px;"">+</div>","null","html-keyboard-response","174","180622","0.0-6.0-0.84","VASC","1","f","rechts","21","","fixation","","","",""
"1035","img/90_210.png","74","image-keyboard-response","175","181667","0.0-6.0-1.84","VASC","1","f","rechts","21","","","self","j","90","true"
"null","<div style=""font-size:60px;"">+</div>","null","html-keyboard-response","176","181981","0.0-6.0-0.85","VASC","1","f","rechts","21","","fixation","","","",""
"867","img/0_330.png","70","image-keyboard-response","177","182861","0.0-6.0-1.85","VASC","1","f","rechts","21","","","self","f","0","true"
"null","<div style=""font-size:60px;"">+</div>","null","html-keyboard-response","178","183379","0.0-6.0-0.86","VASC","1","f","rechts","21","","fixation","","","",""
"785","img/0_300.png","70","image-keyboard-response","179","184178","0.0-6.0-1.86","VASC","1","f","rechts","21","","","self","f","0","true"
"null","<div style=""font-size:60px;"">+</div>","null","html-keyboard-response","180","184692","0.0-6.0-0.87","VASC","1","f","rechts","21","","fixation","","","",""
"582","img/0_240.png","70","image-keyboard-response","181","185278","0.0-6.0-1.87","VASC","1","f","rechts","21","","","self","f","0","true"
"null","<div style=""font-size:60px;"">+</div>","null","html-keyboard-response","182","185582","0.0-6.0-0.88","VASC","1","f","rechts","21","","fixation","","","",""
"1057","img/150_120.png","74","image-keyboard-response","183","186653","0.0-6.0-1.88","VASC","1","f","rechts","21","","","self","f","150","false"
"null","<div style=""font-size:60px;"">+</div>","null","html-keyboard-response","184","187036","0.0-6.0-0.89","VASC","1","f","rechts","21","","fixation","","","",""
"1347","img/150_180.png","74","image-keyboard-response","185","188397","0.0-6.0-1.89","VASC","1","f","rechts","21","","","self","j","150","true"
"null","<div style=""font-size:60px;"">+</div>","null","html-keyboard-response","186","188729","0.0-6.0-0.90","VASC","1","f","rechts","21","","fixation","","","",""
"1340","img/30_120.png","74","image-keyboard-response","187","190072","0.0-6.0-1.90","VASC","1","f","rechts","21","","","self","j","30","true"
"null","<div style=""font-size:60px;"">+</div>","null","html-keyboard-response","188","190387","0.0-6.0-0.91","VASC","1","f","rechts","21","","fixation","","","",""
"979","img/30_90.png","74","image-keyboard-response","189","191379","0.0-6.0-1.91","VASC","1","f","rechts","21","","","self","j","30","true"
"null","<div style=""font-size:60px;"">+</div>","null","html-keyboard-response","190","191692","0.0-6.0-0.92","VASC","1","f","rechts","21","","fixation","","","",""
"1030","img/90_150.png","70","image-keyboard-response","191","192727","0.0-6.0-1.92","VASC","1","f","rechts","21","","","self","f","90","true"
"null","<div style=""font-size:60px;"">+</div>","null","html-keyboard-response","192","193098","0.0-6.0-0.93","VASC","1","f","rechts","21","","fixation","","","",""
"1247","img/90_240.png","74","image-keyboard-response","193","194360","0.0-6.0-1.93","VASC","1","f","rechts","21","","","self","j","90","true"
"null","<div style=""font-size:60px;"">+</div>","null","html-keyboard-response","194","194818","0.0-6.0-0.94","VASC","1","f","rechts","21","","fixation","","","",""
"1001","img/L150_180.png","70","image-keyboard-response","195","195831","0.0-6.0-1.94","VASC","1","f","rechts","21","","","self","f","150","true"
"null","<div style=""font-size:60px;"">+</div>","null","html-keyboard-response","196","196239","0.0-6.0-0.95","VASC","1","f","rechts","21","","fixation","","","",""
"1121","img/0_120.png","74","image-keyboard-response","197","197375","0.0-6.0-1.95","VASC","1","f","rechts","21","","","self","j","0","true"
"null","<div style=""font-size:60px;"">+</div>","null","html-keyboard-response","198","197833","0.0-6.0-0.96","VASC","1","f","rechts","21","","fixation","","","",""
"1136","img/90_180.png","74","image-keyboard-response","199","198982","0.0-6.0-1.96","VASC","1","f","rechts","21","","","self","j","90","true"
"null","<div style=""font-size:60px;"">+</div>","null","html-keyboard-response","200","199365","0.0-6.0-0.97","VASC","1","f","rechts","21","","fixation","","","",""
"730","img/0_90.png","74","image-keyboard-response","201","200108","0.0-6.0-1.97","VASC","1","f","rechts","21","","","self","j","0","true"
"null","<div style=""font-size:60px;"">+</div>","null","html-keyboard-response","202","200569","0.0-6.0-0.98","VASC","1","f","rechts","21","","fixation","","","",""
"1676","img/60_150.png","70","image-keyboard-response","203","202257","0.0-6.0-1.98","VASC","1","f","rechts","21","","","self","f","60","true"
"null","<div style=""font-size:60px;"">+</div>","null","html-keyboard-response","204","202615","0.0-6.0-0.99","VASC","1","f","rechts","21","","fixation","","","",""
"1135","img/L30_180.png","70","image-keyboard-response","205","203763","0.0-6.0-1.99","VASC","1","f","rechts","21","","","self","f","30","true"
"null","<div style=""font-size:60px;"">+</div>","null","html-keyboard-response","206","204193","0.0-6.0-0.100","VASC","1","f","rechts","21","","fixation","","","",""
"1225","img/30_270.png","70","image-keyboard-response","207","205430","0.0-6.0-1.100","VASC","1","f","rechts","21","","","self","f","30","true"
"null","<div style=""font-size:60px;"">+</div>","null","html-keyboard-response","208","205801","0.0-6.0-0.101","VASC","1","f","rechts","21","","fixation","","","",""
"698","img/0_60.png","74","image-keyboard-response","209","206509","0.0-6.0-1.101","VASC","1","f","rechts","21","","","self","j","0","true"
"null","<div style=""font-size:60px;"">+</div>","null","html-keyboard-response","210","206820","0.0-6.0-0.102","VASC","1","f","rechts","21","","fixation","","","",""
"1205","img/90_300.png","70","image-keyboard-response","211","208038","0.0-6.0-1.102","VASC","1","f","rechts","21","","","self","f","90","true"
"null","<div style=""font-size:60px;"">+</div>","null","html-keyboard-response","212","208350","0.0-6.0-0.103","VASC","1","f","rechts","21","","fixation","","","",""
"1172","img/30_300.png","70","image-keyboard-response","213","209536","0.0-6.0-1.103","VASC","1","f","rechts","21","","","self","f","30","true"
"null","<div style=""font-size:60px;"">+</div>","null","html-keyboard-response","214","209898","0.0-6.0-0.104","VASC","1","f","rechts","21","","fixation","","","",""
"2080","img/L60_180.png","70","image-keyboard-response","215","211988","0.0-6.0-1.104","VASC","1","f","rechts","21","","","self","f","60","true"
"null","<div style=""font-size:60px;"">+</div>","null","html-keyboard-response","216","212507","0.0-6.0-0.105","VASC","1","f","rechts","21","","fixation","","","",""
"628","img/0_330.png","70","image-keyboard-response","217","213145","0.0-6.0-1.105","VASC","1","f","rechts","21","","","self","f","0","true"
"null","<div style=""font-size:60px;"">+</div>","null","html-keyboard-response","218","213653","0.0-6.0-0.106","VASC","1","f","rechts","21","","fixation","","","",""
"763","img/0_30.png","74","image-keyboard-response","219","214429","0.0-6.0-1.106","VASC","1","f","rechts","21","","","self","j","0","true"
"null","<div style=""font-size:60px;"">+</div>","null","html-keyboard-response","220","214731","0.0-6.0-0.107","VASC","1","f","rechts","21","","fixation","","","",""
"1146","img/30_120.png","74","image-keyboard-response","221","215881","0.0-6.0-1.107","VASC","1","f","rechts","21","","","self","j","30","true"
"null","<div style=""font-size:60px;"">+</div>","null","html-keyboard-response","222","216343","0.0-6.0-0.108","VASC","1","f","rechts","21","","fixation","","","",""
"1075","img/150_240.png","74","image-keyboard-response","223","217432","0.0-6.0-1.108","VASC","1","f","rechts","21","","","self","j","150","true"
"null","<div style=""font-size:60px;"">+</div>","null","html-keyboard-response","224","217900","0.0-6.0-0.109","VASC","1","f","rechts","21","","fixation","","","",""
"1244","img/30_300.png","70","image-keyboard-response","225","219154","0.0-6.0-1.109","VASC","1","f","rechts","21","","","self","f","30","true"
"null","<div style=""font-size:60px;"">+</div>","null","html-keyboard-response","226","219508","0.0-6.0-0.110","VASC","1","f","rechts","21","","fixation","","","",""
"1055","img/150_270.png","74","image-keyboard-response","227","220574","0.0-6.0-1.110","VASC","1","f","rechts","21","","","self","j","150","true"
"null","<div style=""font-size:60px;"">+</div>","null","html-keyboard-response","228","220977","0.0-6.0-0.111","VASC","1","f","rechts","21","","fixation","","","",""
"765","img/150_180.png","74","image-keyboard-response","229","221751","0.0-6.0-1.111","VASC","1","f","rechts","21","","","self","j","150","true"
"null","<div style=""font-size:60px;"">+</div>","null","html-keyboard-response","230","222211","0.0-6.0-0.112","VASC","1","f","rechts","21","","fixation","","","",""
"1083","img/L120_180.png","70","image-keyboard-response","231","223306","0.0-6.0-1.112","VASC","1","f","rechts","21","","","self","f","120","true"
"null","<div style=""font-size:60px;"">+</div>","null","html-keyboard-response","232","223612","0.0-6.0-0.113","VASC","1","f","rechts","21","","fixation","","","",""
"1264","img/120_330.png","70","image-keyboard-response","233","224892","0.0-6.0-1.113","VASC","1","f","rechts","21","","","self","f","120","true"
"null","<div style=""font-size:60px;"">+</div>","null","html-keyboard-response","234","225222","0.0-6.0-0.114","VASC","1","f","rechts","21","","fixation","","","",""
"1135","img/90_120.png","70","image-keyboard-response","235","226366","0.0-6.0-1.114","VASC","1","f","rechts","21","","","self","f","90","true"
"null","<div style=""font-size:60px;"">+</div>","null","html-keyboard-response","236","226790","0.0-6.0-0.115","VASC","1","f","rechts","21","","fixation","","","",""
"922","img/0_210.png","70","image-keyboard-response","237","227717","0.0-6.0-1.115","VASC","1","f","rechts","21","","","self","f","0","true"
"null","<div style=""font-size:60px;"">+</div>","null","html-keyboard-response","238","228135","0.0-6.0-0.116","VASC","1","f","rechts","21","","fixation","","","",""
"977","img/60_210.png","74","image-keyboard-response","239","229123","0.0-6.0-1.116","VASC","1","f","rechts","21","","","self","j","60","true"
"null","<div style=""font-size:60px;"">+</div>","null","html-keyboard-response","240","229540","0.0-6.0-0.117","VASC","1","f","rechts","21","","fixation","","","",""
"693","img/120_210.png","74","image-keyboard-response","241","230247","0.0-6.0-1.117","VASC","1","f","rechts","21","","","self","j","120","true"
"null","<div style=""font-size:60px;"">+</div>","null","html-keyboard-response","242","230564","0.0-6.0-0.118","VASC","1","f","rechts","21","","fixation","","","",""
"1244","img/150_90.png","70","image-keyboard-response","243","231821","0.0-6.0-1.118","VASC","1","f","rechts","21","","","self","f","150","true"
"null","<div style=""font-size:60px;"">+</div>","null","html-keyboard-response","244","232323","0.0-6.0-0.119","VASC","1","f","rechts","21","","fixation","","","",""
"849","img/0_150.png","74","image-keyboard-response","245","233184","0.0-6.0-1.119","VASC","1","f","rechts","21","","","self","j","0","true"
"null","<div style=""font-size:60px;"">+</div>","null","html-keyboard-response","246","233650","0.0-6.0-0.120","VASC","1","f","rechts","21","","fixation","","","",""
"904","img/120_150.png","70","image-keyboard-response","247","234567","0.0-6.0-1.120","VASC","1","f","rechts","21","","","self","f","120","true"
"null","<div style=""font-size:60px;"">+</div>","null","html-keyboard-response","248","234885","0.0-6.0-0.121","VASC","1","f","rechts","21","","fixation","","","",""
"1211","img/30_270.png","70","image-keyboard-response","249","236107","0.0-6.0-1.121","VASC","1","f","rechts","21","","","self","f","30","true"
"null","<div style=""font-size:60px;"">+</div>","null","html-keyboard-response","250","236635","0.0-6.0-0.122","VASC","1","f","rechts","21","","fixation","","","",""
"645","img/0_300.png","70","image-keyboard-response","251","237290","0.0-6.0-1.122","VASC","1","f","rechts","21","","","self","f","0","true"
"null","<div style=""font-size:60px;"">+</div>","null","html-keyboard-response","252","237618","0.0-6.0-0.123","VASC","1","f","rechts","21","","fixation","","","",""
"628","img/0_240.png","70","image-keyboard-response","253","238257","0.0-6.0-1.123","VASC","1","f","rechts","21","","","self","f","0","true"
"null","<div style=""font-size:60px;"">+</div>","null","html-keyboard-response","254","238634","0.0-6.0-0.124","VASC","1","f","rechts","21","","fixation","","","",""
"1054","img/L150_180.png","70","image-keyboard-response","255","239698","0.0-6.0-1.124","VASC","1","f","rechts","21","","","self","f","150","true"
"null","<div style=""font-size:60px;"">+</div>","null","html-keyboard-response","256","240166","0.0-6.0-0.125","VASC","1","f","rechts","21","","fixation","","","",""
"958","img/90_210.png","74","image-keyboard-response","257","241137","0.0-6.0-1.125","VASC","1","f","rechts","21","","","self","j","90","true"
"null","<div style=""font-size:60px;"">+</div>","null","html-keyboard-response","258","241542","0.0-6.0-0.126","VASC","1","f","rechts","21","","fixation","","","",""
"1191","img/90_330.png","70","image-keyboard-response","259","242746","0.0-6.0-1.126","VASC","1","f","rechts","21","","","self","f","90","true"
"null","<div style=""font-size:60px;"">+</div>","null","html-keyboard-response","260","243198","0.0-6.0-0.127","VASC","1","f","rechts","21","","fixation","","","",""
"1222","img/30_180.png","74","image-keyboard-response","261","244433","0.0-6.0-1.127","VASC","1","f","rechts","21","","","self","j","30","true"
"null","<div style=""font-size:60px;"">+</div>","null","html-keyboard-response","262","244794","0.0-6.0-0.128","VASC","1","f","rechts","21","","fixation","","","",""
"951","img/L30_180.png","70","image-keyboard-response","263","245750","0.0-6.0-1.128","VASC","1","f","rechts","21","","","self","f","30","true"
"null","<div style=""font-size:60px;"">+</div>","null","html-keyboard-response","264","246155","0.0-6.0-0.129","VASC","1","f","rechts","21","","fixation","","","",""
"1532","img/90_60.png","74","image-keyboard-response","265","247696","0.0-6.0-1.129","VASC","1","f","rechts","21","","","self","j","90","true"
"null","<div style=""font-size:60px;"">+</div>","null","html-keyboard-response","266","248011","0.0-6.0-0.130","VASC","1","f","rechts","21","","fixation","","","",""
"1228","img/90_240.png","74","image-keyboard-response","267","249251","0.0-6.0-1.130","VASC","1","f","rechts","21","","","self","j","90","true"
"null","<div style=""font-size:60px;"">+</div>","null","html-keyboard-response","268","249562","0.0-6.0-0.131","VASC","1","f","rechts","21","","fixation","","","",""
"1061","img/L90_180.png","70","image-keyboard-response","269","250634","0.0-6.0-1.131","VASC","1","f","rechts","21","","","self","f","90","true"
"null","<div style=""font-size:60px;"">+</div>","null","html-keyboard-response","270","250989","0.0-6.0-0.132","VASC","1","f","rechts","21","","fixation","","","",""
"1284","img/60_270.png","70","image-keyboard-response","271","252286","0.0-6.0-1.132","VASC","1","f","rechts","21","","","self","f","60","true"
"null","<div style=""font-size:60px;"">+</div>","null","html-keyboard-response","272","252801","0.0-6.0-0.133","VASC","1","f","rechts","21","","fixation","","","",""
"1415","img/60_30.png","74","image-keyboard-response","273","254222","0.0-6.0-1.133","VASC","1","f","rechts","21","","","self","j","60","true"
"null","<div style=""font-size:60px;"">+</div>","null","html-keyboard-response","274","254645","0.0-6.0-0.134","VASC","1","f","rechts","21","","fixation","","","",""
"1265","img/150_120.png","70","image-keyboard-response","275","255920","0.0-6.0-1.134","VASC","1","f","rechts","21","","","self","f","150","true"
"null","<div style=""font-size:60px;"">+</div>","null","html-keyboard-response","276","256427","0.0-6.0-0.135","VASC","1","f","rechts","21","","fixation","","","",""
"842","img/0_60.png","74","image-keyboard-response","277","257279","0.0-6.0-1.135","VASC","1","f","rechts","21","","","self","j","0","true"
"null","<div style=""font-size:60px;"">+</div>","null","html-keyboard-response","278","257802","0.0-6.0-0.136","VASC","1","f","rechts","21","","fixation","","","",""
"2629","img/30_90.png","74","image-keyboard-response","279","260435","0.0-6.0-1.136","VASC","1","f","rechts","21","","","self","j","30","true"
"null","<div style=""font-size:60px;"">+</div>","null","html-keyboard-response","280","260838","0.0-6.0-0.137","VASC","1","f","rechts","21","","fixation","","","",""
"2090","img/90_300.png","70","image-keyboard-response","281","262931","0.0-6.0-1.137","VASC","1","f","rechts","21","","","self","f","90","true"
"null","<div style=""font-size:60px;"">+</div>","null","html-keyboard-response","282","263335","0.0-6.0-0.138","VASC","1","f","rechts","21","","fixation","","","",""
"900","img/0_120.png","74","image-keyboard-response","283","264245","0.0-6.0-1.138","VASC","1","f","rechts","21","","","self","j","0","true"
"null","<div style=""font-size:60px;"">+</div>","null","html-keyboard-response","284","264599","0.0-6.0-0.139","VASC","1","f","rechts","21","","fixation","","","",""
"1251","img/90_30.png","74","image-keyboard-response","285","265863","0.0-6.0-1.139","VASC","1","f","rechts","21","","","self","j","90","true"
"null","<div style=""font-size:60px;"">+</div>","null","html-keyboard-response","286","266381","0.0-6.0-0.140","VASC","1","f","rechts","21","","fixation","","","",""
"1282","img/60_330.png","70","image-keyboard-response","287","267676","0.0-6.0-1.140","VASC","1","f","rechts","21","","","self","f","60","true"
"null","<div style=""font-size:60px;"">+</div>","null","html-keyboard-response","288","267979","0.0-6.0-0.141","VASC","1","f","rechts","21","","fixation","","","",""
"2237","img/60_180.png","74","image-keyboard-response","289","270230","0.0-6.0-1.141","VASC","1","f","rechts","21","","","self","j","60","true"
"null","<div style=""font-size:60px;"">+</div>","null","html-keyboard-response","290","270589","0.0-6.0-0.142","VASC","1","f","rechts","21","","fixation","","","",""
"1607","img/30_60.png","74","image-keyboard-response","291","272209","0.0-6.0-1.142","VASC","1","f","rechts","21","","","self","j","30","true"
"null","<div style=""font-size:60px;"">+</div>","null","html-keyboard-response","292","272714","0.0-6.0-0.143","VASC","1","f","rechts","21","","fixation","","","",""
"1114","img/60_90.png","74","image-keyboard-response","293","273842","0.0-6.0-1.143","VASC","1","f","rechts","21","","","self","j","60","true"
"null","<div style=""font-size:60px;"">+</div>","null","html-keyboard-response","294","274254","0.0-6.0-0.144","VASC","1","f","rechts","21","","fixation","","","",""
"1475","img/120_180.png","74","image-keyboard-response","295","275743","0.0-6.0-1.144","VASC","1","f","rechts","21","","","self","j","120","true"
"null","<div style=""font-size:60px;"">+</div>","null","html-keyboard-response","296","276096","0.0-6.0-0.145","VASC","1","f","rechts","21","","fixation","","","",""
"1217","img/30_240.png","70","image-keyboard-response","297","277327","0.0-6.0-1.145","VASC","1","f","rechts","21","","","self","f","30","true"
"null","<div style=""font-size:60px;"">+</div>","null","html-keyboard-response","298","277808","0.0-6.0-0.146","VASC","1","f","rechts","21","","fixation","","","",""
"1701","img/150_60.png","70","image-keyboard-response","299","279523","0.0-6.0-1.146","VASC","1","f","rechts","21","","","self","f","150","true"
"null","<div style=""font-size:60px;"">+</div>","null","html-keyboard-response","300","279891","0.0-6.0-0.147","VASC","1","f","rechts","21","","fixation","","","",""
"2456","img/120_30.png","74","image-keyboard-response","301","282352","0.0-6.0-1.147","VASC","1","f","rechts","21","","","self","j","120","true"
"null","<div style=""font-size:60px;"">+</div>","null","html-keyboard-response","302","282877","0.0-6.0-0.148","VASC","1","f","rechts","21","","fixation","","","",""
"1375","img/120_270.png","74","image-keyboard-response","303","284258","0.0-6.0-1.148","VASC","1","f","rechts","21","","","self","j","120","true"
"null","<div style=""font-size:60px;"">+</div>","null","html-keyboard-response","304","284677","0.0-6.0-0.149","VASC","1","f","rechts","21","","fixation","","","",""
"1798","img/120_90.png","70","image-keyboard-response","305","286488","0.0-6.0-1.149","VASC","1","f","rechts","21","","","self","f","120","true"
"null","<div style=""font-size:60px;"">+</div>","null","html-keyboard-response","306","286913","0.0-6.0-0.150","VASC","1","f","rechts","21","","fixation","","","",""
"1029","img/0_270.png","70","image-keyboard-response","307","287947","0.0-6.0-1.150","VASC","1","f","rechts","21","","","self","f","0","true"
"null","<div style=""font-size:60px;"">+</div>","null","html-keyboard-response","308","288258","0.0-6.0-0.151","VASC","1","f","rechts","21","","fixation","","","",""
"1185","img/90_150.png","70","image-keyboard-response","309","289457","0.0-6.0-1.151","VASC","1","f","rechts","21","","","self","f","90","true"
"null","<div style=""font-size:60px;"">+</div>","null","html-keyboard-response","310","289771","0.0-6.0-0.152","VASC","1","f","rechts","21","","fixation","","","",""
"919","img/90_180.png","74","image-keyboard-response","311","290705","0.0-6.0-1.152","VASC","1","f","rechts","21","","","self","j","90","true"
"null","<div style=""font-size:60px;"">+</div>","null","html-keyboard-response","312","291021","0.0-6.0-0.153","VASC","1","f","rechts","21","","fixation","","","",""
"1877","img/60_150.png","70","image-keyboard-response","313","292910","0.0-6.0-1.153","VASC","1","f","rechts","21","","","self","f","60","true"
"null","<div style=""font-size:60px;"">+</div>","null","html-keyboard-response","314","293380","0.0-6.0-0.154","VASC","1","f","rechts","21","","fixation","","","",""
"1374","img/150_300.png","74","image-keyboard-response","315","294766","0.0-6.0-1.154","VASC","1","f","rechts","21","","","self","j","150","true"
"null","<div style=""font-size:60px;"">+</div>","null","html-keyboard-response","316","295083","0.0-6.0-0.155","VASC","1","f","rechts","21","","fixation","","","",""
"1123","img/0_90.png","74","image-keyboard-response","317","296218","0.0-6.0-1.155","VASC","1","f","rechts","21","","","self","j","0","true"
"null","<div style=""font-size:60px;"">+</div>","null","html-keyboard-response","318","296696","0.0-6.0-0.156","VASC","1","f","rechts","21","","fixation","","","",""
"1162","img/150_180.png","74","image-keyboard-response","319","297872","0.0-6.0-1.156","VASC","1","f","rechts","21","","","self","j","150","true"
"null","<div style=""font-size:60px;"">+</div>","null","html-keyboard-response","320","298196","0.0-6.0-0.157","VASC","1","f","rechts","21","","fixation","","","",""
"938","img/120_150.png","70","image-keyboard-response","321","299144","0.0-6.0-1.157","VASC","1","f","rechts","21","","","self","f","120","true"
"null","<div style=""font-size:60px;"">+</div>","null","html-keyboard-response","322","299524","0.0-6.0-0.158","VASC","1","f","rechts","21","","fixation","","","",""
"734","img/L90_180.png","70","image-keyboard-response","323","300268","0.0-6.0-1.158","VASC","1","f","rechts","21","","","self","f","90","true"
"null","<div style=""font-size:60px;"">+</div>","null","html-keyboard-response","324","300695","0.0-6.0-0.159","VASC","1","f","rechts","21","","fixation","","","",""
"1368","img/30_300.png","70","image-keyboard-response","325","302080","0.0-6.0-1.159","VASC","1","f","rechts","21","","","self","f","30","true"
"null","<div style=""font-size:60px;"">+</div>","null","html-keyboard-response","326","302542","0.0-6.0-0.160","VASC","1","f","rechts","21","","fixation","","","",""
"1239","img/150_60.png","70","image-keyboard-response","327","303789","0.0-6.0-1.160","VASC","1","f","rechts","21","","","self","f","150","true"
"null","<div style=""font-size:60px;"">+</div>","null","html-keyboard-response","328","304307","0.0-6.0-0.161","VASC","1","f","rechts","21","","fixation","","","",""
"1301","img/90_300.png","70","image-keyboard-response","329","305622","0.0-6.0-1.161","VASC","1","f","rechts","21","","","self","f","90","true"
"null","<div style=""font-size:60px;"">+</div>","null","html-keyboard-response","330","306055","0.0-6.0-0.162","VASC","1","f","rechts","21","","fixation","","","",""
"1422","img/30_270.png","70","image-keyboard-response","331","307490","0.0-6.0-1.162","VASC","1","f","rechts","21","","","self","f","30","true"
"null","<div style=""font-size:60px;"">+</div>","null","html-keyboard-response","332","307918","0.0-6.0-0.163","VASC","1","f","rechts","21","","fixation","","","",""
"768","img/0_30.png","74","image-keyboard-response","333","308695","0.0-6.0-1.163","VASC","1","f","rechts","21","","","self","j","0","true"
"null","<div style=""font-size:60px;"">+</div>","null","html-keyboard-response","334","309152","0.0-6.0-0.164","VASC","1","f","rechts","21","","fixation","","","",""
"1198","img/150_270.png","74","image-keyboard-response","335","310369","0.0-6.0-1.164","VASC","1","f","rechts","21","","","self","j","150","true"
"null","<div style=""font-size:60px;"">+</div>","null","html-keyboard-response","336","310750","0.0-6.0-0.165","VASC","1","f","rechts","21","","fixation","","","",""
"1647","img/30_90.png","74","image-keyboard-response","337","312407","0.0-6.0-1.165","VASC","1","f","rechts","21","","","self","j","30","true"
"null","<div style=""font-size:60px;"">+</div>","null","html-keyboard-response","338","312761","0.0-6.0-0.166","VASC","1","f","rechts","21","","fixation","","","",""
"1737","img/150_240.png","74","image-keyboard-response","339","314512","0.0-6.0-1.166","VASC","1","f","rechts","21","","","self","j","150","true"
"null","<div style=""font-size:60px;"">+</div>","null","html-keyboard-response","340","314973","0.0-6.0-0.167","VASC","1","f","rechts","21","","fixation","","","",""
"1423","img/90_330.png","70","image-keyboard-response","341","316400","0.0-6.0-1.167","VASC","1","f","rechts","21","","","self","f","90","true"
"null","<div style=""font-size:60px;"">+</div>","null","html-keyboard-response","342","316709","0.0-6.0-0.168","VASC","1","f","rechts","21","","fixation","","","",""
"748","img/0_210.png","70","image-keyboard-response","343","317470","0.0-6.0-1.168","VASC","1","f","rechts","21","","","self","f","0","true"
"null","<div style=""font-size:60px;"">+</div>","null","html-keyboard-response","344","317989","0.0-6.0-0.169","VASC","1","f","rechts","21","","fixation","","","",""
"1409","img/30_180.png","74","image-keyboard-response","345","319403","0.0-6.0-1.169","VASC","1","f","rechts","21","","","self","j","30","true"
"null","<div style=""font-size:60px;"">+</div>","null","html-keyboard-response","346","319708","0.0-6.0-0.170","VASC","1","f","rechts","21","","fixation","","","",""
"1417","img/120_90.png","70","image-keyboard-response","347","321136","0.0-6.0-1.170","VASC","1","f","rechts","21","","","self","f","120","true"
"null","<div style=""font-size:60px;"">+</div>","null","html-keyboard-response","348","321505","0.0-6.0-0.171","VASC","1","f","rechts","21","","fixation","","","",""
"1557","img/60_180.png","74","image-keyboard-response","349","323073","0.0-6.0-1.171","VASC","1","f","rechts","21","","","self","j","60","true"
"null","<div style=""font-size:60px;"">+</div>","null","html-keyboard-response","350","323438","0.0-6.0-0.172","VASC","1","f","rechts","21","","fixation","","","",""
"861","img/120_180.png","74","image-keyboard-response","351","324310","0.0-6.0-1.172","VASC","1","f","rechts","21","","","self","j","120","true"
"null","<div style=""font-size:60px;"">+</div>","null","html-keyboard-response","352","324815","0.0-6.0-0.173","VASC","1","f","rechts","21","","fixation","","","",""
"790","img/90_210.png","74","image-keyboard-response","353","325616","0.0-6.0-1.173","VASC","1","f","rechts","21","","","self","j","90","true"
"null","<div style=""font-size:60px;"">+</div>","null","html-keyboard-response","354","326127","0.0-6.0-0.174","VASC","1","f","rechts","21","","fixation","","","",""
"1019","img/90_150.png","70","image-keyboard-response","355","327156","0.0-6.0-1.174","VASC","1","f","rechts","21","","","self","f","90","true"
"null","<div style=""font-size:60px;"">+</div>","null","html-keyboard-response","356","327586","0.0-6.0-0.175","VASC","1","f","rechts","21","","fixation","","","",""
"1561","img/30_60.png","74","image-keyboard-response","357","329157","0.0-6.0-1.175","VASC","1","f","rechts","21","","","self","j","30","true"
"null","<div style=""font-size:60px;"">+</div>","null","html-keyboard-response","358","329569","0.0-6.0-0.176","VASC","1","f","rechts","21","","fixation","","","",""
"1297","img/L60_180.png","70","image-keyboard-response","359","330879","0.0-6.0-1.176","VASC","1","f","rechts","21","","","self","f","60","true"
"null","<div style=""font-size:60px;"">+</div>","null","html-keyboard-response","360","331195","0.0-6.0-0.177","VASC","1","f","rechts","21","","fixation","","","",""
"1060","img/60_150.png","70","image-keyboard-response","361","332264","0.0-6.0-1.177","VASC","1","f","rechts","21","","","self","f","60","true"
"null","<div style=""font-size:60px;"">+</div>","null","html-keyboard-response","362","332774","0.0-6.0-0.178","VASC","1","f","rechts","21","","fixation","","","",""
"1697","img/120_30.png","74","image-keyboard-response","363","334481","0.0-6.0-1.178","VASC","1","f","rechts","21","","","self","j","120","true"
"null","<div style=""font-size:60px;"">+</div>","null","html-keyboard-response","364","334992","0.0-6.0-0.179","VASC","1","f","rechts","21","","fixation","","","",""
"1278","img/90_120.png","70","image-keyboard-response","365","336279","0.0-6.0-1.179","VASC","1","f","rechts","21","","","self","f","90","true"
"null","<div style=""font-size:60px;"">+</div>","null","html-keyboard-response","366","336651","0.0-6.0-0.180","VASC","1","f","rechts","21","","fixation","","","",""
"1352","img/120_270.png","74","image-keyboard-response","367","338012","0.0-6.0-1.180","VASC","1","f","rechts","21","","","self","j","120","true"
"null","<div style=""font-size:60px;"">+</div>","null","html-keyboard-response","368","338468","0.0-6.0-0.181","VASC","1","f","rechts","21","","fixation","","","",""
"1558","img/60_270.png","70","image-keyboard-response","369","340036","0.0-6.0-1.181","VASC","1","f","rechts","21","","","self","f","60","true"
"null","<div style=""font-size:60px;"">+</div>","null","html-keyboard-response","370","340498","0.0-6.0-0.182","VASC","1","f","rechts","21","","fixation","","","",""
"1247","img/90_60.png","74","image-keyboard-response","371","341759","0.0-6.0-1.182","VASC","1","f","rechts","21","","","self","j","90","true"
"null","<div style=""font-size:60px;"">+</div>","null","html-keyboard-response","372","342213","0.0-6.0-0.183","VASC","1","f","rechts","21","","fixation","","","",""
"702","img/0_150.png","74","image-keyboard-response","373","342929","0.0-6.0-1.183","VASC","1","f","rechts","21","","","self","j","0","true"
"null","<div style=""font-size:60px;"">+</div>","null","html-keyboard-response","374","343447","0.0-6.0-0.184","VASC","1","f","rechts","21","","fixation","","","",""
"900","img/0_90.png","74","image-keyboard-response","375","344357","0.0-6.0-1.184","VASC","1","f","rechts","21","","","self","j","0","true"
"null","<div style=""font-size:60px;"">+</div>","null","html-keyboard-response","376","344870","0.0-6.0-0.185","VASC","1","f","rechts","21","","fixation","","","",""
"1702","img/120_330.png","70","image-keyboard-response","377","346585","0.0-6.0-1.185","VASC","1","f","rechts","21","","","self","f","120","true"
"null","<div style=""font-size:60px;"">+</div>","null","html-keyboard-response","378","346964","0.0-6.0-0.186","VASC","1","f","rechts","21","","fixation","","","",""
"698","img/0_240.png","70","image-keyboard-response","379","347676","0.0-6.0-1.186","VASC","1","f","rechts","21","","","self","f","0","true"
"null","<div style=""font-size:60px;"">+</div>","null","html-keyboard-response","380","347990","0.0-6.0-0.187","VASC","1","f","rechts","21","","fixation","","","",""
"1296","img/90_180.png","74","image-keyboard-response","381","349297","0.0-6.0-1.187","VASC","1","f","rechts","21","","","self","j","90","true"
"null","<div style=""font-size:60px;"">+</div>","null","html-keyboard-response","382","349661","0.0-6.0-0.188","VASC","1","f","rechts","21","","fixation","","","",""
"769","img/0_330.png","70","image-keyboard-response","383","350444","0.0-6.0-1.188","VASC","1","f","rechts","21","","","self","f","0","true"
"null","<div style=""font-size:60px;"">+</div>","null","html-keyboard-response","384","350973","0.0-6.0-0.189","VASC","1","f","rechts","21","","fixation","","","",""
"2232","img/60_90.png","74","image-keyboard-response","385","353216","0.0-6.0-1.189","VASC","1","f","rechts","21","","","self","j","60","true"
"null","<div style=""font-size:60px;"">+</div>","null","html-keyboard-response","386","353744","0.0-6.0-0.190","VASC","1","f","rechts","21","","fixation","","","",""
"1592","img/L120_180.png","70","image-keyboard-response","387","355349","0.0-6.0-1.190","VASC","1","f","rechts","21","","","self","f","120","true"
"null","<div style=""font-size:60px;"">+</div>","null","html-keyboard-response","388","355760","0.0-6.0-0.191","VASC","1","f","rechts","21","","fixation","","","",""
"1747","img/60_330.png","70","image-keyboard-response","389","357520","0.0-6.0-1.191","VASC","1","f","rechts","21","","","self","f","60","true"
"null","<div style=""font-size:60px;"">+</div>","null","html-keyboard-response","390","357933","0.0-6.0-0.192","VASC","1","f","rechts","21","","fixation","","","",""
"2967","img/150_300.png","70","image-keyboard-response","391","360910","0.0-6.0-1.192","VASC","1","f","rechts","21","","","self","j","150","false"
"null","<div style=""font-size:60px;"">+</div>","null","html-keyboard-response","392","361219","0.0-6.0-0.193","VASC","1","f","rechts","21","","fixation","","","",""
"1507","img/L30_180.png","70","image-keyboard-response","393","362740","0.0-6.0-1.193","VASC","1","f","rechts","21","","","self","f","30","true"
"null","<div style=""font-size:60px;"">+</div>","null","html-keyboard-response","394","363104","0.0-6.0-0.194","VASC","1","f","rechts","21","","fixation","","","",""
"2504","img/150_90.png","70","image-keyboard-response","395","365613","0.0-6.0-1.194","VASC","1","f","rechts","21","","","self","f","150","true"
"null","<div style=""font-size:60px;"">+</div>","null","html-keyboard-response","396","366046","0.0-6.0-0.195","VASC","1","f","rechts","21","","fixation","","","",""
"884","img/0_60.png","74","image-keyboard-response","397","366937","0.0-6.0-1.195","VASC","1","f","rechts","21","","","self","j","0","true"
"null","<div style=""font-size:60px;"">+</div>","null","html-keyboard-response","398","367398","0.0-6.0-0.196","VASC","1","f","rechts","21","","fixation","","","",""
"null","img/90_240.png","null","image-keyboard-response","399","370414","0.0-6.0-1.196","VASC","1","f","rechts","21","","","self","j","90","false"
"null","<div style=""font-size:60px;"">+</div>","null","html-keyboard-response","400","370820","0.0-6.0-0.197","VASC","1","f","rechts","21","","fixation","","","",""
"null","img/30_240.png","null","image-keyboard-response","401","373849","0.0-6.0-1.197","VASC","1","f","rechts","21","","","self","f","30","false"
"null","<div style=""font-size:60px;"">+</div>","null","html-keyboard-response","402","374364","0.0-6.0-0.198","VASC","1","f","rechts","21","","fixation","","","",""
"2138","img/90_30.png","70","image-keyboard-response","403","376515","0.0-6.0-1.198","VASC","1","f","rechts","21","","","self","j","90","false"
"null","<div style=""font-size:60px;"">+</div>","null","html-keyboard-response","404","376838","0.0-6.0-0.199","VASC","1","f","rechts","21","","fixation","","","",""
"1881","img/L150_180.png","70","image-keyboard-response","405","378733","0.0-6.0-1.199","VASC","1","f","rechts","21","","","self","f","150","true"
"null","<div style=""font-size:60px;"">+</div>","null","html-keyboard-response","406","379167","0.0-6.0-0.200","VASC","1","f","rechts","21","","fixation","","","",""
"708","img/0_270.png","70","image-keyboard-response","407","379886","0.0-6.0-1.200","VASC","1","f","rechts","21","","","self","f","0","true"
"null","<div style=""font-size:60px;"">+</div>","null","html-keyboard-response","408","380254","0.0-6.0-0.201","VASC","1","f","rechts","21","","fixation","","","",""
"720","img/0_120.png","74","image-keyboard-response","409","380988","0.0-6.0-1.201","VASC","1","f","rechts","21","","","self","j","0","true"
"null","<div style=""font-size:60px;"">+</div>","null","html-keyboard-response","410","381512","0.0-6.0-0.202","VASC","1","f","rechts","21","","fixation","","","",""
"1609","img/60_210.png","74","image-keyboard-response","411","383135","0.0-6.0-1.202","VASC","1","f","rechts","21","","","self","j","60","true"
"null","<div style=""font-size:60px;"">+</div>","null","html-keyboard-response","412","383541","0.0-6.0-0.203","VASC","1","f","rechts","21","","fixation","","","",""
"1224","img/150_120.png","70","image-keyboard-response","413","384779","0.0-6.0-1.203","VASC","1","f","rechts","21","","","self","f","150","true"
"null","<div style=""font-size:60px;"">+</div>","null","html-keyboard-response","414","385088","0.0-6.0-0.204","VASC","1","f","rechts","21","","fixation","","","",""
"1607","img/30_120.png","74","image-keyboard-response","415","386705","0.0-6.0-1.204","VASC","1","f","rechts","21","","","self","j","30","true"
"null","<div style=""font-size:60px;"">+</div>","null","html-keyboard-response","416","387213","0.0-6.0-0.205","VASC","1","f","rechts","21","","fixation","","","",""
"710","img/0_300.png","70","image-keyboard-response","417","387940","0.0-6.0-1.205","VASC","1","f","rechts","21","","","self","f","0","true"
"null","<div style=""font-size:60px;"">+</div>","null","html-keyboard-response","418","388323","0.0-6.0-0.206","VASC","1","f","rechts","21","","fixation","","","",""
"1392","img/120_210.png","74","image-keyboard-response","419","389729","0.0-6.0-1.206","VASC","1","f","rechts","21","","","self","j","120","true"
"null","<div style=""font-size:60px;"">+</div>","null","html-keyboard-response","420","390108","0.0-6.0-0.207","VASC","1","f","rechts","21","","fixation","","","",""
"1316","img/60_30.png","74","image-keyboard-response","421","391429","0.0-6.0-1.207","VASC","1","f","rechts","21","","","self","j","60","true"
"9505","<p>Du hast in 94% der Versuche korrekt entschieden.</p><p>Deine durchschnittliche Reaktionszeit war  1252ms.</p><p>Dr&uuml;cke eine beliebige Taste, um die Session zu beenden. Vielen Dank!</p>","32","html-keyboard-response","422","400940","0.0-7.0","VASC","1","f","rechts","21","","","","","",""
