"rt","stimulus","key_press","trial_type","trial_index","time_elapsed","internal_node_id","subject","session","sex","handedness","age","responses","test_part","condition","correct_response","angle","correct"
"1506","<p>Mental Rotation Experiment.</p> <p>Dr&uuml;cke eine beliebige Taste, um anzufangen.</p>","13","html-keyboard-response","0","1519","0.0-0.0","VASC","2","f","rechts","21","","","","","",""
"5631","","","survey-text","1","7154","0.0-1.0","VASC","2","f","rechts","21","{""Q0"":""VASC""}","","","","",""
"7088","","","survey-text","2","14244","0.0-2.0","VASC","2","f","rechts","21","{""Q0"":""2""}","","","","",""
"2933","","","survey-multi-choice","3","17181","0.0-3.0","VASC","2","f","rechts","21","{""Q0"":""f"",""Q1"":""rechts""}","","","","",""
"3260","","","survey-text","4","20442","0.0-4.0","VASC","2","f","rechts","21","{""Q0"":""21""}","","","","",""
"23150","<p> Stell dir vor, dass du vor einem runden Tisch stehst, auf dem sich ein blauer Ball am Tischrand befindet. Entlang des Tischrands ist jeweils ein verschieden langer Pfeil. Nun bewegst du dich entlang dieses Pfeils bis an seine Spitze. Wenn du am Ende des Pfeils angekommen bist, schau zur Tischmitte. </p> <img src='img/90_180.png'></img> <br> <p>Entscheide dann, ob der Ball von deiner neuen (vorgestellten) Position links oder rechts von dir liegt.</p> <p>Dr&uuml;cke die <strong>'f'</strong>-Taste f&uuml;r links, die <strong>'j'</strong>-Taste f&uuml;r rechts.</p> <br><p> Das Bild wird jeweils 1 Sekunde lang pr&auml;sentiert. Du hast 3 Sekunden Zeit eine Entscheidung zu treffen.</p>","13","html-keyboard-response","5","43601","0.0-5.0","VASC","2","f","rechts","21","","","","","",""
"null","<div style=""font-size:60px;"">+</div>","null","html-keyboard-response","6","44928","0.0-6.0-0.0","VASC","2","f","rechts","21","","fixation","","","",""
"1411","img/150_90.png","70","image-keyboard-response","7","46360","0.0-6.0-1.0","VASC","2","f","rechts","21","","","self","f","150","true"
"null","<div style=""font-size:60px;"">+</div>","null","html-keyboard-response","8","46672","0.0-6.0-0.1","VASC","2","f","rechts","21","","fixation","","","",""
"1326","img/120_30.png","74","image-keyboard-response","9","48019","0.0-6.0-1.1","VASC","2","f","rechts","21","","","self","j","120","true"
"null","<div style=""font-size:60px;"">+</div>","null","html-keyboard-response","10","48376","0.0-6.0-0.2","VASC","2","f","rechts","21","","fixation","","","",""
"1043","img/90_60.png","74","image-keyboard-response","11","49438","0.0-6.0-1.2","VASC","2","f","rechts","21","","","self","j","90","true"
"null","<div style=""font-size:60px;"">+</div>","null","html-keyboard-response","12","49859","0.0-6.0-0.3","VASC","2","f","rechts","21","","fixation","","","",""
"1170","img/30_60.png","74","image-keyboard-response","13","51047","0.0-6.0-1.3","VASC","2","f","rechts","21","","","self","j","30","true"
"null","<div style=""font-size:60px;"">+</div>","null","html-keyboard-response","14","51359","0.0-6.0-0.4","VASC","2","f","rechts","21","","fixation","","","",""
"1267","img/L60_180.png","70","image-keyboard-response","15","52645","0.0-6.0-1.4","VASC","2","f","rechts","21","","","self","f","60","true"
"null","<div style=""font-size:60px;"">+</div>","null","html-keyboard-response","16","52970","0.0-6.0-0.5","VASC","2","f","rechts","21","","fixation","","","",""
"959","img/60_150.png","70","image-keyboard-response","17","53948","0.0-6.0-1.5","VASC","2","f","rechts","21","","","self","f","60","true"
"null","<div style=""font-size:60px;"">+</div>","null","html-keyboard-response","18","54312","0.0-6.0-0.6","VASC","2","f","rechts","21","","fixation","","","",""
"1183","img/30_180.png","74","image-keyboard-response","19","55515","0.0-6.0-1.6","VASC","2","f","rechts","21","","","self","j","30","true"
"null","<div style=""font-size:60px;"">+</div>","null","html-keyboard-response","20","55826","0.0-6.0-0.7","VASC","2","f","rechts","21","","fixation","","","",""
"1128","img/90_120.png","70","image-keyboard-response","21","56973","0.0-6.0-1.7","VASC","2","f","rechts","21","","","self","f","90","true"
"null","<div style=""font-size:60px;"">+</div>","null","html-keyboard-response","22","57377","0.0-6.0-0.8","VASC","2","f","rechts","21","","fixation","","","",""
"940","img/120_210.png","74","image-keyboard-response","23","58337","0.0-6.0-1.8","VASC","2","f","rechts","21","","","self","j","120","true"
"null","<div style=""font-size:60px;"">+</div>","null","html-keyboard-response","24","58658","0.0-6.0-0.9","VASC","2","f","rechts","21","","fixation","","","",""
"1157","img/90_300.png","70","image-keyboard-response","25","59832","0.0-6.0-1.9","VASC","2","f","rechts","21","","","self","f","90","true"
"null","<div style=""font-size:60px;"">+</div>","null","html-keyboard-response","26","60188","0.0-6.0-0.10","VASC","2","f","rechts","21","","fixation","","","",""
"1672","img/120_90.png","70","image-keyboard-response","27","61880","0.0-6.0-1.10","VASC","2","f","rechts","21","","","self","f","120","true"
"null","<div style=""font-size:60px;"">+</div>","null","html-keyboard-response","28","62393","0.0-6.0-0.11","VASC","2","f","rechts","21","","fixation","","","",""
"1000","img/30_270.png","70","image-keyboard-response","29","63411","0.0-6.0-1.11","VASC","2","f","rechts","21","","","self","f","30","true"
"null","<div style=""font-size:60px;"">+</div>","null","html-keyboard-response","30","63926","0.0-6.0-0.12","VASC","2","f","rechts","21","","fixation","","","",""
"996","img/L120_180.png","70","image-keyboard-response","31","64940","0.0-6.0-1.12","VASC","2","f","rechts","21","","","self","f","120","true"
"null","<div style=""font-size:60px;"">+</div>","null","html-keyboard-response","32","65451","0.0-6.0-0.13","VASC","2","f","rechts","21","","fixation","","","",""
"1136","img/0_60.png","74","image-keyboard-response","33","66605","0.0-6.0-1.13","VASC","2","f","rechts","21","","","self","j","0","true"
"null","<div style=""font-size:60px;"">+</div>","null","html-keyboard-response","34","66919","0.0-6.0-0.14","VASC","2","f","rechts","21","","fixation","","","",""
"689","img/0_270.png","70","image-keyboard-response","35","67629","0.0-6.0-1.14","VASC","2","f","rechts","21","","","self","f","0","true"
"null","<div style=""font-size:60px;"">+</div>","null","html-keyboard-response","36","67936","0.0-6.0-0.15","VASC","2","f","rechts","21","","fixation","","","",""
"1179","img/90_240.png","74","image-keyboard-response","37","69135","0.0-6.0-1.15","VASC","2","f","rechts","21","","","self","j","90","true"
"null","<div style=""font-size:60px;"">+</div>","null","html-keyboard-response","38","69610","0.0-6.0-0.16","VASC","2","f","rechts","21","","fixation","","","",""
"1083","img/90_30.png","74","image-keyboard-response","39","70712","0.0-6.0-1.16","VASC","2","f","rechts","21","","","self","j","90","true"
"null","<div style=""font-size:60px;"">+</div>","null","html-keyboard-response","40","71078","0.0-6.0-0.17","VASC","2","f","rechts","21","","fixation","","","",""
"796","img/0_300.png","70","image-keyboard-response","41","71892","0.0-6.0-1.17","VASC","2","f","rechts","21","","","self","f","0","true"
"null","<div style=""font-size:60px;"">+</div>","null","html-keyboard-response","42","72265","0.0-6.0-0.18","VASC","2","f","rechts","21","","fixation","","","",""
"1187","img/150_120.png","70","image-keyboard-response","43","73456","0.0-6.0-1.18","VASC","2","f","rechts","21","","","self","f","150","true"
"null","<div style=""font-size:60px;"">+</div>","null","html-keyboard-response","44","73936","0.0-6.0-0.19","VASC","2","f","rechts","21","","fixation","","","",""
"887","img/90_150.png","70","image-keyboard-response","45","74840","0.0-6.0-1.19","VASC","2","f","rechts","21","","","self","f","90","true"
"null","<div style=""font-size:60px;"">+</div>","null","html-keyboard-response","46","75217","0.0-6.0-0.20","VASC","2","f","rechts","21","","fixation","","","",""
"1187","img/30_90.png","74","image-keyboard-response","47","76416","0.0-6.0-1.20","VASC","2","f","rechts","21","","","self","j","30","true"
"null","<div style=""font-size:60px;"">+</div>","null","html-keyboard-response","48","76921","0.0-6.0-0.21","VASC","2","f","rechts","21","","fixation","","","",""
"1019","img/90_210.png","74","image-keyboard-response","49","77957","0.0-6.0-1.21","VASC","2","f","rechts","21","","","self","j","90","true"
"null","<div style=""font-size:60px;"">+</div>","null","html-keyboard-response","50","78468","0.0-6.0-0.22","VASC","2","f","rechts","21","","fixation","","","",""
"1787","img/150_270.png","74","image-keyboard-response","51","80272","0.0-6.0-1.22","VASC","2","f","rechts","21","","","self","j","150","true"
"null","<div style=""font-size:60px;"">+</div>","null","html-keyboard-response","52","80732","0.0-6.0-0.23","VASC","2","f","rechts","21","","fixation","","","",""
"715","img/150_240.png","74","image-keyboard-response","53","81464","0.0-6.0-1.23","VASC","2","f","rechts","21","","","self","j","150","true"
"null","<div style=""font-size:60px;"">+</div>","null","html-keyboard-response","54","81984","0.0-6.0-0.24","VASC","2","f","rechts","21","","fixation","","","",""
"1027","img/60_30.png","74","image-keyboard-response","55","83031","0.0-6.0-1.24","VASC","2","f","rechts","21","","","self","j","60","true"
"null","<div style=""font-size:60px;"">+</div>","null","html-keyboard-response","56","83407","0.0-6.0-0.25","VASC","2","f","rechts","21","","fixation","","","",""
"1853","img/120_330.png","70","image-keyboard-response","57","85278","0.0-6.0-1.25","VASC","2","f","rechts","21","","","self","f","120","true"
"null","<div style=""font-size:60px;"">+</div>","null","html-keyboard-response","58","85689","0.0-6.0-0.26","VASC","2","f","rechts","21","","fixation","","","",""
"1586","img/L90_180.png","70","image-keyboard-response","59","87292","0.0-6.0-1.26","VASC","2","f","rechts","21","","","self","f","90","true"
"null","<div style=""font-size:60px;"">+</div>","null","html-keyboard-response","60","87667","0.0-6.0-0.27","VASC","2","f","rechts","21","","fixation","","","",""
"1836","img/150_300.png","74","image-keyboard-response","61","89523","0.0-6.0-1.27","VASC","2","f","rechts","21","","","self","j","150","true"
"null","<div style=""font-size:60px;"">+</div>","null","html-keyboard-response","62","89824","0.0-6.0-0.28","VASC","2","f","rechts","21","","fixation","","","",""
"1287","img/L30_180.png","70","image-keyboard-response","63","91130","0.0-6.0-1.28","VASC","2","f","rechts","21","","","self","f","30","true"
"null","<div style=""font-size:60px;"">+</div>","null","html-keyboard-response","64","91543","0.0-6.0-0.29","VASC","2","f","rechts","21","","fixation","","","",""
"908","img/0_30.png","74","image-keyboard-response","65","92469","0.0-6.0-1.29","VASC","2","f","rechts","21","","","self","j","0","true"
"null","<div style=""font-size:60px;"">+</div>","null","html-keyboard-response","66","92888","0.0-6.0-0.30","VASC","2","f","rechts","21","","fixation","","","",""
"1036","img/150_180.png","74","image-keyboard-response","67","93943","0.0-6.0-1.30","VASC","2","f","rechts","21","","","self","j","150","true"
"null","<div style=""font-size:60px;"">+</div>","null","html-keyboard-response","68","94417","0.0-6.0-0.31","VASC","2","f","rechts","21","","fixation","","","",""
"1152","img/60_270.png","70","image-keyboard-response","69","95588","0.0-6.0-1.31","VASC","2","f","rechts","21","","","self","f","60","true"
"null","<div style=""font-size:60px;"">+</div>","null","html-keyboard-response","70","95943","0.0-6.0-0.32","VASC","2","f","rechts","21","","fixation","","","",""
"884","img/90_330.png","70","image-keyboard-response","71","96845","0.0-6.0-1.32","VASC","2","f","rechts","21","","","self","f","90","true"
"null","<div style=""font-size:60px;"">+</div>","null","html-keyboard-response","72","97200","0.0-6.0-0.33","VASC","2","f","rechts","21","","fixation","","","",""
"745","img/0_330.png","70","image-keyboard-response","73","97971","0.0-6.0-1.33","VASC","2","f","rechts","21","","","self","f","0","true"
"null","<div style=""font-size:60px;"">+</div>","null","html-keyboard-response","74","98326","0.0-6.0-0.34","VASC","2","f","rechts","21","","fixation","","","",""
"897","img/0_90.png","74","image-keyboard-response","75","99230","0.0-6.0-1.34","VASC","2","f","rechts","21","","","self","j","0","true"
"null","<div style=""font-size:60px;"">+</div>","null","html-keyboard-response","76","99733","0.0-6.0-0.35","VASC","2","f","rechts","21","","fixation","","","",""
"1000","img/60_90.png","74","image-keyboard-response","77","100749","0.0-6.0-1.35","VASC","2","f","rechts","21","","","self","j","60","true"
"null","<div style=""font-size:60px;"">+</div>","null","html-keyboard-response","78","101078","0.0-6.0-0.36","VASC","2","f","rechts","21","","fixation","","","",""
"1026","img/30_300.png","70","image-keyboard-response","79","102122","0.0-6.0-1.36","VASC","2","f","rechts","21","","","self","f","30","true"
"null","<div style=""font-size:60px;"">+</div>","null","html-keyboard-response","80","102540","0.0-6.0-0.37","VASC","2","f","rechts","21","","fixation","","","",""
"935","img/120_150.png","70","image-keyboard-response","81","103495","0.0-6.0-1.37","VASC","2","f","rechts","21","","","self","f","120","true"
"null","<div style=""font-size:60px;"">+</div>","null","html-keyboard-response","82","103962","0.0-6.0-0.38","VASC","2","f","rechts","21","","fixation","","","",""
"1100","img/60_180.png","74","image-keyboard-response","83","105081","0.0-6.0-1.38","VASC","2","f","rechts","21","","","self","j","60","true"
"null","<div style=""font-size:60px;"">+</div>","null","html-keyboard-response","84","105383","0.0-6.0-0.39","VASC","2","f","rechts","21","","fixation","","","",""
"1086","img/120_180.png","74","image-keyboard-response","85","106488","0.0-6.0-1.39","VASC","2","f","rechts","21","","","self","j","120","true"
"null","<div style=""font-size:60px;"">+</div>","null","html-keyboard-response","86","106797","0.0-6.0-0.40","VASC","2","f","rechts","21","","fixation","","","",""
"674","img/0_120.png","74","image-keyboard-response","87","107489","0.0-6.0-1.40","VASC","2","f","rechts","21","","","self","j","0","true"
"null","<div style=""font-size:60px;"">+</div>","null","html-keyboard-response","88","108017","0.0-6.0-0.41","VASC","2","f","rechts","21","","fixation","","","",""
"1595","img/150_60.png","70","image-keyboard-response","89","109627","0.0-6.0-1.41","VASC","2","f","rechts","21","","","self","f","150","true"
"null","<div style=""font-size:60px;"">+</div>","null","html-keyboard-response","90","110095","0.0-6.0-0.42","VASC","2","f","rechts","21","","fixation","","","",""
"1134","img/60_210.png","74","image-keyboard-response","91","111244","0.0-6.0-1.42","VASC","2","f","rechts","21","","","self","j","60","true"
"null","<div style=""font-size:60px;"">+</div>","null","html-keyboard-response","92","111767","0.0-6.0-0.43","VASC","2","f","rechts","21","","fixation","","","",""
"1341","img/30_120.png","74","image-keyboard-response","93","113126","0.0-6.0-1.43","VASC","2","f","rechts","21","","","self","j","30","true"
"null","<div style=""font-size:60px;"">+</div>","null","html-keyboard-response","94","113484","0.0-6.0-0.44","VASC","2","f","rechts","21","","fixation","","","",""
"768","img/0_210.png","70","image-keyboard-response","95","114270","0.0-6.0-1.44","VASC","2","f","rechts","21","","","self","f","0","true"
"null","<div style=""font-size:60px;"">+</div>","null","html-keyboard-response","96","114625","0.0-6.0-0.45","VASC","2","f","rechts","21","","fixation","","","",""
"989","img/60_330.png","70","image-keyboard-response","97","115633","0.0-6.0-1.45","VASC","2","f","rechts","21","","","self","f","60","true"
"null","<div style=""font-size:60px;"">+</div>","null","html-keyboard-response","98","116061","0.0-6.0-0.46","VASC","2","f","rechts","21","","fixation","","","",""
"769","img/0_150.png","74","image-keyboard-response","99","116848","0.0-6.0-1.46","VASC","2","f","rechts","21","","","self","j","0","true"
"null","<div style=""font-size:60px;"">+</div>","null","html-keyboard-response","100","117157","0.0-6.0-0.47","VASC","2","f","rechts","21","","fixation","","","",""
"696","img/0_240.png","70","image-keyboard-response","101","117871","0.0-6.0-1.47","VASC","2","f","rechts","21","","","self","f","0","true"
"null","<div style=""font-size:60px;"">+</div>","null","html-keyboard-response","102","118235","0.0-6.0-0.48","VASC","2","f","rechts","21","","fixation","","","",""
"1058","img/30_240.png","70","image-keyboard-response","103","119315","0.0-6.0-1.48","VASC","2","f","rechts","21","","","self","f","30","true"
"null","<div style=""font-size:60px;"">+</div>","null","html-keyboard-response","104","119736","0.0-6.0-0.49","VASC","2","f","rechts","21","","fixation","","","",""
"931","img/90_180.png","74","image-keyboard-response","105","120672","0.0-6.0-1.49","VASC","2","f","rechts","21","","","self","j","90","true"
"null","<div style=""font-size:60px;"">+</div>","null","html-keyboard-response","106","121035","0.0-6.0-0.50","VASC","2","f","rechts","21","","fixation","","","",""
"970","img/L150_180.png","70","image-keyboard-response","107","122022","0.0-6.0-1.50","VASC","2","f","rechts","21","","","self","f","150","true"
"null","<div style=""font-size:60px;"">+</div>","null","html-keyboard-response","108","122478","0.0-6.0-0.51","VASC","2","f","rechts","21","","fixation","","","",""
"1158","img/120_270.png","74","image-keyboard-response","109","123655","0.0-6.0-1.51","VASC","2","f","rechts","21","","","self","j","120","true"
"null","<div style=""font-size:60px;"">+</div>","null","html-keyboard-response","110","124027","0.0-6.0-0.52","VASC","2","f","rechts","21","","fixation","","","",""
"1373","img/150_300.png","74","image-keyboard-response","111","125408","0.0-6.0-1.52","VASC","2","f","rechts","21","","","self","j","150","true"
"null","<div style=""font-size:60px;"">+</div>","null","html-keyboard-response","112","125826","0.0-6.0-0.53","VASC","2","f","rechts","21","","fixation","","","",""
"684","img/0_300.png","70","image-keyboard-response","113","126524","0.0-6.0-1.53","VASC","2","f","rechts","21","","","self","f","0","true"
"null","<div style=""font-size:60px;"">+</div>","null","html-keyboard-response","114","126888","0.0-6.0-0.54","VASC","2","f","rechts","21","","fixation","","","",""
"1230","img/120_30.png","74","image-keyboard-response","115","128131","0.0-6.0-1.54","VASC","2","f","rechts","21","","","self","j","120","true"
"null","<div style=""font-size:60px;"">+</div>","null","html-keyboard-response","116","128514","0.0-6.0-0.55","VASC","2","f","rechts","21","","fixation","","","",""
"1060","img/L60_180.png","70","image-keyboard-response","117","129585","0.0-6.0-1.55","VASC","2","f","rechts","21","","","self","f","60","true"
"null","<div style=""font-size:60px;"">+</div>","null","html-keyboard-response","118","130049","0.0-6.0-0.56","VASC","2","f","rechts","21","","fixation","","","",""
"837","img/150_120.png","70","image-keyboard-response","119","130900","0.0-6.0-1.56","VASC","2","f","rechts","21","","","self","f","150","true"
"null","<div style=""font-size:60px;"">+</div>","null","html-keyboard-response","120","131270","0.0-6.0-0.57","VASC","2","f","rechts","21","","fixation","","","",""
"978","img/90_210.png","74","image-keyboard-response","121","132260","0.0-6.0-1.57","VASC","2","f","rechts","21","","","self","j","90","true"
"null","<div style=""font-size:60px;"">+</div>","null","html-keyboard-response","122","132765","0.0-6.0-0.58","VASC","2","f","rechts","21","","fixation","","","",""
"1703","img/60_210.png","74","image-keyboard-response","123","134478","0.0-6.0-1.58","VASC","2","f","rechts","21","","","self","j","60","true"
"null","<div style=""font-size:60px;"">+</div>","null","html-keyboard-response","124","134889","0.0-6.0-0.59","VASC","2","f","rechts","21","","fixation","","","",""
"781","img/0_330.png","70","image-keyboard-response","125","135681","0.0-6.0-1.59","VASC","2","f","rechts","21","","","self","f","0","true"
"null","<div style=""font-size:60px;"">+</div>","null","html-keyboard-response","126","136001","0.0-6.0-0.60","VASC","2","f","rechts","21","","fixation","","","",""
"1087","img/60_30.png","74","image-keyboard-response","127","137100","0.0-6.0-1.60","VASC","2","f","rechts","21","","","self","j","60","true"
"null","<div style=""font-size:60px;"">+</div>","null","html-keyboard-response","128","137498","0.0-6.0-0.61","VASC","2","f","rechts","21","","fixation","","","",""
"952","img/120_150.png","70","image-keyboard-response","129","138460","0.0-6.0-1.61","VASC","2","f","rechts","21","","","self","f","120","true"
"null","<div style=""font-size:60px;"">+</div>","null","html-keyboard-response","130","138921","0.0-6.0-0.62","VASC","2","f","rechts","21","","fixation","","","",""
"678","img/L30_180.png","70","image-keyboard-response","131","139608","0.0-6.0-1.62","VASC","2","f","rechts","21","","","self","f","30","true"
"null","<div style=""font-size:60px;"">+</div>","null","html-keyboard-response","132","140125","0.0-6.0-0.63","VASC","2","f","rechts","21","","fixation","","","",""
"875","img/150_240.png","74","image-keyboard-response","133","141013","0.0-6.0-1.63","VASC","2","f","rechts","21","","","self","j","150","true"
"null","<div style=""font-size:60px;"">+</div>","null","html-keyboard-response","134","141532","0.0-6.0-0.64","VASC","2","f","rechts","21","","fixation","","","",""
"1205","img/150_60.png","70","image-keyboard-response","135","142748","0.0-6.0-1.64","VASC","2","f","rechts","21","","","self","f","150","true"
"null","<div style=""font-size:60px;"">+</div>","null","html-keyboard-response","136","143265","0.0-6.0-0.65","VASC","2","f","rechts","21","","fixation","","","",""
"1494","img/90_30.png","74","image-keyboard-response","137","144772","0.0-6.0-1.65","VASC","2","f","rechts","21","","","self","j","90","true"
"null","<div style=""font-size:60px;"">+</div>","null","html-keyboard-response","138","145139","0.0-6.0-0.66","VASC","2","f","rechts","21","","fixation","","","",""
"788","img/90_60.png","74","image-keyboard-response","139","145941","0.0-6.0-1.66","VASC","2","f","rechts","21","","","self","j","90","true"
"null","<div style=""font-size:60px;"">+</div>","null","html-keyboard-response","140","146404","0.0-6.0-0.67","VASC","2","f","rechts","21","","fixation","","","",""
"1065","img/90_330.png","70","image-keyboard-response","141","147472","0.0-6.0-1.67","VASC","2","f","rechts","21","","","self","f","90","true"
"null","<div style=""font-size:60px;"">+</div>","null","html-keyboard-response","142","147875","0.0-6.0-0.68","VASC","2","f","rechts","21","","fixation","","","",""
"947","img/60_270.png","70","image-keyboard-response","143","148832","0.0-6.0-1.68","VASC","2","f","rechts","21","","","self","f","60","true"
"null","<div style=""font-size:60px;"">+</div>","null","html-keyboard-response","144","149359","0.0-6.0-0.69","VASC","2","f","rechts","21","","fixation","","","",""
"2291","img/60_150.png","70","image-keyboard-response","145","151654","0.0-6.0-1.69","VASC","2","f","rechts","21","","","self","f","60","true"
"null","<div style=""font-size:60px;"">+</div>","null","html-keyboard-response","146","152166","0.0-6.0-0.70","VASC","2","f","rechts","21","","fixation","","","",""
"952","img/150_180.png","74","image-keyboard-response","147","153130","0.0-6.0-1.70","VASC","2","f","rechts","21","","","self","j","150","true"
"null","<div style=""font-size:60px;"">+</div>","null","html-keyboard-response","148","153493","0.0-6.0-0.71","VASC","2","f","rechts","21","","fixation","","","",""
"1177","img/30_90.png","74","image-keyboard-response","149","154684","0.0-6.0-1.71","VASC","2","f","rechts","21","","","self","j","30","true"
"null","<div style=""font-size:60px;"">+</div>","null","html-keyboard-response","150","155208","0.0-6.0-0.72","VASC","2","f","rechts","21","","fixation","","","",""
"945","img/30_60.png","74","image-keyboard-response","151","156168","0.0-6.0-1.72","VASC","2","f","rechts","21","","","self","j","30","true"
"null","<div style=""font-size:60px;"">+</div>","null","html-keyboard-response","152","156575","0.0-6.0-0.73","VASC","2","f","rechts","21","","fixation","","","",""
"1055","img/90_150.png","70","image-keyboard-response","153","157641","0.0-6.0-1.73","VASC","2","f","rechts","21","","","self","f","90","true"
"null","<div style=""font-size:60px;"">+</div>","null","html-keyboard-response","154","157948","0.0-6.0-0.74","VASC","2","f","rechts","21","","fixation","","","",""
"1290","img/120_270.png","74","image-keyboard-response","155","159248","0.0-6.0-1.74","VASC","2","f","rechts","21","","","self","j","120","true"
"null","<div style=""font-size:60px;"">+</div>","null","html-keyboard-response","156","159650","0.0-6.0-0.75","VASC","2","f","rechts","21","","fixation","","","",""
"1163","img/90_300.png","70","image-keyboard-response","157","160826","0.0-6.0-1.75","VASC","2","f","rechts","21","","","self","f","90","true"
"null","<div style=""font-size:60px;"">+</div>","null","html-keyboard-response","158","161198","0.0-6.0-0.76","VASC","2","f","rechts","21","","fixation","","","",""
"1672","img/90_120.png","70","image-keyboard-response","159","162883","0.0-6.0-1.76","VASC","2","f","rechts","21","","","self","f","90","true"
"null","<div style=""font-size:60px;"">+</div>","null","html-keyboard-response","160","163243","0.0-6.0-0.77","VASC","2","f","rechts","21","","fixation","","","",""
"874","img/0_90.png","74","image-keyboard-response","161","164131","0.0-6.0-1.77","VASC","2","f","rechts","21","","","self","j","0","true"
"null","<div style=""font-size:60px;"">+</div>","null","html-keyboard-response","162","164599","0.0-6.0-0.78","VASC","2","f","rechts","21","","fixation","","","",""
"1254","img/30_180.png","74","image-keyboard-response","163","165866","0.0-6.0-1.78","VASC","2","f","rechts","21","","","self","j","30","true"
"null","<div style=""font-size:60px;"">+</div>","null","html-keyboard-response","164","166395","0.0-6.0-0.79","VASC","2","f","rechts","21","","fixation","","","",""
"1047","img/90_240.png","74","image-keyboard-response","165","167450","0.0-6.0-1.79","VASC","2","f","rechts","21","","","self","j","90","true"
"null","<div style=""font-size:60px;"">+</div>","null","html-keyboard-response","166","167857","0.0-6.0-0.80","VASC","2","f","rechts","21","","fixation","","","",""
"947","img/30_120.png","74","image-keyboard-response","167","168813","0.0-6.0-1.80","VASC","2","f","rechts","21","","","self","j","30","true"
"null","<div style=""font-size:60px;"">+</div>","null","html-keyboard-response","168","169225","0.0-6.0-0.81","VASC","2","f","rechts","21","","fixation","","","",""
"781","img/0_240.png","70","image-keyboard-response","169","170017","0.0-6.0-1.81","VASC","2","f","rechts","21","","","self","f","0","true"
"null","<div style=""font-size:60px;"">+</div>","null","html-keyboard-response","170","170380","0.0-6.0-0.82","VASC","2","f","rechts","21","","fixation","","","",""
"1069","img/30_240.png","70","image-keyboard-response","171","171455","0.0-6.0-1.82","VASC","2","f","rechts","21","","","self","f","30","true"
"null","<div style=""font-size:60px;"">+</div>","null","html-keyboard-response","172","171966","0.0-6.0-0.83","VASC","2","f","rechts","21","","fixation","","","",""
"1053","img/60_90.png","74","image-keyboard-response","173","173031","0.0-6.0-1.83","VASC","2","f","rechts","21","","","self","j","60","true"
"null","<div style=""font-size:60px;"">+</div>","null","html-keyboard-response","174","173341","0.0-6.0-0.84","VASC","2","f","rechts","21","","fixation","","","",""
"1059","img/150_270.png","74","image-keyboard-response","175","174415","0.0-6.0-1.84","VASC","2","f","rechts","21","","","self","j","150","true"
"null","<div style=""font-size:60px;"">+</div>","null","html-keyboard-response","176","174823","0.0-6.0-0.85","VASC","2","f","rechts","21","","fixation","","","",""
"668","img/0_30.png","74","image-keyboard-response","177","175504","0.0-6.0-1.85","VASC","2","f","rechts","21","","","self","j","0","true"
"null","<div style=""font-size:60px;"">+</div>","null","html-keyboard-response","178","175918","0.0-6.0-0.86","VASC","2","f","rechts","21","","fixation","","","",""
"858","img/L90_180.png","70","image-keyboard-response","179","176789","0.0-6.0-1.86","VASC","2","f","rechts","21","","","self","f","90","true"
"null","<div style=""font-size:60px;"">+</div>","null","html-keyboard-response","180","177121","0.0-6.0-0.87","VASC","2","f","rechts","21","","fixation","","","",""
"768","img/0_270.png","70","image-keyboard-response","181","177902","0.0-6.0-1.87","VASC","2","f","rechts","21","","","self","f","0","true"
"null","<div style=""font-size:60px;"">+</div>","null","html-keyboard-response","182","178277","0.0-6.0-0.88","VASC","2","f","rechts","21","","fixation","","","",""
"956","img/0_60.png","74","image-keyboard-response","183","179248","0.0-6.0-1.88","VASC","2","f","rechts","21","","","self","j","0","true"
"null","<div style=""font-size:60px;"">+</div>","null","html-keyboard-response","184","179559","0.0-6.0-0.89","VASC","2","f","rechts","21","","fixation","","","",""
"1672","img/L120_180.png","70","image-keyboard-response","185","181244","0.0-6.0-1.89","VASC","2","f","rechts","21","","","self","f","120","true"
"null","<div style=""font-size:60px;"">+</div>","null","html-keyboard-response","186","181698","0.0-6.0-0.90","VASC","2","f","rechts","21","","fixation","","","",""
"769","img/0_210.png","70","image-keyboard-response","187","182480","0.0-6.0-1.90","VASC","2","f","rechts","21","","","self","f","0","true"
"null","<div style=""font-size:60px;"">+</div>","null","html-keyboard-response","188","182858","0.0-6.0-0.91","VASC","2","f","rechts","21","","fixation","","","",""
"531","img/0_120.png","74","image-keyboard-response","189","183402","0.0-6.0-1.91","VASC","2","f","rechts","21","","","self","j","0","true"
"null","<div style=""font-size:60px;"">+</div>","null","html-keyboard-response","190","183858","0.0-6.0-0.92","VASC","2","f","rechts","21","","fixation","","","",""
"1165","img/120_330.png","70","image-keyboard-response","191","185035","0.0-6.0-1.92","VASC","2","f","rechts","21","","","self","f","120","true"
"null","<div style=""font-size:60px;"">+</div>","null","html-keyboard-response","192","185545","0.0-6.0-0.93","VASC","2","f","rechts","21","","fixation","","","",""
"727","img/0_150.png","74","image-keyboard-response","193","186286","0.0-6.0-1.93","VASC","2","f","rechts","21","","","self","j","0","true"
"null","<div style=""font-size:60px;"">+</div>","null","html-keyboard-response","194","186762","0.0-6.0-0.94","VASC","2","f","rechts","21","","fixation","","","",""
"1095","img/120_210.png","74","image-keyboard-response","195","187871","0.0-6.0-1.94","VASC","2","f","rechts","21","","","self","j","120","true"
"null","<div style=""font-size:60px;"">+</div>","null","html-keyboard-response","196","188186","0.0-6.0-0.95","VASC","2","f","rechts","21","","fixation","","","",""
"627","img/120_180.png","74","image-keyboard-response","197","188827","0.0-6.0-1.95","VASC","2","f","rechts","21","","","self","j","120","true"
"null","<div style=""font-size:60px;"">+</div>","null","html-keyboard-response","198","189186","0.0-6.0-0.96","VASC","2","f","rechts","21","","fixation","","","",""
"618","img/90_180.png","74","image-keyboard-response","199","189817","0.0-6.0-1.96","VASC","2","f","rechts","21","","","self","j","90","true"
"null","<div style=""font-size:60px;"">+</div>","null","html-keyboard-response","200","190326","0.0-6.0-0.97","VASC","2","f","rechts","21","","fixation","","","",""
"871","img/60_330.png","70","image-keyboard-response","201","191213","0.0-6.0-1.97","VASC","2","f","rechts","21","","","self","f","60","true"
"null","<div style=""font-size:60px;"">+</div>","null","html-keyboard-response","202","191686","0.0-6.0-0.98","VASC","2","f","rechts","21","","fixation","","","",""
"782","img/30_300.png","70","image-keyboard-response","203","192481","0.0-6.0-1.98","VASC","2","f","rechts","21","","","self","f","30","true"
"null","<div style=""font-size:60px;"">+</div>","null","html-keyboard-response","204","192936","0.0-6.0-0.99","VASC","2","f","rechts","21","","fixation","","","",""
"1311","img/150_90.png","74","image-keyboard-response","205","194261","0.0-6.0-1.99","VASC","2","f","rechts","21","","","self","f","150","false"
"null","<div style=""font-size:60px;"">+</div>","null","html-keyboard-response","206","194576","0.0-6.0-0.100","VASC","2","f","rechts","21","","fixation","","","",""
"1594","img/30_270.png","70","image-keyboard-response","207","196183","0.0-6.0-1.100","VASC","2","f","rechts","21","","","self","f","30","true"
"null","<div style=""font-size:60px;"">+</div>","null","html-keyboard-response","208","196546","0.0-6.0-0.101","VASC","2","f","rechts","21","","fixation","","","",""
"2317","img/120_90.png","70","image-keyboard-response","209","198878","0.0-6.0-1.101","VASC","2","f","rechts","21","","","self","f","120","true"
"null","<div style=""font-size:60px;"">+</div>","null","html-keyboard-response","210","199281","0.0-6.0-0.102","VASC","2","f","rechts","21","","fixation","","","",""
"1097","img/60_180.png","74","image-keyboard-response","211","200393","0.0-6.0-1.102","VASC","2","f","rechts","21","","","self","j","60","true"
"null","<div style=""font-size:60px;"">+</div>","null","html-keyboard-response","212","200874","0.0-6.0-0.103","VASC","2","f","rechts","21","","fixation","","","",""
"798","img/L150_180.png","70","image-keyboard-response","213","201685","0.0-6.0-1.103","VASC","2","f","rechts","21","","","self","f","150","true"
"null","<div style=""font-size:60px;"">+</div>","null","html-keyboard-response","214","202194","0.0-6.0-0.104","VASC","2","f","rechts","21","","fixation","","","",""
"943","img/L60_180.png","70","image-keyboard-response","215","203148","0.0-6.0-1.104","VASC","2","f","rechts","21","","","self","f","60","true"
"null","<div style=""font-size:60px;"">+</div>","null","html-keyboard-response","216","203458","0.0-6.0-0.105","VASC","2","f","rechts","21","","fixation","","","",""
"799","img/0_270.png","70","image-keyboard-response","217","204263","0.0-6.0-1.105","VASC","2","f","rechts","21","","","self","f","0","true"
"null","<div style=""font-size:60px;"">+</div>","null","html-keyboard-response","218","204771","0.0-6.0-0.106","VASC","2","f","rechts","21","","fixation","","","",""
"718","img/0_240.png","70","image-keyboard-response","219","205498","0.0-6.0-1.106","VASC","2","f","rechts","21","","","self","f","0","true"
"null","<div style=""font-size:60px;"">+</div>","null","html-keyboard-response","220","205927","0.0-6.0-0.107","VASC","2","f","rechts","21","","fixation","","","",""
"1014","img/60_180.png","74","image-keyboard-response","221","206952","0.0-6.0-1.107","VASC","2","f","rechts","21","","","self","j","60","true"
"null","<div style=""font-size:60px;"">+</div>","null","html-keyboard-response","222","207412","0.0-6.0-0.108","VASC","2","f","rechts","21","","fixation","","","",""
"1027","img/90_240.png","74","image-keyboard-response","223","208443","0.0-6.0-1.108","VASC","2","f","rechts","21","","","self","j","90","true"
"null","<div style=""font-size:60px;"">+</div>","null","html-keyboard-response","224","208802","0.0-6.0-0.109","VASC","2","f","rechts","21","","fixation","","","",""
"1267","img/L90_180.png","70","image-keyboard-response","225","210078","0.0-6.0-1.109","VASC","2","f","rechts","21","","","self","f","90","true"
"null","<div style=""font-size:60px;"">+</div>","null","html-keyboard-response","226","210458","0.0-6.0-0.110","VASC","2","f","rechts","21","","fixation","","","",""
"754","img/0_120.png","74","image-keyboard-response","227","211214","0.0-6.0-1.110","VASC","2","f","rechts","21","","","self","j","0","true"
"null","<div style=""font-size:60px;"">+</div>","null","html-keyboard-response","228","211724","0.0-6.0-0.111","VASC","2","f","rechts","21","","fixation","","","",""
"1025","img/30_270.png","70","image-keyboard-response","229","212758","0.0-6.0-1.111","VASC","2","f","rechts","21","","","self","f","30","true"
"null","<div style=""font-size:60px;"">+</div>","null","html-keyboard-response","230","213070","0.0-6.0-0.112","VASC","2","f","rechts","21","","fixation","","","",""
"1496","img/90_60.png","74","image-keyboard-response","231","214579","0.0-6.0-1.112","VASC","2","f","rechts","21","","","self","j","90","true"
"null","<div style=""font-size:60px;"">+</div>","null","html-keyboard-response","232","215006","0.0-6.0-0.113","VASC","2","f","rechts","21","","fixation","","","",""
"1482","img/60_210.png","74","image-keyboard-response","233","216501","0.0-6.0-1.113","VASC","2","f","rechts","21","","","self","j","60","true"
"null","<div style=""font-size:60px;"">+</div>","null","html-keyboard-response","234","217006","0.0-6.0-0.114","VASC","2","f","rechts","21","","fixation","","","",""
"720","img/0_330.png","70","image-keyboard-response","235","217740","0.0-6.0-1.114","VASC","2","f","rechts","21","","","self","f","0","true"
"null","<div style=""font-size:60px;"">+</div>","null","html-keyboard-response","236","218164","0.0-6.0-0.115","VASC","2","f","rechts","21","","fixation","","","",""
"1183","img/120_30.png","74","image-keyboard-response","237","219360","0.0-6.0-1.115","VASC","2","f","rechts","21","","","self","j","120","true"
"null","<div style=""font-size:60px;"">+</div>","null","html-keyboard-response","238","219784","0.0-6.0-0.116","VASC","2","f","rechts","21","","fixation","","","",""
"1058","img/60_30.png","74","image-keyboard-response","239","220856","0.0-6.0-1.116","VASC","2","f","rechts","21","","","self","j","60","true"
"null","<div style=""font-size:60px;"">+</div>","null","html-keyboard-response","240","221170","0.0-6.0-0.117","VASC","2","f","rechts","21","","fixation","","","",""
"779","img/0_210.png","70","image-keyboard-response","241","221962","0.0-6.0-1.117","VASC","2","f","rechts","21","","","self","f","0","true"
"null","<div style=""font-size:60px;"">+</div>","null","html-keyboard-response","242","222434","0.0-6.0-0.118","VASC","2","f","rechts","21","","fixation","","","",""
"857","img/L150_180.png","70","image-keyboard-response","243","223296","0.0-6.0-1.118","VASC","2","f","rechts","21","","","self","f","150","true"
"null","<div style=""font-size:60px;"">+</div>","null","html-keyboard-response","244","223701","0.0-6.0-0.119","VASC","2","f","rechts","21","","fixation","","","",""
"1340","img/30_60.png","74","image-keyboard-response","245","225053","0.0-6.0-1.119","VASC","2","f","rechts","21","","","self","j","30","true"
"null","<div style=""font-size:60px;"">+</div>","null","html-keyboard-response","246","225464","0.0-6.0-0.120","VASC","2","f","rechts","21","","fixation","","","",""
"653","img/0_300.png","70","image-keyboard-response","247","226122","0.0-6.0-1.120","VASC","2","f","rechts","21","","","self","f","0","true"
"null","<div style=""font-size:60px;"">+</div>","null","html-keyboard-response","248","226433","0.0-6.0-0.121","VASC","2","f","rechts","21","","fixation","","","",""
"1800","img/30_240.png","70","image-keyboard-response","249","228237","0.0-6.0-1.121","VASC","2","f","rechts","21","","","self","f","30","true"
"null","<div style=""font-size:60px;"">+</div>","null","html-keyboard-response","250","228716","0.0-6.0-0.122","VASC","2","f","rechts","21","","fixation","","","",""
"1544","img/30_120.png","74","image-keyboard-response","251","230273","0.0-6.0-1.122","VASC","2","f","rechts","21","","","self","j","30","true"
"null","<div style=""font-size:60px;"">+</div>","null","html-keyboard-response","252","230576","0.0-6.0-0.123","VASC","2","f","rechts","21","","fixation","","","",""
"987","img/L30_180.png","70","image-keyboard-response","253","231577","0.0-6.0-1.123","VASC","2","f","rechts","21","","","self","f","30","true"
"null","<div style=""font-size:60px;"">+</div>","null","html-keyboard-response","254","232031","0.0-6.0-0.124","VASC","2","f","rechts","21","","fixation","","","",""
"831","img/L120_180.png","70","image-keyboard-response","255","232872","0.0-6.0-1.124","VASC","2","f","rechts","21","","","self","f","120","true"
"null","<div style=""font-size:60px;"">+</div>","null","html-keyboard-response","256","233187","0.0-6.0-0.125","VASC","2","f","rechts","21","","fixation","","","",""
"965","img/120_270.png","74","image-keyboard-response","257","234165","0.0-6.0-1.125","VASC","2","f","rechts","21","","","self","j","120","true"
"null","<div style=""font-size:60px;"">+</div>","null","html-keyboard-response","258","234585","0.0-6.0-0.126","VASC","2","f","rechts","21","","fixation","","","",""
"1979","img/60_150.png","70","image-keyboard-response","259","236579","0.0-6.0-1.126","VASC","2","f","rechts","21","","","self","f","60","true"
"null","<div style=""font-size:60px;"">+</div>","null","html-keyboard-response","260","236937","0.0-6.0-0.127","VASC","2","f","rechts","21","","fixation","","","",""
"750","img/150_90.png","70","image-keyboard-response","261","237698","0.0-6.0-1.127","VASC","2","f","rechts","21","","","self","f","150","true"
"null","<div style=""font-size:60px;"">+</div>","null","html-keyboard-response","262","238078","0.0-6.0-0.128","VASC","2","f","rechts","21","","fixation","","","",""
"1091","img/90_30.png","74","image-keyboard-response","263","239183","0.0-6.0-1.128","VASC","2","f","rechts","21","","","self","j","90","true"
"null","<div style=""font-size:60px;"">+</div>","null","html-keyboard-response","264","239498","0.0-6.0-0.129","VASC","2","f","rechts","21","","fixation","","","",""
"714","img/0_30.png","74","image-keyboard-response","265","240217","0.0-6.0-1.129","VASC","2","f","rechts","21","","","self","j","0","true"
"null","<div style=""font-size:60px;"">+</div>","null","html-keyboard-response","266","240733","0.0-6.0-0.130","VASC","2","f","rechts","21","","fixation","","","",""
"929","img/30_90.png","74","image-keyboard-response","267","241670","0.0-6.0-1.130","VASC","2","f","rechts","21","","","self","j","30","true"
"null","<div style=""font-size:60px;"">+</div>","null","html-keyboard-response","268","242187","0.0-6.0-0.131","VASC","2","f","rechts","21","","fixation","","","",""
"920","img/90_120.png","70","image-keyboard-response","269","243121","0.0-6.0-1.131","VASC","2","f","rechts","21","","","self","f","90","true"
"null","<div style=""font-size:60px;"">+</div>","null","html-keyboard-response","270","243438","0.0-6.0-0.132","VASC","2","f","rechts","21","","fixation","","","",""
"761","img/150_120.png","70","image-keyboard-response","271","244213","0.0-6.0-1.132","VASC","2","f","rechts","21","","","self","f","150","true"
"null","<div style=""font-size:60px;"">+</div>","null","html-keyboard-response","272","244672","0.0-6.0-0.133","VASC","2","f","rechts","21","","fixation","","","",""
"1346","img/30_180.png","74","image-keyboard-response","273","246035","0.0-6.0-1.133","VASC","2","f","rechts","21","","","self","j","30","true"
"null","<div style=""font-size:60px;"">+</div>","null","html-keyboard-response","274","246515","0.0-6.0-0.134","VASC","2","f","rechts","21","","fixation","","","",""
"720","img/0_60.png","74","image-keyboard-response","275","247239","0.0-6.0-1.134","VASC","2","f","rechts","21","","","self","j","0","true"
"null","<div style=""font-size:60px;"">+</div>","null","html-keyboard-response","276","247689","0.0-6.0-0.135","VASC","2","f","rechts","21","","fixation","","","",""
"1260","img/30_300.png","70","image-keyboard-response","277","248960","0.0-6.0-1.135","VASC","2","f","rechts","21","","","self","f","30","true"
"null","<div style=""font-size:60px;"">+</div>","null","html-keyboard-response","278","249377","0.0-6.0-0.136","VASC","2","f","rechts","21","","fixation","","","",""
"1120","img/150_240.png","74","image-keyboard-response","279","250510","0.0-6.0-1.136","VASC","2","f","rechts","21","","","self","j","150","true"
"null","<div style=""font-size:60px;"">+</div>","null","html-keyboard-response","280","250866","0.0-6.0-0.137","VASC","2","f","rechts","21","","fixation","","","",""
"701","img/90_210.png","74","image-keyboard-response","281","251580","0.0-6.0-1.137","VASC","2","f","rechts","21","","","self","j","90","true"
"null","<div style=""font-size:60px;"">+</div>","null","html-keyboard-response","282","252092","0.0-6.0-0.138","VASC","2","f","rechts","21","","fixation","","","",""
"615","img/120_210.png","74","image-keyboard-response","283","252716","0.0-6.0-1.138","VASC","2","f","rechts","21","","","self","j","120","true"
"null","<div style=""font-size:60px;"">+</div>","null","html-keyboard-response","284","253070","0.0-6.0-0.139","VASC","2","f","rechts","21","","fixation","","","",""
"916","img/60_90.png","74","image-keyboard-response","285","254000","0.0-6.0-1.139","VASC","2","f","rechts","21","","","self","j","60","true"
"null","<div style=""font-size:60px;"">+</div>","null","html-keyboard-response","286","254305","0.0-6.0-0.140","VASC","2","f","rechts","21","","fixation","","","",""
"908","img/150_300.png","70","image-keyboard-response","287","255226","0.0-6.0-1.140","VASC","2","f","rechts","21","","","self","j","150","false"
"null","<div style=""font-size:60px;"">+</div>","null","html-keyboard-response","288","255654","0.0-6.0-0.141","VASC","2","f","rechts","21","","fixation","","","",""
"650","img/150_270.png","70","image-keyboard-response","289","256317","0.0-6.0-1.141","VASC","2","f","rechts","21","","","self","j","150","false"
"null","<div style=""font-size:60px;"">+</div>","null","html-keyboard-response","290","256779","0.0-6.0-0.142","VASC","2","f","rechts","21","","fixation","","","",""
"692","img/0_90.png","74","image-keyboard-response","291","257484","0.0-6.0-1.142","VASC","2","f","rechts","21","","","self","j","0","true"
"null","<div style=""font-size:60px;"">+</div>","null","html-keyboard-response","292","257935","0.0-6.0-0.143","VASC","2","f","rechts","21","","fixation","","","",""
"636","img/0_150.png","74","image-keyboard-response","293","258585","0.0-6.0-1.143","VASC","2","f","rechts","21","","","self","j","0","true"
"null","<div style=""font-size:60px;"">+</div>","null","html-keyboard-response","294","259060","0.0-6.0-0.144","VASC","2","f","rechts","21","","fixation","","","",""
"1050","img/60_330.png","70","image-keyboard-response","295","260120","0.0-6.0-1.144","VASC","2","f","rechts","21","","","self","f","60","true"
"null","<div style=""font-size:60px;"">+</div>","null","html-keyboard-response","296","260450","0.0-6.0-0.145","VASC","2","f","rechts","21","","fixation","","","",""
"1750","img/120_90.png","70","image-keyboard-response","297","262213","0.0-6.0-1.145","VASC","2","f","rechts","21","","","self","f","120","true"
"null","<div style=""font-size:60px;"">+</div>","null","html-keyboard-response","298","262624","0.0-6.0-0.146","VASC","2","f","rechts","21","","fixation","","","",""
"835","img/90_180.png","74","image-keyboard-response","299","263472","0.0-6.0-1.146","VASC","2","f","rechts","21","","","self","j","90","true"
"null","<div style=""font-size:60px;"">+</div>","null","html-keyboard-response","300","263936","0.0-6.0-0.147","VASC","2","f","rechts","21","","fixation","","","",""
"907","img/150_180.png","74","image-keyboard-response","301","264857","0.0-6.0-1.147","VASC","2","f","rechts","21","","","self","j","150","true"
"null","<div style=""font-size:60px;"">+</div>","null","html-keyboard-response","302","265168","0.0-6.0-0.148","VASC","2","f","rechts","21","","fixation","","","",""
"1958","img/60_270.png","70","image-keyboard-response","303","267139","0.0-6.0-1.148","VASC","2","f","rechts","21","","","self","f","60","true"
"null","<div style=""font-size:60px;"">+</div>","null","html-keyboard-response","304","267547","0.0-6.0-0.149","VASC","2","f","rechts","21","","fixation","","","",""
"1208","img/90_150.png","70","image-keyboard-response","305","268759","0.0-6.0-1.149","VASC","2","f","rechts","21","","","self","f","90","true"
"null","<div style=""font-size:60px;"">+</div>","null","html-keyboard-response","306","269062","0.0-6.0-0.150","VASC","2","f","rechts","21","","fixation","","","",""
"912","img/120_180.png","74","image-keyboard-response","307","269988","0.0-6.0-1.150","VASC","2","f","rechts","21","","","self","j","120","true"
"null","<div style=""font-size:60px;"">+</div>","null","html-keyboard-response","308","270390","0.0-6.0-0.151","VASC","2","f","rechts","21","","fixation","","","",""
"1144","img/150_60.png","70","image-keyboard-response","309","271549","0.0-6.0-1.151","VASC","2","f","rechts","21","","","self","f","150","true"
"null","<div style=""font-size:60px;"">+</div>","null","html-keyboard-response","310","272001","0.0-6.0-0.152","VASC","2","f","rechts","21","","fixation","","","",""
"1324","img/120_330.png","70","image-keyboard-response","311","273338","0.0-6.0-1.152","VASC","2","f","rechts","21","","","self","f","120","true"
"null","<div style=""font-size:60px;"">+</div>","null","html-keyboard-response","312","273641","0.0-6.0-0.153","VASC","2","f","rechts","21","","fixation","","","",""
"1606","img/120_150.png","70","image-keyboard-response","313","275261","0.0-6.0-1.153","VASC","2","f","rechts","21","","","self","f","120","true"
"null","<div style=""font-size:60px;"">+</div>","null","html-keyboard-response","314","275594","0.0-6.0-0.154","VASC","2","f","rechts","21","","fixation","","","",""
"1291","img/90_330.png","70","image-keyboard-response","315","276893","0.0-6.0-1.154","VASC","2","f","rechts","21","","","self","f","90","true"
"null","<div style=""font-size:60px;"">+</div>","null","html-keyboard-response","316","277221","0.0-6.0-0.155","VASC","2","f","rechts","21","","fixation","","","",""
"670","img/90_300.png","70","image-keyboard-response","317","277906","0.0-6.0-1.155","VASC","2","f","rechts","21","","","self","f","90","true"
"null","<div style=""font-size:60px;"">+</div>","null","html-keyboard-response","318","278377","0.0-6.0-0.156","VASC","2","f","rechts","21","","fixation","","","",""
"645","img/90_330.png","70","image-keyboard-response","319","279031","0.0-6.0-1.156","VASC","2","f","rechts","21","","","self","f","90","true"
"null","<div style=""font-size:60px;"">+</div>","null","html-keyboard-response","320","279533","0.0-6.0-0.157","VASC","2","f","rechts","21","","fixation","","","",""
"1044","img/30_300.png","70","image-keyboard-response","321","280581","0.0-6.0-1.157","VASC","2","f","rechts","21","","","self","f","30","true"
"null","<div style=""font-size:60px;"">+</div>","null","html-keyboard-response","322","280993","0.0-6.0-0.158","VASC","2","f","rechts","21","","fixation","","","",""
"1129","img/L60_180.png","70","image-keyboard-response","323","282135","0.0-6.0-1.158","VASC","2","f","rechts","21","","","self","f","60","true"
"null","<div style=""font-size:60px;"">+</div>","null","html-keyboard-response","324","282494","0.0-6.0-0.159","VASC","2","f","rechts","21","","fixation","","","",""
"922","img/0_270.png","70","image-keyboard-response","325","283430","0.0-6.0-1.159","VASC","2","f","rechts","21","","","self","f","0","true"
"null","<div style=""font-size:60px;"">+</div>","null","html-keyboard-response","326","283900","0.0-6.0-0.160","VASC","2","f","rechts","21","","fixation","","","",""
"1566","img/150_120.png","70","image-keyboard-response","327","285476","0.0-6.0-1.160","VASC","2","f","rechts","21","","","self","f","150","true"
"null","<div style=""font-size:60px;"">+</div>","null","html-keyboard-response","328","285837","0.0-6.0-0.161","VASC","2","f","rechts","21","","fixation","","","",""
"969","img/90_210.png","74","image-keyboard-response","329","286817","0.0-6.0-1.161","VASC","2","f","rechts","21","","","self","j","90","true"
"null","<div style=""font-size:60px;"">+</div>","null","html-keyboard-response","330","287126","0.0-6.0-0.162","VASC","2","f","rechts","21","","fixation","","","",""
"743","img/0_240.png","70","image-keyboard-response","331","287883","0.0-6.0-1.162","VASC","2","f","rechts","21","","","self","f","0","true"
"null","<div style=""font-size:60px;"">+</div>","null","html-keyboard-response","332","288296","0.0-6.0-0.163","VASC","2","f","rechts","21","","fixation","","","",""
"656","img/0_210.png","70","image-keyboard-response","333","288966","0.0-6.0-1.163","VASC","2","f","rechts","21","","","self","f","0","true"
"null","<div style=""font-size:60px;"">+</div>","null","html-keyboard-response","334","289495","0.0-6.0-0.164","VASC","2","f","rechts","21","","fixation","","","",""
"991","img/30_270.png","70","image-keyboard-response","335","290495","0.0-6.0-1.164","VASC","2","f","rechts","21","","","self","f","30","true"
"null","<div style=""font-size:60px;"">+</div>","null","html-keyboard-response","336","290965","0.0-6.0-0.165","VASC","2","f","rechts","21","","fixation","","","",""
"1015","img/150_300.png","74","image-keyboard-response","337","291991","0.0-6.0-1.165","VASC","2","f","rechts","21","","","self","j","150","true"
"null","<div style=""font-size:60px;"">+</div>","null","html-keyboard-response","338","292370","0.0-6.0-0.166","VASC","2","f","rechts","21","","fixation","","","",""
"1139","img/120_330.png","70","image-keyboard-response","339","293520","0.0-6.0-1.166","VASC","2","f","rechts","21","","","self","f","120","true"
"null","<div style=""font-size:60px;"">+</div>","null","html-keyboard-response","340","293888","0.0-6.0-0.167","VASC","2","f","rechts","21","","fixation","","","",""
"1599","img/60_30.png","74","image-keyboard-response","341","295499","0.0-6.0-1.167","VASC","2","f","rechts","21","","","self","j","60","true"
"null","<div style=""font-size:60px;"">+</div>","null","html-keyboard-response","342","295949","0.0-6.0-0.168","VASC","2","f","rechts","21","","fixation","","","",""
"1350","img/60_180.png","74","image-keyboard-response","343","297312","0.0-6.0-1.168","VASC","2","f","rechts","21","","","self","j","60","true"
"null","<div style=""font-size:60px;"">+</div>","null","html-keyboard-response","344","297718","0.0-6.0-0.169","VASC","2","f","rechts","21","","fixation","","","",""
"1156","img/90_60.png","74","image-keyboard-response","345","298885","0.0-6.0-1.169","VASC","2","f","rechts","21","","","self","j","90","true"
"null","<div style=""font-size:60px;"">+</div>","null","html-keyboard-response","346","299265","0.0-6.0-0.170","VASC","2","f","rechts","21","","fixation","","","",""
"1125","img/120_210.png","74","image-keyboard-response","347","300403","0.0-6.0-1.170","VASC","2","f","rechts","21","","","self","j","120","true"
"null","<div style=""font-size:60px;"">+</div>","null","html-keyboard-response","348","300765","0.0-6.0-0.171","VASC","2","f","rechts","21","","fixation","","","",""
"1612","img/90_300.png","70","image-keyboard-response","349","302386","0.0-6.0-1.171","VASC","2","f","rechts","21","","","self","f","90","true"
"null","<div style=""font-size:60px;"">+</div>","null","html-keyboard-response","350","302843","0.0-6.0-0.172","VASC","2","f","rechts","21","","fixation","","","",""
"1521","img/L90_180.png","70","image-keyboard-response","351","304377","0.0-6.0-1.172","VASC","2","f","rechts","21","","","self","f","90","true"
"null","<div style=""font-size:60px;"">+</div>","null","html-keyboard-response","352","304843","0.0-6.0-0.173","VASC","2","f","rechts","21","","fixation","","","",""
"1066","img/30_180.png","74","image-keyboard-response","353","305918","0.0-6.0-1.173","VASC","2","f","rechts","21","","","self","j","30","true"
"null","<div style=""font-size:60px;"">+</div>","null","html-keyboard-response","354","306436","0.0-6.0-0.174","VASC","2","f","rechts","21","","fixation","","","",""
"1642","img/120_30.png","74","image-keyboard-response","355","308091","0.0-6.0-1.174","VASC","2","f","rechts","21","","","self","j","120","true"
"null","<div style=""font-size:60px;"">+</div>","null","html-keyboard-response","356","308545","0.0-6.0-0.175","VASC","2","f","rechts","21","","fixation","","","",""
"718","img/0_120.png","74","image-keyboard-response","357","309272","0.0-6.0-1.175","VASC","2","f","rechts","21","","","self","j","0","true"
"null","<div style=""font-size:60px;"">+</div>","null","html-keyboard-response","358","309780","0.0-6.0-0.176","VASC","2","f","rechts","21","","fixation","","","",""
"637","img/0_330.png","70","image-keyboard-response","359","310429","0.0-6.0-1.176","VASC","2","f","rechts","21","","","self","f","0","true"
"null","<div style=""font-size:60px;"">+</div>","null","html-keyboard-response","360","310780","0.0-6.0-0.177","VASC","2","f","rechts","21","","fixation","","","",""
"1251","img/90_150.png","70","image-keyboard-response","361","312039","0.0-6.0-1.177","VASC","2","f","rechts","21","","","self","f","90","true"
"null","<div style=""font-size:60px;"">+</div>","null","html-keyboard-response","362","312511","0.0-6.0-0.178","VASC","2","f","rechts","21","","fixation","","","",""
"762","img/0_30.png","74","image-keyboard-response","363","313289","0.0-6.0-1.178","VASC","2","f","rechts","21","","","self","j","0","true"
"null","<div style=""font-size:60px;"">+</div>","null","html-keyboard-response","364","313646","0.0-6.0-0.179","VASC","2","f","rechts","21","","fixation","","","",""
"851","img/L120_180.png","70","image-keyboard-response","365","314502","0.0-6.0-1.179","VASC","2","f","rechts","21","","","self","f","120","true"
"null","<div style=""font-size:60px;"">+</div>","null","html-keyboard-response","366","314819","0.0-6.0-0.180","VASC","2","f","rechts","21","","fixation","","","",""
"1280","img/30_120.png","74","image-keyboard-response","367","316113","0.0-6.0-1.180","VASC","2","f","rechts","21","","","self","j","30","true"
"null","<div style=""font-size:60px;"">+</div>","null","html-keyboard-response","368","316521","0.0-6.0-0.181","VASC","2","f","rechts","21","","fixation","","","",""
"767","img/L150_180.png","70","image-keyboard-response","369","317304","0.0-6.0-1.181","VASC","2","f","rechts","21","","","self","f","150","true"
"null","<div style=""font-size:60px;"">+</div>","null","html-keyboard-response","370","317783","0.0-6.0-0.182","VASC","2","f","rechts","21","","fixation","","","",""
"1690","img/150_240.png","74","image-keyboard-response","371","319488","0.0-6.0-1.182","VASC","2","f","rechts","21","","","self","j","150","true"
"null","<div style=""font-size:60px;"">+</div>","null","html-keyboard-response","372","319797","0.0-6.0-0.183","VASC","2","f","rechts","21","","fixation","","","",""
"1217","img/30_60.png","74","image-keyboard-response","373","321027","0.0-6.0-1.183","VASC","2","f","rechts","21","","","self","j","30","true"
"null","<div style=""font-size:60px;"">+</div>","null","html-keyboard-response","374","321490","0.0-6.0-0.184","VASC","2","f","rechts","21","","fixation","","","",""
"1119","img/60_210.png","74","image-keyboard-response","375","322623","0.0-6.0-1.184","VASC","2","f","rechts","21","","","self","j","60","true"
"null","<div style=""font-size:60px;"">+</div>","null","html-keyboard-response","376","323100","0.0-6.0-0.185","VASC","2","f","rechts","21","","fixation","","","",""
"781","img/30_90.png","74","image-keyboard-response","377","323897","0.0-6.0-1.185","VASC","2","f","rechts","21","","","self","j","30","true"
"null","<div style=""font-size:60px;"">+</div>","null","html-keyboard-response","378","324317","0.0-6.0-0.186","VASC","2","f","rechts","21","","fixation","","","",""
"759","img/0_300.png","70","image-keyboard-response","379","325090","0.0-6.0-1.186","VASC","2","f","rechts","21","","","self","f","0","true"
"null","<div style=""font-size:60px;"">+</div>","null","html-keyboard-response","380","325412","0.0-6.0-0.187","VASC","2","f","rechts","21","","fixation","","","",""
"1100","img/150_270.png","74","image-keyboard-response","381","326529","0.0-6.0-1.187","VASC","2","f","rechts","21","","","self","j","150","true"
"null","<div style=""font-size:60px;"">+</div>","null","html-keyboard-response","382","326944","0.0-6.0-0.188","VASC","2","f","rechts","21","","fixation","","","",""
"1103","img/90_30.png","74","image-keyboard-response","383","328060","0.0-6.0-1.188","VASC","2","f","rechts","21","","","self","j","90","true"
"null","<div style=""font-size:60px;"">+</div>","null","html-keyboard-response","384","328490","0.0-6.0-0.189","VASC","2","f","rechts","21","","fixation","","","",""
"1682","img/150_90.png","70","image-keyboard-response","385","330186","0.0-6.0-1.189","VASC","2","f","rechts","21","","","self","f","150","true"
"null","<div style=""font-size:60px;"">+</div>","null","html-keyboard-response","386","330709","0.0-6.0-0.190","VASC","2","f","rechts","21","","fixation","","","",""
"1273","img/120_270.png","74","image-keyboard-response","387","331995","0.0-6.0-1.190","VASC","2","f","rechts","21","","","self","j","120","true"
"null","<div style=""font-size:60px;"">+</div>","null","html-keyboard-response","388","332360","0.0-6.0-0.191","VASC","2","f","rechts","21","","fixation","","","",""
"704","img/150_180.png","74","image-keyboard-response","389","333077","0.0-6.0-1.191","VASC","2","f","rechts","21","","","self","j","150","true"
"null","<div style=""font-size:60px;"">+</div>","null","html-keyboard-response","390","333438","0.0-6.0-0.192","VASC","2","f","rechts","21","","fixation","","","",""
"909","img/120_150.png","70","image-keyboard-response","391","334359","0.0-6.0-1.192","VASC","2","f","rechts","21","","","self","f","120","true"
"null","<div style=""font-size:60px;"">+</div>","null","html-keyboard-response","392","334668","0.0-6.0-0.193","VASC","2","f","rechts","21","","fixation","","","",""
"1216","img/L30_180.png","70","image-keyboard-response","393","335889","0.0-6.0-1.193","VASC","2","f","rechts","21","","","self","f","30","true"
"null","<div style=""font-size:60px;"">+</div>","null","html-keyboard-response","394","336403","0.0-6.0-0.194","VASC","2","f","rechts","21","","fixation","","","",""
"947","img/90_240.png","74","image-keyboard-response","395","337363","0.0-6.0-1.194","VASC","2","f","rechts","21","","","self","j","90","true"
"null","<div style=""font-size:60px;"">+</div>","null","html-keyboard-response","396","337715","0.0-6.0-0.195","VASC","2","f","rechts","21","","fixation","","","",""
"702","img/0_150.png","74","image-keyboard-response","397","338433","0.0-6.0-1.195","VASC","2","f","rechts","21","","","self","j","0","true"
"null","<div style=""font-size:60px;"">+</div>","null","html-keyboard-response","398","338762","0.0-6.0-0.196","VASC","2","f","rechts","21","","fixation","","","",""
"1083","img/60_90.png","74","image-keyboard-response","399","339858","0.0-6.0-1.196","VASC","2","f","rechts","21","","","self","j","60","true"
"null","<div style=""font-size:60px;"">+</div>","null","html-keyboard-response","400","340214","0.0-6.0-0.197","VASC","2","f","rechts","21","","fixation","","","",""
"1027","img/60_150.png","70","image-keyboard-response","401","341256","0.0-6.0-1.197","VASC","2","f","rechts","21","","","self","f","60","true"
"null","<div style=""font-size:60px;"">+</div>","null","html-keyboard-response","402","341573","0.0-6.0-0.198","VASC","2","f","rechts","21","","fixation","","","",""
"756","img/0_90.png","74","image-keyboard-response","403","342347","0.0-6.0-1.198","VASC","2","f","rechts","21","","","self","j","0","true"
"null","<div style=""font-size:60px;"">+</div>","null","html-keyboard-response","404","342822","0.0-6.0-0.199","VASC","2","f","rechts","21","","fixation","","","",""
"1243","img/60_270.png","70","image-keyboard-response","405","344079","0.0-6.0-1.199","VASC","2","f","rechts","21","","","self","f","60","true"
"null","<div style=""font-size:60px;"">+</div>","null","html-keyboard-response","406","344556","0.0-6.0-0.200","VASC","2","f","rechts","21","","fixation","","","",""
"1095","img/90_120.png","70","image-keyboard-response","407","345663","0.0-6.0-1.200","VASC","2","f","rechts","21","","","self","f","90","true"
"null","<div style=""font-size:60px;"">+</div>","null","html-keyboard-response","408","346071","0.0-6.0-0.201","VASC","2","f","rechts","21","","fixation","","","",""
"2677","img/30_240.png","70","image-keyboard-response","409","348761","0.0-6.0-1.201","VASC","2","f","rechts","21","","","self","f","30","true"
"null","<div style=""font-size:60px;"">+</div>","null","html-keyboard-response","410","349117","0.0-6.0-0.202","VASC","2","f","rechts","21","","fixation","","","",""
"1316","img/120_90.png","70","image-keyboard-response","411","350446","0.0-6.0-1.202","VASC","2","f","rechts","21","","","self","f","120","true"
"null","<div style=""font-size:60px;"">+</div>","null","html-keyboard-response","412","350757","0.0-6.0-0.203","VASC","2","f","rechts","21","","fixation","","","",""
"1161","img/120_180.png","74","image-keyboard-response","413","351931","0.0-6.0-1.203","VASC","2","f","rechts","21","","","self","j","120","true"
"null","<div style=""font-size:60px;"">+</div>","null","html-keyboard-response","414","352390","0.0-6.0-0.204","VASC","2","f","rechts","21","","fixation","","","",""
"1182","img/150_60.png","70","image-keyboard-response","415","353585","0.0-6.0-1.204","VASC","2","f","rechts","21","","","self","f","150","true"
"null","<div style=""font-size:60px;"">+</div>","null","html-keyboard-response","416","354041","0.0-6.0-0.205","VASC","2","f","rechts","21","","fixation","","","",""
"690","img/0_60.png","74","image-keyboard-response","417","354745","0.0-6.0-1.205","VASC","2","f","rechts","21","","","self","j","0","true"
"null","<div style=""font-size:60px;"">+</div>","null","html-keyboard-response","418","355149","0.0-6.0-0.206","VASC","2","f","rechts","21","","fixation","","","",""
"1023","img/90_180.png","74","image-keyboard-response","419","356187","0.0-6.0-1.206","VASC","2","f","rechts","21","","","self","j","90","true"
"null","<div style=""font-size:60px;"">+</div>","null","html-keyboard-response","420","356667","0.0-6.0-0.207","VASC","2","f","rechts","21","","fixation","","","",""
"1672","img/60_330.png","70","image-keyboard-response","421","358344","0.0-6.0-1.207","VASC","2","f","rechts","21","","","self","f","60","true"
"10147","<p>Du hast in 96% der Versuche korrekt entschieden.</p><p>Deine durchschnittliche Reaktionszeit war  1088ms.</p><p>Dr&uuml;cke eine beliebige Taste, um die Session zu beenden. Vielen Dank!</p>","32","html-keyboard-response","422","368498","0.0-7.0","VASC","2","f","rechts","21","","","","","",""
