"rt","stimulus","key_press","trial_type","trial_index","time_elapsed","internal_node_id","subject","session","sex","handedness","age","responses","test_part","condition","correct_response","angle","correct"
"32374","<p>Mental Rotation Experiment.</p> <p>Dr&uuml;cke eine beliebige Taste, um anzufangen.</p>","13","html-keyboard-response","0","32411","0.0-0.0","VASC","3","f","rechts","21","","","","","",""
"12100","","","survey-text","1","44513","0.0-1.0","VASC","3","f","rechts","21","{""Q0"":""VASC""}","","","","",""
"6439","","","survey-text","2","50954","0.0-2.0","VASC","3","f","rechts","21","{""Q0"":""3""}","","","","",""
"3146","","","survey-multi-choice","3","54106","0.0-3.0","VASC","3","f","rechts","21","{""Q0"":""f"",""Q1"":""rechts""}","","","","",""
"3090","","","survey-text","4","57199","0.0-4.0","VASC","3","f","rechts","21","{""Q0"":""21""}","","","","",""
"144980","<p> Stell dir vor, dass du vor einem runden Tisch stehst, auf dem sich ein blauer Ball am Tischrand befindet. Entlang des Tischrands ist jeweils ein verschieden langer Pfeil. Nun bewegst du dich entlang dieses Pfeils bis an seine Spitze. Wenn du am Ende des Pfeils angekommen bist, schau zur Tischmitte. </p> <img src='img/90_180.png'></img> <br> <p>Entscheide dann, ob der Ball von deiner neuen (vorgestellten) Position links oder rechts von dir liegt.</p> <p>Dr&uuml;cke die <strong>'f'</strong>-Taste f&uuml;r links, die <strong>'j'</strong>-Taste f&uuml;r rechts.</p> <br><p> Das Bild wird jeweils 1 Sekunde lang pr&auml;sentiert. Du hast 3 Sekunden Zeit eine Entscheidung zu treffen.</p>","13","html-keyboard-response","5","202187","0.0-5.0","VASC","3","f","rechts","21","","","","","",""
"null","<div style=""font-size:60px;"">+</div>","null","html-keyboard-response","6","203715","0.0-6.0-0.0","VASC","3","f","rechts","21","","fixation","","","",""
"1558","img/0_120.png","74","image-keyboard-response","7","205294","0.0-6.0-1.0","VASC","3","f","rechts","21","","","self","j","0","true"
"null","<div style=""font-size:60px;"">+</div>","null","html-keyboard-response","8","205727","0.0-6.0-0.1","VASC","3","f","rechts","21","","fixation","","","",""
"1131","img/L150_180.png","70","image-keyboard-response","9","206875","0.0-6.0-1.1","VASC","3","f","rechts","21","","","self","f","150","true"
"null","<div style=""font-size:60px;"">+</div>","null","html-keyboard-response","10","207398","0.0-6.0-0.2","VASC","3","f","rechts","21","","fixation","","","",""
"779","img/120_180.png","74","image-keyboard-response","11","208192","0.0-6.0-1.2","VASC","3","f","rechts","21","","","self","j","120","true"
"null","<div style=""font-size:60px;"">+</div>","null","html-keyboard-response","12","208508","0.0-6.0-0.3","VASC","3","f","rechts","21","","fixation","","","",""
"766","img/0_240.png","70","image-keyboard-response","13","209294","0.0-6.0-1.3","VASC","3","f","rechts","21","","","self","f","0","true"
"null","<div style=""font-size:60px;"">+</div>","null","html-keyboard-response","14","209820","0.0-6.0-0.4","VASC","3","f","rechts","21","","fixation","","","",""
"963","img/90_30.png","74","image-keyboard-response","15","210802","0.0-6.0-1.4","VASC","3","f","rechts","21","","","self","j","90","true"
"null","<div style=""font-size:60px;"">+</div>","null","html-keyboard-response","16","211304","0.0-6.0-0.5","VASC","3","f","rechts","21","","fixation","","","",""
"916","img/90_60.png","74","image-keyboard-response","17","212240","0.0-6.0-1.5","VASC","3","f","rechts","21","","","self","j","90","true"
"null","<div style=""font-size:60px;"">+</div>","null","html-keyboard-response","18","212757","0.0-6.0-0.6","VASC","3","f","rechts","21","","fixation","","","",""
"681","img/0_300.png","70","image-keyboard-response","19","213454","0.0-6.0-1.6","VASC","3","f","rechts","21","","","self","f","0","true"
"null","<div style=""font-size:60px;"">+</div>","null","html-keyboard-response","20","213759","0.0-6.0-0.7","VASC","3","f","rechts","21","","fixation","","","",""
"950","img/150_90.png","74","image-keyboard-response","21","214727","0.0-6.0-1.7","VASC","3","f","rechts","21","","","self","f","150","false"
"null","<div style=""font-size:60px;"">+</div>","null","html-keyboard-response","22","215150","0.0-6.0-0.8","VASC","3","f","rechts","21","","fixation","","","",""
"2202","img/120_270.png","74","image-keyboard-response","23","217370","0.0-6.0-1.8","VASC","3","f","rechts","21","","","self","j","120","true"
"null","<div style=""font-size:60px;"">+</div>","null","html-keyboard-response","24","217678","0.0-6.0-0.9","VASC","3","f","rechts","21","","fixation","","","",""
"721","img/150_240.png","74","image-keyboard-response","25","218416","0.0-6.0-1.9","VASC","3","f","rechts","21","","","self","j","150","true"
"null","<div style=""font-size:60px;"">+</div>","null","html-keyboard-response","26","218869","0.0-6.0-0.10","VASC","3","f","rechts","21","","fixation","","","",""
"782","img/0_60.png","74","image-keyboard-response","27","219667","0.0-6.0-1.10","VASC","3","f","rechts","21","","","self","j","0","true"
"null","<div style=""font-size:60px;"">+</div>","null","html-keyboard-response","28","220071","0.0-6.0-0.11","VASC","3","f","rechts","21","","fixation","","","",""
"1029","img/120_90.png","70","image-keyboard-response","29","221118","0.0-6.0-1.11","VASC","3","f","rechts","21","","","self","f","120","true"
"null","<div style=""font-size:60px;"">+</div>","null","html-keyboard-response","30","221473","0.0-6.0-0.12","VASC","3","f","rechts","21","","fixation","","","",""
"907","img/60_180.png","74","image-keyboard-response","31","222389","0.0-6.0-1.12","VASC","3","f","rechts","21","","","self","j","60","true"
"null","<div style=""font-size:60px;"">+</div>","null","html-keyboard-response","32","222692","0.0-6.0-0.13","VASC","3","f","rechts","21","","fixation","","","",""
"1119","img/30_240.png","70","image-keyboard-response","33","223828","0.0-6.0-1.13","VASC","3","f","rechts","21","","","self","f","30","true"
"null","<div style=""font-size:60px;"">+</div>","null","html-keyboard-response","34","224302","0.0-6.0-0.14","VASC","3","f","rechts","21","","fixation","","","",""
"756","img/150_180.png","74","image-keyboard-response","35","225078","0.0-6.0-1.14","VASC","3","f","rechts","21","","","self","j","150","true"
"null","<div style=""font-size:60px;"">+</div>","null","html-keyboard-response","36","225395","0.0-6.0-0.15","VASC","3","f","rechts","21","","fixation","","","",""
"1034","img/120_30.png","74","image-keyboard-response","37","226448","0.0-6.0-1.15","VASC","3","f","rechts","21","","","self","j","120","true"
"null","<div style=""font-size:60px;"">+</div>","null","html-keyboard-response","38","226864","0.0-6.0-0.16","VASC","3","f","rechts","21","","fixation","","","",""
"1096","img/60_210.png","74","image-keyboard-response","39","227980","0.0-6.0-1.16","VASC","3","f","rechts","21","","","self","j","60","true"
"null","<div style=""font-size:60px;"">+</div>","null","html-keyboard-response","40","228286","0.0-6.0-0.17","VASC","3","f","rechts","21","","fixation","","","",""
"823","img/120_210.png","74","image-keyboard-response","41","229128","0.0-6.0-1.17","VASC","3","f","rechts","21","","","self","j","120","true"
"null","<div style=""font-size:60px;"">+</div>","null","html-keyboard-response","42","229597","0.0-6.0-0.18","VASC","3","f","rechts","21","","fixation","","","",""
"612","img/90_180.png","74","image-keyboard-response","43","230219","0.0-6.0-1.18","VASC","3","f","rechts","21","","","self","j","90","true"
"null","<div style=""font-size:60px;"">+</div>","null","html-keyboard-response","44","230534","0.0-6.0-0.19","VASC","3","f","rechts","21","","fixation","","","",""
"1039","img/30_180.png","74","image-keyboard-response","45","231580","0.0-6.0-1.19","VASC","3","f","rechts","21","","","self","j","30","true"
"null","<div style=""font-size:60px;"">+</div>","null","html-keyboard-response","46","231910","0.0-6.0-0.20","VASC","3","f","rechts","21","","fixation","","","",""
"799","img/L90_180.png","70","image-keyboard-response","47","232728","0.0-6.0-1.20","VASC","3","f","rechts","21","","","self","f","90","true"
"null","<div style=""font-size:60px;"">+</div>","null","html-keyboard-response","48","233254","0.0-6.0-0.21","VASC","3","f","rechts","21","","fixation","","","",""
"963","img/60_330.png","70","image-keyboard-response","49","234235","0.0-6.0-1.21","VASC","3","f","rechts","21","","","self","f","60","true"
"null","<div style=""font-size:60px;"">+</div>","null","html-keyboard-response","50","234616","0.0-6.0-0.22","VASC","3","f","rechts","21","","fixation","","","",""
"1200","img/150_120.png","70","image-keyboard-response","51","235833","0.0-6.0-1.22","VASC","3","f","rechts","21","","","self","f","150","true"
"null","<div style=""font-size:60px;"">+</div>","null","html-keyboard-response","52","236241","0.0-6.0-0.23","VASC","3","f","rechts","21","","fixation","","","",""
"789","img/0_330.png","70","image-keyboard-response","53","237047","0.0-6.0-1.23","VASC","3","f","rechts","21","","","self","f","0","true"
"null","<div style=""font-size:60px;"">+</div>","null","html-keyboard-response","54","237366","0.0-6.0-0.24","VASC","3","f","rechts","21","","fixation","","","",""
"699","img/0_210.png","70","image-keyboard-response","55","238083","0.0-6.0-1.24","VASC","3","f","rechts","21","","","self","f","0","true"
"null","<div style=""font-size:60px;"">+</div>","null","html-keyboard-response","56","238536","0.0-6.0-0.25","VASC","3","f","rechts","21","","fixation","","","",""
"1644","img/60_90.png","74","image-keyboard-response","57","240187","0.0-6.0-1.25","VASC","3","f","rechts","21","","","self","j","60","true"
"null","<div style=""font-size:60px;"">+</div>","null","html-keyboard-response","58","240700","0.0-6.0-0.26","VASC","3","f","rechts","21","","fixation","","","",""
"1192","img/60_150.png","70","image-keyboard-response","59","241908","0.0-6.0-1.26","VASC","3","f","rechts","21","","","self","f","60","true"
"null","<div style=""font-size:60px;"">+</div>","null","html-keyboard-response","60","242435","0.0-6.0-0.27","VASC","3","f","rechts","21","","fixation","","","",""
"913","img/90_330.png","70","image-keyboard-response","61","243358","0.0-6.0-1.27","VASC","3","f","rechts","21","","","self","f","90","true"
"null","<div style=""font-size:60px;"">+</div>","null","html-keyboard-response","62","243715","0.0-6.0-0.28","VASC","3","f","rechts","21","","fixation","","","",""
"782","img/0_90.png","74","image-keyboard-response","63","244514","0.0-6.0-1.28","VASC","3","f","rechts","21","","","self","j","0","true"
"null","<div style=""font-size:60px;"">+</div>","null","html-keyboard-response","64","244981","0.0-6.0-0.29","VASC","3","f","rechts","21","","fixation","","","",""
"1024","img/150_60.png","70","image-keyboard-response","65","246026","0.0-6.0-1.29","VASC","3","f","rechts","21","","","self","f","150","true"
"null","<div style=""font-size:60px;"">+</div>","null","html-keyboard-response","66","246450","0.0-6.0-0.30","VASC","3","f","rechts","21","","fixation","","","",""
"1556","img/150_300.png","74","image-keyboard-response","67","248017","0.0-6.0-1.30","VASC","3","f","rechts","21","","","self","j","150","true"
"null","<div style=""font-size:60px;"">+</div>","null","html-keyboard-response","68","248480","0.0-6.0-0.31","VASC","3","f","rechts","21","","fixation","","","",""
"891","img/90_150.png","70","image-keyboard-response","69","249378","0.0-6.0-1.31","VASC","3","f","rechts","21","","","self","f","90","true"
"null","<div style=""font-size:60px;"">+</div>","null","html-keyboard-response","70","249841","0.0-6.0-0.32","VASC","3","f","rechts","21","","fixation","","","",""
"1632","img/60_30.png","74","image-keyboard-response","71","251491","0.0-6.0-1.32","VASC","3","f","rechts","21","","","self","j","60","true"
"null","<div style=""font-size:60px;"">+</div>","null","html-keyboard-response","72","251921","0.0-6.0-0.33","VASC","3","f","rechts","21","","fixation","","","",""
"802","img/120_150.png","70","image-keyboard-response","73","252742","0.0-6.0-1.33","VASC","3","f","rechts","21","","","self","f","120","true"
"null","<div style=""font-size:60px;"">+</div>","null","html-keyboard-response","74","253251","0.0-6.0-0.34","VASC","3","f","rechts","21","","fixation","","","",""
"609","img/L120_180.png","70","image-keyboard-response","75","253878","0.0-6.0-1.34","VASC","3","f","rechts","21","","","self","f","120","true"
"null","<div style=""font-size:60px;"">+</div>","null","html-keyboard-response","76","254342","0.0-6.0-0.35","VASC","3","f","rechts","21","","fixation","","","",""
"1093","img/30_90.png","74","image-keyboard-response","77","255453","0.0-6.0-1.35","VASC","3","f","rechts","21","","","self","j","30","true"
"null","<div style=""font-size:60px;"">+</div>","null","html-keyboard-response","78","255769","0.0-6.0-0.36","VASC","3","f","rechts","21","","fixation","","","",""
"1297","img/90_240.png","74","image-keyboard-response","79","257085","0.0-6.0-1.36","VASC","3","f","rechts","21","","","self","j","90","true"
"null","<div style=""font-size:60px;"">+</div>","null","html-keyboard-response","80","257442","0.0-6.0-0.37","VASC","3","f","rechts","21","","fixation","","","",""
"781","img/0_30.png","74","image-keyboard-response","81","258243","0.0-6.0-1.37","VASC","3","f","rechts","21","","","self","j","0","true"
"null","<div style=""font-size:60px;"">+</div>","null","html-keyboard-response","82","258561","0.0-6.0-0.38","VASC","3","f","rechts","21","","fixation","","","",""
"1061","img/L30_180.png","70","image-keyboard-response","83","259628","0.0-6.0-1.38","VASC","3","f","rechts","21","","","self","f","30","true"
"null","<div style=""font-size:60px;"">+</div>","null","html-keyboard-response","84","259953","0.0-6.0-0.39","VASC","3","f","rechts","21","","fixation","","","",""
"1030","img/150_270.png","74","image-keyboard-response","85","261001","0.0-6.0-1.39","VASC","3","f","rechts","21","","","self","j","150","true"
"null","<div style=""font-size:60px;"">+</div>","null","html-keyboard-response","86","261468","0.0-6.0-0.40","VASC","3","f","rechts","21","","fixation","","","",""
"655","img/90_210.png","74","image-keyboard-response","87","262136","0.0-6.0-1.40","VASC","3","f","rechts","21","","","self","j","90","true"
"null","<div style=""font-size:60px;"">+</div>","null","html-keyboard-response","88","262655","0.0-6.0-0.41","VASC","3","f","rechts","21","","fixation","","","",""
"1544","img/90_300.png","70","image-keyboard-response","89","264217","0.0-6.0-1.41","VASC","3","f","rechts","21","","","self","f","90","true"
"null","<div style=""font-size:60px;"">+</div>","null","html-keyboard-response","90","264548","0.0-6.0-0.42","VASC","3","f","rechts","21","","fixation","","","",""
"871","img/30_300.png","70","image-keyboard-response","91","265430","0.0-6.0-1.42","VASC","3","f","rechts","21","","","self","f","30","true"
"null","<div style=""font-size:60px;"">+</div>","null","html-keyboard-response","92","265746","0.0-6.0-0.43","VASC","3","f","rechts","21","","fixation","","","",""
"613","img/30_270.png","70","image-keyboard-response","93","266377","0.0-6.0-1.43","VASC","3","f","rechts","21","","","self","f","30","true"
"null","<div style=""font-size:60px;"">+</div>","null","html-keyboard-response","94","266856","0.0-6.0-0.44","VASC","3","f","rechts","21","","fixation","","","",""
"1203","img/120_330.png","70","image-keyboard-response","95","268077","0.0-6.0-1.44","VASC","3","f","rechts","21","","","self","f","120","true"
"null","<div style=""font-size:60px;"">+</div>","null","html-keyboard-response","96","268433","0.0-6.0-0.45","VASC","3","f","rechts","21","","fixation","","","",""
"1048","img/30_60.png","74","image-keyboard-response","97","269492","0.0-6.0-1.45","VASC","3","f","rechts","21","","","self","j","30","true"
"null","<div style=""font-size:60px;"">+</div>","null","html-keyboard-response","98","269808","0.0-6.0-0.46","VASC","3","f","rechts","21","","fixation","","","",""
"805","img/0_270.png","70","image-keyboard-response","99","270632","0.0-6.0-1.46","VASC","3","f","rechts","21","","","self","f","0","true"
"null","<div style=""font-size:60px;"">+</div>","null","html-keyboard-response","100","271137","0.0-6.0-0.47","VASC","3","f","rechts","21","","fixation","","","",""
"801","img/0_150.png","74","image-keyboard-response","101","271958","0.0-6.0-1.47","VASC","3","f","rechts","21","","","self","j","0","true"
"null","<div style=""font-size:60px;"">+</div>","null","html-keyboard-response","102","272464","0.0-6.0-0.48","VASC","3","f","rechts","21","","fixation","","","",""
"786","img/L60_180.png","70","image-keyboard-response","103","273263","0.0-6.0-1.48","VASC","3","f","rechts","21","","","self","f","60","true"
"null","<div style=""font-size:60px;"">+</div>","null","html-keyboard-response","104","273670","0.0-6.0-0.49","VASC","3","f","rechts","21","","fixation","","","",""
"914","img/60_270.png","70","image-keyboard-response","105","274601","0.0-6.0-1.49","VASC","3","f","rechts","21","","","self","f","60","true"
"null","<div style=""font-size:60px;"">+</div>","null","html-keyboard-response","106","274982","0.0-6.0-0.50","VASC","3","f","rechts","21","","fixation","","","",""
"873","img/30_120.png","74","image-keyboard-response","107","275872","0.0-6.0-1.50","VASC","3","f","rechts","21","","","self","j","30","true"
"null","<div style=""font-size:60px;"">+</div>","null","html-keyboard-response","108","276247","0.0-6.0-0.51","VASC","3","f","rechts","21","","fixation","","","",""
"968","img/90_120.png","70","image-keyboard-response","109","277234","0.0-6.0-1.51","VASC","3","f","rechts","21","","","self","f","90","true"
"null","<div style=""font-size:60px;"">+</div>","null","html-keyboard-response","110","277592","0.0-6.0-0.52","VASC","3","f","rechts","21","","fixation","","","",""
"734","img/0_270.png","70","image-keyboard-response","111","278335","0.0-6.0-1.52","VASC","3","f","rechts","21","","","self","f","0","true"
"null","<div style=""font-size:60px;"">+</div>","null","html-keyboard-response","112","278701","0.0-6.0-0.53","VASC","3","f","rechts","21","","fixation","","","",""
"849","img/60_150.png","70","image-keyboard-response","113","279561","0.0-6.0-1.53","VASC","3","f","rechts","21","","","self","f","60","true"
"null","<div style=""font-size:60px;"">+</div>","null","html-keyboard-response","114","279935","0.0-6.0-0.54","VASC","3","f","rechts","21","","fixation","","","",""
"889","img/90_120.png","70","image-keyboard-response","115","280833","0.0-6.0-1.54","VASC","3","f","rechts","21","","","self","f","90","true"
"null","<div style=""font-size:60px;"">+</div>","null","html-keyboard-response","116","281202","0.0-6.0-0.55","VASC","3","f","rechts","21","","fixation","","","",""
"949","img/60_30.png","74","image-keyboard-response","117","282161","0.0-6.0-1.55","VASC","3","f","rechts","21","","","self","j","60","true"
"null","<div style=""font-size:60px;"">+</div>","null","html-keyboard-response","118","282528","0.0-6.0-0.56","VASC","3","f","rechts","21","","fixation","","","",""
"1657","img/150_300.png","74","image-keyboard-response","119","284188","0.0-6.0-1.56","VASC","3","f","rechts","21","","","self","j","150","true"
"null","<div style=""font-size:60px;"">+</div>","null","html-keyboard-response","120","284591","0.0-6.0-0.57","VASC","3","f","rechts","21","","fixation","","","",""
"1010","img/90_30.png","74","image-keyboard-response","121","285614","0.0-6.0-1.57","VASC","3","f","rechts","21","","","self","j","90","true"
"null","<div style=""font-size:60px;"">+</div>","null","html-keyboard-response","122","286076","0.0-6.0-0.58","VASC","3","f","rechts","21","","fixation","","","",""
"801","img/L60_180.png","70","image-keyboard-response","123","286887","0.0-6.0-1.58","VASC","3","f","rechts","21","","","self","f","60","true"
"null","<div style=""font-size:60px;"">+</div>","null","html-keyboard-response","124","287404","0.0-6.0-0.59","VASC","3","f","rechts","21","","fixation","","","",""
"921","img/60_210.png","74","image-keyboard-response","125","288337","0.0-6.0-1.59","VASC","3","f","rechts","21","","","self","j","60","true"
"null","<div style=""font-size:60px;"">+</div>","null","html-keyboard-response","126","288642","0.0-6.0-0.60","VASC","3","f","rechts","21","","fixation","","","",""
"827","img/L90_180.png","70","image-keyboard-response","127","289483","0.0-6.0-1.60","VASC","3","f","rechts","21","","","self","f","90","true"
"null","<div style=""font-size:60px;"">+</div>","null","html-keyboard-response","128","289783","0.0-6.0-0.61","VASC","3","f","rechts","21","","fixation","","","",""
"874","img/90_300.png","70","image-keyboard-response","129","290666","0.0-6.0-1.61","VASC","3","f","rechts","21","","","self","f","90","true"
"null","<div style=""font-size:60px;"">+</div>","null","html-keyboard-response","130","290986","0.0-6.0-0.62","VASC","3","f","rechts","21","","fixation","","","",""
"717","img/90_330.png","70","image-keyboard-response","131","291712","0.0-6.0-1.62","VASC","3","f","rechts","21","","","self","f","90","true"
"null","<div style=""font-size:60px;"">+</div>","null","html-keyboard-response","132","292079","0.0-6.0-0.63","VASC","3","f","rechts","21","","fixation","","","",""
"860","img/120_150.png","70","image-keyboard-response","133","292950","0.0-6.0-1.63","VASC","3","f","rechts","21","","","self","f","120","true"
"null","<div style=""font-size:60px;"">+</div>","null","html-keyboard-response","134","293314","0.0-6.0-0.64","VASC","3","f","rechts","21","","fixation","","","",""
"985","img/60_180.png","74","image-keyboard-response","135","294312","0.0-6.0-1.64","VASC","3","f","rechts","21","","","self","j","60","true"
"null","<div style=""font-size:60px;"">+</div>","null","html-keyboard-response","136","294628","0.0-6.0-0.65","VASC","3","f","rechts","21","","fixation","","","",""
"814","img/150_90.png","70","image-keyboard-response","137","295455","0.0-6.0-1.65","VASC","3","f","rechts","21","","","self","f","150","true"
"null","<div style=""font-size:60px;"">+</div>","null","html-keyboard-response","138","295925","0.0-6.0-0.66","VASC","3","f","rechts","21","","fixation","","","",""
"696","img/0_150.png","74","image-keyboard-response","139","296630","0.0-6.0-1.66","VASC","3","f","rechts","21","","","self","j","0","true"
"null","<div style=""font-size:60px;"">+</div>","null","html-keyboard-response","140","297143","0.0-6.0-0.67","VASC","3","f","rechts","21","","fixation","","","",""
"991","img/120_270.png","74","image-keyboard-response","141","298147","0.0-6.0-1.67","VASC","3","f","rechts","21","","","self","j","120","true"
"null","<div style=""font-size:60px;"">+</div>","null","html-keyboard-response","142","298558","0.0-6.0-0.68","VASC","3","f","rechts","21","","fixation","","","",""
"721","img/150_180.png","74","image-keyboard-response","143","299284","0.0-6.0-1.68","VASC","3","f","rechts","21","","","self","j","150","true"
"null","<div style=""font-size:60px;"">+</div>","null","html-keyboard-response","144","299638","0.0-6.0-0.69","VASC","3","f","rechts","21","","fixation","","","",""
"928","img/30_90.png","74","image-keyboard-response","145","300576","0.0-6.0-1.69","VASC","3","f","rechts","21","","","self","j","30","true"
"null","<div style=""font-size:60px;"">+</div>","null","html-keyboard-response","146","300989","0.0-6.0-0.70","VASC","3","f","rechts","21","","fixation","","","",""
"950","img/60_330.png","70","image-keyboard-response","147","301951","0.0-6.0-1.70","VASC","3","f","rechts","21","","","self","f","60","true"
"null","<div style=""font-size:60px;"">+</div>","null","html-keyboard-response","148","302269","0.0-6.0-0.71","VASC","3","f","rechts","21","","fixation","","","",""
"1111","img/90_240.png","74","image-keyboard-response","149","303390","0.0-6.0-1.71","VASC","3","f","rechts","21","","","self","j","90","true"
"null","<div style=""font-size:60px;"">+</div>","null","html-keyboard-response","150","303716","0.0-6.0-0.72","VASC","3","f","rechts","21","","fixation","","","",""
"731","img/90_180.png","74","image-keyboard-response","151","304460","0.0-6.0-1.72","VASC","3","f","rechts","21","","","self","j","90","true"
"null","<div style=""font-size:60px;"">+</div>","null","html-keyboard-response","152","304827","0.0-6.0-0.73","VASC","3","f","rechts","21","","fixation","","","",""
"654","img/0_330.png","70","image-keyboard-response","153","305494","0.0-6.0-1.73","VASC","3","f","rechts","21","","","self","f","0","true"
"null","<div style=""font-size:60px;"">+</div>","null","html-keyboard-response","154","305997","0.0-6.0-0.74","VASC","3","f","rechts","21","","fixation","","","",""
"893","img/L120_180.png","70","image-keyboard-response","155","306901","0.0-6.0-1.74","VASC","3","f","rechts","21","","","self","f","120","true"
"null","<div style=""font-size:60px;"">+</div>","null","html-keyboard-response","156","307232","0.0-6.0-0.75","VASC","3","f","rechts","21","","fixation","","","",""
"714","img/90_210.png","74","image-keyboard-response","157","307957","0.0-6.0-1.75","VASC","3","f","rechts","21","","","self","j","90","true"
"null","<div style=""font-size:60px;"">+</div>","null","html-keyboard-response","158","308310","0.0-6.0-0.76","VASC","3","f","rechts","21","","fixation","","","",""
"1054","img/120_90.png","70","image-keyboard-response","159","309376","0.0-6.0-1.76","VASC","3","f","rechts","21","","","self","f","120","true"
"null","<div style=""font-size:60px;"">+</div>","null","html-keyboard-response","160","309733","0.0-6.0-0.77","VASC","3","f","rechts","21","","fixation","","","",""
"845","img/30_270.png","70","image-keyboard-response","161","310588","0.0-6.0-1.77","VASC","3","f","rechts","21","","","self","f","30","true"
"null","<div style=""font-size:60px;"">+</div>","null","html-keyboard-response","162","311046","0.0-6.0-0.78","VASC","3","f","rechts","21","","fixation","","","",""
"962","img/120_210.png","74","image-keyboard-response","163","312020","0.0-6.0-1.78","VASC","3","f","rechts","21","","","self","j","120","true"
"null","<div style=""font-size:60px;"">+</div>","null","html-keyboard-response","164","312483","0.0-6.0-0.79","VASC","3","f","rechts","21","","fixation","","","",""
"1001","img/60_270.png","70","image-keyboard-response","165","313493","0.0-6.0-1.79","VASC","3","f","rechts","21","","","self","f","60","true"
"null","<div style=""font-size:60px;"">+</div>","null","html-keyboard-response","166","313796","0.0-6.0-0.80","VASC","3","f","rechts","21","","fixation","","","",""
"851","img/120_180.png","74","image-keyboard-response","167","314660","0.0-6.0-1.80","VASC","3","f","rechts","21","","","self","j","120","true"
"null","<div style=""font-size:60px;"">+</div>","null","html-keyboard-response","168","315076","0.0-6.0-0.81","VASC","3","f","rechts","21","","fixation","","","",""
"822","img/0_90.png","74","image-keyboard-response","169","315911","0.0-6.0-1.81","VASC","3","f","rechts","21","","","self","j","0","true"
"null","<div style=""font-size:60px;"">+</div>","null","html-keyboard-response","170","316421","0.0-6.0-0.82","VASC","3","f","rechts","21","","fixation","","","",""
"569","img/0_120.png","74","image-keyboard-response","171","317003","0.0-6.0-1.82","VASC","3","f","rechts","21","","","self","j","0","true"
"null","<div style=""font-size:60px;"">+</div>","null","html-keyboard-response","172","317420","0.0-6.0-0.83","VASC","3","f","rechts","21","","fixation","","","",""
"840","img/150_120.png","70","image-keyboard-response","173","318274","0.0-6.0-1.83","VASC","3","f","rechts","21","","","self","f","150","true"
"null","<div style=""font-size:60px;"">+</div>","null","html-keyboard-response","174","318687","0.0-6.0-0.84","VASC","3","f","rechts","21","","fixation","","","",""
"583","img/L150_180.png","70","image-keyboard-response","175","319275","0.0-6.0-1.84","VASC","3","f","rechts","21","","","self","f","150","true"
"null","<div style=""font-size:60px;"">+</div>","null","html-keyboard-response","176","319640","0.0-6.0-0.85","VASC","3","f","rechts","21","","fixation","","","",""
"913","img/150_60.png","70","image-keyboard-response","177","320558","0.0-6.0-1.85","VASC","3","f","rechts","21","","","self","f","150","true"
"null","<div style=""font-size:60px;"">+</div>","null","html-keyboard-response","178","320922","0.0-6.0-0.86","VASC","3","f","rechts","21","","fixation","","","",""
"1043","img/120_330.png","70","image-keyboard-response","179","321976","0.0-6.0-1.86","VASC","3","f","rechts","21","","","self","f","120","true"
"null","<div style=""font-size:60px;"">+</div>","null","html-keyboard-response","180","322400","0.0-6.0-0.87","VASC","3","f","rechts","21","","fixation","","","",""
"950","img/0_30.png","74","image-keyboard-response","181","323364","0.0-6.0-1.87","VASC","3","f","rechts","21","","","self","j","0","true"
"null","<div style=""font-size:60px;"">+</div>","null","html-keyboard-response","182","323728","0.0-6.0-0.88","VASC","3","f","rechts","21","","fixation","","","",""
"1126","img/120_30.png","74","image-keyboard-response","183","324866","0.0-6.0-1.88","VASC","3","f","rechts","21","","","self","j","120","true"
"null","<div style=""font-size:60px;"">+</div>","null","html-keyboard-response","184","325181","0.0-6.0-0.89","VASC","3","f","rechts","21","","fixation","","","",""
"1528","img/150_240.png","74","image-keyboard-response","185","326722","0.0-6.0-1.89","VASC","3","f","rechts","21","","","self","j","150","true"
"null","<div style=""font-size:60px;"">+</div>","null","html-keyboard-response","186","327149","0.0-6.0-0.90","VASC","3","f","rechts","21","","fixation","","","",""
"1115","img/30_240.png","70","image-keyboard-response","187","328276","0.0-6.0-1.90","VASC","3","f","rechts","21","","","self","f","30","true"
"null","<div style=""font-size:60px;"">+</div>","null","html-keyboard-response","188","328791","0.0-6.0-0.91","VASC","3","f","rechts","21","","fixation","","","",""
"1147","img/L30_180.png","70","image-keyboard-response","189","329951","0.0-6.0-1.91","VASC","3","f","rechts","21","","","self","f","30","true"
"null","<div style=""font-size:60px;"">+</div>","null","html-keyboard-response","190","330462","0.0-6.0-0.92","VASC","3","f","rechts","21","","fixation","","","",""
"995","img/0_210.png","70","image-keyboard-response","191","331471","0.0-6.0-1.92","VASC","3","f","rechts","21","","","self","f","0","true"
"null","<div style=""font-size:60px;"">+</div>","null","html-keyboard-response","192","331847","0.0-6.0-0.93","VASC","3","f","rechts","21","","fixation","","","",""
"null","img/30_120.png","null","image-keyboard-response","193","334855","0.0-6.0-1.93","VASC","3","f","rechts","21","","","self","j","30","false"
"null","<div style=""font-size:60px;"">+</div>","null","html-keyboard-response","194","335185","0.0-6.0-0.94","VASC","3","f","rechts","21","","fixation","","","",""
"175","img/30_300.png","74","image-keyboard-response","195","335378","0.0-6.0-1.94","VASC","3","f","rechts","21","","","self","f","30","false"
"null","<div style=""font-size:60px;"">+</div>","null","html-keyboard-response","196","335686","0.0-6.0-0.95","VASC","3","f","rechts","21","","fixation","","","",""
"2214","img/30_60.png","74","image-keyboard-response","197","337908","0.0-6.0-1.95","VASC","3","f","rechts","21","","","self","j","30","true"
"null","<div style=""font-size:60px;"">+</div>","null","html-keyboard-response","198","338216","0.0-6.0-0.96","VASC","3","f","rechts","21","","fixation","","","",""
"1284","img/60_90.png","74","image-keyboard-response","199","339514","0.0-6.0-1.96","VASC","3","f","rechts","21","","","self","j","60","true"
"null","<div style=""font-size:60px;"">+</div>","null","html-keyboard-response","200","339919","0.0-6.0-0.97","VASC","3","f","rechts","21","","fixation","","","",""
"2297","img/90_60.png","74","image-keyboard-response","201","342229","0.0-6.0-1.97","VASC","3","f","rechts","21","","","self","j","90","true"
"null","<div style=""font-size:60px;"">+</div>","null","html-keyboard-response","202","342694","0.0-6.0-0.98","VASC","3","f","rechts","21","","fixation","","","",""
"897","img/90_150.png","70","image-keyboard-response","203","343596","0.0-6.0-1.98","VASC","3","f","rechts","21","","","self","f","90","true"
"null","<div style=""font-size:60px;"">+</div>","null","html-keyboard-response","204","344015","0.0-6.0-0.99","VASC","3","f","rechts","21","","fixation","","","",""
"1067","img/150_270.png","74","image-keyboard-response","205","345094","0.0-6.0-1.99","VASC","3","f","rechts","21","","","self","j","150","true"
"null","<div style=""font-size:60px;"">+</div>","null","html-keyboard-response","206","345545","0.0-6.0-0.100","VASC","3","f","rechts","21","","fixation","","","",""
"683","img/0_60.png","74","image-keyboard-response","207","346241","0.0-6.0-1.100","VASC","3","f","rechts","21","","","self","j","0","true"
"null","<div style=""font-size:60px;"">+</div>","null","html-keyboard-response","208","346717","0.0-6.0-0.101","VASC","3","f","rechts","21","","fixation","","","",""
"714","img/0_240.png","70","image-keyboard-response","209","347446","0.0-6.0-1.101","VASC","3","f","rechts","21","","","self","f","0","true"
"null","<div style=""font-size:60px;"">+</div>","null","html-keyboard-response","210","347952","0.0-6.0-0.102","VASC","3","f","rechts","21","","fixation","","","",""
"966","img/30_180.png","74","image-keyboard-response","211","348931","0.0-6.0-1.102","VASC","3","f","rechts","21","","","self","j","30","true"
"null","<div style=""font-size:60px;"">+</div>","null","html-keyboard-response","212","349438","0.0-6.0-0.103","VASC","3","f","rechts","21","","fixation","","","",""
"695","img/0_300.png","70","image-keyboard-response","213","350146","0.0-6.0-1.103","VASC","3","f","rechts","21","","","self","f","0","true"
"null","<div style=""font-size:60px;"">+</div>","null","html-keyboard-response","214","350577","0.0-6.0-0.104","VASC","3","f","rechts","21","","fixation","","","",""
"991","img/120_30.png","74","image-keyboard-response","215","351574","0.0-6.0-1.104","VASC","3","f","rechts","21","","","self","j","120","true"
"null","<div style=""font-size:60px;"">+</div>","null","html-keyboard-response","216","352033","0.0-6.0-0.105","VASC","3","f","rechts","21","","fixation","","","",""
"949","img/90_210.png","74","image-keyboard-response","217","352992","0.0-6.0-1.105","VASC","3","f","rechts","21","","","self","j","90","true"
"null","<div style=""font-size:60px;"">+</div>","null","html-keyboard-response","218","353392","0.0-6.0-0.106","VASC","3","f","rechts","21","","fixation","","","",""
"883","img/120_270.png","74","image-keyboard-response","219","354284","0.0-6.0-1.106","VASC","3","f","rechts","21","","","self","j","120","true"
"null","<div style=""font-size:60px;"">+</div>","null","html-keyboard-response","220","354798","0.0-6.0-0.107","VASC","3","f","rechts","21","","fixation","","","",""
"1144","img/150_90.png","70","image-keyboard-response","221","355952","0.0-6.0-1.107","VASC","3","f","rechts","21","","","self","f","150","true"
"null","<div style=""font-size:60px;"">+</div>","null","html-keyboard-response","222","356371","0.0-6.0-0.108","VASC","3","f","rechts","21","","fixation","","","",""
"750","img/0_30.png","74","image-keyboard-response","223","357132","0.0-6.0-1.108","VASC","3","f","rechts","21","","","self","j","0","true"
"null","<div style=""font-size:60px;"">+</div>","null","html-keyboard-response","224","357559","0.0-6.0-0.109","VASC","3","f","rechts","21","","fixation","","","",""
"1029","img/150_300.png","74","image-keyboard-response","225","358605","0.0-6.0-1.109","VASC","3","f","rechts","21","","","self","j","150","true"
"null","<div style=""font-size:60px;"">+</div>","null","html-keyboard-response","226","358934","0.0-6.0-0.110","VASC","3","f","rechts","21","","fixation","","","",""
"1021","img/60_210.png","74","image-keyboard-response","227","359968","0.0-6.0-1.110","VASC","3","f","rechts","21","","","self","j","60","true"
"null","<div style=""font-size:60px;"">+</div>","null","html-keyboard-response","228","360497","0.0-6.0-0.111","VASC","3","f","rechts","21","","fixation","","","",""
"763","img/0_150.png","74","image-keyboard-response","229","361273","0.0-6.0-1.111","VASC","3","f","rechts","21","","","self","j","0","true"
"null","<div style=""font-size:60px;"">+</div>","null","html-keyboard-response","230","361580","0.0-6.0-0.112","VASC","3","f","rechts","21","","fixation","","","",""
"615","img/0_60.png","74","image-keyboard-response","231","362205","0.0-6.0-1.112","VASC","3","f","rechts","21","","","self","j","0","true"
"null","<div style=""font-size:60px;"">+</div>","null","html-keyboard-response","232","362522","0.0-6.0-0.113","VASC","3","f","rechts","21","","fixation","","","",""
"675","img/0_300.png","70","image-keyboard-response","233","363207","0.0-6.0-1.113","VASC","3","f","rechts","21","","","self","f","0","true"
"null","<div style=""font-size:60px;"">+</div>","null","html-keyboard-response","234","363570","0.0-6.0-0.114","VASC","3","f","rechts","21","","fixation","","","",""
"849","img/90_300.png","70","image-keyboard-response","235","364433","0.0-6.0-1.114","VASC","3","f","rechts","21","","","self","f","90","true"
"null","<div style=""font-size:60px;"">+</div>","null","html-keyboard-response","236","364748","0.0-6.0-0.115","VASC","3","f","rechts","21","","fixation","","","",""
"843","img/120_330.png","70","image-keyboard-response","237","365601","0.0-6.0-1.115","VASC","3","f","rechts","21","","","self","f","120","true"
"null","<div style=""font-size:60px;"">+</div>","null","html-keyboard-response","238","365913","0.0-6.0-0.116","VASC","3","f","rechts","21","","fixation","","","",""
"1390","img/150_120.png","70","image-keyboard-response","239","367313","0.0-6.0-1.116","VASC","3","f","rechts","21","","","self","f","150","true"
"null","<div style=""font-size:60px;"">+</div>","null","html-keyboard-response","240","367725","0.0-6.0-0.117","VASC","3","f","rechts","21","","fixation","","","",""
"625","img/L150_180.png","70","image-keyboard-response","241","368360","0.0-6.0-1.117","VASC","3","f","rechts","21","","","self","f","150","true"
"null","<div style=""font-size:60px;"">+</div>","null","html-keyboard-response","242","368890","0.0-6.0-0.118","VASC","3","f","rechts","21","","fixation","","","",""
"1249","img/90_60.png","70","image-keyboard-response","243","370149","0.0-6.0-1.118","VASC","3","f","rechts","21","","","self","j","90","false"
"null","<div style=""font-size:60px;"">+</div>","null","html-keyboard-response","244","370452","0.0-6.0-0.119","VASC","3","f","rechts","21","","fixation","","","",""
"921","img/60_180.png","74","image-keyboard-response","245","371386","0.0-6.0-1.119","VASC","3","f","rechts","21","","","self","j","60","true"
"null","<div style=""font-size:60px;"">+</div>","null","html-keyboard-response","246","371889","0.0-6.0-0.120","VASC","3","f","rechts","21","","fixation","","","",""
"900","img/90_30.png","74","image-keyboard-response","247","372802","0.0-6.0-1.120","VASC","3","f","rechts","21","","","self","j","90","true"
"null","<div style=""font-size:60px;"">+</div>","null","html-keyboard-response","248","373171","0.0-6.0-0.121","VASC","3","f","rechts","21","","fixation","","","",""
"704","img/0_120.png","74","image-keyboard-response","249","373884","0.0-6.0-1.121","VASC","3","f","rechts","21","","","self","j","0","true"
"null","<div style=""font-size:60px;"">+</div>","null","html-keyboard-response","250","374311","0.0-6.0-0.122","VASC","3","f","rechts","21","","fixation","","","",""
"891","img/30_300.png","70","image-keyboard-response","251","375211","0.0-6.0-1.122","VASC","3","f","rechts","21","","","self","f","30","true"
"null","<div style=""font-size:60px;"">+</div>","null","html-keyboard-response","252","375669","0.0-6.0-0.123","VASC","3","f","rechts","21","","fixation","","","",""
"899","img/30_60.png","74","image-keyboard-response","253","376573","0.0-6.0-1.123","VASC","3","f","rechts","21","","","self","j","30","true"
"null","<div style=""font-size:60px;"">+</div>","null","html-keyboard-response","254","376983","0.0-6.0-0.124","VASC","3","f","rechts","21","","fixation","","","",""
"1020","img/120_90.png","70","image-keyboard-response","255","378012","0.0-6.0-1.124","VASC","3","f","rechts","21","","","self","f","120","true"
"null","<div style=""font-size:60px;"">+</div>","null","html-keyboard-response","256","378373","0.0-6.0-0.125","VASC","3","f","rechts","21","","fixation","","","",""
"1856","img/30_240.png","70","image-keyboard-response","257","380240","0.0-6.0-1.125","VASC","3","f","rechts","21","","","self","f","30","true"
"null","<div style=""font-size:60px;"">+</div>","null","html-keyboard-response","258","380702","0.0-6.0-0.126","VASC","3","f","rechts","21","","fixation","","","",""
"781","img/120_180.png","74","image-keyboard-response","259","381487","0.0-6.0-1.126","VASC","3","f","rechts","21","","","self","j","120","true"
"null","<div style=""font-size:60px;"">+</div>","null","html-keyboard-response","260","381796","0.0-6.0-0.127","VASC","3","f","rechts","21","","fixation","","","",""
"683","img/0_90.png","74","image-keyboard-response","261","382490","0.0-6.0-1.127","VASC","3","f","rechts","21","","","self","j","0","true"
"null","<div style=""font-size:60px;"">+</div>","null","html-keyboard-response","262","382843","0.0-6.0-0.128","VASC","3","f","rechts","21","","fixation","","","",""
"758","img/30_270.png","70","image-keyboard-response","263","383616","0.0-6.0-1.128","VASC","3","f","rechts","21","","","self","f","30","true"
"null","<div style=""font-size:60px;"">+</div>","null","html-keyboard-response","264","383922","0.0-6.0-0.129","VASC","3","f","rechts","21","","fixation","","","",""
"906","img/150_240.png","74","image-keyboard-response","265","384839","0.0-6.0-1.129","VASC","3","f","rechts","21","","","self","j","150","true"
"null","<div style=""font-size:60px;"">+</div>","null","html-keyboard-response","266","385300","0.0-6.0-0.130","VASC","3","f","rechts","21","","fixation","","","",""
"575","img/0_240.png","70","image-keyboard-response","267","385886","0.0-6.0-1.130","VASC","3","f","rechts","21","","","self","f","0","true"
"null","<div style=""font-size:60px;"">+</div>","null","html-keyboard-response","268","386300","0.0-6.0-0.131","VASC","3","f","rechts","21","","fixation","","","",""
"878","img/90_120.png","70","image-keyboard-response","269","387191","0.0-6.0-1.131","VASC","3","f","rechts","21","","","self","f","90","true"
"null","<div style=""font-size:60px;"">+</div>","null","html-keyboard-response","270","387503","0.0-6.0-0.132","VASC","3","f","rechts","21","","fixation","","","",""
"623","img/0_210.png","70","image-keyboard-response","271","388137","0.0-6.0-1.132","VASC","3","f","rechts","21","","","self","f","0","true"
"null","<div style=""font-size:60px;"">+</div>","null","html-keyboard-response","272","388644","0.0-6.0-0.133","VASC","3","f","rechts","21","","fixation","","","",""
"1119","img/30_120.png","74","image-keyboard-response","273","389767","0.0-6.0-1.133","VASC","3","f","rechts","21","","","self","j","30","true"
"null","<div style=""font-size:60px;"">+</div>","null","html-keyboard-response","274","390137","0.0-6.0-0.134","VASC","3","f","rechts","21","","fixation","","","",""
"926","img/120_210.png","74","image-keyboard-response","275","391073","0.0-6.0-1.134","VASC","3","f","rechts","21","","","self","j","120","true"
"null","<div style=""font-size:60px;"">+</div>","null","html-keyboard-response","276","391529","0.0-6.0-0.135","VASC","3","f","rechts","21","","fixation","","","",""
"895","img/L30_180.png","70","image-keyboard-response","277","392434","0.0-6.0-1.135","VASC","3","f","rechts","21","","","self","f","30","true"
"null","<div style=""font-size:60px;"">+</div>","null","html-keyboard-response","278","392887","0.0-6.0-0.136","VASC","3","f","rechts","21","","fixation","","","",""
"908","img/90_180.png","74","image-keyboard-response","279","393806","0.0-6.0-1.136","VASC","3","f","rechts","21","","","self","j","90","true"
"null","<div style=""font-size:60px;"">+</div>","null","html-keyboard-response","280","394121","0.0-6.0-0.137","VASC","3","f","rechts","21","","fixation","","","",""
"752","img/120_150.png","70","image-keyboard-response","281","394887","0.0-6.0-1.137","VASC","3","f","rechts","21","","","self","f","120","true"
"null","<div style=""font-size:60px;"">+</div>","null","html-keyboard-response","282","395246","0.0-6.0-0.138","VASC","3","f","rechts","21","","fixation","","","",""
"1023","img/90_240.png","74","image-keyboard-response","283","396283","0.0-6.0-1.138","VASC","3","f","rechts","21","","","self","j","90","true"
"null","<div style=""font-size:60px;"">+</div>","null","html-keyboard-response","284","396793","0.0-6.0-0.139","VASC","3","f","rechts","21","","fixation","","","",""
"1886","img/60_270.png","70","image-keyboard-response","285","398692","0.0-6.0-1.139","VASC","3","f","rechts","21","","","self","f","60","true"
"null","<div style=""font-size:60px;"">+</div>","null","html-keyboard-response","286","399146","0.0-6.0-0.140","VASC","3","f","rechts","21","","fixation","","","",""
"856","img/L90_180.png","70","image-keyboard-response","287","400015","0.0-6.0-1.140","VASC","3","f","rechts","21","","","self","f","90","true"
"null","<div style=""font-size:60px;"">+</div>","null","html-keyboard-response","288","400478","0.0-6.0-0.141","VASC","3","f","rechts","21","","fixation","","","",""
"1019","img/60_30.png","74","image-keyboard-response","289","401510","0.0-6.0-1.141","VASC","3","f","rechts","21","","","self","j","60","true"
"null","<div style=""font-size:60px;"">+</div>","null","html-keyboard-response","290","402040","0.0-6.0-0.142","VASC","3","f","rechts","21","","fixation","","","",""
"1291","img/60_330.png","70","image-keyboard-response","291","403346","0.0-6.0-1.142","VASC","3","f","rechts","21","","","self","f","60","true"
"null","<div style=""font-size:60px;"">+</div>","null","html-keyboard-response","292","403811","0.0-6.0-0.143","VASC","3","f","rechts","21","","fixation","","","",""
"862","img/0_270.png","70","image-keyboard-response","293","404686","0.0-6.0-1.143","VASC","3","f","rechts","21","","","self","f","0","true"
"null","<div style=""font-size:60px;"">+</div>","null","html-keyboard-response","294","405013","0.0-6.0-0.144","VASC","3","f","rechts","21","","fixation","","","",""
"999","img/L120_180.png","70","image-keyboard-response","295","406025","0.0-6.0-1.144","VASC","3","f","rechts","21","","","self","f","120","true"
"null","<div style=""font-size:60px;"">+</div>","null","html-keyboard-response","296","406544","0.0-6.0-0.145","VASC","3","f","rechts","21","","fixation","","","",""
"2522","img/150_60.png","70","image-keyboard-response","297","409079","0.0-6.0-1.145","VASC","3","f","rechts","21","","","self","f","150","true"
"null","<div style=""font-size:60px;"">+</div>","null","html-keyboard-response","298","409544","0.0-6.0-0.146","VASC","3","f","rechts","21","","fixation","","","",""
"922","img/150_180.png","74","image-keyboard-response","299","410480","0.0-6.0-1.146","VASC","3","f","rechts","21","","","self","j","150","true"
"null","<div style=""font-size:60px;"">+</div>","null","html-keyboard-response","300","410794","0.0-6.0-0.147","VASC","3","f","rechts","21","","fixation","","","",""
"1148","img/60_150.png","70","image-keyboard-response","301","411955","0.0-6.0-1.147","VASC","3","f","rechts","21","","","self","f","60","true"
"null","<div style=""font-size:60px;"">+</div>","null","html-keyboard-response","302","412279","0.0-6.0-0.148","VASC","3","f","rechts","21","","fixation","","","",""
"887","img/90_330.png","70","image-keyboard-response","303","413180","0.0-6.0-1.148","VASC","3","f","rechts","21","","","self","f","90","true"
"null","<div style=""font-size:60px;"">+</div>","null","html-keyboard-response","304","413699","0.0-6.0-0.149","VASC","3","f","rechts","21","","fixation","","","",""
"634","img/0_330.png","70","image-keyboard-response","305","414340","0.0-6.0-1.149","VASC","3","f","rechts","21","","","self","f","0","true"
"null","<div style=""font-size:60px;"">+</div>","null","html-keyboard-response","306","414654","0.0-6.0-0.150","VASC","3","f","rechts","21","","fixation","","","",""
"938","img/60_90.png","74","image-keyboard-response","307","415599","0.0-6.0-1.150","VASC","3","f","rechts","21","","","self","j","60","true"
"null","<div style=""font-size:60px;"">+</div>","null","html-keyboard-response","308","415968","0.0-6.0-0.151","VASC","3","f","rechts","21","","fixation","","","",""
"1015","img/L60_180.png","70","image-keyboard-response","309","416995","0.0-6.0-1.151","VASC","3","f","rechts","21","","","self","f","60","true"
"null","<div style=""font-size:60px;"">+</div>","null","html-keyboard-response","310","417467","0.0-6.0-0.152","VASC","3","f","rechts","21","","fixation","","","",""
"877","img/30_180.png","74","image-keyboard-response","311","418356","0.0-6.0-1.152","VASC","3","f","rechts","21","","","self","j","30","true"
"null","<div style=""font-size:60px;"">+</div>","null","html-keyboard-response","312","418811","0.0-6.0-0.153","VASC","3","f","rechts","21","","fixation","","","",""
"974","img/150_270.png","74","image-keyboard-response","313","419795","0.0-6.0-1.153","VASC","3","f","rechts","21","","","self","j","150","true"
"null","<div style=""font-size:60px;"">+</div>","null","html-keyboard-response","314","420112","0.0-6.0-0.154","VASC","3","f","rechts","21","","fixation","","","",""
"869","img/90_150.png","70","image-keyboard-response","315","420990","0.0-6.0-1.154","VASC","3","f","rechts","21","","","self","f","90","true"
"null","<div style=""font-size:60px;"">+</div>","null","html-keyboard-response","316","421314","0.0-6.0-0.155","VASC","3","f","rechts","21","","fixation","","","",""
"753","img/30_90.png","74","image-keyboard-response","317","422080","0.0-6.0-1.155","VASC","3","f","rechts","21","","","self","j","30","true"
"null","<div style=""font-size:60px;"">+</div>","null","html-keyboard-response","318","422542","0.0-6.0-0.156","VASC","3","f","rechts","21","","fixation","","","",""
"2447","img/120_150.png","70","image-keyboard-response","319","424998","0.0-6.0-1.156","VASC","3","f","rechts","21","","","self","f","120","true"
"null","<div style=""font-size:60px;"">+</div>","null","html-keyboard-response","320","425526","0.0-6.0-0.157","VASC","3","f","rechts","21","","fixation","","","",""
"806","img/60_180.png","74","image-keyboard-response","321","426343","0.0-6.0-1.157","VASC","3","f","rechts","21","","","self","j","60","true"
"null","<div style=""font-size:60px;"">+</div>","null","html-keyboard-response","322","426776","0.0-6.0-0.158","VASC","3","f","rechts","21","","fixation","","","",""
"785","img/90_300.png","70","image-keyboard-response","323","427570","0.0-6.0-1.158","VASC","3","f","rechts","21","","","self","f","90","true"
"null","<div style=""font-size:60px;"">+</div>","null","html-keyboard-response","324","428103","0.0-6.0-0.159","VASC","3","f","rechts","21","","fixation","","","",""
"848","img/L150_180.png","70","image-keyboard-response","325","428964","0.0-6.0-1.159","VASC","3","f","rechts","21","","","self","f","150","true"
"null","<div style=""font-size:60px;"">+</div>","null","html-keyboard-response","326","429478","0.0-6.0-0.160","VASC","3","f","rechts","21","","fixation","","","",""
"794","img/90_180.png","74","image-keyboard-response","327","430281","0.0-6.0-1.160","VASC","3","f","rechts","21","","","self","j","90","true"
"null","<div style=""font-size:60px;"">+</div>","null","html-keyboard-response","328","430712","0.0-6.0-0.161","VASC","3","f","rechts","21","","fixation","","","",""
"1117","img/0_300.png","70","image-keyboard-response","329","431833","0.0-6.0-1.161","VASC","3","f","rechts","21","","","self","f","0","true"
"null","<div style=""font-size:60px;"">+</div>","null","html-keyboard-response","330","432259","0.0-6.0-0.162","VASC","3","f","rechts","21","","fixation","","","",""
"938","img/90_330.png","70","image-keyboard-response","331","433206","0.0-6.0-1.162","VASC","3","f","rechts","21","","","self","f","90","true"
"null","<div style=""font-size:60px;"">+</div>","null","html-keyboard-response","332","433568","0.0-6.0-0.163","VASC","3","f","rechts","21","","fixation","","","",""
"921","img/60_90.png","74","image-keyboard-response","333","434499","0.0-6.0-1.163","VASC","3","f","rechts","21","","","self","j","60","true"
"null","<div style=""font-size:60px;"">+</div>","null","html-keyboard-response","334","434859","0.0-6.0-0.164","VASC","3","f","rechts","21","","fixation","","","",""
"1810","img/120_330.png","70","image-keyboard-response","335","436682","0.0-6.0-1.164","VASC","3","f","rechts","21","","","self","f","120","true"
"null","<div style=""font-size:60px;"">+</div>","null","html-keyboard-response","336","437042","0.0-6.0-0.165","VASC","3","f","rechts","21","","fixation","","","",""
"1498","img/150_270.png","74","image-keyboard-response","337","438549","0.0-6.0-1.165","VASC","3","f","rechts","21","","","self","j","150","true"
"null","<div style=""font-size:60px;"">+</div>","null","html-keyboard-response","338","439057","0.0-6.0-0.166","VASC","3","f","rechts","21","","fixation","","","",""
"761","img/0_120.png","74","image-keyboard-response","339","439832","0.0-6.0-1.166","VASC","3","f","rechts","21","","","self","j","0","true"
"null","<div style=""font-size:60px;"">+</div>","null","html-keyboard-response","340","440340","0.0-6.0-0.167","VASC","3","f","rechts","21","","fixation","","","",""
"772","img/150_240.png","74","image-keyboard-response","341","441125","0.0-6.0-1.167","VASC","3","f","rechts","21","","","self","j","150","true"
"null","<div style=""font-size:60px;"">+</div>","null","html-keyboard-response","342","441636","0.0-6.0-0.168","VASC","3","f","rechts","21","","fixation","","","",""
"1247","img/30_180.png","74","image-keyboard-response","343","442893","0.0-6.0-1.168","VASC","3","f","rechts","21","","","self","j","30","true"
"null","<div style=""font-size:60px;"">+</div>","null","html-keyboard-response","344","443355","0.0-6.0-0.169","VASC","3","f","rechts","21","","fixation","","","",""
"899","img/120_180.png","74","image-keyboard-response","345","444265","0.0-6.0-1.169","VASC","3","f","rechts","21","","","self","j","120","true"
"null","<div style=""font-size:60px;"">+</div>","null","html-keyboard-response","346","444575","0.0-6.0-0.170","VASC","3","f","rechts","21","","fixation","","","",""
"873","img/90_150.png","70","image-keyboard-response","347","445457","0.0-6.0-1.170","VASC","3","f","rechts","21","","","self","f","90","true"
"null","<div style=""font-size:60px;"">+</div>","null","html-keyboard-response","348","445761","0.0-6.0-0.171","VASC","3","f","rechts","21","","fixation","","","",""
"829","img/150_180.png","74","image-keyboard-response","349","446595","0.0-6.0-1.171","VASC","3","f","rechts","21","","","self","j","150","true"
"null","<div style=""font-size:60px;"">+</div>","null","html-keyboard-response","350","446950","0.0-6.0-0.172","VASC","3","f","rechts","21","","fixation","","","",""
"701","img/0_330.png","70","image-keyboard-response","351","447662","0.0-6.0-1.172","VASC","3","f","rechts","21","","","self","f","0","true"
"null","<div style=""font-size:60px;"">+</div>","null","html-keyboard-response","352","447966","0.0-6.0-0.173","VASC","3","f","rechts","21","","fixation","","","",""
"884","img/90_210.png","74","image-keyboard-response","353","448864","0.0-6.0-1.173","VASC","3","f","rechts","21","","","self","j","90","true"
"null","<div style=""font-size:60px;"">+</div>","null","html-keyboard-response","354","449293","0.0-6.0-0.174","VASC","3","f","rechts","21","","fixation","","","",""
"1338","img/150_90.png","70","image-keyboard-response","355","450645","0.0-6.0-1.174","VASC","3","f","rechts","21","","","self","f","150","true"
"null","<div style=""font-size:60px;"">+</div>","null","html-keyboard-response","356","451154","0.0-6.0-0.175","VASC","3","f","rechts","21","","fixation","","","",""
"683","img/0_90.png","74","image-keyboard-response","357","451846","0.0-6.0-1.175","VASC","3","f","rechts","21","","","self","j","0","true"
"null","<div style=""font-size:60px;"">+</div>","null","html-keyboard-response","358","452355","0.0-6.0-0.176","VASC","3","f","rechts","21","","fixation","","","",""
"558","img/0_30.png","74","image-keyboard-response","359","452927","0.0-6.0-1.176","VASC","3","f","rechts","21","","","self","j","0","true"
"null","<div style=""font-size:60px;"">+</div>","null","html-keyboard-response","360","453229","0.0-6.0-0.177","VASC","3","f","rechts","21","","fixation","","","",""
"1135","img/60_210.png","74","image-keyboard-response","361","454367","0.0-6.0-1.177","VASC","3","f","rechts","21","","","self","j","60","true"
"null","<div style=""font-size:60px;"">+</div>","null","html-keyboard-response","362","454843","0.0-6.0-0.178","VASC","3","f","rechts","21","","fixation","","","",""
"932","img/30_270.png","70","image-keyboard-response","363","455784","0.0-6.0-1.178","VASC","3","f","rechts","21","","","self","f","30","true"
"null","<div style=""font-size:60px;"">+</div>","null","html-keyboard-response","364","456310","0.0-6.0-0.179","VASC","3","f","rechts","21","","fixation","","","",""
"973","img/L60_180.png","70","image-keyboard-response","365","457292","0.0-6.0-1.179","VASC","3","f","rechts","21","","","self","f","60","true"
"null","<div style=""font-size:60px;"">+</div>","null","html-keyboard-response","366","457794","0.0-6.0-0.180","VASC","3","f","rechts","21","","fixation","","","",""
"711","img/0_210.png","70","image-keyboard-response","367","458519","0.0-6.0-1.180","VASC","3","f","rechts","21","","","self","f","0","true"
"null","<div style=""font-size:60px;"">+</div>","null","html-keyboard-response","368","458873","0.0-6.0-0.181","VASC","3","f","rechts","21","","fixation","","","",""
"1004","img/120_210.png","74","image-keyboard-response","369","459891","0.0-6.0-1.181","VASC","3","f","rechts","21","","","self","j","120","true"
"null","<div style=""font-size:60px;"">+</div>","null","html-keyboard-response","370","460405","0.0-6.0-0.182","VASC","3","f","rechts","21","","fixation","","","",""
"702","img/0_150.png","74","image-keyboard-response","371","461117","0.0-6.0-1.182","VASC","3","f","rechts","21","","","self","j","0","true"
"null","<div style=""font-size:60px;"">+</div>","null","html-keyboard-response","372","461576","0.0-6.0-0.183","VASC","3","f","rechts","21","","fixation","","","",""
"691","img/0_270.png","70","image-keyboard-response","373","462274","0.0-6.0-1.183","VASC","3","f","rechts","21","","","self","f","0","true"
"null","<div style=""font-size:60px;"">+</div>","null","html-keyboard-response","374","462778","0.0-6.0-0.184","VASC","3","f","rechts","21","","fixation","","","",""
"1046","img/L120_180.png","70","image-keyboard-response","375","463828","0.0-6.0-1.184","VASC","3","f","rechts","21","","","self","f","120","true"
"null","<div style=""font-size:60px;"">+</div>","null","html-keyboard-response","376","464312","0.0-6.0-0.185","VASC","3","f","rechts","21","","fixation","","","",""
"904","img/60_150.png","70","image-keyboard-response","377","465225","0.0-6.0-1.185","VASC","3","f","rechts","21","","","self","f","60","true"
"null","<div style=""font-size:60px;"">+</div>","null","html-keyboard-response","378","465531","0.0-6.0-0.186","VASC","3","f","rechts","21","","fixation","","","",""
"1377","img/120_30.png","74","image-keyboard-response","379","466922","0.0-6.0-1.186","VASC","3","f","rechts","21","","","self","j","120","true"
"null","<div style=""font-size:60px;"">+</div>","null","html-keyboard-response","380","467277","0.0-6.0-0.187","VASC","3","f","rechts","21","","fixation","","","",""
"939","img/90_120.png","70","image-keyboard-response","381","468227","0.0-6.0-1.187","VASC","3","f","rechts","21","","","self","f","90","true"
"null","<div style=""font-size:60px;"">+</div>","null","html-keyboard-response","382","468543","0.0-6.0-0.188","VASC","3","f","rechts","21","","fixation","","","",""
"912","img/60_330.png","70","image-keyboard-response","383","469465","0.0-6.0-1.188","VASC","3","f","rechts","21","","","self","f","60","true"
"null","<div style=""font-size:60px;"">+</div>","null","html-keyboard-response","384","469772","0.0-6.0-0.189","VASC","3","f","rechts","21","","fixation","","","",""
"947","img/90_240.png","74","image-keyboard-response","385","470723","0.0-6.0-1.189","VASC","3","f","rechts","21","","","self","j","90","true"
"null","<div style=""font-size:60px;"">+</div>","null","html-keyboard-response","386","471054","0.0-6.0-0.190","VASC","3","f","rechts","21","","fixation","","","",""
"939","img/L30_180.png","70","image-keyboard-response","387","472008","0.0-6.0-1.190","VASC","3","f","rechts","21","","","self","f","30","true"
"null","<div style=""font-size:60px;"">+</div>","null","html-keyboard-response","388","472475","0.0-6.0-0.191","VASC","3","f","rechts","21","","fixation","","","",""
"803","img/150_120.png","70","image-keyboard-response","389","473292","0.0-6.0-1.191","VASC","3","f","rechts","21","","","self","f","150","true"
"null","<div style=""font-size:60px;"">+</div>","null","html-keyboard-response","390","473710","0.0-6.0-0.192","VASC","3","f","rechts","21","","fixation","","","",""
"1025","img/150_300.png","74","image-keyboard-response","391","474739","0.0-6.0-1.192","VASC","3","f","rechts","21","","","self","j","150","true"
"null","<div style=""font-size:60px;"">+</div>","null","html-keyboard-response","392","475247","0.0-6.0-0.193","VASC","3","f","rechts","21","","fixation","","","",""
"980","img/L90_180.png","70","image-keyboard-response","393","476237","0.0-6.0-1.193","VASC","3","f","rechts","21","","","self","f","90","true"
"null","<div style=""font-size:60px;"">+</div>","null","html-keyboard-response","394","476746","0.0-6.0-0.194","VASC","3","f","rechts","21","","fixation","","","",""
"1545","img/30_60.png","74","image-keyboard-response","395","478297","0.0-6.0-1.194","VASC","3","f","rechts","21","","","self","j","30","true"
"null","<div style=""font-size:60px;"">+</div>","null","html-keyboard-response","396","478607","0.0-6.0-0.195","VASC","3","f","rechts","21","","fixation","","","",""
"759","img/30_90.png","74","image-keyboard-response","397","479375","0.0-6.0-1.195","VASC","3","f","rechts","21","","","self","j","30","true"
"null","<div style=""font-size:60px;"">+</div>","null","html-keyboard-response","398","479858","0.0-6.0-0.196","VASC","3","f","rechts","21","","fixation","","","",""
"718","img/0_240.png","70","image-keyboard-response","399","480592","0.0-6.0-1.196","VASC","3","f","rechts","21","","","self","f","0","true"
"null","<div style=""font-size:60px;"">+</div>","null","html-keyboard-response","400","480905","0.0-6.0-0.197","VASC","3","f","rechts","21","","fixation","","","",""
"818","img/30_300.png","70","image-keyboard-response","401","481737","0.0-6.0-1.197","VASC","3","f","rechts","21","","","self","f","30","true"
"null","<div style=""font-size:60px;"">+</div>","null","html-keyboard-response","402","482060","0.0-6.0-0.198","VASC","3","f","rechts","21","","fixation","","","",""
"765","img/30_240.png","70","image-keyboard-response","403","482840","0.0-6.0-1.198","VASC","3","f","rechts","21","","","self","f","30","true"
"null","<div style=""font-size:60px;"">+</div>","null","html-keyboard-response","404","483217","0.0-6.0-0.199","VASC","3","f","rechts","21","","fixation","","","",""
"2453","img/60_270.png","70","image-keyboard-response","405","485681","0.0-6.0-1.199","VASC","3","f","rechts","21","","","self","f","60","true"
"null","<div style=""font-size:60px;"">+</div>","null","html-keyboard-response","406","486147","0.0-6.0-0.200","VASC","3","f","rechts","21","","fixation","","","",""
"923","img/120_270.png","74","image-keyboard-response","407","487083","0.0-6.0-1.200","VASC","3","f","rechts","21","","","self","j","120","true"
"null","<div style=""font-size:60px;"">+</div>","null","html-keyboard-response","408","487547","0.0-6.0-0.201","VASC","3","f","rechts","21","","fixation","","","",""
"1367","img/120_90.png","70","image-keyboard-response","409","488928","0.0-6.0-1.201","VASC","3","f","rechts","21","","","self","f","120","true"
"null","<div style=""font-size:60px;"">+</div>","null","html-keyboard-response","410","489235","0.0-6.0-0.202","VASC","3","f","rechts","21","","fixation","","","",""
"1254","img/90_60.png","74","image-keyboard-response","411","490503","0.0-6.0-1.202","VASC","3","f","rechts","21","","","self","j","90","true"
"null","<div style=""font-size:60px;"">+</div>","null","html-keyboard-response","412","490814","0.0-6.0-0.203","VASC","3","f","rechts","21","","fixation","","","",""
"766","img/0_60.png","74","image-keyboard-response","413","491594","0.0-6.0-1.203","VASC","3","f","rechts","21","","","self","j","0","true"
"null","<div style=""font-size:60px;"">+</div>","null","html-keyboard-response","414","492001","0.0-6.0-0.204","VASC","3","f","rechts","21","","fixation","","","",""
"953","img/90_30.png","74","image-keyboard-response","415","492967","0.0-6.0-1.204","VASC","3","f","rechts","21","","","self","j","90","true"
"null","<div style=""font-size:60px;"">+</div>","null","html-keyboard-response","416","493497","0.0-6.0-0.205","VASC","3","f","rechts","21","","fixation","","","",""
"695","img/60_30.png","74","image-keyboard-response","417","494204","0.0-6.0-1.205","VASC","3","f","rechts","21","","","self","j","60","true"
"null","<div style=""font-size:60px;"">+</div>","null","html-keyboard-response","418","494715","0.0-6.0-0.206","VASC","3","f","rechts","21","","fixation","","","",""
"1244","img/30_120.png","74","image-keyboard-response","419","495968","0.0-6.0-1.206","VASC","3","f","rechts","21","","","self","j","30","true"
"null","<div style=""font-size:60px;"">+</div>","null","html-keyboard-response","420","496371","0.0-6.0-0.207","VASC","3","f","rechts","21","","fixation","","","",""
"1187","img/150_60.png","70","image-keyboard-response","421","497568","0.0-6.0-1.207","VASC","3","f","rechts","21","","","self","f","150","true"
"5847","<p>Du hast in 95% der Versuche korrekt entschieden.</p><p>Deine durchschnittliche Reaktionszeit war  986ms.</p><p>Dr&uuml;cke eine beliebige Taste, um die Session zu beenden. Vielen Dank!</p>","32","html-keyboard-response","422","503422","0.0-7.0","VASC","3","f","rechts","21","","","","","",""
