"rt","stimulus","key_press","trial_type","trial_index","time_elapsed","internal_node_id","subject","session","sex","handedness","age","responses","test_part","condition","correct_response","angle","correct"
"3806","<p>Mental Rotation Experiment.</p> <p>Dr&uuml;cke eine beliebige Taste, um anzufangen.</p>","74","html-keyboard-response","0","3808","0.0-0.0","LAJU","1","f","rechts","24","","","","","",""
"3177","","","survey-text","1","6986","0.0-1.0","LAJU","1","f","rechts","24","{""Q0"":""LAJU""}","","","","",""
"951","","","survey-text","2","7938","0.0-2.0","LAJU","1","f","rechts","24","{""Q0"":""1""}","","","","",""
"2255","","","survey-multi-choice","3","10195","0.0-3.0","LAJU","1","f","rechts","24","{""Q0"":""f"",""Q1"":""rechts""}","","","","",""
"1214","","","survey-text","4","11410","0.0-4.0","LAJU","1","f","rechts","24","{""Q0"":""24""}","","","","",""
"96550","<p>Stell dir vor, dass du vor einem runden Tisch stehst, auf dem sich ein blauer Ball am Tischrand befindet. Entlang des Tischrands ist jeweils ein verschieden langer Pfeil. Nun bleibst du an deinem Platz vor dem Tisch und rotierst den Tisch entlang des Pfeils (gleiche Richtung und Länge). </p> <img src='img/30_180.png'></img> <br><p> Nachdem du diese (vorgestellte) Rotation durchgef&uuml;hrt hast, schau in Richtung der Tischmitte, und entscheide dann, ob der Ball links oder rechts von dir liegt.</p> <p>Dr&uuml;cke die <strong>'f'</strong>-Taste f&uuml;r links, die <strong>'j'</strong>-Taste f&uuml;r rechts.</p><br><p> Das Bild wird jeweils 1 Sekunde lang pr&auml;sentiert. Du hast 3 Sekunden Zeit eine Entscheidung zu treffen.</p>","74","html-keyboard-response","5","107962","0.0-5.0","LAJU","1","f","rechts","24","","","","","",""
"null","<div style=""font-size:60px;"">+</div>","null","html-keyboard-response","6","109316","0.0-6.0-0.0","LAJU","1","f","rechts","24","","fixation","","","",""
"2845","img/60_30.png","74","image-keyboard-response","7","112162","0.0-6.0-1.0","LAJU","1","f","rechts","24","","","object","f","60","false"
"null","<div style=""font-size:60px;"">+</div>","null","html-keyboard-response","8","112564","0.0-6.0-0.1","LAJU","1","f","rechts","24","","fixation","","","",""
"null","img/150_270.png","null","image-keyboard-response","9","115567","0.0-6.0-1.1","LAJU","1","f","rechts","24","","","object","j","150","false"
"null","<div style=""font-size:60px;"">+</div>","null","html-keyboard-response","10","115869","0.0-6.0-0.2","LAJU","1","f","rechts","24","","fixation","","","",""
"1364","img/0_330.png","70","image-keyboard-response","11","117235","0.0-6.0-1.2","LAJU","1","f","rechts","24","","","object","f","0","true"
"null","<div style=""font-size:60px;"">+</div>","null","html-keyboard-response","12","117586","0.0-6.0-0.3","LAJU","1","f","rechts","24","","fixation","","","",""
"1248","img/90_300.png","74","image-keyboard-response","13","118835","0.0-6.0-1.3","LAJU","1","f","rechts","24","","","object","j","90","true"
"null","<div style=""font-size:60px;"">+</div>","null","html-keyboard-response","14","119137","0.0-6.0-0.4","LAJU","1","f","rechts","24","","fixation","","","",""
"1078","img/150_240.png","74","image-keyboard-response","15","120216","0.0-6.0-1.4","LAJU","1","f","rechts","24","","","object","j","150","true"
"null","<div style=""font-size:60px;"">+</div>","null","html-keyboard-response","16","120718","0.0-6.0-0.5","LAJU","1","f","rechts","24","","fixation","","","",""
"1348","img/120_150.png","70","image-keyboard-response","17","122067","0.0-6.0-1.5","LAJU","1","f","rechts","24","","","object","j","120","false"
"null","<div style=""font-size:60px;"">+</div>","null","html-keyboard-response","18","122419","0.0-6.0-0.6","LAJU","1","f","rechts","24","","fixation","","","",""
"2765","img/30_270.png","70","image-keyboard-response","19","125185","0.0-6.0-1.6","LAJU","1","f","rechts","24","","","object","f","30","true"
"null","<div style=""font-size:60px;"">+</div>","null","html-keyboard-response","20","125587","0.0-6.0-0.7","LAJU","1","f","rechts","24","","fixation","","","",""
"null","img/L150_180.png","null","image-keyboard-response","21","128590","0.0-6.0-1.7","LAJU","1","f","rechts","24","","","object","j","150","false"
"null","<div style=""font-size:60px;"">+</div>","null","html-keyboard-response","22","128891","0.0-6.0-0.8","LAJU","1","f","rechts","24","","fixation","","","",""
"null","img/60_270.png","null","image-keyboard-response","23","131894","0.0-6.0-1.8","LAJU","1","f","rechts","24","","","object","f","60","false"
"null","<div style=""font-size:60px;"">+</div>","null","html-keyboard-response","24","132296","0.0-6.0-0.9","LAJU","1","f","rechts","24","","fixation","","","",""
"2308","img/90_120.png","70","image-keyboard-response","25","134605","0.0-6.0-1.9","LAJU","1","f","rechts","24","","","object","j","90","false"
"null","<div style=""font-size:60px;"">+</div>","null","html-keyboard-response","26","134957","0.0-6.0-0.10","LAJU","1","f","rechts","24","","fixation","","","",""
"null","img/30_60.png","null","image-keyboard-response","27","137960","0.0-6.0-1.10","LAJU","1","f","rechts","24","","","object","j","30","false"
"null","<div style=""font-size:60px;"">+</div>","null","html-keyboard-response","28","138411","0.0-6.0-0.11","LAJU","1","f","rechts","24","","fixation","","","",""
"null","img/0_90.png","null","image-keyboard-response","29","141414","0.0-6.0-1.11","LAJU","1","f","rechts","24","","","object","j","0","false"
"null","<div style=""font-size:60px;"">+</div>","null","html-keyboard-response","30","141916","0.0-6.0-0.12","LAJU","1","f","rechts","24","","fixation","","","",""
"null","img/90_240.png","null","image-keyboard-response","31","144919","0.0-6.0-1.12","LAJU","1","f","rechts","24","","","object","f","90","false"
"null","<div style=""font-size:60px;"">+</div>","null","html-keyboard-response","32","145271","0.0-6.0-0.13","LAJU","1","f","rechts","24","","fixation","","","",""
"1725","img/60_210.png","70","image-keyboard-response","33","146997","0.0-6.0-1.13","LAJU","1","f","rechts","24","","","object","f","60","true"
"null","<div style=""font-size:60px;"">+</div>","null","html-keyboard-response","34","147298","0.0-6.0-0.14","LAJU","1","f","rechts","24","","fixation","","","",""
"1527","img/60_180.png","70","image-keyboard-response","35","148825","0.0-6.0-1.14","LAJU","1","f","rechts","24","","","object","f","60","true"
"null","<div style=""font-size:60px;"">+</div>","null","html-keyboard-response","36","149327","0.0-6.0-0.15","LAJU","1","f","rechts","24","","fixation","","","",""
"2630","img/90_150.png","70","image-keyboard-response","37","151958","0.0-6.0-1.15","LAJU","1","f","rechts","24","","","object","j","90","false"
"null","<div style=""font-size:60px;"">+</div>","null","html-keyboard-response","38","152410","0.0-6.0-0.16","LAJU","1","f","rechts","24","","fixation","","","",""
"null","img/60_330.png","null","image-keyboard-response","39","155412","0.0-6.0-1.16","LAJU","1","f","rechts","24","","","object","j","60","false"
"null","<div style=""font-size:60px;"">+</div>","null","html-keyboard-response","40","155713","0.0-6.0-0.17","LAJU","1","f","rechts","24","","fixation","","","",""
"null","img/0_120.png","null","image-keyboard-response","41","158716","0.0-6.0-1.17","LAJU","1","f","rechts","24","","","object","j","0","false"
"null","<div style=""font-size:60px;"">+</div>","null","html-keyboard-response","42","159018","0.0-6.0-0.18","LAJU","1","f","rechts","24","","fixation","","","",""
"2098","img/150_120.png","70","image-keyboard-response","43","161117","0.0-6.0-1.18","LAJU","1","f","rechts","24","","","object","f","150","true"
"null","<div style=""font-size:60px;"">+</div>","null","html-keyboard-response","44","161419","0.0-6.0-0.19","LAJU","1","f","rechts","24","","fixation","","","",""
"2079","img/90_180.png","70","image-keyboard-response","45","163499","0.0-6.0-1.19","LAJU","1","f","rechts","24","","","object","f","90","true"
"null","<div style=""font-size:60px;"">+</div>","null","html-keyboard-response","46","163851","0.0-6.0-0.20","LAJU","1","f","rechts","24","","fixation","","","",""
"789","img/0_210.png","70","image-keyboard-response","47","164641","0.0-6.0-1.20","LAJU","1","f","rechts","24","","","object","f","0","true"
"null","<div style=""font-size:60px;"">+</div>","null","html-keyboard-response","48","165043","0.0-6.0-0.21","LAJU","1","f","rechts","24","","fixation","","","",""
"2014","img/90_30.png","70","image-keyboard-response","49","167058","0.0-6.0-1.21","LAJU","1","f","rechts","24","","","object","f","90","true"
"null","<div style=""font-size:60px;"">+</div>","null","html-keyboard-response","50","167360","0.0-6.0-0.22","LAJU","1","f","rechts","24","","fixation","","","",""
"null","img/150_90.png","null","image-keyboard-response","51","170363","0.0-6.0-1.22","LAJU","1","f","rechts","24","","","object","f","150","false"
"null","<div style=""font-size:60px;"">+</div>","null","html-keyboard-response","52","170864","0.0-6.0-0.23","LAJU","1","f","rechts","24","","fixation","","","",""
"null","img/30_120.png","null","image-keyboard-response","53","173866","0.0-6.0-1.23","LAJU","1","f","rechts","24","","","object","j","30","false"
"null","<div style=""font-size:60px;"">+</div>","null","html-keyboard-response","54","174268","0.0-6.0-0.24","LAJU","1","f","rechts","24","","fixation","","","",""
"1132","img/90_60.png","70","image-keyboard-response","55","175402","0.0-6.0-1.24","LAJU","1","f","rechts","24","","","object","f","90","true"
"null","<div style=""font-size:60px;"">+</div>","null","html-keyboard-response","56","175703","0.0-6.0-0.25","LAJU","1","f","rechts","24","","fixation","","","",""
"1516","img/150_60.png","70","image-keyboard-response","57","177222","0.0-6.0-1.25","LAJU","1","f","rechts","24","","","object","f","150","true"
"null","<div style=""font-size:60px;"">+</div>","null","html-keyboard-response","58","177723","0.0-6.0-0.26","LAJU","1","f","rechts","24","","fixation","","","",""
"null","img/30_90.png","null","image-keyboard-response","59","180726","0.0-6.0-1.26","LAJU","1","f","rechts","24","","","object","j","30","false"
"null","<div style=""font-size:60px;"">+</div>","null","html-keyboard-response","60","181178","0.0-6.0-0.27","LAJU","1","f","rechts","24","","fixation","","","",""
"null","img/30_300.png","null","image-keyboard-response","61","184181","0.0-6.0-1.27","LAJU","1","f","rechts","24","","","object","f","30","false"
"null","<div style=""font-size:60px;"">+</div>","null","html-keyboard-response","62","184483","0.0-6.0-0.28","LAJU","1","f","rechts","24","","fixation","","","",""
"1131","img/0_270.png","70","image-keyboard-response","63","185615","0.0-6.0-1.28","LAJU","1","f","rechts","24","","","object","f","0","true"
"null","<div style=""font-size:60px;"">+</div>","null","html-keyboard-response","64","185967","0.0-6.0-0.29","LAJU","1","f","rechts","24","","fixation","","","",""
"2565","img/120_180.png","70","image-keyboard-response","65","188533","0.0-6.0-1.29","LAJU","1","f","rechts","24","","","object","f","120","true"
"null","<div style=""font-size:60px;"">+</div>","null","html-keyboard-response","66","188835","0.0-6.0-0.30","LAJU","1","f","rechts","24","","fixation","","","",""
"null","img/0_30.png","null","image-keyboard-response","67","191838","0.0-6.0-1.30","LAJU","1","f","rechts","24","","","object","j","0","false"
"null","<div style=""font-size:60px;"">+</div>","null","html-keyboard-response","68","192340","0.0-6.0-0.31","LAJU","1","f","rechts","24","","fixation","","","",""
"null","img/L60_180.png","null","image-keyboard-response","69","195343","0.0-6.0-1.31","LAJU","1","f","rechts","24","","","object","j","60","false"
"null","<div style=""font-size:60px;"">+</div>","null","html-keyboard-response","70","195645","0.0-6.0-0.32","LAJU","1","f","rechts","24","","fixation","","","",""
"null","img/120_330.png","null","image-keyboard-response","71","198648","0.0-6.0-1.32","LAJU","1","f","rechts","24","","","object","j","120","false"
"null","<div style=""font-size:60px;"">+</div>","null","html-keyboard-response","72","199050","0.0-6.0-0.33","LAJU","1","f","rechts","24","","fixation","","","",""
"2418","img/150_180.png","70","image-keyboard-response","73","201469","0.0-6.0-1.33","LAJU","1","f","rechts","24","","","object","f","150","true"
"null","<div style=""font-size:60px;"">+</div>","null","html-keyboard-response","74","201771","0.0-6.0-0.34","LAJU","1","f","rechts","24","","fixation","","","",""
"2388","img/120_90.png","70","image-keyboard-response","75","204160","0.0-6.0-1.34","LAJU","1","f","rechts","24","","","object","f","120","true"
"null","<div style=""font-size:60px;"">+</div>","null","html-keyboard-response","76","204562","0.0-6.0-0.35","LAJU","1","f","rechts","24","","fixation","","","",""
"null","img/150_300.png","null","image-keyboard-response","77","207565","0.0-6.0-1.35","LAJU","1","f","rechts","24","","","object","j","150","false"
"null","<div style=""font-size:60px;"">+</div>","null","html-keyboard-response","78","208017","0.0-6.0-0.36","LAJU","1","f","rechts","24","","fixation","","","",""
"null","img/60_90.png","null","image-keyboard-response","79","211019","0.0-6.0-1.36","LAJU","1","f","rechts","24","","","object","j","60","false"
"null","<div style=""font-size:60px;"">+</div>","null","html-keyboard-response","80","211321","0.0-6.0-0.37","LAJU","1","f","rechts","24","","fixation","","","",""
"1050","img/0_300.png","70","image-keyboard-response","81","212372","0.0-6.0-1.37","LAJU","1","f","rechts","24","","","object","f","0","true"
"null","<div style=""font-size:60px;"">+</div>","null","html-keyboard-response","82","212674","0.0-6.0-0.38","LAJU","1","f","rechts","24","","fixation","","","",""
"960","img/0_240.png","70","image-keyboard-response","83","213635","0.0-6.0-1.38","LAJU","1","f","rechts","24","","","object","f","0","true"
"null","<div style=""font-size:60px;"">+</div>","null","html-keyboard-response","84","213987","0.0-6.0-0.39","LAJU","1","f","rechts","24","","fixation","","","",""
"2127","img/30_240.png","70","image-keyboard-response","85","216115","0.0-6.0-1.39","LAJU","1","f","rechts","24","","","object","f","30","true"
"null","<div style=""font-size:60px;"">+</div>","null","html-keyboard-response","86","216567","0.0-6.0-0.40","LAJU","1","f","rechts","24","","fixation","","","",""
"null","img/0_60.png","null","image-keyboard-response","87","219570","0.0-6.0-1.40","LAJU","1","f","rechts","24","","","object","j","0","false"
"null","<div style=""font-size:60px;"">+</div>","null","html-keyboard-response","88","219922","0.0-6.0-0.41","LAJU","1","f","rechts","24","","fixation","","","",""
"null","img/0_150.png","null","image-keyboard-response","89","222924","0.0-6.0-1.41","LAJU","1","f","rechts","24","","","object","j","0","false"
"null","<div style=""font-size:60px;"">+</div>","null","html-keyboard-response","90","223276","0.0-6.0-0.42","LAJU","1","f","rechts","24","","fixation","","","",""
"null","img/L30_180.png","null","image-keyboard-response","91","226279","0.0-6.0-1.42","LAJU","1","f","rechts","24","","","object","j","30","false"
"null","<div style=""font-size:60px;"">+</div>","null","html-keyboard-response","92","226681","0.0-6.0-0.43","LAJU","1","f","rechts","24","","fixation","","","",""
"null","img/L120_180.png","null","image-keyboard-response","93","229684","0.0-6.0-1.43","LAJU","1","f","rechts","24","","","object","j","120","false"
"null","<div style=""font-size:60px;"">+</div>","null","html-keyboard-response","94","230135","0.0-6.0-0.44","LAJU","1","f","rechts","24","","fixation","","","",""
"1998","img/30_180.png","70","image-keyboard-response","95","232135","0.0-6.0-1.44","LAJU","1","f","rechts","24","","","object","f","30","true"
"null","<div style=""font-size:60px;"">+</div>","null","html-keyboard-response","96","232485","0.0-6.0-0.45","LAJU","1","f","rechts","24","","fixation","","","",""
"null","img/120_270.png","null","image-keyboard-response","97","235487","0.0-6.0-1.45","LAJU","1","f","rechts","24","","","object","j","120","false"
"null","<div style=""font-size:60px;"">+</div>","null","html-keyboard-response","98","235789","0.0-6.0-0.46","LAJU","1","f","rechts","24","","fixation","","","",""
"null","img/120_210.png","null","image-keyboard-response","99","238792","0.0-6.0-1.46","LAJU","1","f","rechts","24","","","object","f","120","false"
"null","<div style=""font-size:60px;"">+</div>","null","html-keyboard-response","100","239294","0.0-6.0-0.47","LAJU","1","f","rechts","24","","fixation","","","",""
"null","img/90_210.png","null","image-keyboard-response","101","242296","0.0-6.0-1.47","LAJU","1","f","rechts","24","","","object","f","90","false"
"null","<div style=""font-size:60px;"">+</div>","null","html-keyboard-response","102","242597","0.0-6.0-0.48","LAJU","1","f","rechts","24","","fixation","","","",""
"1635","img/90_330.png","70","image-keyboard-response","103","244234","0.0-6.0-1.48","LAJU","1","f","rechts","24","","","object","j","90","false"
"null","<div style=""font-size:60px;"">+</div>","null","html-keyboard-response","104","244635","0.0-6.0-0.49","LAJU","1","f","rechts","24","","fixation","","","",""
"null","img/60_150.png","null","image-keyboard-response","105","247638","0.0-6.0-1.49","LAJU","1","f","rechts","24","","","object","j","60","false"
"null","<div style=""font-size:60px;"">+</div>","null","html-keyboard-response","106","248040","0.0-6.0-0.50","LAJU","1","f","rechts","24","","fixation","","","",""
"null","img/L90_180.png","null","image-keyboard-response","107","251043","0.0-6.0-1.50","LAJU","1","f","rechts","24","","","object","j","90","false"
"null","<div style=""font-size:60px;"">+</div>","null","html-keyboard-response","108","251445","0.0-6.0-0.51","LAJU","1","f","rechts","24","","fixation","","","",""
"2023","img/120_30.png","70","image-keyboard-response","109","253469","0.0-6.0-1.51","LAJU","1","f","rechts","24","","","object","f","120","true"
"null","<div style=""font-size:60px;"">+</div>","null","html-keyboard-response","110","253871","0.0-6.0-0.52","LAJU","1","f","rechts","24","","fixation","","","",""
"null","img/60_90.png","null","image-keyboard-response","111","256873","0.0-6.0-1.52","LAJU","1","f","rechts","24","","","object","j","60","false"
"null","<div style=""font-size:60px;"">+</div>","null","html-keyboard-response","112","257175","0.0-6.0-0.53","LAJU","1","f","rechts","24","","fixation","","","",""
"1683","img/30_240.png","70","image-keyboard-response","113","258859","0.0-6.0-1.53","LAJU","1","f","rechts","24","","","object","f","30","true"
"null","<div style=""font-size:60px;"">+</div>","null","html-keyboard-response","114","259361","0.0-6.0-0.54","LAJU","1","f","rechts","24","","fixation","","","",""
"null","img/90_30.png","null","image-keyboard-response","115","262363","0.0-6.0-1.54","LAJU","1","f","rechts","24","","","object","f","90","false"
"null","<div style=""font-size:60px;"">+</div>","null","html-keyboard-response","116","262815","0.0-6.0-0.55","LAJU","1","f","rechts","24","","fixation","","","",""
"2064","img/150_60.png","70","image-keyboard-response","117","264880","0.0-6.0-1.55","LAJU","1","f","rechts","24","","","object","f","150","true"
"null","<div style=""font-size:60px;"">+</div>","null","html-keyboard-response","118","265382","0.0-6.0-0.56","LAJU","1","f","rechts","24","","fixation","","","",""
"1819","img/30_180.png","70","image-keyboard-response","119","267202","0.0-6.0-1.56","LAJU","1","f","rechts","24","","","object","f","30","true"
"null","<div style=""font-size:60px;"">+</div>","null","html-keyboard-response","120","267604","0.0-6.0-0.57","LAJU","1","f","rechts","24","","fixation","","","",""
"null","img/150_240.png","null","image-keyboard-response","121","270606","0.0-6.0-1.57","LAJU","1","f","rechts","24","","","object","j","150","false"
"null","<div style=""font-size:60px;"">+</div>","null","html-keyboard-response","122","271008","0.0-6.0-0.58","LAJU","1","f","rechts","24","","fixation","","","",""
"null","img/60_270.png","null","image-keyboard-response","123","274010","0.0-6.0-1.58","LAJU","1","f","rechts","24","","","object","f","60","false"
"null","<div style=""font-size:60px;"">+</div>","null","html-keyboard-response","124","274412","0.0-6.0-0.59","LAJU","1","f","rechts","24","","fixation","","","",""
"null","img/L120_180.png","null","image-keyboard-response","125","277414","0.0-6.0-1.59","LAJU","1","f","rechts","24","","","object","j","120","false"
"null","<div style=""font-size:60px;"">+</div>","null","html-keyboard-response","126","277766","0.0-6.0-0.60","LAJU","1","f","rechts","24","","fixation","","","",""
"1075","img/0_240.png","70","image-keyboard-response","127","278842","0.0-6.0-1.60","LAJU","1","f","rechts","24","","","object","f","0","true"
"null","<div style=""font-size:60px;"">+</div>","null","html-keyboard-response","128","279344","0.0-6.0-0.61","LAJU","1","f","rechts","24","","fixation","","","",""
"1355","img/90_60.png","70","image-keyboard-response","129","280700","0.0-6.0-1.61","LAJU","1","f","rechts","24","","","object","f","90","true"
"null","<div style=""font-size:60px;"">+</div>","null","html-keyboard-response","130","281052","0.0-6.0-0.62","LAJU","1","f","rechts","24","","fixation","","","",""
"null","img/L30_180.png","null","image-keyboard-response","131","284054","0.0-6.0-1.62","LAJU","1","f","rechts","24","","","object","j","30","false"
"null","<div style=""font-size:60px;"">+</div>","null","html-keyboard-response","132","284406","0.0-6.0-0.63","LAJU","1","f","rechts","24","","fixation","","","",""
"850","img/0_270.png","70","image-keyboard-response","133","285257","0.0-6.0-1.63","LAJU","1","f","rechts","24","","","object","f","0","true"
"null","<div style=""font-size:60px;"">+</div>","null","html-keyboard-response","134","285608","0.0-6.0-0.64","LAJU","1","f","rechts","24","","fixation","","","",""
"null","img/0_120.png","null","image-keyboard-response","135","288610","0.0-6.0-1.64","LAJU","1","f","rechts","24","","","object","j","0","false"
"null","<div style=""font-size:60px;"">+</div>","null","html-keyboard-response","136","289012","0.0-6.0-0.65","LAJU","1","f","rechts","24","","fixation","","","",""
"1664","img/120_30.png","70","image-keyboard-response","137","290678","0.0-6.0-1.65","LAJU","1","f","rechts","24","","","object","f","120","true"
"null","<div style=""font-size:60px;"">+</div>","null","html-keyboard-response","138","290979","0.0-6.0-0.66","LAJU","1","f","rechts","24","","fixation","","","",""
"null","img/0_90.png","null","image-keyboard-response","139","293982","0.0-6.0-1.66","LAJU","1","f","rechts","24","","","object","j","0","false"
"null","<div style=""font-size:60px;"">+</div>","null","html-keyboard-response","140","294384","0.0-6.0-0.67","LAJU","1","f","rechts","24","","fixation","","","",""
"null","img/90_330.png","null","image-keyboard-response","141","297386","0.0-6.0-1.67","LAJU","1","f","rechts","24","","","object","j","90","false"
"null","<div style=""font-size:60px;"">+</div>","null","html-keyboard-response","142","297888","0.0-6.0-0.68","LAJU","1","f","rechts","24","","fixation","","","",""
"null","img/90_210.png","null","image-keyboard-response","143","300890","0.0-6.0-1.68","LAJU","1","f","rechts","24","","","object","f","90","false"
"null","<div style=""font-size:60px;"">+</div>","null","html-keyboard-response","144","301292","0.0-6.0-0.69","LAJU","1","f","rechts","24","","fixation","","","",""
"null","img/150_270.png","null","image-keyboard-response","145","304294","0.0-6.0-1.69","LAJU","1","f","rechts","24","","","object","j","150","false"
"null","<div style=""font-size:60px;"">+</div>","null","html-keyboard-response","146","304595","0.0-6.0-0.70","LAJU","1","f","rechts","24","","fixation","","","",""
"916","img/0_300.png","70","image-keyboard-response","147","305511","0.0-6.0-1.70","LAJU","1","f","rechts","24","","","object","f","0","true"
"null","<div style=""font-size:60px;"">+</div>","null","html-keyboard-response","148","305963","0.0-6.0-0.71","LAJU","1","f","rechts","24","","fixation","","","",""
"null","img/L60_180.png","null","image-keyboard-response","149","308965","0.0-6.0-1.71","LAJU","1","f","rechts","24","","","object","j","60","false"
"null","<div style=""font-size:60px;"">+</div>","null","html-keyboard-response","150","309367","0.0-6.0-0.72","LAJU","1","f","rechts","24","","fixation","","","",""
"null","img/120_150.png","null","image-keyboard-response","151","312369","0.0-6.0-1.72","LAJU","1","f","rechts","24","","","object","j","120","false"
"null","<div style=""font-size:60px;"">+</div>","null","html-keyboard-response","152","312771","0.0-6.0-0.73","LAJU","1","f","rechts","24","","fixation","","","",""
"847","img/0_330.png","70","image-keyboard-response","153","313619","0.0-6.0-1.73","LAJU","1","f","rechts","24","","","object","f","0","true"
"null","<div style=""font-size:60px;"">+</div>","null","html-keyboard-response","154","314121","0.0-6.0-0.74","LAJU","1","f","rechts","24","","fixation","","","",""
"null","img/30_90.png","null","image-keyboard-response","155","317124","0.0-6.0-1.74","LAJU","1","f","rechts","24","","","object","j","30","false"
"null","<div style=""font-size:60px;"">+</div>","null","html-keyboard-response","156","317425","0.0-6.0-0.75","LAJU","1","f","rechts","24","","fixation","","","",""
"null","img/0_150.png","null","image-keyboard-response","157","320428","0.0-6.0-1.75","LAJU","1","f","rechts","24","","","object","j","0","false"
"null","<div style=""font-size:60px;"">+</div>","null","html-keyboard-response","158","320779","0.0-6.0-0.76","LAJU","1","f","rechts","24","","fixation","","","",""
"2696","img/60_210.png","70","image-keyboard-response","159","323476","0.0-6.0-1.76","LAJU","1","f","rechts","24","","","object","f","60","true"
"null","<div style=""font-size:60px;"">+</div>","null","html-keyboard-response","160","323777","0.0-6.0-0.77","LAJU","1","f","rechts","24","","fixation","","","",""
"2620","img/120_90.png","70","image-keyboard-response","161","326398","0.0-6.0-1.77","LAJU","1","f","rechts","24","","","object","f","120","true"
"null","<div style=""font-size:60px;"">+</div>","null","html-keyboard-response","162","326800","0.0-6.0-0.78","LAJU","1","f","rechts","24","","fixation","","","",""
"null","img/90_300.png","null","image-keyboard-response","163","329802","0.0-6.0-1.78","LAJU","1","f","rechts","24","","","object","j","90","false"
"null","<div style=""font-size:60px;"">+</div>","null","html-keyboard-response","164","330304","0.0-6.0-0.79","LAJU","1","f","rechts","24","","fixation","","","",""
"2552","img/60_30.png","70","image-keyboard-response","165","332856","0.0-6.0-1.79","LAJU","1","f","rechts","24","","","object","f","60","true"
"null","<div style=""font-size:60px;"">+</div>","null","html-keyboard-response","166","333207","0.0-6.0-0.80","LAJU","1","f","rechts","24","","fixation","","","",""
"null","img/L90_180.png","null","image-keyboard-response","167","336210","0.0-6.0-1.80","LAJU","1","f","rechts","24","","","object","j","90","false"
"null","<div style=""font-size:60px;"">+</div>","null","html-keyboard-response","168","336712","0.0-6.0-0.81","LAJU","1","f","rechts","24","","fixation","","","",""
"null","img/90_120.png","null","image-keyboard-response","169","339714","0.0-6.0-1.81","LAJU","1","f","rechts","24","","","object","j","90","false"
"null","<div style=""font-size:60px;"">+</div>","null","html-keyboard-response","170","340016","0.0-6.0-0.82","LAJU","1","f","rechts","24","","fixation","","","",""
"null","img/150_300.png","null","image-keyboard-response","171","343018","0.0-6.0-1.82","LAJU","1","f","rechts","24","","","object","j","150","false"
"null","<div style=""font-size:60px;"">+</div>","null","html-keyboard-response","172","343420","0.0-6.0-0.83","LAJU","1","f","rechts","24","","fixation","","","",""
"null","img/120_210.png","null","image-keyboard-response","173","346422","0.0-6.0-1.83","LAJU","1","f","rechts","24","","","object","f","120","false"
"null","<div style=""font-size:60px;"">+</div>","null","html-keyboard-response","174","346723","0.0-6.0-0.84","LAJU","1","f","rechts","24","","fixation","","","",""
"null","img/0_30.png","null","image-keyboard-response","175","349725","0.0-6.0-1.84","LAJU","1","f","rechts","24","","","object","j","0","false"
"null","<div style=""font-size:60px;"">+</div>","null","html-keyboard-response","176","350127","0.0-6.0-0.85","LAJU","1","f","rechts","24","","fixation","","","",""
"null","img/30_120.png","null","image-keyboard-response","177","353130","0.0-6.0-1.85","LAJU","1","f","rechts","24","","","object","j","30","false"
"null","<div style=""font-size:60px;"">+</div>","null","html-keyboard-response","178","353431","0.0-6.0-0.86","LAJU","1","f","rechts","24","","fixation","","","",""
"null","img/60_330.png","null","image-keyboard-response","179","356433","0.0-6.0-1.86","LAJU","1","f","rechts","24","","","object","j","60","false"
"null","<div style=""font-size:60px;"">+</div>","null","html-keyboard-response","180","356935","0.0-6.0-0.87","LAJU","1","f","rechts","24","","fixation","","","",""
"null","img/90_240.png","null","image-keyboard-response","181","359937","0.0-6.0-1.87","LAJU","1","f","rechts","24","","","object","f","90","false"
"null","<div style=""font-size:60px;"">+</div>","null","html-keyboard-response","182","360339","0.0-6.0-0.88","LAJU","1","f","rechts","24","","fixation","","","",""
"null","img/120_270.png","null","image-keyboard-response","183","363341","0.0-6.0-1.88","LAJU","1","f","rechts","24","","","object","j","120","false"
"null","<div style=""font-size:60px;"">+</div>","null","html-keyboard-response","184","363743","0.0-6.0-0.89","LAJU","1","f","rechts","24","","fixation","","","",""
"null","img/60_150.png","null","image-keyboard-response","185","366744","0.0-6.0-1.89","LAJU","1","f","rechts","24","","","object","j","60","false"
"null","<div style=""font-size:60px;"">+</div>","null","html-keyboard-response","186","367146","0.0-6.0-0.90","LAJU","1","f","rechts","24","","fixation","","","",""
"null","img/30_60.png","null","image-keyboard-response","187","370148","0.0-6.0-1.90","LAJU","1","f","rechts","24","","","object","j","30","false"
"null","<div style=""font-size:60px;"">+</div>","null","html-keyboard-response","188","370650","0.0-6.0-0.91","LAJU","1","f","rechts","24","","fixation","","","",""
"772","img/0_210.png","70","image-keyboard-response","189","371424","0.0-6.0-1.91","LAJU","1","f","rechts","24","","","object","f","0","true"
"null","<div style=""font-size:60px;"">+</div>","null","html-keyboard-response","190","371875","0.0-6.0-0.92","LAJU","1","f","rechts","24","","fixation","","","",""
"1800","img/120_180.png","70","image-keyboard-response","191","373676","0.0-6.0-1.92","LAJU","1","f","rechts","24","","","object","f","120","true"
"null","<div style=""font-size:60px;"">+</div>","null","html-keyboard-response","192","373978","0.0-6.0-0.93","LAJU","1","f","rechts","24","","fixation","","","",""
"1724","img/90_180.png","70","image-keyboard-response","193","375703","0.0-6.0-1.93","LAJU","1","f","rechts","24","","","object","f","90","true"
"null","<div style=""font-size:60px;"">+</div>","null","html-keyboard-response","194","376055","0.0-6.0-0.94","LAJU","1","f","rechts","24","","fixation","","","",""
"null","img/90_150.png","null","image-keyboard-response","195","379057","0.0-6.0-1.94","LAJU","1","f","rechts","24","","","object","j","90","false"
"null","<div style=""font-size:60px;"">+</div>","null","html-keyboard-response","196","379509","0.0-6.0-0.95","LAJU","1","f","rechts","24","","fixation","","","",""
"1202","img/60_180.png","70","image-keyboard-response","197","380712","0.0-6.0-1.95","LAJU","1","f","rechts","24","","","object","f","60","true"
"null","<div style=""font-size:60px;"">+</div>","null","html-keyboard-response","198","381014","0.0-6.0-0.96","LAJU","1","f","rechts","24","","fixation","","","",""
"2236","img/150_120.png","70","image-keyboard-response","199","383251","0.0-6.0-1.96","LAJU","1","f","rechts","24","","","object","f","150","true"
"null","<div style=""font-size:60px;"">+</div>","null","html-keyboard-response","200","383553","0.0-6.0-0.97","LAJU","1","f","rechts","24","","fixation","","","",""
"2770","img/150_180.png","70","image-keyboard-response","201","386324","0.0-6.0-1.97","LAJU","1","f","rechts","24","","","object","f","150","true"
"null","<div style=""font-size:60px;"">+</div>","null","html-keyboard-response","202","386776","0.0-6.0-0.98","LAJU","1","f","rechts","24","","fixation","","","",""
"1945","img/30_300.png","70","image-keyboard-response","203","388722","0.0-6.0-1.98","LAJU","1","f","rechts","24","","","object","f","30","true"
"null","<div style=""font-size:60px;"">+</div>","null","html-keyboard-response","204","389174","0.0-6.0-0.99","LAJU","1","f","rechts","24","","fixation","","","",""
"null","img/L150_180.png","null","image-keyboard-response","205","392176","0.0-6.0-1.99","LAJU","1","f","rechts","24","","","object","j","150","false"
"null","<div style=""font-size:60px;"">+</div>","null","html-keyboard-response","206","392678","0.0-6.0-0.100","LAJU","1","f","rechts","24","","fixation","","","",""
"null","img/0_60.png","null","image-keyboard-response","207","395680","0.0-6.0-1.100","LAJU","1","f","rechts","24","","","object","j","0","false"
"null","<div style=""font-size:60px;"">+</div>","null","html-keyboard-response","208","396132","0.0-6.0-0.101","LAJU","1","f","rechts","24","","fixation","","","",""
"null","img/120_330.png","null","image-keyboard-response","209","399135","0.0-6.0-1.101","LAJU","1","f","rechts","24","","","object","j","120","false"
"null","<div style=""font-size:60px;"">+</div>","null","html-keyboard-response","210","399586","0.0-6.0-0.102","LAJU","1","f","rechts","24","","fixation","","","",""
"2811","img/150_90.png","70","image-keyboard-response","211","402398","0.0-6.0-1.102","LAJU","1","f","rechts","24","","","object","f","150","true"
"null","<div style=""font-size:60px;"">+</div>","null","html-keyboard-response","212","402850","0.0-6.0-0.103","LAJU","1","f","rechts","24","","fixation","","","",""
"null","img/30_270.png","null","image-keyboard-response","213","405852","0.0-6.0-1.103","LAJU","1","f","rechts","24","","","object","f","30","false"
"null","<div style=""font-size:60px;"">+</div>","null","html-keyboard-response","214","406304","0.0-6.0-0.104","LAJU","1","f","rechts","24","","fixation","","","",""
"null","img/150_240.png","null","image-keyboard-response","215","409305","0.0-6.0-1.104","LAJU","1","f","rechts","24","","","object","j","150","false"
"null","<div style=""font-size:60px;"">+</div>","null","html-keyboard-response","216","409807","0.0-6.0-0.105","LAJU","1","f","rechts","24","","fixation","","","",""
"null","img/90_210.png","null","image-keyboard-response","217","412809","0.0-6.0-1.105","LAJU","1","f","rechts","24","","","object","f","90","false"
"null","<div style=""font-size:60px;"">+</div>","null","html-keyboard-response","218","413111","0.0-6.0-0.106","LAJU","1","f","rechts","24","","fixation","","","",""
"null","img/L120_180.png","null","image-keyboard-response","219","416113","0.0-6.0-1.106","LAJU","1","f","rechts","24","","","object","j","120","false"
"null","<div style=""font-size:60px;"">+</div>","null","html-keyboard-response","220","416515","0.0-6.0-0.107","LAJU","1","f","rechts","24","","fixation","","","",""
"null","img/90_180.png","null","image-keyboard-response","221","419517","0.0-6.0-1.107","LAJU","1","f","rechts","24","","","object","f","90","false"
"null","<div style=""font-size:60px;"">+</div>","null","html-keyboard-response","222","420019","0.0-6.0-0.108","LAJU","1","f","rechts","24","","fixation","","","",""
"2253","img/90_60.png","70","image-keyboard-response","223","422273","0.0-6.0-1.108","LAJU","1","f","rechts","24","","","object","f","90","true"
"null","<div style=""font-size:60px;"">+</div>","null","html-keyboard-response","224","422775","0.0-6.0-0.109","LAJU","1","f","rechts","24","","fixation","","","",""
"1868","img/30_180.png","70","image-keyboard-response","225","424643","0.0-6.0-1.109","LAJU","1","f","rechts","24","","","object","f","30","true"
"null","<div style=""font-size:60px;"">+</div>","null","html-keyboard-response","226","424995","0.0-6.0-0.110","LAJU","1","f","rechts","24","","fixation","","","",""
"1191","img/120_210.png","70","image-keyboard-response","227","426187","0.0-6.0-1.110","LAJU","1","f","rechts","24","","","object","f","120","true"
"null","<div style=""font-size:60px;"">+</div>","null","html-keyboard-response","228","426539","0.0-6.0-0.111","LAJU","1","f","rechts","24","","fixation","","","",""
"null","img/L150_180.png","null","image-keyboard-response","229","429541","0.0-6.0-1.111","LAJU","1","f","rechts","24","","","object","j","150","false"
"null","<div style=""font-size:60px;"">+</div>","null","html-keyboard-response","230","429843","0.0-6.0-0.112","LAJU","1","f","rechts","24","","fixation","","","",""
"1342","img/30_240.png","70","image-keyboard-response","231","431185","0.0-6.0-1.112","LAJU","1","f","rechts","24","","","object","f","30","true"
"null","<div style=""font-size:60px;"">+</div>","null","html-keyboard-response","232","431687","0.0-6.0-0.113","LAJU","1","f","rechts","24","","fixation","","","",""
"1556","img/90_240.png","70","image-keyboard-response","233","433243","0.0-6.0-1.113","LAJU","1","f","rechts","24","","","object","f","90","true"
"null","<div style=""font-size:60px;"">+</div>","null","html-keyboard-response","234","433694","0.0-6.0-0.114","LAJU","1","f","rechts","24","","fixation","","","",""
"null","img/90_150.png","null","image-keyboard-response","235","436695","0.0-6.0-1.114","LAJU","1","f","rechts","24","","","object","j","90","false"
"null","<div style=""font-size:60px;"">+</div>","null","html-keyboard-response","236","437197","0.0-6.0-0.115","LAJU","1","f","rechts","24","","fixation","","","",""
"831","img/0_240.png","70","image-keyboard-response","237","438029","0.0-6.0-1.115","LAJU","1","f","rechts","24","","","object","f","0","true"
"null","<div style=""font-size:60px;"">+</div>","null","html-keyboard-response","238","438330","0.0-6.0-0.116","LAJU","1","f","rechts","24","","fixation","","","",""
"2038","img/120_150.png","70","image-keyboard-response","239","440369","0.0-6.0-1.116","LAJU","1","f","rechts","24","","","object","j","120","false"
"null","<div style=""font-size:60px;"">+</div>","null","html-keyboard-response","240","440720","0.0-6.0-0.117","LAJU","1","f","rechts","24","","fixation","","","",""
"1789","img/150_180.png","70","image-keyboard-response","241","442510","0.0-6.0-1.117","LAJU","1","f","rechts","24","","","object","f","150","true"
"null","<div style=""font-size:60px;"">+</div>","null","html-keyboard-response","242","442912","0.0-6.0-0.118","LAJU","1","f","rechts","24","","fixation","","","",""
"null","img/120_330.png","null","image-keyboard-response","243","445914","0.0-6.0-1.118","LAJU","1","f","rechts","24","","","object","j","120","false"
"null","<div style=""font-size:60px;"">+</div>","null","html-keyboard-response","244","446365","0.0-6.0-0.119","LAJU","1","f","rechts","24","","fixation","","","",""
"2450","img/60_30.png","70","image-keyboard-response","245","448816","0.0-6.0-1.119","LAJU","1","f","rechts","24","","","object","f","60","true"
"null","<div style=""font-size:60px;"">+</div>","null","html-keyboard-response","246","449217","0.0-6.0-0.120","LAJU","1","f","rechts","24","","fixation","","","",""
"null","img/30_90.png","null","image-keyboard-response","247","452220","0.0-6.0-1.120","LAJU","1","f","rechts","24","","","object","j","30","false"
"null","<div style=""font-size:60px;"">+</div>","null","html-keyboard-response","248","452571","0.0-6.0-0.121","LAJU","1","f","rechts","24","","fixation","","","",""
"1207","img/60_180.png","70","image-keyboard-response","249","453780","0.0-6.0-1.121","LAJU","1","f","rechts","24","","","object","f","60","true"
"null","<div style=""font-size:60px;"">+</div>","null","html-keyboard-response","250","454081","0.0-6.0-0.122","LAJU","1","f","rechts","24","","fixation","","","",""
"null","img/30_270.png","null","image-keyboard-response","251","457084","0.0-6.0-1.122","LAJU","1","f","rechts","24","","","object","f","30","false"
"null","<div style=""font-size:60px;"">+</div>","null","html-keyboard-response","252","457485","0.0-6.0-0.123","LAJU","1","f","rechts","24","","fixation","","","",""
"1643","img/90_30.png","70","image-keyboard-response","253","459129","0.0-6.0-1.123","LAJU","1","f","rechts","24","","","object","f","90","true"
"null","<div style=""font-size:60px;"">+</div>","null","html-keyboard-response","254","459581","0.0-6.0-0.124","LAJU","1","f","rechts","24","","fixation","","","",""
"null","img/L90_180.png","null","image-keyboard-response","255","462583","0.0-6.0-1.124","LAJU","1","f","rechts","24","","","object","j","90","false"
"null","<div style=""font-size:60px;"">+</div>","null","html-keyboard-response","256","463035","0.0-6.0-0.125","LAJU","1","f","rechts","24","","fixation","","","",""
"null","img/60_150.png","null","image-keyboard-response","257","466037","0.0-6.0-1.125","LAJU","1","f","rechts","24","","","object","j","60","false"
"null","<div style=""font-size:60px;"">+</div>","null","html-keyboard-response","258","466389","0.0-6.0-0.126","LAJU","1","f","rechts","24","","fixation","","","",""
"null","img/0_120.png","null","image-keyboard-response","259","469391","0.0-6.0-1.126","LAJU","1","f","rechts","24","","","object","j","0","false"
"null","<div style=""font-size:60px;"">+</div>","null","html-keyboard-response","260","469693","0.0-6.0-0.127","LAJU","1","f","rechts","24","","fixation","","","",""
"1506","img/150_120.png","70","image-keyboard-response","261","471200","0.0-6.0-1.127","LAJU","1","f","rechts","24","","","object","f","150","true"
"null","<div style=""font-size:60px;"">+</div>","null","html-keyboard-response","262","471551","0.0-6.0-0.128","LAJU","1","f","rechts","24","","fixation","","","",""
"null","img/150_300.png","null","image-keyboard-response","263","474553","0.0-6.0-1.128","LAJU","1","f","rechts","24","","","object","j","150","false"
"null","<div style=""font-size:60px;"">+</div>","null","html-keyboard-response","264","474955","0.0-6.0-0.129","LAJU","1","f","rechts","24","","fixation","","","",""
"2016","img/60_270.png","70","image-keyboard-response","265","476972","0.0-6.0-1.129","LAJU","1","f","rechts","24","","","object","f","60","true"
"null","<div style=""font-size:60px;"">+</div>","null","html-keyboard-response","266","477324","0.0-6.0-0.130","LAJU","1","f","rechts","24","","fixation","","","",""
"null","img/30_120.png","null","image-keyboard-response","267","480326","0.0-6.0-1.130","LAJU","1","f","rechts","24","","","object","j","30","false"
"null","<div style=""font-size:60px;"">+</div>","null","html-keyboard-response","268","480728","0.0-6.0-0.131","LAJU","1","f","rechts","24","","fixation","","","",""
"null","img/30_60.png","null","image-keyboard-response","269","483729","0.0-6.0-1.131","LAJU","1","f","rechts","24","","","object","j","30","false"
"null","<div style=""font-size:60px;"">+</div>","null","html-keyboard-response","270","484031","0.0-6.0-0.132","LAJU","1","f","rechts","24","","fixation","","","",""
"955","img/0_330.png","70","image-keyboard-response","271","484988","0.0-6.0-1.132","LAJU","1","f","rechts","24","","","object","f","0","true"
"null","<div style=""font-size:60px;"">+</div>","null","html-keyboard-response","272","485340","0.0-6.0-0.133","LAJU","1","f","rechts","24","","fixation","","","",""
"2668","img/120_180.png","70","image-keyboard-response","273","488009","0.0-6.0-1.133","LAJU","1","f","rechts","24","","","object","f","120","true"
"null","<div style=""font-size:60px;"">+</div>","null","html-keyboard-response","274","488310","0.0-6.0-0.134","LAJU","1","f","rechts","24","","fixation","","","",""
"null","img/120_30.png","null","image-keyboard-response","275","491313","0.0-6.0-1.134","LAJU","1","f","rechts","24","","","object","f","120","false"
"null","<div style=""font-size:60px;"">+</div>","null","html-keyboard-response","276","491665","0.0-6.0-0.135","LAJU","1","f","rechts","24","","fixation","","","",""
"157","img/0_60.png","70","image-keyboard-response","277","491822","0.0-6.0-1.135","LAJU","1","f","rechts","24","","","object","j","0","false"
"null","<div style=""font-size:60px;"">+</div>","null","html-keyboard-response","278","492324","0.0-6.0-0.136","LAJU","1","f","rechts","24","","fixation","","","",""
"null","img/0_150.png","null","image-keyboard-response","279","495326","0.0-6.0-1.136","LAJU","1","f","rechts","24","","","object","j","0","false"
"null","<div style=""font-size:60px;"">+</div>","null","html-keyboard-response","280","495678","0.0-6.0-0.137","LAJU","1","f","rechts","24","","fixation","","","",""
"null","img/90_300.png","null","image-keyboard-response","281","498680","0.0-6.0-1.137","LAJU","1","f","rechts","24","","","object","j","90","false"
"null","<div style=""font-size:60px;"">+</div>","null","html-keyboard-response","282","498981","0.0-6.0-0.138","LAJU","1","f","rechts","24","","fixation","","","",""
"851","img/0_210.png","70","image-keyboard-response","283","499834","0.0-6.0-1.138","LAJU","1","f","rechts","24","","","object","f","0","true"
"null","<div style=""font-size:60px;"">+</div>","null","html-keyboard-response","284","500335","0.0-6.0-0.139","LAJU","1","f","rechts","24","","fixation","","","",""
"null","img/90_330.png","null","image-keyboard-response","285","503338","0.0-6.0-1.139","LAJU","1","f","rechts","24","","","object","j","90","false"
"null","<div style=""font-size:60px;"">+</div>","null","html-keyboard-response","286","503789","0.0-6.0-0.140","LAJU","1","f","rechts","24","","fixation","","","",""
"null","img/L30_180.png","null","image-keyboard-response","287","506792","0.0-6.0-1.140","LAJU","1","f","rechts","24","","","object","j","30","false"
"null","<div style=""font-size:60px;"">+</div>","null","html-keyboard-response","288","507294","0.0-6.0-0.141","LAJU","1","f","rechts","24","","fixation","","","",""
"null","img/60_330.png","null","image-keyboard-response","289","510295","0.0-6.0-1.141","LAJU","1","f","rechts","24","","","object","j","60","false"
"null","<div style=""font-size:60px;"">+</div>","null","html-keyboard-response","290","510747","0.0-6.0-0.142","LAJU","1","f","rechts","24","","fixation","","","",""
"null","img/0_30.png","null","image-keyboard-response","291","513749","0.0-6.0-1.142","LAJU","1","f","rechts","24","","","object","j","0","false"
"null","<div style=""font-size:60px;"">+</div>","null","html-keyboard-response","292","514051","0.0-6.0-0.143","LAJU","1","f","rechts","24","","fixation","","","",""
"null","img/L60_180.png","null","image-keyboard-response","293","517053","0.0-6.0-1.143","LAJU","1","f","rechts","24","","","object","j","60","false"
"null","<div style=""font-size:60px;"">+</div>","null","html-keyboard-response","294","517555","0.0-6.0-0.144","LAJU","1","f","rechts","24","","fixation","","","",""
"2237","img/120_90.png","70","image-keyboard-response","295","519793","0.0-6.0-1.144","LAJU","1","f","rechts","24","","","object","f","120","true"
"null","<div style=""font-size:60px;"">+</div>","null","html-keyboard-response","296","520094","0.0-6.0-0.145","LAJU","1","f","rechts","24","","fixation","","","",""
"null","img/120_270.png","null","image-keyboard-response","297","523096","0.0-6.0-1.145","LAJU","1","f","rechts","24","","","object","j","120","false"
"null","<div style=""font-size:60px;"">+</div>","null","html-keyboard-response","298","523498","0.0-6.0-0.146","LAJU","1","f","rechts","24","","fixation","","","",""
"null","img/150_270.png","null","image-keyboard-response","299","526501","0.0-6.0-1.146","LAJU","1","f","rechts","24","","","object","j","150","false"
"null","<div style=""font-size:60px;"">+</div>","null","html-keyboard-response","300","526802","0.0-6.0-0.147","LAJU","1","f","rechts","24","","fixation","","","",""
"1065","img/60_90.png","70","image-keyboard-response","301","527869","0.0-6.0-1.147","LAJU","1","f","rechts","24","","","object","j","60","false"
"null","<div style=""font-size:60px;"">+</div>","null","html-keyboard-response","302","528269","0.0-6.0-0.148","LAJU","1","f","rechts","24","","fixation","","","",""
"873","img/0_300.png","70","image-keyboard-response","303","529143","0.0-6.0-1.148","LAJU","1","f","rechts","24","","","object","f","0","true"
"null","<div style=""font-size:60px;"">+</div>","null","html-keyboard-response","304","529545","0.0-6.0-0.149","LAJU","1","f","rechts","24","","fixation","","","",""
"1636","img/30_300.png","70","image-keyboard-response","305","531182","0.0-6.0-1.149","LAJU","1","f","rechts","24","","","object","f","30","true"
"null","<div style=""font-size:60px;"">+</div>","null","html-keyboard-response","306","531584","0.0-6.0-0.150","LAJU","1","f","rechts","24","","fixation","","","",""
"2335","img/150_60.png","70","image-keyboard-response","307","533920","0.0-6.0-1.150","LAJU","1","f","rechts","24","","","object","f","150","true"
"null","<div style=""font-size:60px;"">+</div>","null","html-keyboard-response","308","534272","0.0-6.0-0.151","LAJU","1","f","rechts","24","","fixation","","","",""
"null","img/0_90.png","null","image-keyboard-response","309","537274","0.0-6.0-1.151","LAJU","1","f","rechts","24","","","object","j","0","false"
"null","<div style=""font-size:60px;"">+</div>","null","html-keyboard-response","310","537726","0.0-6.0-0.152","LAJU","1","f","rechts","24","","fixation","","","",""
"null","img/90_120.png","null","image-keyboard-response","311","540727","0.0-6.0-1.152","LAJU","1","f","rechts","24","","","object","j","90","false"
"null","<div style=""font-size:60px;"">+</div>","null","html-keyboard-response","312","541128","0.0-6.0-0.153","LAJU","1","f","rechts","24","","fixation","","","",""
"1764","img/60_210.png","70","image-keyboard-response","313","542893","0.0-6.0-1.153","LAJU","1","f","rechts","24","","","object","f","60","true"
"null","<div style=""font-size:60px;"">+</div>","null","html-keyboard-response","314","543295","0.0-6.0-0.154","LAJU","1","f","rechts","24","","fixation","","","",""
"830","img/0_270.png","70","image-keyboard-response","315","544125","0.0-6.0-1.154","LAJU","1","f","rechts","24","","","object","f","0","true"
"null","<div style=""font-size:60px;"">+</div>","null","html-keyboard-response","316","544576","0.0-6.0-0.155","LAJU","1","f","rechts","24","","fixation","","","",""
"1793","img/150_90.png","70","image-keyboard-response","317","546371","0.0-6.0-1.155","LAJU","1","f","rechts","24","","","object","f","150","true"
"null","<div style=""font-size:60px;"">+</div>","null","html-keyboard-response","318","546672","0.0-6.0-0.156","LAJU","1","f","rechts","24","","fixation","","","",""
"null","img/150_180.png","null","image-keyboard-response","319","549675","0.0-6.0-1.156","LAJU","1","f","rechts","24","","","object","f","150","false"
"null","<div style=""font-size:60px;"">+</div>","null","html-keyboard-response","320","550075","0.0-6.0-0.157","LAJU","1","f","rechts","24","","fixation","","","",""
"null","img/0_150.png","null","image-keyboard-response","321","553078","0.0-6.0-1.157","LAJU","1","f","rechts","24","","","object","j","0","false"
"null","<div style=""font-size:60px;"">+</div>","null","html-keyboard-response","322","553579","0.0-6.0-0.158","LAJU","1","f","rechts","24","","fixation","","","",""
"null","img/30_90.png","null","image-keyboard-response","323","556582","0.0-6.0-1.158","LAJU","1","f","rechts","24","","","object","j","30","false"
"null","<div style=""font-size:60px;"">+</div>","null","html-keyboard-response","324","557083","0.0-6.0-0.159","LAJU","1","f","rechts","24","","fixation","","","",""
"null","img/L120_180.png","null","image-keyboard-response","325","560086","0.0-6.0-1.159","LAJU","1","f","rechts","24","","","object","j","120","false"
"null","<div style=""font-size:60px;"">+</div>","null","html-keyboard-response","326","560437","0.0-6.0-0.160","LAJU","1","f","rechts","24","","fixation","","","",""
"1124","img/90_60.png","70","image-keyboard-response","327","561563","0.0-6.0-1.160","LAJU","1","f","rechts","24","","","object","f","90","true"
"null","<div style=""font-size:60px;"">+</div>","null","html-keyboard-response","328","561915","0.0-6.0-0.161","LAJU","1","f","rechts","24","","fixation","","","",""
"1969","img/120_210.png","70","image-keyboard-response","329","563885","0.0-6.0-1.161","LAJU","1","f","rechts","24","","","object","f","120","true"
"null","<div style=""font-size:60px;"">+</div>","null","html-keyboard-response","330","564236","0.0-6.0-0.162","LAJU","1","f","rechts","24","","fixation","","","",""
"null","img/90_150.png","null","image-keyboard-response","331","567238","0.0-6.0-1.162","LAJU","1","f","rechts","24","","","object","j","90","false"
"null","<div style=""font-size:60px;"">+</div>","null","html-keyboard-response","332","567639","0.0-6.0-0.163","LAJU","1","f","rechts","24","","fixation","","","",""
"1104","img/90_210.png","70","image-keyboard-response","333","568744","0.0-6.0-1.163","LAJU","1","f","rechts","24","","","object","f","90","true"
"null","<div style=""font-size:60px;"">+</div>","null","html-keyboard-response","334","569096","0.0-6.0-0.164","LAJU","1","f","rechts","24","","fixation","","","",""
"1672","img/120_180.png","70","image-keyboard-response","335","570769","0.0-6.0-1.164","LAJU","1","f","rechts","24","","","object","f","120","true"
"null","<div style=""font-size:60px;"">+</div>","null","html-keyboard-response","336","571270","0.0-6.0-0.165","LAJU","1","f","rechts","24","","fixation","","","",""
"813","img/0_240.png","70","image-keyboard-response","337","572084","0.0-6.0-1.165","LAJU","1","f","rechts","24","","","object","f","0","true"
"null","<div style=""font-size:60px;"">+</div>","null","html-keyboard-response","338","572536","0.0-6.0-0.166","LAJU","1","f","rechts","24","","fixation","","","",""
"2051","img/60_30.png","70","image-keyboard-response","339","574588","0.0-6.0-1.166","LAJU","1","f","rechts","24","","","object","f","60","true"
"null","<div style=""font-size:60px;"">+</div>","null","html-keyboard-response","340","574890","0.0-6.0-0.167","LAJU","1","f","rechts","24","","fixation","","","",""
"1292","img/0_270.png","70","image-keyboard-response","341","576183","0.0-6.0-1.167","LAJU","1","f","rechts","24","","","object","f","0","true"
"null","<div style=""font-size:60px;"">+</div>","null","html-keyboard-response","342","576635","0.0-6.0-0.168","LAJU","1","f","rechts","24","","fixation","","","",""
"null","img/120_150.png","null","image-keyboard-response","343","579637","0.0-6.0-1.168","LAJU","1","f","rechts","24","","","object","j","120","false"
"null","<div style=""font-size:60px;"">+</div>","null","html-keyboard-response","344","579989","0.0-6.0-0.169","LAJU","1","f","rechts","24","","fixation","","","",""
"null","img/L90_180.png","null","image-keyboard-response","345","582991","0.0-6.0-1.169","LAJU","1","f","rechts","24","","","object","j","90","false"
"null","<div style=""font-size:60px;"">+</div>","null","html-keyboard-response","346","583493","0.0-6.0-0.170","LAJU","1","f","rechts","24","","fixation","","","",""
"null","img/150_120.png","null","image-keyboard-response","347","586495","0.0-6.0-1.170","LAJU","1","f","rechts","24","","","object","f","150","false"
"null","<div style=""font-size:60px;"">+</div>","null","html-keyboard-response","348","586897","0.0-6.0-0.171","LAJU","1","f","rechts","24","","fixation","","","",""
"995","img/150_90.png","70","image-keyboard-response","349","587893","0.0-6.0-1.171","LAJU","1","f","rechts","24","","","object","f","150","true"
"null","<div style=""font-size:60px;"">+</div>","null","html-keyboard-response","350","588345","0.0-6.0-0.172","LAJU","1","f","rechts","24","","fixation","","","",""
"null","img/60_180.png","null","image-keyboard-response","351","591347","0.0-6.0-1.172","LAJU","1","f","rechts","24","","","object","f","60","false"
"null","<div style=""font-size:60px;"">+</div>","null","html-keyboard-response","352","591698","0.0-6.0-0.173","LAJU","1","f","rechts","24","","fixation","","","",""
"null","img/120_270.png","null","image-keyboard-response","353","594701","0.0-6.0-1.173","LAJU","1","f","rechts","24","","","object","j","120","false"
"null","<div style=""font-size:60px;"">+</div>","null","html-keyboard-response","354","595103","0.0-6.0-0.174","LAJU","1","f","rechts","24","","fixation","","","",""
"2211","img/60_90.png","70","image-keyboard-response","355","597314","0.0-6.0-1.174","LAJU","1","f","rechts","24","","","object","j","60","false"
"null","<div style=""font-size:60px;"">+</div>","null","html-keyboard-response","356","597666","0.0-6.0-0.175","LAJU","1","f","rechts","24","","fixation","","","",""
"945","img/0_300.png","70","image-keyboard-response","357","598611","0.0-6.0-1.175","LAJU","1","f","rechts","24","","","object","f","0","true"
"null","<div style=""font-size:60px;"">+</div>","null","html-keyboard-response","358","599063","0.0-6.0-0.176","LAJU","1","f","rechts","24","","fixation","","","",""
"null","img/0_120.png","null","image-keyboard-response","359","602066","0.0-6.0-1.176","LAJU","1","f","rechts","24","","","object","j","0","false"
"null","<div style=""font-size:60px;"">+</div>","null","html-keyboard-response","360","602568","0.0-6.0-0.177","LAJU","1","f","rechts","24","","fixation","","","",""
"1736","img/30_240.png","70","image-keyboard-response","361","604306","0.0-6.0-1.177","LAJU","1","f","rechts","24","","","object","f","30","true"
"null","<div style=""font-size:60px;"">+</div>","null","html-keyboard-response","362","604607","0.0-6.0-0.178","LAJU","1","f","rechts","24","","fixation","","","",""
"849","img/0_210.png","70","image-keyboard-response","363","605458","0.0-6.0-1.178","LAJU","1","f","rechts","24","","","object","f","0","true"
"null","<div style=""font-size:60px;"">+</div>","null","html-keyboard-response","364","605910","0.0-6.0-0.179","LAJU","1","f","rechts","24","","fixation","","","",""
"1930","img/90_120.png","70","image-keyboard-response","365","607840","0.0-6.0-1.179","LAJU","1","f","rechts","24","","","object","j","90","false"
"null","<div style=""font-size:60px;"">+</div>","null","html-keyboard-response","366","608142","0.0-6.0-0.180","LAJU","1","f","rechts","24","","fixation","","","",""
"1529","img/30_60.png","70","image-keyboard-response","367","609672","0.0-6.0-1.180","LAJU","1","f","rechts","24","","","object","j","30","false"
"null","<div style=""font-size:60px;"">+</div>","null","html-keyboard-response","368","610174","0.0-6.0-0.181","LAJU","1","f","rechts","24","","fixation","","","",""
"788","img/0_330.png","70","image-keyboard-response","369","610962","0.0-6.0-1.181","LAJU","1","f","rechts","24","","","object","f","0","true"
"null","<div style=""font-size:60px;"">+</div>","null","html-keyboard-response","370","611364","0.0-6.0-0.182","LAJU","1","f","rechts","24","","fixation","","","",""
"null","img/0_30.png","null","image-keyboard-response","371","614366","0.0-6.0-1.182","LAJU","1","f","rechts","24","","","object","j","0","false"
"null","<div style=""font-size:60px;"">+</div>","null","html-keyboard-response","372","614868","0.0-6.0-0.183","LAJU","1","f","rechts","24","","fixation","","","",""
"null","img/0_90.png","null","image-keyboard-response","373","617870","0.0-6.0-1.183","LAJU","1","f","rechts","24","","","object","j","0","false"
"null","<div style=""font-size:60px;"">+</div>","null","html-keyboard-response","374","618372","0.0-6.0-0.184","LAJU","1","f","rechts","24","","fixation","","","",""
"null","img/90_330.png","null","image-keyboard-response","375","621375","0.0-6.0-1.184","LAJU","1","f","rechts","24","","","object","j","90","false"
"null","<div style=""font-size:60px;"">+</div>","null","html-keyboard-response","376","621826","0.0-6.0-0.185","LAJU","1","f","rechts","24","","fixation","","","",""
"1265","img/150_270.png","70","image-keyboard-response","377","623092","0.0-6.0-1.185","LAJU","1","f","rechts","24","","","object","j","150","false"
"null","<div style=""font-size:60px;"">+</div>","null","html-keyboard-response","378","623494","0.0-6.0-0.186","LAJU","1","f","rechts","24","","fixation","","","",""
"null","img/60_330.png","null","image-keyboard-response","379","626496","0.0-6.0-1.186","LAJU","1","f","rechts","24","","","object","j","60","false"
"null","<div style=""font-size:60px;"">+</div>","null","html-keyboard-response","380","626998","0.0-6.0-0.187","LAJU","1","f","rechts","24","","fixation","","","",""
"null","img/60_150.png","null","image-keyboard-response","381","630001","0.0-6.0-1.187","LAJU","1","f","rechts","24","","","object","j","60","false"
"null","<div style=""font-size:60px;"">+</div>","null","html-keyboard-response","382","630503","0.0-6.0-0.188","LAJU","1","f","rechts","24","","fixation","","","",""
"null","img/L150_180.png","null","image-keyboard-response","383","633505","0.0-6.0-1.188","LAJU","1","f","rechts","24","","","object","j","150","false"
"null","<div style=""font-size:60px;"">+</div>","null","html-keyboard-response","384","634007","0.0-6.0-0.189","LAJU","1","f","rechts","24","","fixation","","","",""
"1547","img/30_300.png","70","image-keyboard-response","385","635555","0.0-6.0-1.189","LAJU","1","f","rechts","24","","","object","f","30","true"
"null","<div style=""font-size:60px;"">+</div>","null","html-keyboard-response","386","635956","0.0-6.0-0.190","LAJU","1","f","rechts","24","","fixation","","","",""
"null","img/L60_180.png","null","image-keyboard-response","387","638958","0.0-6.0-1.190","LAJU","1","f","rechts","24","","","object","j","60","false"
"null","<div style=""font-size:60px;"">+</div>","null","html-keyboard-response","388","639310","0.0-6.0-0.191","LAJU","1","f","rechts","24","","fixation","","","",""
"null","img/30_120.png","null","image-keyboard-response","389","642313","0.0-6.0-1.191","LAJU","1","f","rechts","24","","","object","j","30","false"
"null","<div style=""font-size:60px;"">+</div>","null","html-keyboard-response","390","642765","0.0-6.0-0.192","LAJU","1","f","rechts","24","","fixation","","","",""
"1132","img/60_210.png","70","image-keyboard-response","391","643897","0.0-6.0-1.192","LAJU","1","f","rechts","24","","","object","f","60","true"
"null","<div style=""font-size:60px;"">+</div>","null","html-keyboard-response","392","644199","0.0-6.0-0.193","LAJU","1","f","rechts","24","","fixation","","","",""
"null","img/L30_180.png","null","image-keyboard-response","393","647202","0.0-6.0-1.193","LAJU","1","f","rechts","24","","","object","j","30","false"
"null","<div style=""font-size:60px;"">+</div>","null","html-keyboard-response","394","647703","0.0-6.0-0.194","LAJU","1","f","rechts","24","","fixation","","","",""
"1987","img/30_270.png","70","image-keyboard-response","395","649692","0.0-6.0-1.194","LAJU","1","f","rechts","24","","","object","f","30","true"
"null","<div style=""font-size:60px;"">+</div>","null","html-keyboard-response","396","650143","0.0-6.0-0.195","LAJU","1","f","rechts","24","","fixation","","","",""
"null","img/120_90.png","null","image-keyboard-response","397","653145","0.0-6.0-1.195","LAJU","1","f","rechts","24","","","object","f","120","false"
"null","<div style=""font-size:60px;"">+</div>","null","html-keyboard-response","398","653497","0.0-6.0-0.196","LAJU","1","f","rechts","24","","fixation","","","",""
"2026","img/120_30.png","70","image-keyboard-response","399","655524","0.0-6.0-1.196","LAJU","1","f","rechts","24","","","object","f","120","true"
"null","<div style=""font-size:60px;"">+</div>","null","html-keyboard-response","400","655826","0.0-6.0-0.197","LAJU","1","f","rechts","24","","fixation","","","",""
"1895","img/90_240.png","70","image-keyboard-response","401","657722","0.0-6.0-1.197","LAJU","1","f","rechts","24","","","object","f","90","true"
"null","<div style=""font-size:60px;"">+</div>","null","html-keyboard-response","402","658124","0.0-6.0-0.198","LAJU","1","f","rechts","24","","fixation","","","",""
"2196","img/150_60.png","70","image-keyboard-response","403","660321","0.0-6.0-1.198","LAJU","1","f","rechts","24","","","object","f","150","true"
"null","<div style=""font-size:60px;"">+</div>","null","html-keyboard-response","404","660773","0.0-6.0-0.199","LAJU","1","f","rechts","24","","fixation","","","",""
"null","img/150_300.png","null","image-keyboard-response","405","663775","0.0-6.0-1.199","LAJU","1","f","rechts","24","","","object","j","150","false"
"null","<div style=""font-size:60px;"">+</div>","null","html-keyboard-response","406","664177","0.0-6.0-0.200","LAJU","1","f","rechts","24","","fixation","","","",""
"1478","img/90_180.png","70","image-keyboard-response","407","665656","0.0-6.0-1.200","LAJU","1","f","rechts","24","","","object","f","90","true"
"null","<div style=""font-size:60px;"">+</div>","null","html-keyboard-response","408","666108","0.0-6.0-0.201","LAJU","1","f","rechts","24","","fixation","","","",""
"2993","img/150_240.png","70","image-keyboard-response","409","669102","0.0-6.0-1.201","LAJU","1","f","rechts","24","","","object","j","150","false"
"null","<div style=""font-size:60px;"">+</div>","null","html-keyboard-response","410","669454","0.0-6.0-0.202","LAJU","1","f","rechts","24","","fixation","","","",""
"1086","img/120_330.png","70","image-keyboard-response","411","670541","0.0-6.0-1.202","LAJU","1","f","rechts","24","","","object","j","120","false"
"null","<div style=""font-size:60px;"">+</div>","null","html-keyboard-response","412","670943","0.0-6.0-0.203","LAJU","1","f","rechts","24","","fixation","","","",""
"null","img/60_270.png","null","image-keyboard-response","413","673945","0.0-6.0-1.203","LAJU","1","f","rechts","24","","","object","f","60","false"
"null","<div style=""font-size:60px;"">+</div>","null","html-keyboard-response","414","674247","0.0-6.0-0.204","LAJU","1","f","rechts","24","","fixation","","","",""
"96","img/90_30.png","70","image-keyboard-response","415","674344","0.0-6.0-1.204","LAJU","1","f","rechts","24","","","object","f","90","true"
"null","<div style=""font-size:60px;"">+</div>","null","html-keyboard-response","416","674845","0.0-6.0-0.205","LAJU","1","f","rechts","24","","fixation","","","",""
"null","img/0_60.png","null","image-keyboard-response","417","677846","0.0-6.0-1.205","LAJU","1","f","rechts","24","","","object","j","0","false"
"null","<div style=""font-size:60px;"">+</div>","null","html-keyboard-response","418","678248","0.0-6.0-0.206","LAJU","1","f","rechts","24","","fixation","","","",""
"1327","img/30_180.png","70","image-keyboard-response","419","679576","0.0-6.0-1.206","LAJU","1","f","rechts","24","","","object","f","30","true"
"null","<div style=""font-size:60px;"">+</div>","null","html-keyboard-response","420","679928","0.0-6.0-0.207","LAJU","1","f","rechts","24","","fixation","","","",""
"null","img/90_300.png","null","image-keyboard-response","421","682929","0.0-6.0-1.207","LAJU","1","f","rechts","24","","","object","j","90","false"
"8958","<p>Du hast in 39% der Versuche korrekt entschieden.</p><p>Deine durchschnittliche Reaktionszeit war  1619ms.</p><p>Dr&uuml;cke eine beliebige Taste, um die Session zu beenden. Vielen Dank!</p>","32","html-keyboard-response","422","691890","0.0-7.0","LAJU","1","f","rechts","24","","","","","",""
