"rt","stimulus","key_press","trial_type","trial_index","time_elapsed","internal_node_id","subject","session","sex","handedness","age","responses","test_part","condition","correct_response","angle","correct"
"1238","<p>Mental Rotation Experiment.</p> <p>Dr&uuml;cke eine beliebige Taste, um anzufangen.</p>","74","html-keyboard-response","0","1240","0.0-0.0","LAJU","3","f","rechts","24","","","","","",""
"3751","","","survey-text","1","4992","0.0-1.0","LAJU","3","f","rechts","24","{""Q0"":""LAJU""}","","","","",""
"1514","","","survey-text","2","6507","0.0-2.0","LAJU","3","f","rechts","24","{""Q0"":""3""}","","","","",""
"2422","","","survey-multi-choice","3","8930","0.0-3.0","LAJU","3","f","rechts","24","{""Q0"":""f"",""Q1"":""rechts""}","","","","",""
"1843","","","survey-text","4","10773","0.0-4.0","LAJU","3","f","rechts","24","{""Q0"":""24""}","","","","",""
"120077","<p>Stell dir vor, dass du vor einem runden Tisch stehst, auf dem sich ein blauer Ball am Tischrand befindet. Entlang des Tischrands ist jeweils ein verschieden langer Pfeil. Nun bleibst du an deinem Platz vor dem Tisch und rotierst den Tisch entlang des Pfeils (gleiche Richtung und Länge). </p> <img src='img/30_180.png'></img> <br><p> Nachdem du diese (vorgestellte) Rotation durchgef&uuml;hrt hast, schau in Richtung der Tischmitte, und entscheide dann, ob der Ball links oder rechts von dir liegt.</p> <p>Dr&uuml;cke die <strong>'f'</strong>-Taste f&uuml;r links, die <strong>'j'</strong>-Taste f&uuml;r rechts.</p><br><p> Das Bild wird jeweils 1 Sekunde lang pr&auml;sentiert. Du hast 3 Sekunden Zeit eine Entscheidung zu treffen.</p>","74","html-keyboard-response","5","130850","0.0-5.0","LAJU","3","f","rechts","24","","","","","",""
"null","<div style=""font-size:60px;"">+</div>","null","html-keyboard-response","6","132306","0.0-6.0-0.0","LAJU","3","f","rechts","24","","fixation","","","",""
"2103","img/150_180.png","70","image-keyboard-response","7","134411","0.0-6.0-1.0","LAJU","3","f","rechts","24","","","object","f","150","true"
"null","<div style=""font-size:60px;"">+</div>","null","html-keyboard-response","8","134712","0.0-6.0-0.1","LAJU","3","f","rechts","24","","fixation","","","",""
"null","img/60_180.png","null","image-keyboard-response","9","137715","0.0-6.0-1.1","LAJU","3","f","rechts","24","","","object","f","60","false"
"null","<div style=""font-size:60px;"">+</div>","null","html-keyboard-response","10","138017","0.0-6.0-0.2","LAJU","3","f","rechts","24","","fixation","","","",""
"168","img/L150_180.png","70","image-keyboard-response","11","138186","0.0-6.0-1.2","LAJU","3","f","rechts","24","","","object","j","150","false"
"null","<div style=""font-size:60px;"">+</div>","null","html-keyboard-response","12","138488","0.0-6.0-0.3","LAJU","3","f","rechts","24","","fixation","","","",""
"2963","img/150_240.png","74","image-keyboard-response","13","141453","0.0-6.0-1.3","LAJU","3","f","rechts","24","","","object","j","150","true"
"null","<div style=""font-size:60px;"">+</div>","null","html-keyboard-response","14","141854","0.0-6.0-0.4","LAJU","3","f","rechts","24","","fixation","","","",""
"2220","img/120_90.png","70","image-keyboard-response","15","144076","0.0-6.0-1.4","LAJU","3","f","rechts","24","","","object","f","120","true"
"null","<div style=""font-size:60px;"">+</div>","null","html-keyboard-response","16","144427","0.0-6.0-0.5","LAJU","3","f","rechts","24","","fixation","","","",""
"868","img/0_60.png","74","image-keyboard-response","17","145296","0.0-6.0-1.5","LAJU","3","f","rechts","24","","","object","j","0","true"
"null","<div style=""font-size:60px;"">+</div>","null","html-keyboard-response","18","145798","0.0-6.0-0.6","LAJU","3","f","rechts","24","","fixation","","","",""
"2567","img/150_270.png","74","image-keyboard-response","19","148366","0.0-6.0-1.6","LAJU","3","f","rechts","24","","","object","j","150","true"
"null","<div style=""font-size:60px;"">+</div>","null","html-keyboard-response","20","148868","0.0-6.0-0.7","LAJU","3","f","rechts","24","","fixation","","","",""
"2046","img/150_120.png","70","image-keyboard-response","21","150914","0.0-6.0-1.7","LAJU","3","f","rechts","24","","","object","f","150","true"
"null","<div style=""font-size:60px;"">+</div>","null","html-keyboard-response","22","151416","0.0-6.0-0.8","LAJU","3","f","rechts","24","","fixation","","","",""
"1969","img/120_30.png","70","image-keyboard-response","23","153386","0.0-6.0-1.8","LAJU","3","f","rechts","24","","","object","f","120","true"
"null","<div style=""font-size:60px;"">+</div>","null","html-keyboard-response","24","153688","0.0-6.0-0.9","LAJU","3","f","rechts","24","","fixation","","","",""
"784","img/0_90.png","74","image-keyboard-response","25","154472","0.0-6.0-1.9","LAJU","3","f","rechts","24","","","object","j","0","true"
"null","<div style=""font-size:60px;"">+</div>","null","html-keyboard-response","26","154873","0.0-6.0-0.10","LAJU","3","f","rechts","24","","fixation","","","",""
"1278","img/60_270.png","74","image-keyboard-response","27","156152","0.0-6.0-1.10","LAJU","3","f","rechts","24","","","object","f","60","false"
"null","<div style=""font-size:60px;"">+</div>","null","html-keyboard-response","28","156504","0.0-6.0-0.11","LAJU","3","f","rechts","24","","fixation","","","",""
"800","img/0_150.png","74","image-keyboard-response","29","157305","0.0-6.0-1.11","LAJU","3","f","rechts","24","","","object","j","0","true"
"null","<div style=""font-size:60px;"">+</div>","null","html-keyboard-response","30","157757","0.0-6.0-0.12","LAJU","3","f","rechts","24","","fixation","","","",""
"1957","img/30_90.png","74","image-keyboard-response","31","159715","0.0-6.0-1.12","LAJU","3","f","rechts","24","","","object","j","30","true"
"null","<div style=""font-size:60px;"">+</div>","null","html-keyboard-response","32","160117","0.0-6.0-0.13","LAJU","3","f","rechts","24","","fixation","","","",""
"1961","img/90_180.png","74","image-keyboard-response","33","162079","0.0-6.0-1.13","LAJU","3","f","rechts","24","","","object","f","90","false"
"null","<div style=""font-size:60px;"">+</div>","null","html-keyboard-response","34","162431","0.0-6.0-0.14","LAJU","3","f","rechts","24","","fixation","","","",""
"2550","img/90_150.png","70","image-keyboard-response","35","164982","0.0-6.0-1.14","LAJU","3","f","rechts","24","","","object","j","90","false"
"null","<div style=""font-size:60px;"">+</div>","null","html-keyboard-response","36","165334","0.0-6.0-0.15","LAJU","3","f","rechts","24","","fixation","","","",""
"2108","img/60_150.png","74","image-keyboard-response","37","167443","0.0-6.0-1.15","LAJU","3","f","rechts","24","","","object","j","60","true"
"null","<div style=""font-size:60px;"">+</div>","null","html-keyboard-response","38","167895","0.0-6.0-0.16","LAJU","3","f","rechts","24","","fixation","","","",""
"1386","img/0_240.png","70","image-keyboard-response","39","169282","0.0-6.0-1.16","LAJU","3","f","rechts","24","","","object","f","0","true"
"null","<div style=""font-size:60px;"">+</div>","null","html-keyboard-response","40","169684","0.0-6.0-0.17","LAJU","3","f","rechts","24","","fixation","","","",""
"1704","img/120_150.png","70","image-keyboard-response","41","171389","0.0-6.0-1.17","LAJU","3","f","rechts","24","","","object","j","120","false"
"null","<div style=""font-size:60px;"">+</div>","null","html-keyboard-response","42","171891","0.0-6.0-0.18","LAJU","3","f","rechts","24","","fixation","","","",""
"740","img/0_210.png","70","image-keyboard-response","43","172632","0.0-6.0-1.18","LAJU","3","f","rechts","24","","","object","f","0","true"
"null","<div style=""font-size:60px;"">+</div>","null","html-keyboard-response","44","173134","0.0-6.0-0.19","LAJU","3","f","rechts","24","","fixation","","","",""
"1329","img/90_240.png","74","image-keyboard-response","45","174464","0.0-6.0-1.19","LAJU","3","f","rechts","24","","","object","f","90","false"
"null","<div style=""font-size:60px;"">+</div>","null","html-keyboard-response","46","174816","0.0-6.0-0.20","LAJU","3","f","rechts","24","","fixation","","","",""
"1710","img/90_30.png","70","image-keyboard-response","47","176527","0.0-6.0-1.20","LAJU","3","f","rechts","24","","","object","f","90","true"
"null","<div style=""font-size:60px;"">+</div>","null","html-keyboard-response","48","176879","0.0-6.0-0.21","LAJU","3","f","rechts","24","","fixation","","","",""
"1094","img/60_90.png","70","image-keyboard-response","49","177973","0.0-6.0-1.21","LAJU","3","f","rechts","24","","","object","j","60","false"
"null","<div style=""font-size:60px;"">+</div>","null","html-keyboard-response","50","178375","0.0-6.0-0.22","LAJU","3","f","rechts","24","","fixation","","","",""
"1153","img/150_60.png","70","image-keyboard-response","51","179529","0.0-6.0-1.22","LAJU","3","f","rechts","24","","","object","f","150","true"
"null","<div style=""font-size:60px;"">+</div>","null","html-keyboard-response","52","180030","0.0-6.0-0.23","LAJU","3","f","rechts","24","","fixation","","","",""
"1546","img/30_300.png","74","image-keyboard-response","53","181577","0.0-6.0-1.23","LAJU","3","f","rechts","24","","","object","f","30","false"
"null","<div style=""font-size:60px;"">+</div>","null","html-keyboard-response","54","182028","0.0-6.0-0.24","LAJU","3","f","rechts","24","","fixation","","","",""
"1321","img/0_120.png","74","image-keyboard-response","55","183350","0.0-6.0-1.24","LAJU","3","f","rechts","24","","","object","j","0","true"
"null","<div style=""font-size:60px;"">+</div>","null","html-keyboard-response","56","183650","0.0-6.0-0.25","LAJU","3","f","rechts","24","","fixation","","","",""
"1063","img/60_330.png","74","image-keyboard-response","57","184714","0.0-6.0-1.25","LAJU","3","f","rechts","24","","","object","j","60","true"
"null","<div style=""font-size:60px;"">+</div>","null","html-keyboard-response","58","185216","0.0-6.0-0.26","LAJU","3","f","rechts","24","","fixation","","","",""
"1488","img/120_270.png","74","image-keyboard-response","59","186705","0.0-6.0-1.26","LAJU","3","f","rechts","24","","","object","j","120","true"
"null","<div style=""font-size:60px;"">+</div>","null","html-keyboard-response","60","187106","0.0-6.0-0.27","LAJU","3","f","rechts","24","","fixation","","","",""
"1453","img/150_90.png","70","image-keyboard-response","61","188561","0.0-6.0-1.27","LAJU","3","f","rechts","24","","","object","f","150","true"
"null","<div style=""font-size:60px;"">+</div>","null","html-keyboard-response","62","189012","0.0-6.0-0.28","LAJU","3","f","rechts","24","","fixation","","","",""
"1485","img/L60_180.png","74","image-keyboard-response","63","190498","0.0-6.0-1.28","LAJU","3","f","rechts","24","","","object","j","60","true"
"null","<div style=""font-size:60px;"">+</div>","null","html-keyboard-response","64","190900","0.0-6.0-0.29","LAJU","3","f","rechts","24","","fixation","","","",""
"853","img/0_30.png","74","image-keyboard-response","65","191755","0.0-6.0-1.29","LAJU","3","f","rechts","24","","","object","j","0","true"
"null","<div style=""font-size:60px;"">+</div>","null","html-keyboard-response","66","192156","0.0-6.0-0.30","LAJU","3","f","rechts","24","","fixation","","","",""
"1354","img/90_300.png","74","image-keyboard-response","67","193512","0.0-6.0-1.30","LAJU","3","f","rechts","24","","","object","j","90","true"
"null","<div style=""font-size:60px;"">+</div>","null","html-keyboard-response","68","193913","0.0-6.0-0.31","LAJU","3","f","rechts","24","","fixation","","","",""
"848","img/0_330.png","70","image-keyboard-response","69","194762","0.0-6.0-1.31","LAJU","3","f","rechts","24","","","object","f","0","true"
"null","<div style=""font-size:60px;"">+</div>","null","html-keyboard-response","70","195264","0.0-6.0-0.32","LAJU","3","f","rechts","24","","fixation","","","",""
"941","img/120_330.png","74","image-keyboard-response","71","196207","0.0-6.0-1.32","LAJU","3","f","rechts","24","","","object","j","120","true"
"null","<div style=""font-size:60px;"">+</div>","null","html-keyboard-response","72","196608","0.0-6.0-0.33","LAJU","3","f","rechts","24","","fixation","","","",""
"1256","img/30_60.png","70","image-keyboard-response","73","197865","0.0-6.0-1.33","LAJU","3","f","rechts","24","","","object","j","30","false"
"null","<div style=""font-size:60px;"">+</div>","null","html-keyboard-response","74","198367","0.0-6.0-0.34","LAJU","3","f","rechts","24","","fixation","","","",""
"1759","img/L120_180.png","70","image-keyboard-response","75","200127","0.0-6.0-1.34","LAJU","3","f","rechts","24","","","object","j","120","false"
"null","<div style=""font-size:60px;"">+</div>","null","html-keyboard-response","76","200429","0.0-6.0-0.35","LAJU","3","f","rechts","24","","fixation","","","",""
"1826","img/L90_180.png","74","image-keyboard-response","77","202256","0.0-6.0-1.35","LAJU","3","f","rechts","24","","","object","j","90","true"
"null","<div style=""font-size:60px;"">+</div>","null","html-keyboard-response","78","202558","0.0-6.0-0.36","LAJU","3","f","rechts","24","","fixation","","","",""
"1325","img/90_60.png","70","image-keyboard-response","79","203884","0.0-6.0-1.36","LAJU","3","f","rechts","24","","","object","f","90","true"
"null","<div style=""font-size:60px;"">+</div>","null","html-keyboard-response","80","204286","0.0-6.0-0.37","LAJU","3","f","rechts","24","","fixation","","","",""
"1165","img/90_120.png","70","image-keyboard-response","81","205452","0.0-6.0-1.37","LAJU","3","f","rechts","24","","","object","j","90","false"
"null","<div style=""font-size:60px;"">+</div>","null","html-keyboard-response","82","205854","0.0-6.0-0.38","LAJU","3","f","rechts","24","","fixation","","","",""
"825","img/0_270.png","70","image-keyboard-response","83","206680","0.0-6.0-1.38","LAJU","3","f","rechts","24","","","object","f","0","true"
"null","<div style=""font-size:60px;"">+</div>","null","html-keyboard-response","84","207032","0.0-6.0-0.39","LAJU","3","f","rechts","24","","fixation","","","",""
"1083","img/60_210.png","70","image-keyboard-response","85","208116","0.0-6.0-1.39","LAJU","3","f","rechts","24","","","object","f","60","true"
"null","<div style=""font-size:60px;"">+</div>","null","html-keyboard-response","86","208518","0.0-6.0-0.40","LAJU","3","f","rechts","24","","fixation","","","",""
"1403","img/30_180.png","70","image-keyboard-response","87","209922","0.0-6.0-1.40","LAJU","3","f","rechts","24","","","object","f","30","true"
"null","<div style=""font-size:60px;"">+</div>","null","html-keyboard-response","88","210424","0.0-6.0-0.41","LAJU","3","f","rechts","24","","fixation","","","",""
"1433","img/90_330.png","74","image-keyboard-response","89","211858","0.0-6.0-1.41","LAJU","3","f","rechts","24","","","object","j","90","true"
"null","<div style=""font-size:60px;"">+</div>","null","html-keyboard-response","90","212310","0.0-6.0-0.42","LAJU","3","f","rechts","24","","fixation","","","",""
"1634","img/90_210.png","74","image-keyboard-response","91","213944","0.0-6.0-1.42","LAJU","3","f","rechts","24","","","object","f","90","false"
"null","<div style=""font-size:60px;"">+</div>","null","html-keyboard-response","92","214446","0.0-6.0-0.43","LAJU","3","f","rechts","24","","fixation","","","",""
"2076","img/60_30.png","70","image-keyboard-response","93","216523","0.0-6.0-1.43","LAJU","3","f","rechts","24","","","object","f","60","true"
"null","<div style=""font-size:60px;"">+</div>","null","html-keyboard-response","94","216825","0.0-6.0-0.44","LAJU","3","f","rechts","24","","fixation","","","",""
"2313","img/L30_180.png","74","image-keyboard-response","95","219139","0.0-6.0-1.44","LAJU","3","f","rechts","24","","","object","j","30","true"
"null","<div style=""font-size:60px;"">+</div>","null","html-keyboard-response","96","219641","0.0-6.0-0.45","LAJU","3","f","rechts","24","","fixation","","","",""
"1858","img/30_270.png","70","image-keyboard-response","97","221500","0.0-6.0-1.45","LAJU","3","f","rechts","24","","","object","f","30","true"
"null","<div style=""font-size:60px;"">+</div>","null","html-keyboard-response","98","221852","0.0-6.0-0.46","LAJU","3","f","rechts","24","","fixation","","","",""
"1115","img/150_300.png","74","image-keyboard-response","99","222967","0.0-6.0-1.46","LAJU","3","f","rechts","24","","","object","j","150","true"
"null","<div style=""font-size:60px;"">+</div>","null","html-keyboard-response","100","223468","0.0-6.0-0.47","LAJU","3","f","rechts","24","","fixation","","","",""
"1585","img/120_180.png","74","image-keyboard-response","101","225054","0.0-6.0-1.47","LAJU","3","f","rechts","24","","","object","f","120","false"
"null","<div style=""font-size:60px;"">+</div>","null","html-keyboard-response","102","225356","0.0-6.0-0.48","LAJU","3","f","rechts","24","","fixation","","","",""
"1673","img/30_120.png","74","image-keyboard-response","103","227030","0.0-6.0-1.48","LAJU","3","f","rechts","24","","","object","j","30","true"
"null","<div style=""font-size:60px;"">+</div>","null","html-keyboard-response","104","227431","0.0-6.0-0.49","LAJU","3","f","rechts","24","","fixation","","","",""
"null","img/120_210.png","null","image-keyboard-response","105","230433","0.0-6.0-1.49","LAJU","3","f","rechts","24","","","object","f","120","false"
"null","<div style=""font-size:60px;"">+</div>","null","html-keyboard-response","106","230735","0.0-6.0-0.50","LAJU","3","f","rechts","24","","fixation","","","",""
"null","img/30_240.png","null","image-keyboard-response","107","233737","0.0-6.0-1.50","LAJU","3","f","rechts","24","","","object","f","30","false"
"null","<div style=""font-size:60px;"">+</div>","null","html-keyboard-response","108","234189","0.0-6.0-0.51","LAJU","3","f","rechts","24","","fixation","","","",""
"874","img/0_300.png","70","image-keyboard-response","109","235065","0.0-6.0-1.51","LAJU","3","f","rechts","24","","","object","f","0","true"
"null","<div style=""font-size:60px;"">+</div>","null","html-keyboard-response","110","235516","0.0-6.0-0.52","LAJU","3","f","rechts","24","","fixation","","","",""
"1071","img/120_270.png","74","image-keyboard-response","111","236588","0.0-6.0-1.52","LAJU","3","f","rechts","24","","","object","j","120","true"
"null","<div style=""font-size:60px;"">+</div>","null","html-keyboard-response","112","237090","0.0-6.0-0.53","LAJU","3","f","rechts","24","","fixation","","","",""
"1065","img/0_330.png","70","image-keyboard-response","113","238157","0.0-6.0-1.53","LAJU","3","f","rechts","24","","","object","f","0","true"
"null","<div style=""font-size:60px;"">+</div>","null","html-keyboard-response","114","238508","0.0-6.0-0.54","LAJU","3","f","rechts","24","","fixation","","","",""
"924","img/90_300.png","74","image-keyboard-response","115","239434","0.0-6.0-1.54","LAJU","3","f","rechts","24","","","object","j","90","true"
"null","<div style=""font-size:60px;"">+</div>","null","html-keyboard-response","116","239736","0.0-6.0-0.55","LAJU","3","f","rechts","24","","fixation","","","",""
"1243","img/30_270.png","70","image-keyboard-response","117","240980","0.0-6.0-1.55","LAJU","3","f","rechts","24","","","object","f","30","true"
"null","<div style=""font-size:60px;"">+</div>","null","html-keyboard-response","118","241381","0.0-6.0-0.56","LAJU","3","f","rechts","24","","fixation","","","",""
"665","img/0_270.png","74","image-keyboard-response","119","242048","0.0-6.0-1.56","LAJU","3","f","rechts","24","","","object","f","0","false"
"null","<div style=""font-size:60px;"">+</div>","null","html-keyboard-response","120","242499","0.0-6.0-0.57","LAJU","3","f","rechts","24","","fixation","","","",""
"2213","img/90_150.png","70","image-keyboard-response","121","244714","0.0-6.0-1.57","LAJU","3","f","rechts","24","","","object","j","90","false"
"null","<div style=""font-size:60px;"">+</div>","null","html-keyboard-response","122","245015","0.0-6.0-0.58","LAJU","3","f","rechts","24","","fixation","","","",""
"2663","img/150_90.png","70","image-keyboard-response","123","247679","0.0-6.0-1.58","LAJU","3","f","rechts","24","","","object","f","150","true"
"null","<div style=""font-size:60px;"">+</div>","null","html-keyboard-response","124","248131","0.0-6.0-0.59","LAJU","3","f","rechts","24","","fixation","","","",""
"2351","img/120_330.png","74","image-keyboard-response","125","250482","0.0-6.0-1.59","LAJU","3","f","rechts","24","","","object","j","120","true"
"null","<div style=""font-size:60px;"">+</div>","null","html-keyboard-response","126","250984","0.0-6.0-0.60","LAJU","3","f","rechts","24","","fixation","","","",""
"1119","img/150_270.png","74","image-keyboard-response","127","252104","0.0-6.0-1.60","LAJU","3","f","rechts","24","","","object","j","150","true"
"null","<div style=""font-size:60px;"">+</div>","null","html-keyboard-response","128","252556","0.0-6.0-0.61","LAJU","3","f","rechts","24","","fixation","","","",""
"1868","img/60_90.png","70","image-keyboard-response","129","254425","0.0-6.0-1.61","LAJU","3","f","rechts","24","","","object","j","60","false"
"null","<div style=""font-size:60px;"">+</div>","null","html-keyboard-response","130","254927","0.0-6.0-0.62","LAJU","3","f","rechts","24","","fixation","","","",""
"1106","img/0_90.png","74","image-keyboard-response","131","256034","0.0-6.0-1.62","LAJU","3","f","rechts","24","","","object","j","0","true"
"null","<div style=""font-size:60px;"">+</div>","null","html-keyboard-response","132","256536","0.0-6.0-0.63","LAJU","3","f","rechts","24","","fixation","","","",""
"2956","img/60_180.png","70","image-keyboard-response","133","259493","0.0-6.0-1.63","LAJU","3","f","rechts","24","","","object","f","60","true"
"null","<div style=""font-size:60px;"">+</div>","null","html-keyboard-response","134","259845","0.0-6.0-0.64","LAJU","3","f","rechts","24","","fixation","","","",""
"765","img/0_120.png","74","image-keyboard-response","135","260610","0.0-6.0-1.64","LAJU","3","f","rechts","24","","","object","j","0","true"
"null","<div style=""font-size:60px;"">+</div>","null","html-keyboard-response","136","261112","0.0-6.0-0.65","LAJU","3","f","rechts","24","","fixation","","","",""
"2030","img/L90_180.png","70","image-keyboard-response","137","263143","0.0-6.0-1.65","LAJU","3","f","rechts","24","","","object","j","90","false"
"null","<div style=""font-size:60px;"">+</div>","null","html-keyboard-response","138","263545","0.0-6.0-0.66","LAJU","3","f","rechts","24","","fixation","","","",""
"964","img/60_150.png","74","image-keyboard-response","139","264510","0.0-6.0-1.66","LAJU","3","f","rechts","24","","","object","j","60","true"
"null","<div style=""font-size:60px;"">+</div>","null","html-keyboard-response","140","264912","0.0-6.0-0.67","LAJU","3","f","rechts","24","","fixation","","","",""
"977","img/L60_180.png","74","image-keyboard-response","141","265890","0.0-6.0-1.67","LAJU","3","f","rechts","24","","","object","j","60","true"
"null","<div style=""font-size:60px;"">+</div>","null","html-keyboard-response","142","266192","0.0-6.0-0.68","LAJU","3","f","rechts","24","","fixation","","","",""
"1249","img/150_120.png","70","image-keyboard-response","143","267441","0.0-6.0-1.68","LAJU","3","f","rechts","24","","","object","f","150","true"
"null","<div style=""font-size:60px;"">+</div>","null","html-keyboard-response","144","267793","0.0-6.0-0.69","LAJU","3","f","rechts","24","","fixation","","","",""
"1478","img/90_180.png","74","image-keyboard-response","145","269271","0.0-6.0-1.69","LAJU","3","f","rechts","24","","","object","f","90","false"
"null","<div style=""font-size:60px;"">+</div>","null","html-keyboard-response","146","269723","0.0-6.0-0.70","LAJU","3","f","rechts","24","","fixation","","","",""
"1622","img/120_150.png","70","image-keyboard-response","147","271345","0.0-6.0-1.70","LAJU","3","f","rechts","24","","","object","j","120","false"
"null","<div style=""font-size:60px;"">+</div>","null","html-keyboard-response","148","271746","0.0-6.0-0.71","LAJU","3","f","rechts","24","","fixation","","","",""
"1687","img/90_330.png","74","image-keyboard-response","149","273434","0.0-6.0-1.71","LAJU","3","f","rechts","24","","","object","j","90","true"
"null","<div style=""font-size:60px;"">+</div>","null","html-keyboard-response","150","273736","0.0-6.0-0.72","LAJU","3","f","rechts","24","","fixation","","","",""
"731","img/0_300.png","70","image-keyboard-response","151","274467","0.0-6.0-1.72","LAJU","3","f","rechts","24","","","object","f","0","true"
"null","<div style=""font-size:60px;"">+</div>","null","html-keyboard-response","152","274819","0.0-6.0-0.73","LAJU","3","f","rechts","24","","fixation","","","",""
"1320","img/30_180.png","70","image-keyboard-response","153","276139","0.0-6.0-1.73","LAJU","3","f","rechts","24","","","object","f","30","true"
"null","<div style=""font-size:60px;"">+</div>","null","html-keyboard-response","154","276441","0.0-6.0-0.74","LAJU","3","f","rechts","24","","fixation","","","",""
"1114","img/60_330.png","74","image-keyboard-response","155","277555","0.0-6.0-1.74","LAJU","3","f","rechts","24","","","object","j","60","true"
"null","<div style=""font-size:60px;"">+</div>","null","html-keyboard-response","156","278007","0.0-6.0-0.75","LAJU","3","f","rechts","24","","fixation","","","",""
"775","img/60_210.png","70","image-keyboard-response","157","278782","0.0-6.0-1.75","LAJU","3","f","rechts","24","","","object","f","60","true"
"null","<div style=""font-size:60px;"">+</div>","null","html-keyboard-response","158","279233","0.0-6.0-0.76","LAJU","3","f","rechts","24","","fixation","","","",""
"1213","img/60_270.png","70","image-keyboard-response","159","280447","0.0-6.0-1.76","LAJU","3","f","rechts","24","","","object","f","60","true"
"null","<div style=""font-size:60px;"">+</div>","null","html-keyboard-response","160","280799","0.0-6.0-0.77","LAJU","3","f","rechts","24","","fixation","","","",""
"715","img/0_210.png","70","image-keyboard-response","161","281514","0.0-6.0-1.77","LAJU","3","f","rechts","24","","","object","f","0","true"
"null","<div style=""font-size:60px;"">+</div>","null","html-keyboard-response","162","281816","0.0-6.0-0.78","LAJU","3","f","rechts","24","","fixation","","","",""
"1831","img/30_90.png","74","image-keyboard-response","163","283647","0.0-6.0-1.78","LAJU","3","f","rechts","24","","","object","j","30","true"
"null","<div style=""font-size:60px;"">+</div>","null","html-keyboard-response","164","283999","0.0-6.0-0.79","LAJU","3","f","rechts","24","","fixation","","","",""
"2142","img/120_180.png","70","image-keyboard-response","165","286141","0.0-6.0-1.79","LAJU","3","f","rechts","24","","","object","f","120","true"
"null","<div style=""font-size:60px;"">+</div>","null","html-keyboard-response","166","286543","0.0-6.0-0.80","LAJU","3","f","rechts","24","","fixation","","","",""
"810","img/0_150.png","74","image-keyboard-response","167","287353","0.0-6.0-1.80","LAJU","3","f","rechts","24","","","object","j","0","true"
"null","<div style=""font-size:60px;"">+</div>","null","html-keyboard-response","168","287704","0.0-6.0-0.81","LAJU","3","f","rechts","24","","fixation","","","",""
"1881","img/L150_180.png","70","image-keyboard-response","169","289587","0.0-6.0-1.81","LAJU","3","f","rechts","24","","","object","j","150","false"
"null","<div style=""font-size:60px;"">+</div>","null","html-keyboard-response","170","289938","0.0-6.0-0.82","LAJU","3","f","rechts","24","","fixation","","","",""
"2179","img/120_30.png","70","image-keyboard-response","171","292119","0.0-6.0-1.82","LAJU","3","f","rechts","24","","","object","f","120","true"
"null","<div style=""font-size:60px;"">+</div>","null","html-keyboard-response","172","292520","0.0-6.0-0.83","LAJU","3","f","rechts","24","","fixation","","","",""
"716","img/0_30.png","74","image-keyboard-response","173","293237","0.0-6.0-1.83","LAJU","3","f","rechts","24","","","object","j","0","true"
"null","<div style=""font-size:60px;"">+</div>","null","html-keyboard-response","174","293588","0.0-6.0-0.84","LAJU","3","f","rechts","24","","fixation","","","",""
"1198","img/120_90.png","70","image-keyboard-response","175","294787","0.0-6.0-1.84","LAJU","3","f","rechts","24","","","object","f","120","true"
"null","<div style=""font-size:60px;"">+</div>","null","html-keyboard-response","176","295239","0.0-6.0-0.85","LAJU","3","f","rechts","24","","fixation","","","",""
"1630","img/90_120.png","70","image-keyboard-response","177","296869","0.0-6.0-1.85","LAJU","3","f","rechts","24","","","object","j","90","false"
"null","<div style=""font-size:60px;"">+</div>","null","html-keyboard-response","178","297371","0.0-6.0-0.86","LAJU","3","f","rechts","24","","fixation","","","",""
"1006","img/150_60.png","70","image-keyboard-response","179","298377","0.0-6.0-1.86","LAJU","3","f","rechts","24","","","object","f","150","true"
"null","<div style=""font-size:60px;"">+</div>","null","html-keyboard-response","180","298729","0.0-6.0-0.87","LAJU","3","f","rechts","24","","fixation","","","",""
"598","img/0_60.png","74","image-keyboard-response","181","299328","0.0-6.0-1.87","LAJU","3","f","rechts","24","","","object","j","0","true"
"null","<div style=""font-size:60px;"">+</div>","null","html-keyboard-response","182","299629","0.0-6.0-0.88","LAJU","3","f","rechts","24","","fixation","","","",""
"881","img/90_60.png","70","image-keyboard-response","183","300512","0.0-6.0-1.88","LAJU","3","f","rechts","24","","","object","f","90","true"
"null","<div style=""font-size:60px;"">+</div>","null","html-keyboard-response","184","301013","0.0-6.0-0.89","LAJU","3","f","rechts","24","","fixation","","","",""
"795","img/90_30.png","70","image-keyboard-response","185","301809","0.0-6.0-1.89","LAJU","3","f","rechts","24","","","object","f","90","true"
"null","<div style=""font-size:60px;"">+</div>","null","html-keyboard-response","186","302161","0.0-6.0-0.90","LAJU","3","f","rechts","24","","fixation","","","",""
"1481","img/120_210.png","74","image-keyboard-response","187","303642","0.0-6.0-1.90","LAJU","3","f","rechts","24","","","object","f","120","false"
"null","<div style=""font-size:60px;"">+</div>","null","html-keyboard-response","188","304094","0.0-6.0-0.91","LAJU","3","f","rechts","24","","fixation","","","",""
"1409","img/150_240.png","74","image-keyboard-response","189","305503","0.0-6.0-1.91","LAJU","3","f","rechts","24","","","object","j","150","true"
"null","<div style=""font-size:60px;"">+</div>","null","html-keyboard-response","190","305955","0.0-6.0-0.92","LAJU","3","f","rechts","24","","fixation","","","",""
"891","img/30_120.png","70","image-keyboard-response","191","306846","0.0-6.0-1.92","LAJU","3","f","rechts","24","","","object","j","30","false"
"null","<div style=""font-size:60px;"">+</div>","null","html-keyboard-response","192","307148","0.0-6.0-0.93","LAJU","3","f","rechts","24","","fixation","","","",""
"1146","img/150_300.png","74","image-keyboard-response","193","308296","0.0-6.0-1.93","LAJU","3","f","rechts","24","","","object","j","150","true"
"null","<div style=""font-size:60px;"">+</div>","null","html-keyboard-response","194","308647","0.0-6.0-0.94","LAJU","3","f","rechts","24","","fixation","","","",""
"1895","img/90_210.png","70","image-keyboard-response","195","310543","0.0-6.0-1.94","LAJU","3","f","rechts","24","","","object","f","90","true"
"null","<div style=""font-size:60px;"">+</div>","null","html-keyboard-response","196","310895","0.0-6.0-0.95","LAJU","3","f","rechts","24","","fixation","","","",""
"1114","img/30_240.png","70","image-keyboard-response","197","312009","0.0-6.0-1.95","LAJU","3","f","rechts","24","","","object","f","30","true"
"null","<div style=""font-size:60px;"">+</div>","null","html-keyboard-response","198","312510","0.0-6.0-0.96","LAJU","3","f","rechts","24","","fixation","","","",""
"781","img/0_240.png","70","image-keyboard-response","199","313292","0.0-6.0-1.96","LAJU","3","f","rechts","24","","","object","f","0","true"
"null","<div style=""font-size:60px;"">+</div>","null","html-keyboard-response","200","313794","0.0-6.0-0.97","LAJU","3","f","rechts","24","","fixation","","","",""
"868","img/30_300.png","70","image-keyboard-response","201","314663","0.0-6.0-1.97","LAJU","3","f","rechts","24","","","object","f","30","true"
"null","<div style=""font-size:60px;"">+</div>","null","html-keyboard-response","202","315065","0.0-6.0-0.98","LAJU","3","f","rechts","24","","fixation","","","",""
"1689","img/60_30.png","70","image-keyboard-response","203","316755","0.0-6.0-1.98","LAJU","3","f","rechts","24","","","object","f","60","true"
"null","<div style=""font-size:60px;"">+</div>","null","html-keyboard-response","204","317157","0.0-6.0-0.99","LAJU","3","f","rechts","24","","fixation","","","",""
"2314","img/150_180.png","74","image-keyboard-response","205","319472","0.0-6.0-1.99","LAJU","3","f","rechts","24","","","object","f","150","false"
"null","<div style=""font-size:60px;"">+</div>","null","html-keyboard-response","206","319823","0.0-6.0-0.100","LAJU","3","f","rechts","24","","fixation","","","",""
"1639","img/L30_180.png","74","image-keyboard-response","207","321463","0.0-6.0-1.100","LAJU","3","f","rechts","24","","","object","j","30","true"
"null","<div style=""font-size:60px;"">+</div>","null","html-keyboard-response","208","321914","0.0-6.0-0.101","LAJU","3","f","rechts","24","","fixation","","","",""
"1255","img/90_240.png","74","image-keyboard-response","209","323170","0.0-6.0-1.101","LAJU","3","f","rechts","24","","","object","f","90","false"
"null","<div style=""font-size:60px;"">+</div>","null","html-keyboard-response","210","323671","0.0-6.0-0.102","LAJU","3","f","rechts","24","","fixation","","","",""
"1079","img/30_60.png","70","image-keyboard-response","211","324751","0.0-6.0-1.102","LAJU","3","f","rechts","24","","","object","j","30","false"
"null","<div style=""font-size:60px;"">+</div>","null","html-keyboard-response","212","325053","0.0-6.0-0.103","LAJU","3","f","rechts","24","","fixation","","","",""
"1941","img/L120_180.png","70","image-keyboard-response","213","326995","0.0-6.0-1.103","LAJU","3","f","rechts","24","","","object","j","120","false"
"null","<div style=""font-size:60px;"">+</div>","null","html-keyboard-response","214","327347","0.0-6.0-0.104","LAJU","3","f","rechts","24","","fixation","","","",""
"2543","img/120_180.png","74","image-keyboard-response","215","329891","0.0-6.0-1.104","LAJU","3","f","rechts","24","","","object","f","120","false"
"null","<div style=""font-size:60px;"">+</div>","null","html-keyboard-response","216","330193","0.0-6.0-0.105","LAJU","3","f","rechts","24","","fixation","","","",""
"1376","img/30_180.png","70","image-keyboard-response","217","331570","0.0-6.0-1.105","LAJU","3","f","rechts","24","","","object","f","30","true"
"null","<div style=""font-size:60px;"">+</div>","null","html-keyboard-response","218","332022","0.0-6.0-0.106","LAJU","3","f","rechts","24","","fixation","","","",""
"1069","img/150_240.png","74","image-keyboard-response","219","333091","0.0-6.0-1.106","LAJU","3","f","rechts","24","","","object","j","150","true"
"null","<div style=""font-size:60px;"">+</div>","null","html-keyboard-response","220","333493","0.0-6.0-0.107","LAJU","3","f","rechts","24","","fixation","","","",""
"1071","img/0_270.png","70","image-keyboard-response","221","334564","0.0-6.0-1.107","LAJU","3","f","rechts","24","","","object","f","0","true"
"null","<div style=""font-size:60px;"">+</div>","null","html-keyboard-response","222","335066","0.0-6.0-0.108","LAJU","3","f","rechts","24","","fixation","","","",""
"1247","img/150_90.png","70","image-keyboard-response","223","336313","0.0-6.0-1.108","LAJU","3","f","rechts","24","","","object","f","150","true"
"null","<div style=""font-size:60px;"">+</div>","null","html-keyboard-response","224","336715","0.0-6.0-0.109","LAJU","3","f","rechts","24","","fixation","","","",""
"647","img/30_240.png","70","image-keyboard-response","225","337362","0.0-6.0-1.109","LAJU","3","f","rechts","24","","","object","f","30","true"
"null","<div style=""font-size:60px;"">+</div>","null","html-keyboard-response","226","337714","0.0-6.0-0.110","LAJU","3","f","rechts","24","","fixation","","","",""
"2705","img/L150_180.png","70","image-keyboard-response","227","340420","0.0-6.0-1.110","LAJU","3","f","rechts","24","","","object","j","150","false"
"null","<div style=""font-size:60px;"">+</div>","null","html-keyboard-response","228","340772","0.0-6.0-0.111","LAJU","3","f","rechts","24","","fixation","","","",""
"1666","img/90_120.png","74","image-keyboard-response","229","342440","0.0-6.0-1.111","LAJU","3","f","rechts","24","","","object","j","90","true"
"null","<div style=""font-size:60px;"">+</div>","null","html-keyboard-response","230","342841","0.0-6.0-0.112","LAJU","3","f","rechts","24","","fixation","","","",""
"1377","img/150_120.png","70","image-keyboard-response","231","344219","0.0-6.0-1.112","LAJU","3","f","rechts","24","","","object","f","150","true"
"null","<div style=""font-size:60px;"">+</div>","null","html-keyboard-response","232","344721","0.0-6.0-0.113","LAJU","3","f","rechts","24","","fixation","","","",""
"1736","img/150_180.png","74","image-keyboard-response","233","346458","0.0-6.0-1.113","LAJU","3","f","rechts","24","","","object","f","150","false"
"null","<div style=""font-size:60px;"">+</div>","null","html-keyboard-response","234","346860","0.0-6.0-0.114","LAJU","3","f","rechts","24","","fixation","","","",""
"1063","img/30_60.png","70","image-keyboard-response","235","347924","0.0-6.0-1.114","LAJU","3","f","rechts","24","","","object","j","30","false"
"null","<div style=""font-size:60px;"">+</div>","null","html-keyboard-response","236","348326","0.0-6.0-0.115","LAJU","3","f","rechts","24","","fixation","","","",""
"2891","img/90_150.png","70","image-keyboard-response","237","351218","0.0-6.0-1.115","LAJU","3","f","rechts","24","","","object","j","90","false"
"null","<div style=""font-size:60px;"">+</div>","null","html-keyboard-response","238","351670","0.0-6.0-0.116","LAJU","3","f","rechts","24","","fixation","","","",""
"1428","img/60_30.png","70","image-keyboard-response","239","353100","0.0-6.0-1.116","LAJU","3","f","rechts","24","","","object","f","60","true"
"null","<div style=""font-size:60px;"">+</div>","null","html-keyboard-response","240","353401","0.0-6.0-0.117","LAJU","3","f","rechts","24","","fixation","","","",""
"717","img/0_30.png","74","image-keyboard-response","241","354119","0.0-6.0-1.117","LAJU","3","f","rechts","24","","","object","j","0","true"
"null","<div style=""font-size:60px;"">+</div>","null","html-keyboard-response","242","354621","0.0-6.0-0.118","LAJU","3","f","rechts","24","","fixation","","","",""
"1759","img/150_270.png","74","image-keyboard-response","243","356380","0.0-6.0-1.118","LAJU","3","f","rechts","24","","","object","j","150","true"
"null","<div style=""font-size:60px;"">+</div>","null","html-keyboard-response","244","356832","0.0-6.0-0.119","LAJU","3","f","rechts","24","","fixation","","","",""
"1796","img/L30_180.png","74","image-keyboard-response","245","358630","0.0-6.0-1.119","LAJU","3","f","rechts","24","","","object","j","30","true"
"null","<div style=""font-size:60px;"">+</div>","null","html-keyboard-response","246","358981","0.0-6.0-0.120","LAJU","3","f","rechts","24","","fixation","","","",""
"1852","img/60_90.png","70","image-keyboard-response","247","360834","0.0-6.0-1.120","LAJU","3","f","rechts","24","","","object","j","60","false"
"null","<div style=""font-size:60px;"">+</div>","null","html-keyboard-response","248","361186","0.0-6.0-0.121","LAJU","3","f","rechts","24","","fixation","","","",""
"2389","img/120_150.png","70","image-keyboard-response","249","363576","0.0-6.0-1.121","LAJU","3","f","rechts","24","","","object","j","120","false"
"null","<div style=""font-size:60px;"">+</div>","null","html-keyboard-response","250","363978","0.0-6.0-0.122","LAJU","3","f","rechts","24","","fixation","","","",""
"1531","img/90_330.png","74","image-keyboard-response","251","365509","0.0-6.0-1.122","LAJU","3","f","rechts","24","","","object","j","90","true"
"null","<div style=""font-size:60px;"">+</div>","null","html-keyboard-response","252","365911","0.0-6.0-0.123","LAJU","3","f","rechts","24","","fixation","","","",""
"801","img/0_300.png","70","image-keyboard-response","253","366712","0.0-6.0-1.123","LAJU","3","f","rechts","24","","","object","f","0","true"
"null","<div style=""font-size:60px;"">+</div>","null","html-keyboard-response","254","367014","0.0-6.0-0.124","LAJU","3","f","rechts","24","","fixation","","","",""
"1081","img/60_270.png","70","image-keyboard-response","255","368096","0.0-6.0-1.124","LAJU","3","f","rechts","24","","","object","f","60","true"
"null","<div style=""font-size:60px;"">+</div>","null","html-keyboard-response","256","368548","0.0-6.0-0.125","LAJU","3","f","rechts","24","","fixation","","","",""
"1312","img/150_60.png","70","image-keyboard-response","257","369860","0.0-6.0-1.125","LAJU","3","f","rechts","24","","","object","f","150","true"
"null","<div style=""font-size:60px;"">+</div>","null","html-keyboard-response","258","370262","0.0-6.0-0.126","LAJU","3","f","rechts","24","","fixation","","","",""
"797","img/0_90.png","74","image-keyboard-response","259","371060","0.0-6.0-1.126","LAJU","3","f","rechts","24","","","object","j","0","true"
"null","<div style=""font-size:60px;"">+</div>","null","html-keyboard-response","260","371462","0.0-6.0-0.127","LAJU","3","f","rechts","24","","fixation","","","",""
"1304","img/60_180.png","74","image-keyboard-response","261","372766","0.0-6.0-1.127","LAJU","3","f","rechts","24","","","object","f","60","false"
"null","<div style=""font-size:60px;"">+</div>","null","html-keyboard-response","262","373268","0.0-6.0-0.128","LAJU","3","f","rechts","24","","fixation","","","",""
"1323","img/120_90.png","70","image-keyboard-response","263","374591","0.0-6.0-1.128","LAJU","3","f","rechts","24","","","object","f","120","true"
"null","<div style=""font-size:60px;"">+</div>","null","html-keyboard-response","264","375042","0.0-6.0-0.129","LAJU","3","f","rechts","24","","fixation","","","",""
"1322","img/30_270.png","70","image-keyboard-response","265","376364","0.0-6.0-1.129","LAJU","3","f","rechts","24","","","object","f","30","true"
"null","<div style=""font-size:60px;"">+</div>","null","html-keyboard-response","266","376766","0.0-6.0-0.130","LAJU","3","f","rechts","24","","fixation","","","",""
"996","img/120_210.png","74","image-keyboard-response","267","377762","0.0-6.0-1.130","LAJU","3","f","rechts","24","","","object","f","120","false"
"null","<div style=""font-size:60px;"">+</div>","null","html-keyboard-response","268","378264","0.0-6.0-0.131","LAJU","3","f","rechts","24","","fixation","","","",""
"775","img/0_240.png","70","image-keyboard-response","269","379040","0.0-6.0-1.131","LAJU","3","f","rechts","24","","","object","f","0","true"
"null","<div style=""font-size:60px;"">+</div>","null","html-keyboard-response","270","379342","0.0-6.0-0.132","LAJU","3","f","rechts","24","","fixation","","","",""
"1110","img/90_300.png","74","image-keyboard-response","271","380453","0.0-6.0-1.132","LAJU","3","f","rechts","24","","","object","j","90","true"
"null","<div style=""font-size:60px;"">+</div>","null","html-keyboard-response","272","380905","0.0-6.0-0.133","LAJU","3","f","rechts","24","","fixation","","","",""
"1797","img/L120_180.png","70","image-keyboard-response","273","382703","0.0-6.0-1.133","LAJU","3","f","rechts","24","","","object","j","120","false"
"null","<div style=""font-size:60px;"">+</div>","null","html-keyboard-response","274","383105","0.0-6.0-0.134","LAJU","3","f","rechts","24","","fixation","","","",""
"765","img/0_120.png","74","image-keyboard-response","275","383870","0.0-6.0-1.134","LAJU","3","f","rechts","24","","","object","j","0","true"
"null","<div style=""font-size:60px;"">+</div>","null","html-keyboard-response","276","384372","0.0-6.0-0.135","LAJU","3","f","rechts","24","","fixation","","","",""
"769","img/0_330.png","70","image-keyboard-response","277","385142","0.0-6.0-1.135","LAJU","3","f","rechts","24","","","object","f","0","true"
"null","<div style=""font-size:60px;"">+</div>","null","html-keyboard-response","278","385544","0.0-6.0-0.136","LAJU","3","f","rechts","24","","fixation","","","",""
"896","img/60_210.png","70","image-keyboard-response","279","386441","0.0-6.0-1.136","LAJU","3","f","rechts","24","","","object","f","60","true"
"null","<div style=""font-size:60px;"">+</div>","null","html-keyboard-response","280","386792","0.0-6.0-0.137","LAJU","3","f","rechts","24","","fixation","","","",""
"1119","img/60_150.png","74","image-keyboard-response","281","387912","0.0-6.0-1.137","LAJU","3","f","rechts","24","","","object","j","60","true"
"null","<div style=""font-size:60px;"">+</div>","null","html-keyboard-response","282","388313","0.0-6.0-0.138","LAJU","3","f","rechts","24","","fixation","","","",""
"1298","img/90_210.png","70","image-keyboard-response","283","389612","0.0-6.0-1.138","LAJU","3","f","rechts","24","","","object","f","90","true"
"null","<div style=""font-size:60px;"">+</div>","null","html-keyboard-response","284","390113","0.0-6.0-0.139","LAJU","3","f","rechts","24","","fixation","","","",""
"923","img/60_330.png","74","image-keyboard-response","285","391036","0.0-6.0-1.139","LAJU","3","f","rechts","24","","","object","j","60","true"
"null","<div style=""font-size:60px;"">+</div>","null","html-keyboard-response","286","391338","0.0-6.0-0.140","LAJU","3","f","rechts","24","","fixation","","","",""
"985","img/90_60.png","70","image-keyboard-response","287","392324","0.0-6.0-1.140","LAJU","3","f","rechts","24","","","object","f","90","true"
"null","<div style=""font-size:60px;"">+</div>","null","html-keyboard-response","288","392625","0.0-6.0-0.141","LAJU","3","f","rechts","24","","fixation","","","",""
"947","img/120_30.png","70","image-keyboard-response","289","393574","0.0-6.0-1.141","LAJU","3","f","rechts","24","","","object","f","120","true"
"null","<div style=""font-size:60px;"">+</div>","null","html-keyboard-response","290","394075","0.0-6.0-0.142","LAJU","3","f","rechts","24","","fixation","","","",""
"null","img/90_180.png","null","image-keyboard-response","291","397077","0.0-6.0-1.142","LAJU","3","f","rechts","24","","","object","f","90","false"
"null","<div style=""font-size:60px;"">+</div>","null","html-keyboard-response","292","397379","0.0-6.0-0.143","LAJU","3","f","rechts","24","","fixation","","","",""
"227","img/30_120.png","74","image-keyboard-response","293","397608","0.0-6.0-1.143","LAJU","3","f","rechts","24","","","object","j","30","true"
"null","<div style=""font-size:60px;"">+</div>","null","html-keyboard-response","294","397909","0.0-6.0-0.144","LAJU","3","f","rechts","24","","fixation","","","",""
"2036","img/30_90.png","74","image-keyboard-response","295","399947","0.0-6.0-1.144","LAJU","3","f","rechts","24","","","object","j","30","true"
"null","<div style=""font-size:60px;"">+</div>","null","html-keyboard-response","296","400448","0.0-6.0-0.145","LAJU","3","f","rechts","24","","fixation","","","",""
"2483","img/L60_180.png","74","image-keyboard-response","297","402933","0.0-6.0-1.145","LAJU","3","f","rechts","24","","","object","j","60","true"
"null","<div style=""font-size:60px;"">+</div>","null","html-keyboard-response","298","403234","0.0-6.0-0.146","LAJU","3","f","rechts","24","","fixation","","","",""
"2044","img/150_300.png","74","image-keyboard-response","299","405280","0.0-6.0-1.146","LAJU","3","f","rechts","24","","","object","j","150","true"
"null","<div style=""font-size:60px;"">+</div>","null","html-keyboard-response","300","405631","0.0-6.0-0.147","LAJU","3","f","rechts","24","","fixation","","","",""
"2704","img/90_240.png","74","image-keyboard-response","301","408337","0.0-6.0-1.147","LAJU","3","f","rechts","24","","","object","f","90","false"
"null","<div style=""font-size:60px;"">+</div>","null","html-keyboard-response","302","408788","0.0-6.0-0.148","LAJU","3","f","rechts","24","","fixation","","","",""
"795","img/0_60.png","74","image-keyboard-response","303","409584","0.0-6.0-1.148","LAJU","3","f","rechts","24","","","object","j","0","true"
"null","<div style=""font-size:60px;"">+</div>","null","html-keyboard-response","304","409936","0.0-6.0-0.149","LAJU","3","f","rechts","24","","fixation","","","",""
"1367","img/120_330.png","74","image-keyboard-response","305","411304","0.0-6.0-1.149","LAJU","3","f","rechts","24","","","object","j","120","true"
"null","<div style=""font-size:60px;"">+</div>","null","html-keyboard-response","306","411656","0.0-6.0-0.150","LAJU","3","f","rechts","24","","fixation","","","",""
"2725","img/90_30.png","70","image-keyboard-response","307","414382","0.0-6.0-1.150","LAJU","3","f","rechts","24","","","object","f","90","true"
"null","<div style=""font-size:60px;"">+</div>","null","html-keyboard-response","308","414884","0.0-6.0-0.151","LAJU","3","f","rechts","24","","fixation","","","",""
"2441","img/120_270.png","74","image-keyboard-response","309","417325","0.0-6.0-1.151","LAJU","3","f","rechts","24","","","object","j","120","true"
"null","<div style=""font-size:60px;"">+</div>","null","html-keyboard-response","310","417777","0.0-6.0-0.152","LAJU","3","f","rechts","24","","fixation","","","",""
"1071","img/30_300.png","74","image-keyboard-response","311","418850","0.0-6.0-1.152","LAJU","3","f","rechts","24","","","object","f","30","false"
"null","<div style=""font-size:60px;"">+</div>","null","html-keyboard-response","312","419251","0.0-6.0-0.153","LAJU","3","f","rechts","24","","fixation","","","",""
"1965","img/L90_180.png","74","image-keyboard-response","313","421217","0.0-6.0-1.153","LAJU","3","f","rechts","24","","","object","j","90","true"
"null","<div style=""font-size:60px;"">+</div>","null","html-keyboard-response","314","421569","0.0-6.0-0.154","LAJU","3","f","rechts","24","","fixation","","","",""
"769","img/0_150.png","74","image-keyboard-response","315","422339","0.0-6.0-1.154","LAJU","3","f","rechts","24","","","object","j","0","true"
"null","<div style=""font-size:60px;"">+</div>","null","html-keyboard-response","316","422741","0.0-6.0-0.155","LAJU","3","f","rechts","24","","fixation","","","",""
"835","img/0_210.png","70","image-keyboard-response","317","423577","0.0-6.0-1.155","LAJU","3","f","rechts","24","","","object","f","0","true"
"null","<div style=""font-size:60px;"">+</div>","null","html-keyboard-response","318","423979","0.0-6.0-0.156","LAJU","3","f","rechts","24","","fixation","","","",""
"1143","img/60_30.png","70","image-keyboard-response","319","425122","0.0-6.0-1.156","LAJU","3","f","rechts","24","","","object","f","60","true"
"null","<div style=""font-size:60px;"">+</div>","null","html-keyboard-response","320","425524","0.0-6.0-0.157","LAJU","3","f","rechts","24","","fixation","","","",""
"2039","img/L120_180.png","70","image-keyboard-response","321","427563","0.0-6.0-1.157","LAJU","3","f","rechts","24","","","object","j","120","false"
"null","<div style=""font-size:60px;"">+</div>","null","html-keyboard-response","322","427965","0.0-6.0-0.158","LAJU","3","f","rechts","24","","fixation","","","",""
"1209","img/0_270.png","70","image-keyboard-response","323","429175","0.0-6.0-1.158","LAJU","3","f","rechts","24","","","object","f","0","true"
"null","<div style=""font-size:60px;"">+</div>","null","html-keyboard-response","324","429476","0.0-6.0-0.159","LAJU","3","f","rechts","24","","fixation","","","",""
"725","img/0_150.png","74","image-keyboard-response","325","430202","0.0-6.0-1.159","LAJU","3","f","rechts","24","","","object","j","0","true"
"null","<div style=""font-size:60px;"">+</div>","null","html-keyboard-response","326","430704","0.0-6.0-0.160","LAJU","3","f","rechts","24","","fixation","","","",""
"997","img/60_330.png","74","image-keyboard-response","327","431701","0.0-6.0-1.160","LAJU","3","f","rechts","24","","","object","j","60","true"
"null","<div style=""font-size:60px;"">+</div>","null","html-keyboard-response","328","432153","0.0-6.0-0.161","LAJU","3","f","rechts","24","","fixation","","","",""
"892","img/120_330.png","74","image-keyboard-response","329","433045","0.0-6.0-1.161","LAJU","3","f","rechts","24","","","object","j","120","true"
"null","<div style=""font-size:60px;"">+</div>","null","html-keyboard-response","330","433547","0.0-6.0-0.162","LAJU","3","f","rechts","24","","fixation","","","",""
"717","img/90_300.png","74","image-keyboard-response","331","434265","0.0-6.0-1.162","LAJU","3","f","rechts","24","","","object","j","90","true"
"null","<div style=""font-size:60px;"">+</div>","null","html-keyboard-response","332","434666","0.0-6.0-0.163","LAJU","3","f","rechts","24","","fixation","","","",""
"1402","img/90_120.png","70","image-keyboard-response","333","436068","0.0-6.0-1.163","LAJU","3","f","rechts","24","","","object","j","90","false"
"null","<div style=""font-size:60px;"">+</div>","null","html-keyboard-response","334","436420","0.0-6.0-0.164","LAJU","3","f","rechts","24","","fixation","","","",""
"1798","img/60_210.png","74","image-keyboard-response","335","438218","0.0-6.0-1.164","LAJU","3","f","rechts","24","","","object","f","60","false"
"null","<div style=""font-size:60px;"">+</div>","null","html-keyboard-response","336","438620","0.0-6.0-0.165","LAJU","3","f","rechts","24","","fixation","","","",""
"844","img/0_330.png","70","image-keyboard-response","337","439464","0.0-6.0-1.165","LAJU","3","f","rechts","24","","","object","f","0","true"
"null","<div style=""font-size:60px;"">+</div>","null","html-keyboard-response","338","439766","0.0-6.0-0.166","LAJU","3","f","rechts","24","","fixation","","","",""
"1855","img/L150_180.png","70","image-keyboard-response","339","441621","0.0-6.0-1.166","LAJU","3","f","rechts","24","","","object","j","150","false"
"null","<div style=""font-size:60px;"">+</div>","null","html-keyboard-response","340","442122","0.0-6.0-0.167","LAJU","3","f","rechts","24","","fixation","","","",""
"1819","img/L60_180.png","74","image-keyboard-response","341","443942","0.0-6.0-1.167","LAJU","3","f","rechts","24","","","object","j","60","true"
"null","<div style=""font-size:60px;"">+</div>","null","html-keyboard-response","342","444294","0.0-6.0-0.168","LAJU","3","f","rechts","24","","fixation","","","",""
"1619","img/120_30.png","70","image-keyboard-response","343","445913","0.0-6.0-1.168","LAJU","3","f","rechts","24","","","object","f","120","true"
"null","<div style=""font-size:60px;"">+</div>","null","html-keyboard-response","344","446364","0.0-6.0-0.169","LAJU","3","f","rechts","24","","fixation","","","",""
"2101","img/30_300.png","74","image-keyboard-response","345","448467","0.0-6.0-1.169","LAJU","3","f","rechts","24","","","object","f","30","false"
"null","<div style=""font-size:60px;"">+</div>","null","html-keyboard-response","346","448768","0.0-6.0-0.170","LAJU","3","f","rechts","24","","fixation","","","",""
"1569","img/60_90.png","70","image-keyboard-response","347","450338","0.0-6.0-1.170","LAJU","3","f","rechts","24","","","object","j","60","false"
"null","<div style=""font-size:60px;"">+</div>","null","html-keyboard-response","348","450789","0.0-6.0-0.171","LAJU","3","f","rechts","24","","fixation","","","",""
"1139","img/90_60.png","70","image-keyboard-response","349","451929","0.0-6.0-1.171","LAJU","3","f","rechts","24","","","object","f","90","true"
"null","<div style=""font-size:60px;"">+</div>","null","html-keyboard-response","350","452381","0.0-6.0-0.172","LAJU","3","f","rechts","24","","fixation","","","",""
"1988","img/90_210.png","70","image-keyboard-response","351","454371","0.0-6.0-1.172","LAJU","3","f","rechts","24","","","object","f","90","true"
"null","<div style=""font-size:60px;"">+</div>","null","html-keyboard-response","352","454772","0.0-6.0-0.173","LAJU","3","f","rechts","24","","fixation","","","",""
"2642","img/120_180.png","74","image-keyboard-response","353","457415","0.0-6.0-1.173","LAJU","3","f","rechts","24","","","object","f","120","false"
"null","<div style=""font-size:60px;"">+</div>","null","html-keyboard-response","354","457767","0.0-6.0-0.174","LAJU","3","f","rechts","24","","fixation","","","",""
"1288","img/90_150.png","70","image-keyboard-response","355","459056","0.0-6.0-1.174","LAJU","3","f","rechts","24","","","object","j","90","false"
"null","<div style=""font-size:60px;"">+</div>","null","html-keyboard-response","356","459458","0.0-6.0-0.175","LAJU","3","f","rechts","24","","fixation","","","",""
"2124","img/90_240.png","74","image-keyboard-response","357","461583","0.0-6.0-1.175","LAJU","3","f","rechts","24","","","object","f","90","false"
"null","<div style=""font-size:60px;"">+</div>","null","html-keyboard-response","358","461885","0.0-6.0-0.176","LAJU","3","f","rechts","24","","fixation","","","",""
"834","img/0_120.png","74","image-keyboard-response","359","462720","0.0-6.0-1.176","LAJU","3","f","rechts","24","","","object","j","0","true"
"null","<div style=""font-size:60px;"">+</div>","null","html-keyboard-response","360","463022","0.0-6.0-0.177","LAJU","3","f","rechts","24","","fixation","","","",""
"589","img/0_240.png","70","image-keyboard-response","361","463611","0.0-6.0-1.177","LAJU","3","f","rechts","24","","","object","f","0","true"
"null","<div style=""font-size:60px;"">+</div>","null","html-keyboard-response","362","464113","0.0-6.0-0.178","LAJU","3","f","rechts","24","","fixation","","","",""
"1074","img/30_240.png","70","image-keyboard-response","363","465188","0.0-6.0-1.178","LAJU","3","f","rechts","24","","","object","f","30","true"
"null","<div style=""font-size:60px;"">+</div>","null","html-keyboard-response","364","465490","0.0-6.0-0.179","LAJU","3","f","rechts","24","","fixation","","","",""
"736","img/0_30.png","74","image-keyboard-response","365","466226","0.0-6.0-1.179","LAJU","3","f","rechts","24","","","object","j","0","true"
"null","<div style=""font-size:60px;"">+</div>","null","html-keyboard-response","366","466728","0.0-6.0-0.180","LAJU","3","f","rechts","24","","fixation","","","",""
"2925","img/90_180.png","70","image-keyboard-response","367","469654","0.0-6.0-1.180","LAJU","3","f","rechts","24","","","object","f","90","true"
"null","<div style=""font-size:60px;"">+</div>","null","html-keyboard-response","368","469956","0.0-6.0-0.181","LAJU","3","f","rechts","24","","fixation","","","",""
"1993","img/60_180.png","70","image-keyboard-response","369","471949","0.0-6.0-1.181","LAJU","3","f","rechts","24","","","object","f","60","true"
"null","<div style=""font-size:60px;"">+</div>","null","html-keyboard-response","370","472251","0.0-6.0-0.182","LAJU","3","f","rechts","24","","fixation","","","",""
"744","img/30_270.png","70","image-keyboard-response","371","472995","0.0-6.0-1.182","LAJU","3","f","rechts","24","","","object","f","30","true"
"null","<div style=""font-size:60px;"">+</div>","null","html-keyboard-response","372","473397","0.0-6.0-0.183","LAJU","3","f","rechts","24","","fixation","","","",""
"1448","img/120_150.png","70","image-keyboard-response","373","474846","0.0-6.0-1.183","LAJU","3","f","rechts","24","","","object","j","120","false"
"null","<div style=""font-size:60px;"">+</div>","null","html-keyboard-response","374","475248","0.0-6.0-0.184","LAJU","3","f","rechts","24","","fixation","","","",""
"1119","img/30_120.png","70","image-keyboard-response","375","476367","0.0-6.0-1.184","LAJU","3","f","rechts","24","","","object","j","30","false"
"null","<div style=""font-size:60px;"">+</div>","null","html-keyboard-response","376","476719","0.0-6.0-0.185","LAJU","3","f","rechts","24","","fixation","","","",""
"1091","img/150_90.png","70","image-keyboard-response","377","477810","0.0-6.0-1.185","LAJU","3","f","rechts","24","","","object","f","150","true"
"null","<div style=""font-size:60px;"">+</div>","null","html-keyboard-response","378","478261","0.0-6.0-0.186","LAJU","3","f","rechts","24","","fixation","","","",""
"1482","img/120_210.png","74","image-keyboard-response","379","479744","0.0-6.0-1.186","LAJU","3","f","rechts","24","","","object","f","120","false"
"null","<div style=""font-size:60px;"">+</div>","null","html-keyboard-response","380","480045","0.0-6.0-0.187","LAJU","3","f","rechts","24","","fixation","","","",""
"2588","img/60_270.png","74","image-keyboard-response","381","482634","0.0-6.0-1.187","LAJU","3","f","rechts","24","","","object","f","60","false"
"null","<div style=""font-size:60px;"">+</div>","null","html-keyboard-response","382","483136","0.0-6.0-0.188","LAJU","3","f","rechts","24","","fixation","","","",""
"1825","img/150_120.png","70","image-keyboard-response","383","484961","0.0-6.0-1.188","LAJU","3","f","rechts","24","","","object","f","150","true"
"null","<div style=""font-size:60px;"">+</div>","null","html-keyboard-response","384","485413","0.0-6.0-0.189","LAJU","3","f","rechts","24","","fixation","","","",""
"2032","img/150_270.png","74","image-keyboard-response","385","487445","0.0-6.0-1.189","LAJU","3","f","rechts","24","","","object","j","150","true"
"null","<div style=""font-size:60px;"">+</div>","null","html-keyboard-response","386","487947","0.0-6.0-0.190","LAJU","3","f","rechts","24","","fixation","","","",""
"736","img/0_60.png","74","image-keyboard-response","387","488683","0.0-6.0-1.190","LAJU","3","f","rechts","24","","","object","j","0","true"
"null","<div style=""font-size:60px;"">+</div>","null","html-keyboard-response","388","489134","0.0-6.0-0.191","LAJU","3","f","rechts","24","","fixation","","","",""
"572","img/0_90.png","74","image-keyboard-response","389","489707","0.0-6.0-1.191","LAJU","3","f","rechts","24","","","object","j","0","true"
"null","<div style=""font-size:60px;"">+</div>","null","html-keyboard-response","390","490108","0.0-6.0-0.192","LAJU","3","f","rechts","24","","fixation","","","",""
"1299","img/90_30.png","70","image-keyboard-response","391","491408","0.0-6.0-1.192","LAJU","3","f","rechts","24","","","object","f","90","true"
"null","<div style=""font-size:60px;"">+</div>","null","html-keyboard-response","392","491860","0.0-6.0-0.193","LAJU","3","f","rechts","24","","fixation","","","",""
"2403","img/30_180.png","70","image-keyboard-response","393","494263","0.0-6.0-1.193","LAJU","3","f","rechts","24","","","object","f","30","true"
"null","<div style=""font-size:60px;"">+</div>","null","html-keyboard-response","394","494564","0.0-6.0-0.194","LAJU","3","f","rechts","24","","fixation","","","",""
"1873","img/60_150.png","74","image-keyboard-response","395","496438","0.0-6.0-1.194","LAJU","3","f","rechts","24","","","object","j","60","true"
"null","<div style=""font-size:60px;"">+</div>","null","html-keyboard-response","396","496790","0.0-6.0-0.195","LAJU","3","f","rechts","24","","fixation","","","",""
"2490","img/150_180.png","74","image-keyboard-response","397","499280","0.0-6.0-1.195","LAJU","3","f","rechts","24","","","object","f","150","false"
"null","<div style=""font-size:60px;"">+</div>","null","html-keyboard-response","398","499632","0.0-6.0-0.196","LAJU","3","f","rechts","24","","fixation","","","",""
"1580","img/30_90.png","74","image-keyboard-response","399","501212","0.0-6.0-1.196","LAJU","3","f","rechts","24","","","object","j","30","true"
"null","<div style=""font-size:60px;"">+</div>","null","html-keyboard-response","400","501714","0.0-6.0-0.197","LAJU","3","f","rechts","24","","fixation","","","",""
"1422","img/150_240.png","74","image-keyboard-response","401","503138","0.0-6.0-1.197","LAJU","3","f","rechts","24","","","object","j","150","true"
"null","<div style=""font-size:60px;"">+</div>","null","html-keyboard-response","402","503489","0.0-6.0-0.198","LAJU","3","f","rechts","24","","fixation","","","",""
"769","img/120_270.png","74","image-keyboard-response","403","504260","0.0-6.0-1.198","LAJU","3","f","rechts","24","","","object","j","120","true"
"null","<div style=""font-size:60px;"">+</div>","null","html-keyboard-response","404","504711","0.0-6.0-0.199","LAJU","3","f","rechts","24","","fixation","","","",""
"747","img/0_210.png","70","image-keyboard-response","405","505460","0.0-6.0-1.199","LAJU","3","f","rechts","24","","","object","f","0","true"
"null","<div style=""font-size:60px;"">+</div>","null","html-keyboard-response","406","505911","0.0-6.0-0.200","LAJU","3","f","rechts","24","","fixation","","","",""
"1257","img/150_60.png","70","image-keyboard-response","407","507169","0.0-6.0-1.200","LAJU","3","f","rechts","24","","","object","f","150","true"
"null","<div style=""font-size:60px;"">+</div>","null","html-keyboard-response","408","507671","0.0-6.0-0.201","LAJU","3","f","rechts","24","","fixation","","","",""
"949","img/0_300.png","70","image-keyboard-response","409","508621","0.0-6.0-1.201","LAJU","3","f","rechts","24","","","object","f","0","true"
"null","<div style=""font-size:60px;"">+</div>","null","html-keyboard-response","410","509023","0.0-6.0-0.202","LAJU","3","f","rechts","24","","fixation","","","",""
"750","img/30_60.png","70","image-keyboard-response","411","509774","0.0-6.0-1.202","LAJU","3","f","rechts","24","","","object","j","30","false"
"null","<div style=""font-size:60px;"">+</div>","null","html-keyboard-response","412","510276","0.0-6.0-0.203","LAJU","3","f","rechts","24","","fixation","","","",""
"null","img/L90_180.png","null","image-keyboard-response","413","513278","0.0-6.0-1.203","LAJU","3","f","rechts","24","","","object","j","90","false"
"null","<div style=""font-size:60px;"">+</div>","null","html-keyboard-response","414","513730","0.0-6.0-0.204","LAJU","3","f","rechts","24","","fixation","","","",""
"1424","img/L30_180.png","74","image-keyboard-response","415","515155","0.0-6.0-1.204","LAJU","3","f","rechts","24","","","object","j","30","true"
"null","<div style=""font-size:60px;"">+</div>","null","html-keyboard-response","416","515557","0.0-6.0-0.205","LAJU","3","f","rechts","24","","fixation","","","",""
"1465","img/90_330.png","74","image-keyboard-response","417","517022","0.0-6.0-1.205","LAJU","3","f","rechts","24","","","object","j","90","true"
"null","<div style=""font-size:60px;"">+</div>","null","html-keyboard-response","418","517524","0.0-6.0-0.206","LAJU","3","f","rechts","24","","fixation","","","",""
"927","img/150_300.png","74","image-keyboard-response","419","518452","0.0-6.0-1.206","LAJU","3","f","rechts","24","","","object","j","150","true"
"null","<div style=""font-size:60px;"">+</div>","null","html-keyboard-response","420","518754","0.0-6.0-0.207","LAJU","3","f","rechts","24","","fixation","","","",""
"1660","img/120_90.png","70","image-keyboard-response","421","520415","0.0-6.0-1.207","LAJU","3","f","rechts","24","","","object","f","120","true"
"6047","<p>Du hast in 70% der Versuche korrekt entschieden.</p><p>Deine durchschnittliche Reaktionszeit war  1331ms.</p><p>Dr&uuml;cke eine beliebige Taste, um die Session zu beenden. Vielen Dank!</p>","76","html-keyboard-response","422","526465","0.0-7.0","LAJU","3","f","rechts","24","","","","","",""
