"rt","stimulus","key_press","trial_type","trial_index","time_elapsed","internal_node_id","subject","session","sex","handedness","age","responses","test_part","condition","correct_response","angle","correct"
"2145","<p>Mental Rotation Experiment.</p> <p>Dr&uuml;cke eine beliebige Taste, um anzufangen.</p>","72","html-keyboard-response","0","2150","0.0-0.0","LAJU","2","f","rechts","24","","","","","",""
"3019","","","survey-text","1","5170","0.0-1.0","LAJU","2","f","rechts","24","{""Q0"":""LAJU""}","","","","",""
"1519","","","survey-text","2","6689","0.0-2.0","LAJU","2","f","rechts","24","{""Q0"":""2""}","","","","",""
"2645","","","survey-multi-choice","3","9336","0.0-3.0","LAJU","2","f","rechts","24","{""Q0"":""f"",""Q1"":""rechts""}","","","","",""
"1311","","","survey-text","4","10648","0.0-4.0","LAJU","2","f","rechts","24","{""Q0"":""24""}","","","","",""
"155373","<p>Stell dir vor, dass du vor einem runden Tisch stehst, auf dem sich ein blauer Ball am Tischrand befindet. Entlang des Tischrands ist jeweils ein verschieden langer Pfeil. Nun bleibst du an deinem Platz vor dem Tisch und rotierst den Tisch entlang des Pfeils (gleiche Richtung und Länge). </p> <img src='img/30_180.png'></img> <br><p> Nachdem du diese (vorgestellte) Rotation durchgef&uuml;hrt hast, schau in Richtung der Tischmitte, und entscheide dann, ob der Ball links oder rechts von dir liegt.</p> <p>Dr&uuml;cke die <strong>'f'</strong>-Taste f&uuml;r links, die <strong>'j'</strong>-Taste f&uuml;r rechts.</p><br><p> Das Bild wird jeweils 1 Sekunde lang pr&auml;sentiert. Du hast 3 Sekunden Zeit eine Entscheidung zu treffen.</p>","74","html-keyboard-response","5","166022","0.0-5.0","LAJU","2","f","rechts","24","","","","","",""
"null","<div style=""font-size:60px;"">+</div>","null","html-keyboard-response","6","167526","0.0-6.0-0.0","LAJU","2","f","rechts","24","","fixation","","","",""
"2093","img/L90_180.png","70","image-keyboard-response","7","169620","0.0-6.0-1.0","LAJU","2","f","rechts","24","","","object","j","90","false"
"null","<div style=""font-size:60px;"">+</div>","null","html-keyboard-response","8","170122","0.0-6.0-0.1","LAJU","2","f","rechts","24","","fixation","","","",""
"1554","img/90_120.png","74","image-keyboard-response","9","171677","0.0-6.0-1.1","LAJU","2","f","rechts","24","","","object","j","90","true"
"null","<div style=""font-size:60px;"">+</div>","null","html-keyboard-response","10","172178","0.0-6.0-0.2","LAJU","2","f","rechts","24","","fixation","","","",""
"null","img/120_330.png","null","image-keyboard-response","11","175181","0.0-6.0-1.2","LAJU","2","f","rechts","24","","","object","j","120","false"
"null","<div style=""font-size:60px;"">+</div>","null","html-keyboard-response","12","175583","0.0-6.0-0.3","LAJU","2","f","rechts","24","","fixation","","","",""
"2833","img/30_60.png","74","image-keyboard-response","13","178417","0.0-6.0-1.3","LAJU","2","f","rechts","24","","","object","j","30","true"
"null","<div style=""font-size:60px;"">+</div>","null","html-keyboard-response","14","178868","0.0-6.0-0.4","LAJU","2","f","rechts","24","","fixation","","","",""
"null","img/120_30.png","null","image-keyboard-response","15","181871","0.0-6.0-1.4","LAJU","2","f","rechts","24","","","object","f","120","false"
"null","<div style=""font-size:60px;"">+</div>","null","html-keyboard-response","16","182223","0.0-6.0-0.5","LAJU","2","f","rechts","24","","fixation","","","",""
"1655","img/60_30.png","70","image-keyboard-response","17","183879","0.0-6.0-1.5","LAJU","2","f","rechts","24","","","object","f","60","true"
"null","<div style=""font-size:60px;"">+</div>","null","html-keyboard-response","18","184280","0.0-6.0-0.6","LAJU","2","f","rechts","24","","fixation","","","",""
"2205","img/60_180.png","70","image-keyboard-response","19","186488","0.0-6.0-1.6","LAJU","2","f","rechts","24","","","object","f","60","true"
"null","<div style=""font-size:60px;"">+</div>","null","html-keyboard-response","20","186939","0.0-6.0-0.7","LAJU","2","f","rechts","24","","fixation","","","",""
"2362","img/60_150.png","74","image-keyboard-response","21","189304","0.0-6.0-1.7","LAJU","2","f","rechts","24","","","object","j","60","true"
"null","<div style=""font-size:60px;"">+</div>","null","html-keyboard-response","22","189655","0.0-6.0-0.8","LAJU","2","f","rechts","24","","fixation","","","",""
"2194","img/30_180.png","70","image-keyboard-response","23","191851","0.0-6.0-1.8","LAJU","2","f","rechts","24","","","object","f","30","true"
"null","<div style=""font-size:60px;"">+</div>","null","html-keyboard-response","24","192302","0.0-6.0-0.9","LAJU","2","f","rechts","24","","fixation","","","",""
"1458","img/30_240.png","74","image-keyboard-response","25","193762","0.0-6.0-1.9","LAJU","2","f","rechts","24","","","object","f","30","false"
"null","<div style=""font-size:60px;"">+</div>","null","html-keyboard-response","26","194063","0.0-6.0-0.10","LAJU","2","f","rechts","24","","fixation","","","",""
"1669","img/90_210.png","74","image-keyboard-response","27","195733","0.0-6.0-1.10","LAJU","2","f","rechts","24","","","object","f","90","false"
"null","<div style=""font-size:60px;"">+</div>","null","html-keyboard-response","28","196135","0.0-6.0-0.11","LAJU","2","f","rechts","24","","fixation","","","",""
"1322","img/90_240.png","74","image-keyboard-response","29","197458","0.0-6.0-1.11","LAJU","2","f","rechts","24","","","object","f","90","false"
"null","<div style=""font-size:60px;"">+</div>","null","html-keyboard-response","30","197760","0.0-6.0-0.12","LAJU","2","f","rechts","24","","fixation","","","",""
"1953","img/150_270.png","74","image-keyboard-response","31","199714","0.0-6.0-1.12","LAJU","2","f","rechts","24","","","object","j","150","true"
"null","<div style=""font-size:60px;"">+</div>","null","html-keyboard-response","32","200016","0.0-6.0-0.13","LAJU","2","f","rechts","24","","fixation","","","",""
"1443","img/30_120.png","74","image-keyboard-response","33","201460","0.0-6.0-1.13","LAJU","2","f","rechts","24","","","object","j","30","true"
"null","<div style=""font-size:60px;"">+</div>","null","html-keyboard-response","34","201962","0.0-6.0-0.14","LAJU","2","f","rechts","24","","fixation","","","",""
"2395","img/90_300.png","74","image-keyboard-response","35","204358","0.0-6.0-1.14","LAJU","2","f","rechts","24","","","object","j","90","true"
"null","<div style=""font-size:60px;"">+</div>","null","html-keyboard-response","36","204860","0.0-6.0-0.15","LAJU","2","f","rechts","24","","fixation","","","",""
"845","img/0_210.png","70","image-keyboard-response","37","205706","0.0-6.0-1.15","LAJU","2","f","rechts","24","","","object","f","0","true"
"null","<div style=""font-size:60px;"">+</div>","null","html-keyboard-response","38","206208","0.0-6.0-0.16","LAJU","2","f","rechts","24","","fixation","","","",""
"1085","img/L150_180.png","74","image-keyboard-response","39","207294","0.0-6.0-1.16","LAJU","2","f","rechts","24","","","object","j","150","true"
"null","<div style=""font-size:60px;"">+</div>","null","html-keyboard-response","40","207646","0.0-6.0-0.17","LAJU","2","f","rechts","24","","fixation","","","",""
"1151","img/150_120.png","74","image-keyboard-response","41","208798","0.0-6.0-1.17","LAJU","2","f","rechts","24","","","object","f","150","false"
"null","<div style=""font-size:60px;"">+</div>","null","html-keyboard-response","42","209250","0.0-6.0-0.18","LAJU","2","f","rechts","24","","fixation","","","",""
"2035","img/60_210.png","70","image-keyboard-response","43","211286","0.0-6.0-1.18","LAJU","2","f","rechts","24","","","object","f","60","true"
"null","<div style=""font-size:60px;"">+</div>","null","html-keyboard-response","44","211588","0.0-6.0-0.19","LAJU","2","f","rechts","24","","fixation","","","",""
"1652","img/0_300.png","70","image-keyboard-response","45","213241","0.0-6.0-1.19","LAJU","2","f","rechts","24","","","object","f","0","true"
"null","<div style=""font-size:60px;"">+</div>","null","html-keyboard-response","46","213643","0.0-6.0-0.20","LAJU","2","f","rechts","24","","fixation","","","",""
"1496","img/90_330.png","74","image-keyboard-response","47","215140","0.0-6.0-1.20","LAJU","2","f","rechts","24","","","object","j","90","true"
"null","<div style=""font-size:60px;"">+</div>","null","html-keyboard-response","48","215591","0.0-6.0-0.21","LAJU","2","f","rechts","24","","fixation","","","",""
"823","img/0_60.png","74","image-keyboard-response","49","216416","0.0-6.0-1.21","LAJU","2","f","rechts","24","","","object","j","0","true"
"null","<div style=""font-size:60px;"">+</div>","null","html-keyboard-response","50","216868","0.0-6.0-0.22","LAJU","2","f","rechts","24","","fixation","","","",""
"1684","img/120_90.png","70","image-keyboard-response","51","218553","0.0-6.0-1.22","LAJU","2","f","rechts","24","","","object","f","120","true"
"null","<div style=""font-size:60px;"">+</div>","null","html-keyboard-response","52","218955","0.0-6.0-0.23","LAJU","2","f","rechts","24","","fixation","","","",""
"1477","img/150_60.png","70","image-keyboard-response","53","220433","0.0-6.0-1.23","LAJU","2","f","rechts","24","","","object","f","150","true"
"null","<div style=""font-size:60px;"">+</div>","null","html-keyboard-response","54","220835","0.0-6.0-0.24","LAJU","2","f","rechts","24","","fixation","","","",""
"1463","img/30_300.png","74","image-keyboard-response","55","222299","0.0-6.0-1.24","LAJU","2","f","rechts","24","","","object","f","30","false"
"null","<div style=""font-size:60px;"">+</div>","null","html-keyboard-response","56","222751","0.0-6.0-0.25","LAJU","2","f","rechts","24","","fixation","","","",""
"2002","img/120_150.png","74","image-keyboard-response","57","224754","0.0-6.0-1.25","LAJU","2","f","rechts","24","","","object","j","120","true"
"null","<div style=""font-size:60px;"">+</div>","null","html-keyboard-response","58","225206","0.0-6.0-0.26","LAJU","2","f","rechts","24","","fixation","","","",""
"1771","img/L60_180.png","74","image-keyboard-response","59","226978","0.0-6.0-1.26","LAJU","2","f","rechts","24","","","object","j","60","true"
"null","<div style=""font-size:60px;"">+</div>","null","html-keyboard-response","60","227480","0.0-6.0-0.27","LAJU","2","f","rechts","24","","fixation","","","",""
"1683","img/60_330.png","74","image-keyboard-response","61","229164","0.0-6.0-1.27","LAJU","2","f","rechts","24","","","object","j","60","true"
"null","<div style=""font-size:60px;"">+</div>","null","html-keyboard-response","62","229615","0.0-6.0-0.28","LAJU","2","f","rechts","24","","fixation","","","",""
"1597","img/120_210.png","74","image-keyboard-response","63","231214","0.0-6.0-1.28","LAJU","2","f","rechts","24","","","object","f","120","false"
"null","<div style=""font-size:60px;"">+</div>","null","html-keyboard-response","64","231615","0.0-6.0-0.29","LAJU","2","f","rechts","24","","fixation","","","",""
"null","img/90_150.png","null","image-keyboard-response","65","234618","0.0-6.0-1.29","LAJU","2","f","rechts","24","","","object","j","90","false"
"null","<div style=""font-size:60px;"">+</div>","null","html-keyboard-response","66","234920","0.0-6.0-0.30","LAJU","2","f","rechts","24","","fixation","","","",""
"188","img/60_270.png","74","image-keyboard-response","67","235109","0.0-6.0-1.30","LAJU","2","f","rechts","24","","","object","f","60","false"
"null","<div style=""font-size:60px;"">+</div>","null","html-keyboard-response","68","235461","0.0-6.0-0.31","LAJU","2","f","rechts","24","","fixation","","","",""
"744","img/0_30.png","74","image-keyboard-response","69","236207","0.0-6.0-1.31","LAJU","2","f","rechts","24","","","object","j","0","true"
"null","<div style=""font-size:60px;"">+</div>","null","html-keyboard-response","70","236658","0.0-6.0-0.32","LAJU","2","f","rechts","24","","fixation","","","",""
"2800","img/L120_180.png","74","image-keyboard-response","71","239459","0.0-6.0-1.32","LAJU","2","f","rechts","24","","","object","j","120","true"
"null","<div style=""font-size:60px;"">+</div>","null","html-keyboard-response","72","239761","0.0-6.0-0.33","LAJU","2","f","rechts","24","","fixation","","","",""
"1566","img/L30_180.png","74","image-keyboard-response","73","241329","0.0-6.0-1.33","LAJU","2","f","rechts","24","","","object","j","30","true"
"null","<div style=""font-size:60px;"">+</div>","null","html-keyboard-response","74","241730","0.0-6.0-0.34","LAJU","2","f","rechts","24","","fixation","","","",""
"1623","img/150_90.png","70","image-keyboard-response","75","243356","0.0-6.0-1.34","LAJU","2","f","rechts","24","","","object","f","150","true"
"null","<div style=""font-size:60px;"">+</div>","null","html-keyboard-response","76","243757","0.0-6.0-0.35","LAJU","2","f","rechts","24","","fixation","","","",""
"916","img/0_240.png","70","image-keyboard-response","77","244675","0.0-6.0-1.35","LAJU","2","f","rechts","24","","","object","f","0","true"
"null","<div style=""font-size:60px;"">+</div>","null","html-keyboard-response","78","245177","0.0-6.0-0.36","LAJU","2","f","rechts","24","","fixation","","","",""
"2232","img/120_270.png","74","image-keyboard-response","79","247410","0.0-6.0-1.36","LAJU","2","f","rechts","24","","","object","j","120","true"
"null","<div style=""font-size:60px;"">+</div>","null","html-keyboard-response","80","247712","0.0-6.0-0.37","LAJU","2","f","rechts","24","","fixation","","","",""
"1754","img/90_180.png","70","image-keyboard-response","81","249467","0.0-6.0-1.37","LAJU","2","f","rechts","24","","","object","f","90","true"
"null","<div style=""font-size:60px;"">+</div>","null","html-keyboard-response","82","249819","0.0-6.0-0.38","LAJU","2","f","rechts","24","","fixation","","","",""
"1681","img/90_60.png","70","image-keyboard-response","83","251501","0.0-6.0-1.38","LAJU","2","f","rechts","24","","","object","f","90","true"
"null","<div style=""font-size:60px;"">+</div>","null","html-keyboard-response","84","251803","0.0-6.0-0.39","LAJU","2","f","rechts","24","","fixation","","","",""
"null","img/150_180.png","null","image-keyboard-response","85","254806","0.0-6.0-1.39","LAJU","2","f","rechts","24","","","object","f","150","false"
"null","<div style=""font-size:60px;"">+</div>","null","html-keyboard-response","86","255158","0.0-6.0-0.40","LAJU","2","f","rechts","24","","fixation","","","",""
"795","img/0_270.png","70","image-keyboard-response","87","255954","0.0-6.0-1.40","LAJU","2","f","rechts","24","","","object","f","0","true"
"null","<div style=""font-size:60px;"">+</div>","null","html-keyboard-response","88","256456","0.0-6.0-0.41","LAJU","2","f","rechts","24","","fixation","","","",""
"2473","img/60_90.png","70","image-keyboard-response","89","258930","0.0-6.0-1.41","LAJU","2","f","rechts","24","","","object","j","60","false"
"null","<div style=""font-size:60px;"">+</div>","null","html-keyboard-response","90","259282","0.0-6.0-0.42","LAJU","2","f","rechts","24","","fixation","","","",""
"1374","img/30_270.png","74","image-keyboard-response","91","260657","0.0-6.0-1.42","LAJU","2","f","rechts","24","","","object","f","30","false"
"null","<div style=""font-size:60px;"">+</div>","null","html-keyboard-response","92","260959","0.0-6.0-0.43","LAJU","2","f","rechts","24","","fixation","","","",""
"2265","img/30_90.png","74","image-keyboard-response","93","263225","0.0-6.0-1.43","LAJU","2","f","rechts","24","","","object","j","30","true"
"null","<div style=""font-size:60px;"">+</div>","null","html-keyboard-response","94","263727","0.0-6.0-0.44","LAJU","2","f","rechts","24","","fixation","","","",""
"707","img/0_150.png","74","image-keyboard-response","95","264435","0.0-6.0-1.44","LAJU","2","f","rechts","24","","","object","j","0","true"
"null","<div style=""font-size:60px;"">+</div>","null","html-keyboard-response","96","264837","0.0-6.0-0.45","LAJU","2","f","rechts","24","","fixation","","","",""
"1877","img/150_300.png","74","image-keyboard-response","97","266715","0.0-6.0-1.45","LAJU","2","f","rechts","24","","","object","j","150","true"
"null","<div style=""font-size:60px;"">+</div>","null","html-keyboard-response","98","267217","0.0-6.0-0.46","LAJU","2","f","rechts","24","","fixation","","","",""
"1178","img/150_240.png","74","image-keyboard-response","99","268396","0.0-6.0-1.46","LAJU","2","f","rechts","24","","","object","j","150","true"
"null","<div style=""font-size:60px;"">+</div>","null","html-keyboard-response","100","268897","0.0-6.0-0.47","LAJU","2","f","rechts","24","","fixation","","","",""
"662","img/0_120.png","74","image-keyboard-response","101","269561","0.0-6.0-1.47","LAJU","2","f","rechts","24","","","object","j","0","true"
"null","<div style=""font-size:60px;"">+</div>","null","html-keyboard-response","102","270062","0.0-6.0-0.48","LAJU","2","f","rechts","24","","fixation","","","",""
"1729","img/120_180.png","70","image-keyboard-response","103","271792","0.0-6.0-1.48","LAJU","2","f","rechts","24","","","object","f","120","true"
"null","<div style=""font-size:60px;"">+</div>","null","html-keyboard-response","104","272294","0.0-6.0-0.49","LAJU","2","f","rechts","24","","fixation","","","",""
"1504","img/90_30.png","70","image-keyboard-response","105","273799","0.0-6.0-1.49","LAJU","2","f","rechts","24","","","object","f","90","true"
"null","<div style=""font-size:60px;"">+</div>","null","html-keyboard-response","106","274299","0.0-6.0-0.50","LAJU","2","f","rechts","24","","fixation","","","",""
"985","img/0_90.png","74","image-keyboard-response","107","275286","0.0-6.0-1.50","LAJU","2","f","rechts","24","","","object","j","0","true"
"null","<div style=""font-size:60px;"">+</div>","null","html-keyboard-response","108","275637","0.0-6.0-0.51","LAJU","2","f","rechts","24","","fixation","","","",""
"777","img/0_330.png","70","image-keyboard-response","109","276415","0.0-6.0-1.51","LAJU","2","f","rechts","24","","","object","f","0","true"
"null","<div style=""font-size:60px;"">+</div>","null","html-keyboard-response","110","276767","0.0-6.0-0.52","LAJU","2","f","rechts","24","","fixation","","","",""
"1182","img/L30_180.png","74","image-keyboard-response","111","277950","0.0-6.0-1.52","LAJU","2","f","rechts","24","","","object","j","30","true"
"null","<div style=""font-size:60px;"">+</div>","null","html-keyboard-response","112","278251","0.0-6.0-0.53","LAJU","2","f","rechts","24","","fixation","","","",""
"1585","img/120_270.png","74","image-keyboard-response","113","279837","0.0-6.0-1.53","LAJU","2","f","rechts","24","","","object","j","120","true"
"null","<div style=""font-size:60px;"">+</div>","null","html-keyboard-response","114","280289","0.0-6.0-0.54","LAJU","2","f","rechts","24","","fixation","","","",""
"2785","img/90_120.png","74","image-keyboard-response","115","283076","0.0-6.0-1.54","LAJU","2","f","rechts","24","","","object","j","90","true"
"null","<div style=""font-size:60px;"">+</div>","null","html-keyboard-response","116","283527","0.0-6.0-0.55","LAJU","2","f","rechts","24","","fixation","","","",""
"1299","img/0_270.png","70","image-keyboard-response","117","284828","0.0-6.0-1.55","LAJU","2","f","rechts","24","","","object","f","0","true"
"null","<div style=""font-size:60px;"">+</div>","null","html-keyboard-response","118","285129","0.0-6.0-0.56","LAJU","2","f","rechts","24","","fixation","","","",""
"1486","img/30_240.png","74","image-keyboard-response","119","286616","0.0-6.0-1.56","LAJU","2","f","rechts","24","","","object","f","30","false"
"null","<div style=""font-size:60px;"">+</div>","null","html-keyboard-response","120","287118","0.0-6.0-0.57","LAJU","2","f","rechts","24","","fixation","","","",""
"1716","img/60_270.png","70","image-keyboard-response","121","288835","0.0-6.0-1.57","LAJU","2","f","rechts","24","","","object","f","60","true"
"null","<div style=""font-size:60px;"">+</div>","null","html-keyboard-response","122","289337","0.0-6.0-0.58","LAJU","2","f","rechts","24","","fixation","","","",""
"null","img/90_150.png","null","image-keyboard-response","123","292339","0.0-6.0-1.58","LAJU","2","f","rechts","24","","","object","j","90","false"
"null","<div style=""font-size:60px;"">+</div>","null","html-keyboard-response","124","292741","0.0-6.0-0.59","LAJU","2","f","rechts","24","","fixation","","","",""
"1501","img/L60_180.png","74","image-keyboard-response","125","294243","0.0-6.0-1.59","LAJU","2","f","rechts","24","","","object","j","60","true"
"null","<div style=""font-size:60px;"">+</div>","null","html-keyboard-response","126","294595","0.0-6.0-0.60","LAJU","2","f","rechts","24","","fixation","","","",""
"1341","img/60_150.png","74","image-keyboard-response","127","295936","0.0-6.0-1.60","LAJU","2","f","rechts","24","","","object","j","60","true"
"null","<div style=""font-size:60px;"">+</div>","null","html-keyboard-response","128","296437","0.0-6.0-0.61","LAJU","2","f","rechts","24","","fixation","","","",""
"1218","img/150_300.png","70","image-keyboard-response","129","297657","0.0-6.0-1.61","LAJU","2","f","rechts","24","","","object","j","150","false"
"null","<div style=""font-size:60px;"">+</div>","null","html-keyboard-response","130","298162","0.0-6.0-0.62","LAJU","2","f","rechts","24","","fixation","","","",""
"1647","img/150_120.png","70","image-keyboard-response","131","299810","0.0-6.0-1.62","LAJU","2","f","rechts","24","","","object","f","150","true"
"null","<div style=""font-size:60px;"">+</div>","null","html-keyboard-response","132","300261","0.0-6.0-0.63","LAJU","2","f","rechts","24","","fixation","","","",""
"1075","img/30_270.png","74","image-keyboard-response","133","301337","0.0-6.0-1.63","LAJU","2","f","rechts","24","","","object","f","30","false"
"null","<div style=""font-size:60px;"">+</div>","null","html-keyboard-response","134","301639","0.0-6.0-0.64","LAJU","2","f","rechts","24","","fixation","","","",""
"2850","img/90_210.png","74","image-keyboard-response","135","304491","0.0-6.0-1.64","LAJU","2","f","rechts","24","","","object","f","90","false"
"null","<div style=""font-size:60px;"">+</div>","null","html-keyboard-response","136","304992","0.0-6.0-0.65","LAJU","2","f","rechts","24","","fixation","","","",""
"768","img/0_300.png","70","image-keyboard-response","137","305762","0.0-6.0-1.65","LAJU","2","f","rechts","24","","","object","f","0","true"
"null","<div style=""font-size:60px;"">+</div>","null","html-keyboard-response","138","306063","0.0-6.0-0.66","LAJU","2","f","rechts","24","","fixation","","","",""
"2401","img/150_180.png","70","image-keyboard-response","139","308464","0.0-6.0-1.66","LAJU","2","f","rechts","24","","","object","f","150","true"
"null","<div style=""font-size:60px;"">+</div>","null","html-keyboard-response","140","308916","0.0-6.0-0.67","LAJU","2","f","rechts","24","","fixation","","","",""
"null","img/30_60.png","null","image-keyboard-response","141","311918","0.0-6.0-1.67","LAJU","2","f","rechts","24","","","object","j","30","false"
"null","<div style=""font-size:60px;"">+</div>","null","html-keyboard-response","142","312270","0.0-6.0-0.68","LAJU","2","f","rechts","24","","fixation","","","",""
"1793","img/0_120.png","74","image-keyboard-response","143","314064","0.0-6.0-1.68","LAJU","2","f","rechts","24","","","object","j","0","true"
"null","<div style=""font-size:60px;"">+</div>","null","html-keyboard-response","144","314565","0.0-6.0-0.69","LAJU","2","f","rechts","24","","fixation","","","",""
"1099","img/60_210.png","70","image-keyboard-response","145","315664","0.0-6.0-1.69","LAJU","2","f","rechts","24","","","object","f","60","true"
"null","<div style=""font-size:60px;"">+</div>","null","html-keyboard-response","146","316065","0.0-6.0-0.70","LAJU","2","f","rechts","24","","fixation","","","",""
"1664","img/L150_180.png","74","image-keyboard-response","147","317731","0.0-6.0-1.70","LAJU","2","f","rechts","24","","","object","j","150","true"
"null","<div style=""font-size:60px;"">+</div>","null","html-keyboard-response","148","318082","0.0-6.0-0.71","LAJU","2","f","rechts","24","","fixation","","","",""
"2140","img/60_30.png","70","image-keyboard-response","149","320224","0.0-6.0-1.71","LAJU","2","f","rechts","24","","","object","f","60","true"
"null","<div style=""font-size:60px;"">+</div>","null","html-keyboard-response","150","320675","0.0-6.0-0.72","LAJU","2","f","rechts","24","","fixation","","","",""
"1534","img/120_150.png","70","image-keyboard-response","151","322211","0.0-6.0-1.72","LAJU","2","f","rechts","24","","","object","j","120","false"
"null","<div style=""font-size:60px;"">+</div>","null","html-keyboard-response","152","322662","0.0-6.0-0.73","LAJU","2","f","rechts","24","","fixation","","","",""
"1853","img/120_210.png","74","image-keyboard-response","153","324516","0.0-6.0-1.73","LAJU","2","f","rechts","24","","","object","f","120","false"
"null","<div style=""font-size:60px;"">+</div>","null","html-keyboard-response","154","325018","0.0-6.0-0.74","LAJU","2","f","rechts","24","","fixation","","","",""
"1743","img/90_30.png","70","image-keyboard-response","155","326762","0.0-6.0-1.74","LAJU","2","f","rechts","24","","","object","f","90","true"
"null","<div style=""font-size:60px;"">+</div>","null","html-keyboard-response","156","327164","0.0-6.0-0.75","LAJU","2","f","rechts","24","","fixation","","","",""
"1542","img/30_120.png","74","image-keyboard-response","157","328707","0.0-6.0-1.75","LAJU","2","f","rechts","24","","","object","j","30","true"
"null","<div style=""font-size:60px;"">+</div>","null","html-keyboard-response","158","329059","0.0-6.0-0.76","LAJU","2","f","rechts","24","","fixation","","","",""
"865","img/30_90.png","74","image-keyboard-response","159","329925","0.0-6.0-1.76","LAJU","2","f","rechts","24","","","object","j","30","true"
"null","<div style=""font-size:60px;"">+</div>","null","html-keyboard-response","160","330327","0.0-6.0-0.77","LAJU","2","f","rechts","24","","fixation","","","",""
"1809","img/90_330.png","74","image-keyboard-response","161","332137","0.0-6.0-1.77","LAJU","2","f","rechts","24","","","object","j","90","true"
"null","<div style=""font-size:60px;"">+</div>","null","html-keyboard-response","162","332589","0.0-6.0-0.78","LAJU","2","f","rechts","24","","fixation","","","",""
"2673","img/150_60.png","70","image-keyboard-response","163","335263","0.0-6.0-1.78","LAJU","2","f","rechts","24","","","object","f","150","true"
"null","<div style=""font-size:60px;"">+</div>","null","html-keyboard-response","164","335765","0.0-6.0-0.79","LAJU","2","f","rechts","24","","fixation","","","",""
"1147","img/90_60.png","70","image-keyboard-response","165","336912","0.0-6.0-1.79","LAJU","2","f","rechts","24","","","object","f","90","true"
"null","<div style=""font-size:60px;"">+</div>","null","html-keyboard-response","166","337214","0.0-6.0-0.80","LAJU","2","f","rechts","24","","fixation","","","",""
"1865","img/L120_180.png","74","image-keyboard-response","167","339079","0.0-6.0-1.80","LAJU","2","f","rechts","24","","","object","j","120","true"
"null","<div style=""font-size:60px;"">+</div>","null","html-keyboard-response","168","339431","0.0-6.0-0.81","LAJU","2","f","rechts","24","","fixation","","","",""
"1148","img/90_180.png","70","image-keyboard-response","169","340580","0.0-6.0-1.81","LAJU","2","f","rechts","24","","","object","f","90","true"
"null","<div style=""font-size:60px;"">+</div>","null","html-keyboard-response","170","341032","0.0-6.0-0.82","LAJU","2","f","rechts","24","","fixation","","","",""
"760","img/0_240.png","70","image-keyboard-response","171","341793","0.0-6.0-1.82","LAJU","2","f","rechts","24","","","object","f","0","true"
"null","<div style=""font-size:60px;"">+</div>","null","html-keyboard-response","172","342095","0.0-6.0-0.83","LAJU","2","f","rechts","24","","fixation","","","",""
"1116","img/60_330.png","74","image-keyboard-response","173","343212","0.0-6.0-1.83","LAJU","2","f","rechts","24","","","object","j","60","true"
"null","<div style=""font-size:60px;"">+</div>","null","html-keyboard-response","174","343714","0.0-6.0-0.84","LAJU","2","f","rechts","24","","fixation","","","",""
"864","img/120_330.png","74","image-keyboard-response","175","344579","0.0-6.0-1.84","LAJU","2","f","rechts","24","","","object","j","120","true"
"null","<div style=""font-size:60px;"">+</div>","null","html-keyboard-response","176","345081","0.0-6.0-0.85","LAJU","2","f","rechts","24","","fixation","","","",""
"1754","img/150_270.png","74","image-keyboard-response","177","346836","0.0-6.0-1.85","LAJU","2","f","rechts","24","","","object","j","150","true"
"null","<div style=""font-size:60px;"">+</div>","null","html-keyboard-response","178","347238","0.0-6.0-0.86","LAJU","2","f","rechts","24","","fixation","","","",""
"761","img/0_210.png","70","image-keyboard-response","179","348000","0.0-6.0-1.86","LAJU","2","f","rechts","24","","","object","f","0","true"
"null","<div style=""font-size:60px;"">+</div>","null","html-keyboard-response","180","348302","0.0-6.0-0.87","LAJU","2","f","rechts","24","","fixation","","","",""
"1317","img/60_90.png","70","image-keyboard-response","181","349619","0.0-6.0-1.87","LAJU","2","f","rechts","24","","","object","j","60","false"
"null","<div style=""font-size:60px;"">+</div>","null","html-keyboard-response","182","350121","0.0-6.0-0.88","LAJU","2","f","rechts","24","","fixation","","","",""
"1533","img/30_180.png","70","image-keyboard-response","183","351654","0.0-6.0-1.88","LAJU","2","f","rechts","24","","","object","f","30","true"
"null","<div style=""font-size:60px;"">+</div>","null","html-keyboard-response","184","352106","0.0-6.0-0.89","LAJU","2","f","rechts","24","","fixation","","","",""
"1574","img/150_90.png","70","image-keyboard-response","185","353680","0.0-6.0-1.89","LAJU","2","f","rechts","24","","","object","f","150","true"
"null","<div style=""font-size:60px;"">+</div>","null","html-keyboard-response","186","354182","0.0-6.0-0.90","LAJU","2","f","rechts","24","","fixation","","","",""
"1307","img/120_30.png","70","image-keyboard-response","187","355489","0.0-6.0-1.90","LAJU","2","f","rechts","24","","","object","f","120","true"
"null","<div style=""font-size:60px;"">+</div>","null","html-keyboard-response","188","355841","0.0-6.0-0.91","LAJU","2","f","rechts","24","","fixation","","","",""
"898","img/90_300.png","74","image-keyboard-response","189","356739","0.0-6.0-1.91","LAJU","2","f","rechts","24","","","object","j","90","true"
"null","<div style=""font-size:60px;"">+</div>","null","html-keyboard-response","190","357140","0.0-6.0-0.92","LAJU","2","f","rechts","24","","fixation","","","",""
"776","img/0_60.png","74","image-keyboard-response","191","357917","0.0-6.0-1.92","LAJU","2","f","rechts","24","","","object","j","0","true"
"null","<div style=""font-size:60px;"">+</div>","null","html-keyboard-response","192","358269","0.0-6.0-0.93","LAJU","2","f","rechts","24","","fixation","","","",""
"698","img/30_300.png","74","image-keyboard-response","193","358967","0.0-6.0-1.93","LAJU","2","f","rechts","24","","","object","f","30","false"
"null","<div style=""font-size:60px;"">+</div>","null","html-keyboard-response","194","359318","0.0-6.0-0.94","LAJU","2","f","rechts","24","","fixation","","","",""
"1823","img/L90_180.png","74","image-keyboard-response","195","361142","0.0-6.0-1.94","LAJU","2","f","rechts","24","","","object","j","90","true"
"null","<div style=""font-size:60px;"">+</div>","null","html-keyboard-response","196","361544","0.0-6.0-0.95","LAJU","2","f","rechts","24","","fixation","","","",""
"930","img/0_30.png","74","image-keyboard-response","197","362474","0.0-6.0-1.95","LAJU","2","f","rechts","24","","","object","j","0","true"
"null","<div style=""font-size:60px;"">+</div>","null","html-keyboard-response","198","362926","0.0-6.0-0.96","LAJU","2","f","rechts","24","","fixation","","","",""
"1111","img/60_180.png","70","image-keyboard-response","199","364038","0.0-6.0-1.96","LAJU","2","f","rechts","24","","","object","f","60","true"
"null","<div style=""font-size:60px;"">+</div>","null","html-keyboard-response","200","364439","0.0-6.0-0.97","LAJU","2","f","rechts","24","","fixation","","","",""
"680","img/0_90.png","74","image-keyboard-response","201","365120","0.0-6.0-1.97","LAJU","2","f","rechts","24","","","object","j","0","true"
"null","<div style=""font-size:60px;"">+</div>","null","html-keyboard-response","202","365522","0.0-6.0-0.98","LAJU","2","f","rechts","24","","fixation","","","",""
"953","img/0_150.png","74","image-keyboard-response","203","366475","0.0-6.0-1.98","LAJU","2","f","rechts","24","","","object","j","0","true"
"null","<div style=""font-size:60px;"">+</div>","null","html-keyboard-response","204","366827","0.0-6.0-0.99","LAJU","2","f","rechts","24","","fixation","","","",""
"614","img/0_330.png","70","image-keyboard-response","205","367441","0.0-6.0-1.99","LAJU","2","f","rechts","24","","","object","f","0","true"
"null","<div style=""font-size:60px;"">+</div>","null","html-keyboard-response","206","367893","0.0-6.0-0.100","LAJU","2","f","rechts","24","","fixation","","","",""
"1422","img/150_240.png","70","image-keyboard-response","207","369315","0.0-6.0-1.100","LAJU","2","f","rechts","24","","","object","j","150","false"
"null","<div style=""font-size:60px;"">+</div>","null","html-keyboard-response","208","369816","0.0-6.0-0.101","LAJU","2","f","rechts","24","","fixation","","","",""
"1444","img/120_180.png","70","image-keyboard-response","209","371262","0.0-6.0-1.101","LAJU","2","f","rechts","24","","","object","f","120","true"
"null","<div style=""font-size:60px;"">+</div>","null","html-keyboard-response","210","371713","0.0-6.0-0.102","LAJU","2","f","rechts","24","","fixation","","","",""
"1590","img/120_90.png","70","image-keyboard-response","211","373305","0.0-6.0-1.102","LAJU","2","f","rechts","24","","","object","f","120","true"
"null","<div style=""font-size:60px;"">+</div>","null","html-keyboard-response","212","373806","0.0-6.0-0.103","LAJU","2","f","rechts","24","","fixation","","","",""
"1433","img/90_240.png","74","image-keyboard-response","213","375241","0.0-6.0-1.103","LAJU","2","f","rechts","24","","","object","f","90","false"
"null","<div style=""font-size:60px;"">+</div>","null","html-keyboard-response","214","375592","0.0-6.0-0.104","LAJU","2","f","rechts","24","","fixation","","","",""
"2549","img/120_210.png","74","image-keyboard-response","215","378142","0.0-6.0-1.104","LAJU","2","f","rechts","24","","","object","f","120","false"
"null","<div style=""font-size:60px;"">+</div>","null","html-keyboard-response","216","378594","0.0-6.0-0.105","LAJU","2","f","rechts","24","","fixation","","","",""
"2141","img/90_120.png","70","image-keyboard-response","217","380737","0.0-6.0-1.105","LAJU","2","f","rechts","24","","","object","j","90","false"
"null","<div style=""font-size:60px;"">+</div>","null","html-keyboard-response","218","381088","0.0-6.0-0.106","LAJU","2","f","rechts","24","","fixation","","","",""
"2168","img/60_90.png","74","image-keyboard-response","219","383257","0.0-6.0-1.106","LAJU","2","f","rechts","24","","","object","j","60","true"
"null","<div style=""font-size:60px;"">+</div>","null","html-keyboard-response","220","383559","0.0-6.0-0.107","LAJU","2","f","rechts","24","","fixation","","","",""
"1183","img/30_270.png","70","image-keyboard-response","221","384743","0.0-6.0-1.107","LAJU","2","f","rechts","24","","","object","f","30","true"
"null","<div style=""font-size:60px;"">+</div>","null","html-keyboard-response","222","385045","0.0-6.0-0.108","LAJU","2","f","rechts","24","","fixation","","","",""
"1873","img/60_30.png","70","image-keyboard-response","223","386919","0.0-6.0-1.108","LAJU","2","f","rechts","24","","","object","f","60","true"
"null","<div style=""font-size:60px;"">+</div>","null","html-keyboard-response","224","387421","0.0-6.0-0.109","LAJU","2","f","rechts","24","","fixation","","","",""
"2571","img/90_180.png","70","image-keyboard-response","225","389993","0.0-6.0-1.109","LAJU","2","f","rechts","24","","","object","f","90","true"
"null","<div style=""font-size:60px;"">+</div>","null","html-keyboard-response","226","390395","0.0-6.0-0.110","LAJU","2","f","rechts","24","","fixation","","","",""
"2946","img/120_150.png","70","image-keyboard-response","227","393341","0.0-6.0-1.110","LAJU","2","f","rechts","24","","","object","j","120","false"
"null","<div style=""font-size:60px;"">+</div>","null","html-keyboard-response","228","393793","0.0-6.0-0.111","LAJU","2","f","rechts","24","","fixation","","","",""
"2483","img/L120_180.png","70","image-keyboard-response","229","396277","0.0-6.0-1.111","LAJU","2","f","rechts","24","","","object","j","120","false"
"null","<div style=""font-size:60px;"">+</div>","null","html-keyboard-response","230","396579","0.0-6.0-0.112","LAJU","2","f","rechts","24","","fixation","","","",""
"1718","img/150_270.png","74","image-keyboard-response","231","398297","0.0-6.0-1.112","LAJU","2","f","rechts","24","","","object","j","150","true"
"null","<div style=""font-size:60px;"">+</div>","null","html-keyboard-response","232","398799","0.0-6.0-0.113","LAJU","2","f","rechts","24","","fixation","","","",""
"2324","img/L30_180.png","74","image-keyboard-response","233","401124","0.0-6.0-1.113","LAJU","2","f","rechts","24","","","object","j","30","true"
"null","<div style=""font-size:60px;"">+</div>","null","html-keyboard-response","234","401476","0.0-6.0-0.114","LAJU","2","f","rechts","24","","fixation","","","",""
"1077","img/0_120.png","74","image-keyboard-response","235","402555","0.0-6.0-1.114","LAJU","2","f","rechts","24","","","object","j","0","true"
"null","<div style=""font-size:60px;"">+</div>","null","html-keyboard-response","236","403056","0.0-6.0-0.115","LAJU","2","f","rechts","24","","fixation","","","",""
"2989","img/90_330.png","74","image-keyboard-response","237","406046","0.0-6.0-1.115","LAJU","2","f","rechts","24","","","object","j","90","true"
"null","<div style=""font-size:60px;"">+</div>","null","html-keyboard-response","238","406347","0.0-6.0-0.116","LAJU","2","f","rechts","24","","fixation","","","",""
"2092","img/30_120.png","74","image-keyboard-response","239","408440","0.0-6.0-1.116","LAJU","2","f","rechts","24","","","object","j","30","true"
"null","<div style=""font-size:60px;"">+</div>","null","html-keyboard-response","240","408940","0.0-6.0-0.117","LAJU","2","f","rechts","24","","fixation","","","",""
"2778","img/150_240.png","74","image-keyboard-response","241","411719","0.0-6.0-1.117","LAJU","2","f","rechts","24","","","object","j","150","true"
"null","<div style=""font-size:60px;"">+</div>","null","html-keyboard-response","242","412070","0.0-6.0-0.118","LAJU","2","f","rechts","24","","fixation","","","",""
"2767","img/L150_180.png","74","image-keyboard-response","243","414839","0.0-6.0-1.118","LAJU","2","f","rechts","24","","","object","j","150","true"
"null","<div style=""font-size:60px;"">+</div>","null","html-keyboard-response","244","415140","0.0-6.0-0.119","LAJU","2","f","rechts","24","","fixation","","","",""
"866","img/0_150.png","74","image-keyboard-response","245","416008","0.0-6.0-1.119","LAJU","2","f","rechts","24","","","object","j","0","true"
"null","<div style=""font-size:60px;"">+</div>","null","html-keyboard-response","246","416509","0.0-6.0-0.120","LAJU","2","f","rechts","24","","fixation","","","",""
"2396","img/150_60.png","70","image-keyboard-response","247","418907","0.0-6.0-1.120","LAJU","2","f","rechts","24","","","object","f","150","true"
"null","<div style=""font-size:60px;"">+</div>","null","html-keyboard-response","248","419209","0.0-6.0-0.121","LAJU","2","f","rechts","24","","fixation","","","",""
"2571","img/120_90.png","70","image-keyboard-response","249","421781","0.0-6.0-1.121","LAJU","2","f","rechts","24","","","object","f","120","true"
"null","<div style=""font-size:60px;"">+</div>","null","html-keyboard-response","250","422283","0.0-6.0-0.122","LAJU","2","f","rechts","24","","fixation","","","",""
"2384","img/60_180.png","70","image-keyboard-response","251","424668","0.0-6.0-1.122","LAJU","2","f","rechts","24","","","object","f","60","true"
"null","<div style=""font-size:60px;"">+</div>","null","html-keyboard-response","252","425069","0.0-6.0-0.123","LAJU","2","f","rechts","24","","fixation","","","",""
"2783","img/90_240.png","70","image-keyboard-response","253","427853","0.0-6.0-1.123","LAJU","2","f","rechts","24","","","object","f","90","true"
"null","<div style=""font-size:60px;"">+</div>","null","html-keyboard-response","254","428155","0.0-6.0-0.124","LAJU","2","f","rechts","24","","fixation","","","",""
"2216","img/150_120.png","70","image-keyboard-response","255","430372","0.0-6.0-1.124","LAJU","2","f","rechts","24","","","object","f","150","true"
"null","<div style=""font-size:60px;"">+</div>","null","html-keyboard-response","256","430874","0.0-6.0-0.125","LAJU","2","f","rechts","24","","fixation","","","",""
"2527","img/L90_180.png","74","image-keyboard-response","257","433402","0.0-6.0-1.125","LAJU","2","f","rechts","24","","","object","j","90","true"
"null","<div style=""font-size:60px;"">+</div>","null","html-keyboard-response","258","433803","0.0-6.0-0.126","LAJU","2","f","rechts","24","","fixation","","","",""
"838","img/0_210.png","70","image-keyboard-response","259","434641","0.0-6.0-1.126","LAJU","2","f","rechts","24","","","object","f","0","true"
"null","<div style=""font-size:60px;"">+</div>","null","html-keyboard-response","260","434993","0.0-6.0-0.127","LAJU","2","f","rechts","24","","fixation","","","",""
"1305","img/30_60.png","70","image-keyboard-response","261","436299","0.0-6.0-1.127","LAJU","2","f","rechts","24","","","object","j","30","false"
"null","<div style=""font-size:60px;"">+</div>","null","html-keyboard-response","262","436801","0.0-6.0-0.128","LAJU","2","f","rechts","24","","fixation","","","",""
"1396","img/120_180.png","70","image-keyboard-response","263","438198","0.0-6.0-1.128","LAJU","2","f","rechts","24","","","object","f","120","true"
"null","<div style=""font-size:60px;"">+</div>","null","html-keyboard-response","264","438550","0.0-6.0-0.129","LAJU","2","f","rechts","24","","fixation","","","",""
"1688","img/L60_180.png","74","image-keyboard-response","265","440238","0.0-6.0-1.129","LAJU","2","f","rechts","24","","","object","j","60","true"
"null","<div style=""font-size:60px;"">+</div>","null","html-keyboard-response","266","440590","0.0-6.0-0.130","LAJU","2","f","rechts","24","","fixation","","","",""
"1546","img/30_180.png","70","image-keyboard-response","267","442137","0.0-6.0-1.130","LAJU","2","f","rechts","24","","","object","f","30","true"
"null","<div style=""font-size:60px;"">+</div>","null","html-keyboard-response","268","442489","0.0-6.0-0.131","LAJU","2","f","rechts","24","","fixation","","","",""
"1956","img/90_300.png","74","image-keyboard-response","269","444445","0.0-6.0-1.131","LAJU","2","f","rechts","24","","","object","j","90","true"
"null","<div style=""font-size:60px;"">+</div>","null","html-keyboard-response","270","444847","0.0-6.0-0.132","LAJU","2","f","rechts","24","","fixation","","","",""
"1111","img/120_330.png","74","image-keyboard-response","271","445959","0.0-6.0-1.132","LAJU","2","f","rechts","24","","","object","j","120","true"
"null","<div style=""font-size:60px;"">+</div>","null","html-keyboard-response","272","446311","0.0-6.0-0.133","LAJU","2","f","rechts","24","","fixation","","","",""
"1797","img/150_180.png","70","image-keyboard-response","273","448109","0.0-6.0-1.133","LAJU","2","f","rechts","24","","","object","f","150","true"
"null","<div style=""font-size:60px;"">+</div>","null","html-keyboard-response","274","448611","0.0-6.0-0.134","LAJU","2","f","rechts","24","","fixation","","","",""
"null","img/120_270.png","null","image-keyboard-response","275","451613","0.0-6.0-1.134","LAJU","2","f","rechts","24","","","object","j","120","false"
"null","<div style=""font-size:60px;"">+</div>","null","html-keyboard-response","276","451965","0.0-6.0-0.135","LAJU","2","f","rechts","24","","fixation","","","",""
"1229","img/60_270.png","70","image-keyboard-response","277","453195","0.0-6.0-1.135","LAJU","2","f","rechts","24","","","object","f","60","true"
"null","<div style=""font-size:60px;"">+</div>","null","html-keyboard-response","278","453697","0.0-6.0-0.136","LAJU","2","f","rechts","24","","fixation","","","",""
"1761","img/90_60.png","70","image-keyboard-response","279","455458","0.0-6.0-1.136","LAJU","2","f","rechts","24","","","object","f","90","true"
"null","<div style=""font-size:60px;"">+</div>","null","html-keyboard-response","280","455960","0.0-6.0-0.137","LAJU","2","f","rechts","24","","fixation","","","",""
"1078","img/60_330.png","74","image-keyboard-response","281","457038","0.0-6.0-1.137","LAJU","2","f","rechts","24","","","object","j","60","true"
"null","<div style=""font-size:60px;"">+</div>","null","html-keyboard-response","282","457439","0.0-6.0-0.138","LAJU","2","f","rechts","24","","fixation","","","",""
"2687","img/90_210.png","70","image-keyboard-response","283","460127","0.0-6.0-1.138","LAJU","2","f","rechts","24","","","object","f","90","true"
"null","<div style=""font-size:60px;"">+</div>","null","html-keyboard-response","284","460578","0.0-6.0-0.139","LAJU","2","f","rechts","24","","fixation","","","",""
"952","img/0_240.png","70","image-keyboard-response","285","461532","0.0-6.0-1.139","LAJU","2","f","rechts","24","","","object","f","0","true"
"null","<div style=""font-size:60px;"">+</div>","null","html-keyboard-response","286","462033","0.0-6.0-0.140","LAJU","2","f","rechts","24","","fixation","","","",""
"1324","img/30_90.png","74","image-keyboard-response","287","463358","0.0-6.0-1.140","LAJU","2","f","rechts","24","","","object","j","30","true"
"null","<div style=""font-size:60px;"">+</div>","null","html-keyboard-response","288","463810","0.0-6.0-0.141","LAJU","2","f","rechts","24","","fixation","","","",""
"1362","img/60_210.png","70","image-keyboard-response","289","465173","0.0-6.0-1.141","LAJU","2","f","rechts","24","","","object","f","60","true"
"null","<div style=""font-size:60px;"">+</div>","null","html-keyboard-response","290","465524","0.0-6.0-0.142","LAJU","2","f","rechts","24","","fixation","","","",""
"861","img/0_270.png","70","image-keyboard-response","291","466387","0.0-6.0-1.142","LAJU","2","f","rechts","24","","","object","f","0","true"
"null","<div style=""font-size:60px;"">+</div>","null","html-keyboard-response","292","466788","0.0-6.0-0.143","LAJU","2","f","rechts","24","","fixation","","","",""
"760","img/30_240.png","70","image-keyboard-response","293","467550","0.0-6.0-1.143","LAJU","2","f","rechts","24","","","object","f","30","true"
"null","<div style=""font-size:60px;"">+</div>","null","html-keyboard-response","294","467851","0.0-6.0-0.144","LAJU","2","f","rechts","24","","fixation","","","",""
"935","img/30_300.png","70","image-keyboard-response","295","468787","0.0-6.0-1.144","LAJU","2","f","rechts","24","","","object","f","30","true"
"null","<div style=""font-size:60px;"">+</div>","null","html-keyboard-response","296","469089","0.0-6.0-0.145","LAJU","2","f","rechts","24","","fixation","","","",""
"1193","img/0_60.png","74","image-keyboard-response","297","470283","0.0-6.0-1.145","LAJU","2","f","rechts","24","","","object","j","0","true"
"null","<div style=""font-size:60px;"">+</div>","null","html-keyboard-response","298","470585","0.0-6.0-0.146","LAJU","2","f","rechts","24","","fixation","","","",""
"1700","img/120_30.png","70","image-keyboard-response","299","472286","0.0-6.0-1.146","LAJU","2","f","rechts","24","","","object","f","120","true"
"null","<div style=""font-size:60px;"">+</div>","null","html-keyboard-response","300","472588","0.0-6.0-0.147","LAJU","2","f","rechts","24","","fixation","","","",""
"829","img/0_30.png","74","image-keyboard-response","301","473418","0.0-6.0-1.147","LAJU","2","f","rechts","24","","","object","j","0","true"
"null","<div style=""font-size:60px;"">+</div>","null","html-keyboard-response","302","473819","0.0-6.0-0.148","LAJU","2","f","rechts","24","","fixation","","","",""
"1078","img/0_90.png","74","image-keyboard-response","303","474898","0.0-6.0-1.148","LAJU","2","f","rechts","24","","","object","j","0","true"
"null","<div style=""font-size:60px;"">+</div>","null","html-keyboard-response","304","475300","0.0-6.0-0.149","LAJU","2","f","rechts","24","","fixation","","","",""
"683","img/0_330.png","70","image-keyboard-response","305","475984","0.0-6.0-1.149","LAJU","2","f","rechts","24","","","object","f","0","true"
"null","<div style=""font-size:60px;"">+</div>","null","html-keyboard-response","306","476336","0.0-6.0-0.150","LAJU","2","f","rechts","24","","fixation","","","",""
"2219","img/90_150.png","74","image-keyboard-response","307","478556","0.0-6.0-1.150","LAJU","2","f","rechts","24","","","object","j","90","true"
"null","<div style=""font-size:60px;"">+</div>","null","html-keyboard-response","308","479057","0.0-6.0-0.151","LAJU","2","f","rechts","24","","fixation","","","",""
"1818","img/150_300.png","74","image-keyboard-response","309","480876","0.0-6.0-1.151","LAJU","2","f","rechts","24","","","object","j","150","true"
"null","<div style=""font-size:60px;"">+</div>","null","html-keyboard-response","310","481328","0.0-6.0-0.152","LAJU","2","f","rechts","24","","fixation","","","",""
"1115","img/0_300.png","70","image-keyboard-response","311","482444","0.0-6.0-1.152","LAJU","2","f","rechts","24","","","object","f","0","true"
"null","<div style=""font-size:60px;"">+</div>","null","html-keyboard-response","312","482896","0.0-6.0-0.153","LAJU","2","f","rechts","24","","fixation","","","",""
"1402","img/60_150.png","74","image-keyboard-response","313","484299","0.0-6.0-1.153","LAJU","2","f","rechts","24","","","object","j","60","true"
"null","<div style=""font-size:60px;"">+</div>","null","html-keyboard-response","314","484701","0.0-6.0-0.154","LAJU","2","f","rechts","24","","fixation","","","",""
"1275","img/90_30.png","70","image-keyboard-response","315","485976","0.0-6.0-1.154","LAJU","2","f","rechts","24","","","object","f","90","true"
"null","<div style=""font-size:60px;"">+</div>","null","html-keyboard-response","316","486328","0.0-6.0-0.155","LAJU","2","f","rechts","24","","fixation","","","",""
"1953","img/150_90.png","70","image-keyboard-response","317","488281","0.0-6.0-1.155","LAJU","2","f","rechts","24","","","object","f","150","true"
"null","<div style=""font-size:60px;"">+</div>","null","html-keyboard-response","318","488583","0.0-6.0-0.156","LAJU","2","f","rechts","24","","fixation","","","",""
"1100","img/120_90.png","70","image-keyboard-response","319","489684","0.0-6.0-1.156","LAJU","2","f","rechts","24","","","object","f","120","true"
"null","<div style=""font-size:60px;"">+</div>","null","html-keyboard-response","320","490036","0.0-6.0-0.157","LAJU","2","f","rechts","24","","fixation","","","",""
"644","img/0_30.png","74","image-keyboard-response","321","490681","0.0-6.0-1.157","LAJU","2","f","rechts","24","","","object","j","0","true"
"null","<div style=""font-size:60px;"">+</div>","null","html-keyboard-response","322","490983","0.0-6.0-0.158","LAJU","2","f","rechts","24","","fixation","","","",""
"782","img/0_210.png","70","image-keyboard-response","323","491765","0.0-6.0-1.158","LAJU","2","f","rechts","24","","","object","f","0","true"
"null","<div style=""font-size:60px;"">+</div>","null","html-keyboard-response","324","492167","0.0-6.0-0.159","LAJU","2","f","rechts","24","","fixation","","","",""
"1318","img/60_90.png","74","image-keyboard-response","325","493485","0.0-6.0-1.159","LAJU","2","f","rechts","24","","","object","j","60","true"
"null","<div style=""font-size:60px;"">+</div>","null","html-keyboard-response","326","493837","0.0-6.0-0.160","LAJU","2","f","rechts","24","","fixation","","","",""
"1072","img/90_300.png","74","image-keyboard-response","327","494910","0.0-6.0-1.160","LAJU","2","f","rechts","24","","","object","j","90","true"
"null","<div style=""font-size:60px;"">+</div>","null","html-keyboard-response","328","495362","0.0-6.0-0.161","LAJU","2","f","rechts","24","","fixation","","","",""
"778","img/0_330.png","70","image-keyboard-response","329","496141","0.0-6.0-1.161","LAJU","2","f","rechts","24","","","object","f","0","true"
"null","<div style=""font-size:60px;"">+</div>","null","html-keyboard-response","330","496493","0.0-6.0-0.162","LAJU","2","f","rechts","24","","fixation","","","",""
"883","img/120_330.png","74","image-keyboard-response","331","497377","0.0-6.0-1.162","LAJU","2","f","rechts","24","","","object","j","120","true"
"null","<div style=""font-size:60px;"">+</div>","null","html-keyboard-response","332","497679","0.0-6.0-0.163","LAJU","2","f","rechts","24","","fixation","","","",""
"2071","img/30_300.png","70","image-keyboard-response","333","499751","0.0-6.0-1.163","LAJU","2","f","rechts","24","","","object","f","30","true"
"null","<div style=""font-size:60px;"">+</div>","null","html-keyboard-response","334","500202","0.0-6.0-0.164","LAJU","2","f","rechts","24","","fixation","","","",""
"1312","img/L120_180.png","74","image-keyboard-response","335","501515","0.0-6.0-1.164","LAJU","2","f","rechts","24","","","object","j","120","true"
"null","<div style=""font-size:60px;"">+</div>","null","html-keyboard-response","336","501867","0.0-6.0-0.165","LAJU","2","f","rechts","24","","fixation","","","",""
"2629","img/120_150.png","74","image-keyboard-response","337","504496","0.0-6.0-1.165","LAJU","2","f","rechts","24","","","object","j","120","true"
"null","<div style=""font-size:60px;"">+</div>","null","html-keyboard-response","338","504798","0.0-6.0-0.166","LAJU","2","f","rechts","24","","fixation","","","",""
"2019","img/150_120.png","70","image-keyboard-response","339","506817","0.0-6.0-1.166","LAJU","2","f","rechts","24","","","object","f","150","true"
"null","<div style=""font-size:60px;"">+</div>","null","html-keyboard-response","340","507219","0.0-6.0-0.167","LAJU","2","f","rechts","24","","fixation","","","",""
"null","img/60_210.png","null","image-keyboard-response","341","510221","0.0-6.0-1.167","LAJU","2","f","rechts","24","","","object","f","60","false"
"null","<div style=""font-size:60px;"">+</div>","null","html-keyboard-response","342","510673","0.0-6.0-0.168","LAJU","2","f","rechts","24","","fixation","","","",""
"2414","img/120_180.png","74","image-keyboard-response","343","513088","0.0-6.0-1.168","LAJU","2","f","rechts","24","","","object","f","120","false"
"null","<div style=""font-size:60px;"">+</div>","null","html-keyboard-response","344","513539","0.0-6.0-0.169","LAJU","2","f","rechts","24","","fixation","","","",""
"2043","img/120_270.png","70","image-keyboard-response","345","515583","0.0-6.0-1.169","LAJU","2","f","rechts","24","","","object","j","120","false"
"null","<div style=""font-size:60px;"">+</div>","null","html-keyboard-response","346","515984","0.0-6.0-0.170","LAJU","2","f","rechts","24","","fixation","","","",""
"937","img/0_300.png","70","image-keyboard-response","347","516922","0.0-6.0-1.170","LAJU","2","f","rechts","24","","","object","f","0","true"
"null","<div style=""font-size:60px;"">+</div>","null","html-keyboard-response","348","517374","0.0-6.0-0.171","LAJU","2","f","rechts","24","","fixation","","","",""
"712","img/0_60.png","74","image-keyboard-response","349","518086","0.0-6.0-1.171","LAJU","2","f","rechts","24","","","object","j","0","true"
"null","<div style=""font-size:60px;"">+</div>","null","html-keyboard-response","350","518587","0.0-6.0-0.172","LAJU","2","f","rechts","24","","fixation","","","",""
"1742","img/90_30.png","70","image-keyboard-response","351","520331","0.0-6.0-1.172","LAJU","2","f","rechts","24","","","object","f","90","true"
"null","<div style=""font-size:60px;"">+</div>","null","html-keyboard-response","352","520682","0.0-6.0-0.173","LAJU","2","f","rechts","24","","fixation","","","",""
"2729","img/L150_180.png","70","image-keyboard-response","353","523412","0.0-6.0-1.173","LAJU","2","f","rechts","24","","","object","j","150","false"
"null","<div style=""font-size:60px;"">+</div>","null","html-keyboard-response","354","523763","0.0-6.0-0.174","LAJU","2","f","rechts","24","","fixation","","","",""
"1652","img/150_270.png","74","image-keyboard-response","355","525417","0.0-6.0-1.174","LAJU","2","f","rechts","24","","","object","j","150","true"
"null","<div style=""font-size:60px;"">+</div>","null","html-keyboard-response","356","525768","0.0-6.0-0.175","LAJU","2","f","rechts","24","","fixation","","","",""
"2325","img/150_180.png","74","image-keyboard-response","357","528095","0.0-6.0-1.175","LAJU","2","f","rechts","24","","","object","f","150","false"
"null","<div style=""font-size:60px;"">+</div>","null","html-keyboard-response","358","528546","0.0-6.0-0.176","LAJU","2","f","rechts","24","","fixation","","","",""
"1681","img/60_180.png","70","image-keyboard-response","359","530228","0.0-6.0-1.176","LAJU","2","f","rechts","24","","","object","f","60","true"
"null","<div style=""font-size:60px;"">+</div>","null","html-keyboard-response","360","530630","0.0-6.0-0.177","LAJU","2","f","rechts","24","","fixation","","","",""
"2991","img/90_60.png","70","image-keyboard-response","361","533622","0.0-6.0-1.177","LAJU","2","f","rechts","24","","","object","f","90","true"
"null","<div style=""font-size:60px;"">+</div>","null","html-keyboard-response","362","534074","0.0-6.0-0.178","LAJU","2","f","rechts","24","","fixation","","","",""
"1872","img/L60_180.png","74","image-keyboard-response","363","535947","0.0-6.0-1.178","LAJU","2","f","rechts","24","","","object","j","60","true"
"null","<div style=""font-size:60px;"">+</div>","null","html-keyboard-response","364","536399","0.0-6.0-0.179","LAJU","2","f","rechts","24","","fixation","","","",""
"2775","img/120_30.png","74","image-keyboard-response","365","539175","0.0-6.0-1.179","LAJU","2","f","rechts","24","","","object","f","120","false"
"null","<div style=""font-size:60px;"">+</div>","null","html-keyboard-response","366","539477","0.0-6.0-0.180","LAJU","2","f","rechts","24","","fixation","","","",""
"2695","img/150_60.png","70","image-keyboard-response","367","542173","0.0-6.0-1.180","LAJU","2","f","rechts","24","","","object","f","150","true"
"null","<div style=""font-size:60px;"">+</div>","null","html-keyboard-response","368","542575","0.0-6.0-0.181","LAJU","2","f","rechts","24","","fixation","","","",""
"2205","img/150_90.png","74","image-keyboard-response","369","544782","0.0-6.0-1.181","LAJU","2","f","rechts","24","","","object","f","150","false"
"null","<div style=""font-size:60px;"">+</div>","null","html-keyboard-response","370","545233","0.0-6.0-0.182","LAJU","2","f","rechts","24","","fixation","","","",""
"813","img/0_120.png","74","image-keyboard-response","371","546047","0.0-6.0-1.182","LAJU","2","f","rechts","24","","","object","j","0","true"
"null","<div style=""font-size:60px;"">+</div>","null","html-keyboard-response","372","546499","0.0-6.0-0.183","LAJU","2","f","rechts","24","","fixation","","","",""
"1941","img/60_30.png","70","image-keyboard-response","373","548441","0.0-6.0-1.183","LAJU","2","f","rechts","24","","","object","f","60","true"
"null","<div style=""font-size:60px;"">+</div>","null","html-keyboard-response","374","548893","0.0-6.0-0.184","LAJU","2","f","rechts","24","","fixation","","","",""
"1688","img/0_240.png","74","image-keyboard-response","375","550582","0.0-6.0-1.184","LAJU","2","f","rechts","24","","","object","f","0","false"
"null","<div style=""font-size:60px;"">+</div>","null","html-keyboard-response","376","551034","0.0-6.0-0.185","LAJU","2","f","rechts","24","","fixation","","","",""
"null","img/150_240.png","null","image-keyboard-response","377","554036","0.0-6.0-1.185","LAJU","2","f","rechts","24","","","object","j","150","false"
"null","<div style=""font-size:60px;"">+</div>","null","html-keyboard-response","378","554438","0.0-6.0-0.186","LAJU","2","f","rechts","24","","fixation","","","",""
"1532","img/90_330.png","74","image-keyboard-response","379","555970","0.0-6.0-1.186","LAJU","2","f","rechts","24","","","object","j","90","true"
"null","<div style=""font-size:60px;"">+</div>","null","html-keyboard-response","380","556472","0.0-6.0-0.187","LAJU","2","f","rechts","24","","fixation","","","",""
"2130","img/L90_180.png","74","image-keyboard-response","381","558602","0.0-6.0-1.187","LAJU","2","f","rechts","24","","","object","j","90","true"
"null","<div style=""font-size:60px;"">+</div>","null","html-keyboard-response","382","558904","0.0-6.0-0.188","LAJU","2","f","rechts","24","","fixation","","","",""
"2197","img/90_240.png","70","image-keyboard-response","383","561102","0.0-6.0-1.188","LAJU","2","f","rechts","24","","","object","f","90","true"
"null","<div style=""font-size:60px;"">+</div>","null","html-keyboard-response","384","561604","0.0-6.0-0.189","LAJU","2","f","rechts","24","","fixation","","","",""
"null","img/90_180.png","null","image-keyboard-response","385","564606","0.0-6.0-1.189","LAJU","2","f","rechts","24","","","object","f","90","false"
"null","<div style=""font-size:60px;"">+</div>","null","html-keyboard-response","386","565108","0.0-6.0-0.190","LAJU","2","f","rechts","24","","fixation","","","",""
"184","img/30_60.png","74","image-keyboard-response","387","565292","0.0-6.0-1.190","LAJU","2","f","rechts","24","","","object","j","30","true"
"null","<div style=""font-size:60px;"">+</div>","null","html-keyboard-response","388","565594","0.0-6.0-0.191","LAJU","2","f","rechts","24","","fixation","","","",""
"2139","img/30_180.png","70","image-keyboard-response","389","567733","0.0-6.0-1.191","LAJU","2","f","rechts","24","","","object","f","30","true"
"null","<div style=""font-size:60px;"">+</div>","null","html-keyboard-response","390","568235","0.0-6.0-0.192","LAJU","2","f","rechts","24","","fixation","","","",""
"1504","img/60_330.png","74","image-keyboard-response","391","569740","0.0-6.0-1.192","LAJU","2","f","rechts","24","","","object","j","60","true"
"null","<div style=""font-size:60px;"">+</div>","null","html-keyboard-response","392","570192","0.0-6.0-0.193","LAJU","2","f","rechts","24","","fixation","","","",""
"2189","img/30_270.png","70","image-keyboard-response","393","572382","0.0-6.0-1.193","LAJU","2","f","rechts","24","","","object","f","30","true"
"null","<div style=""font-size:60px;"">+</div>","null","html-keyboard-response","394","572884","0.0-6.0-0.194","LAJU","2","f","rechts","24","","fixation","","","",""
"2643","img/90_210.png","74","image-keyboard-response","395","575528","0.0-6.0-1.194","LAJU","2","f","rechts","24","","","object","f","90","false"
"null","<div style=""font-size:60px;"">+</div>","null","html-keyboard-response","396","576030","0.0-6.0-0.195","LAJU","2","f","rechts","24","","fixation","","","",""
"1663","img/30_90.png","74","image-keyboard-response","397","577693","0.0-6.0-1.195","LAJU","2","f","rechts","24","","","object","j","30","true"
"null","<div style=""font-size:60px;"">+</div>","null","html-keyboard-response","398","578095","0.0-6.0-0.196","LAJU","2","f","rechts","24","","fixation","","","",""
"1078","img/30_120.png","74","image-keyboard-response","399","579173","0.0-6.0-1.196","LAJU","2","f","rechts","24","","","object","j","30","true"
"null","<div style=""font-size:60px;"">+</div>","null","html-keyboard-response","400","579674","0.0-6.0-0.197","LAJU","2","f","rechts","24","","fixation","","","",""
"1310","img/60_150.png","74","image-keyboard-response","401","580985","0.0-6.0-1.197","LAJU","2","f","rechts","24","","","object","j","60","true"
"null","<div style=""font-size:60px;"">+</div>","null","html-keyboard-response","402","581487","0.0-6.0-0.198","LAJU","2","f","rechts","24","","fixation","","","",""
"1103","img/0_270.png","70","image-keyboard-response","403","582590","0.0-6.0-1.198","LAJU","2","f","rechts","24","","","object","f","0","true"
"null","<div style=""font-size:60px;"">+</div>","null","html-keyboard-response","404","582942","0.0-6.0-0.199","LAJU","2","f","rechts","24","","fixation","","","",""
"2209","img/60_270.png","70","image-keyboard-response","405","585151","0.0-6.0-1.199","LAJU","2","f","rechts","24","","","object","f","60","true"
"null","<div style=""font-size:60px;"">+</div>","null","html-keyboard-response","406","585452","0.0-6.0-0.200","LAJU","2","f","rechts","24","","fixation","","","",""
"1418","img/90_150.png","74","image-keyboard-response","407","586872","0.0-6.0-1.200","LAJU","2","f","rechts","24","","","object","j","90","true"
"null","<div style=""font-size:60px;"">+</div>","null","html-keyboard-response","408","587322","0.0-6.0-0.201","LAJU","2","f","rechts","24","","fixation","","","",""
"740","img/90_120.png","74","image-keyboard-response","409","588064","0.0-6.0-1.201","LAJU","2","f","rechts","24","","","object","j","90","true"
"null","<div style=""font-size:60px;"">+</div>","null","html-keyboard-response","410","588415","0.0-6.0-0.202","LAJU","2","f","rechts","24","","fixation","","","",""
"1197","img/0_150.png","74","image-keyboard-response","411","589613","0.0-6.0-1.202","LAJU","2","f","rechts","24","","","object","j","0","true"
"null","<div style=""font-size:60px;"">+</div>","null","html-keyboard-response","412","589915","0.0-6.0-0.203","LAJU","2","f","rechts","24","","fixation","","","",""
"935","img/30_240.png","70","image-keyboard-response","413","590852","0.0-6.0-1.203","LAJU","2","f","rechts","24","","","object","f","30","true"
"null","<div style=""font-size:60px;"">+</div>","null","html-keyboard-response","414","591303","0.0-6.0-0.204","LAJU","2","f","rechts","24","","fixation","","","",""
"1492","img/150_300.png","74","image-keyboard-response","415","592797","0.0-6.0-1.204","LAJU","2","f","rechts","24","","","object","j","150","true"
"null","<div style=""font-size:60px;"">+</div>","null","html-keyboard-response","416","593098","0.0-6.0-0.205","LAJU","2","f","rechts","24","","fixation","","","",""
"null","img/L30_180.png","null","image-keyboard-response","417","596101","0.0-6.0-1.205","LAJU","2","f","rechts","24","","","object","j","30","false"
"null","<div style=""font-size:60px;"">+</div>","null","html-keyboard-response","418","596402","0.0-6.0-0.206","LAJU","2","f","rechts","24","","fixation","","","",""
"1799","img/120_210.png","74","image-keyboard-response","419","598203","0.0-6.0-1.206","LAJU","2","f","rechts","24","","","object","f","120","false"
"null","<div style=""font-size:60px;"">+</div>","null","html-keyboard-response","420","598654","0.0-6.0-0.207","LAJU","2","f","rechts","24","","fixation","","","",""
"950","img/0_90.png","74","image-keyboard-response","421","599605","0.0-6.0-1.207","LAJU","2","f","rechts","24","","","object","j","0","true"
"27392","<p>Du hast in 76% der Versuche korrekt entschieden.</p><p>Deine durchschnittliche Reaktionszeit war  1550ms.</p><p>Dr&uuml;cke eine beliebige Taste, um die Session zu beenden. Vielen Dank!</p>","76","html-keyboard-response","422","627000","0.0-7.0","LAJU","2","f","rechts","24","","","","","",""
