"rt","stimulus","key_press","trial_type","trial_index","time_elapsed","internal_node_id","subject","session","sex","handedness","age","responses","test_part","condition","correct_response","angle","correct"
"6391","<p>Mental Rotation Experiment.</p> <p>Dr&uuml;cke eine beliebige Taste, um anzufangen.</p>","76","html-keyboard-response","0","6391","0.0-0.0","LAJU","4","f","rechts","24","","","","","",""
"2880","","","survey-text","1","9272","0.0-1.0","LAJU","4","f","rechts","24","{""Q0"":""LAJU""}","","","","",""
"1698","","","survey-text","2","10971","0.0-2.0","LAJU","4","f","rechts","24","{""Q0"":""4""}","","","","",""
"3281","","","survey-multi-choice","3","14254","0.0-3.0","LAJU","4","f","rechts","24","{""Q0"":""f"",""Q1"":""rechts""}","","","","",""
"2461","","","survey-text","4","16716","0.0-4.0","LAJU","4","f","rechts","24","{""Q0"":""24""}","","","","",""
"50912","<p>Stell dir vor, dass du vor einem runden Tisch stehst, auf dem sich ein blauer Ball am Tischrand befindet. Entlang des Tischrands ist jeweils ein verschieden langer Pfeil. Nun bleibst du an deinem Platz vor dem Tisch und rotierst den Tisch entlang des Pfeils (gleiche Richtung und Länge). </p> <img src='img/30_180.png'></img> <br><p> Nachdem du diese (vorgestellte) Rotation durchgef&uuml;hrt hast, schau in Richtung der Tischmitte, und entscheide dann, ob der Ball links oder rechts von dir liegt.</p> <p>Dr&uuml;cke die <strong>'f'</strong>-Taste f&uuml;r links, die <strong>'j'</strong>-Taste f&uuml;r rechts.</p><br><p> Das Bild wird jeweils 1 Sekunde lang pr&auml;sentiert. Du hast 3 Sekunden Zeit eine Entscheidung zu treffen.</p>","70","html-keyboard-response","5","67629","0.0-5.0","LAJU","4","f","rechts","24","","","","","",""
"null","<div style=""font-size:60px;"">+</div>","null","html-keyboard-response","6","69132","0.0-6.0-0.0","LAJU","4","f","rechts","24","","fixation","","","",""
"1593","img/120_210.png","74","image-keyboard-response","7","70726","0.0-6.0-1.0","LAJU","4","f","rechts","24","","","object","f","120","false"
"null","<div style=""font-size:60px;"">+</div>","null","html-keyboard-response","8","71078","0.0-6.0-0.1","LAJU","4","f","rechts","24","","fixation","","","",""
"723","img/0_150.png","74","image-keyboard-response","9","71802","0.0-6.0-1.1","LAJU","4","f","rechts","24","","","object","j","0","true"
"null","<div style=""font-size:60px;"">+</div>","null","html-keyboard-response","10","72304","0.0-6.0-0.2","LAJU","4","f","rechts","24","","fixation","","","",""
"606","img/0_120.png","74","image-keyboard-response","11","72910","0.0-6.0-1.2","LAJU","4","f","rechts","24","","","object","j","0","true"
"null","<div style=""font-size:60px;"">+</div>","null","html-keyboard-response","12","73362","0.0-6.0-0.3","LAJU","4","f","rechts","24","","fixation","","","",""
"1889","img/L90_180.png","70","image-keyboard-response","13","75253","0.0-6.0-1.3","LAJU","4","f","rechts","24","","","object","j","90","false"
"null","<div style=""font-size:60px;"">+</div>","null","html-keyboard-response","14","75654","0.0-6.0-0.4","LAJU","4","f","rechts","24","","fixation","","","",""
"831","img/0_30.png","74","image-keyboard-response","15","76487","0.0-6.0-1.4","LAJU","4","f","rechts","24","","","object","j","0","true"
"null","<div style=""font-size:60px;"">+</div>","null","html-keyboard-response","16","76888","0.0-6.0-0.5","LAJU","4","f","rechts","24","","fixation","","","",""
"1298","img/L30_180.png","74","image-keyboard-response","17","78188","0.0-6.0-1.5","LAJU","4","f","rechts","24","","","object","j","30","true"
"null","<div style=""font-size:60px;"">+</div>","null","html-keyboard-response","18","78540","0.0-6.0-0.6","LAJU","4","f","rechts","24","","fixation","","","",""
"1570","img/90_180.png","74","image-keyboard-response","19","80112","0.0-6.0-1.6","LAJU","4","f","rechts","24","","","object","f","90","false"
"null","<div style=""font-size:60px;"">+</div>","null","html-keyboard-response","20","80613","0.0-6.0-0.7","LAJU","4","f","rechts","24","","fixation","","","",""
"1201","img/60_210.png","70","image-keyboard-response","21","81816","0.0-6.0-1.7","LAJU","4","f","rechts","24","","","object","f","60","true"
"null","<div style=""font-size:60px;"">+</div>","null","html-keyboard-response","22","82167","0.0-6.0-0.8","LAJU","4","f","rechts","24","","fixation","","","",""
"735","img/0_330.png","70","image-keyboard-response","23","82904","0.0-6.0-1.8","LAJU","4","f","rechts","24","","","object","f","0","true"
"null","<div style=""font-size:60px;"">+</div>","null","html-keyboard-response","24","83255","0.0-6.0-0.9","LAJU","4","f","rechts","24","","fixation","","","",""
"2109","img/30_60.png","74","image-keyboard-response","25","85365","0.0-6.0-1.9","LAJU","4","f","rechts","24","","","object","j","30","true"
"null","<div style=""font-size:60px;"">+</div>","null","html-keyboard-response","26","85867","0.0-6.0-0.10","LAJU","4","f","rechts","24","","fixation","","","",""
"1762","img/60_270.png","74","image-keyboard-response","27","87630","0.0-6.0-1.10","LAJU","4","f","rechts","24","","","object","f","60","false"
"null","<div style=""font-size:60px;"">+</div>","null","html-keyboard-response","28","87982","0.0-6.0-0.11","LAJU","4","f","rechts","24","","fixation","","","",""
"1539","img/L60_180.png","70","image-keyboard-response","29","89522","0.0-6.0-1.11","LAJU","4","f","rechts","24","","","object","j","60","false"
"null","<div style=""font-size:60px;"">+</div>","null","html-keyboard-response","30","90024","0.0-6.0-0.12","LAJU","4","f","rechts","24","","fixation","","","",""
"2384","img/90_150.png","70","image-keyboard-response","31","92409","0.0-6.0-1.12","LAJU","4","f","rechts","24","","","object","j","90","false"
"null","<div style=""font-size:60px;"">+</div>","null","html-keyboard-response","32","92711","0.0-6.0-0.13","LAJU","4","f","rechts","24","","fixation","","","",""
"813","img/0_240.png","70","image-keyboard-response","33","93525","0.0-6.0-1.13","LAJU","4","f","rechts","24","","","object","f","0","true"
"null","<div style=""font-size:60px;"">+</div>","null","html-keyboard-response","34","93977","0.0-6.0-0.14","LAJU","4","f","rechts","24","","fixation","","","",""
"1388","img/0_90.png","74","image-keyboard-response","35","95366","0.0-6.0-1.14","LAJU","4","f","rechts","24","","","object","j","0","true"
"null","<div style=""font-size:60px;"">+</div>","null","html-keyboard-response","36","95718","0.0-6.0-0.15","LAJU","4","f","rechts","24","","fixation","","","",""
"1431","img/120_330.png","74","image-keyboard-response","37","97150","0.0-6.0-1.15","LAJU","4","f","rechts","24","","","object","j","120","true"
"null","<div style=""font-size:60px;"">+</div>","null","html-keyboard-response","38","97602","0.0-6.0-0.16","LAJU","4","f","rechts","24","","fixation","","","",""
"1676","img/120_30.png","70","image-keyboard-response","39","99279","0.0-6.0-1.16","LAJU","4","f","rechts","24","","","object","f","120","true"
"null","<div style=""font-size:60px;"">+</div>","null","html-keyboard-response","40","99781","0.0-6.0-0.17","LAJU","4","f","rechts","24","","fixation","","","",""
"1251","img/150_90.png","70","image-keyboard-response","41","101033","0.0-6.0-1.17","LAJU","4","f","rechts","24","","","object","f","150","true"
"null","<div style=""font-size:60px;"">+</div>","null","html-keyboard-response","42","101335","0.0-6.0-0.18","LAJU","4","f","rechts","24","","fixation","","","",""
"2075","img/L150_180.png","74","image-keyboard-response","43","103411","0.0-6.0-1.18","LAJU","4","f","rechts","24","","","object","j","150","true"
"null","<div style=""font-size:60px;"">+</div>","null","html-keyboard-response","44","103813","0.0-6.0-0.19","LAJU","4","f","rechts","24","","fixation","","","",""
"2031","img/30_300.png","74","image-keyboard-response","45","105845","0.0-6.0-1.19","LAJU","4","f","rechts","24","","","object","f","30","false"
"null","<div style=""font-size:60px;"">+</div>","null","html-keyboard-response","46","106147","0.0-6.0-0.20","LAJU","4","f","rechts","24","","fixation","","","",""
"1272","img/150_300.png","74","image-keyboard-response","47","107419","0.0-6.0-1.20","LAJU","4","f","rechts","24","","","object","j","150","true"
"null","<div style=""font-size:60px;"">+</div>","null","html-keyboard-response","48","107721","0.0-6.0-0.21","LAJU","4","f","rechts","24","","fixation","","","",""
"1574","img/120_90.png","70","image-keyboard-response","49","109296","0.0-6.0-1.21","LAJU","4","f","rechts","24","","","object","f","120","true"
"null","<div style=""font-size:60px;"">+</div>","null","html-keyboard-response","50","109648","0.0-6.0-0.22","LAJU","4","f","rechts","24","","fixation","","","",""
"1261","img/90_60.png","70","image-keyboard-response","51","110909","0.0-6.0-1.22","LAJU","4","f","rechts","24","","","object","f","90","true"
"null","<div style=""font-size:60px;"">+</div>","null","html-keyboard-response","52","111211","0.0-6.0-0.23","LAJU","4","f","rechts","24","","fixation","","","",""
"1529","img/120_270.png","74","image-keyboard-response","53","112740","0.0-6.0-1.23","LAJU","4","f","rechts","24","","","object","j","120","true"
"null","<div style=""font-size:60px;"">+</div>","null","html-keyboard-response","54","113041","0.0-6.0-0.24","LAJU","4","f","rechts","24","","fixation","","","",""
"2062","img/60_180.png","70","image-keyboard-response","55","115104","0.0-6.0-1.24","LAJU","4","f","rechts","24","","","object","f","60","true"
"null","<div style=""font-size:60px;"">+</div>","null","html-keyboard-response","56","115505","0.0-6.0-0.25","LAJU","4","f","rechts","24","","fixation","","","",""
"986","img/150_270.png","74","image-keyboard-response","57","116492","0.0-6.0-1.25","LAJU","4","f","rechts","24","","","object","j","150","true"
"null","<div style=""font-size:60px;"">+</div>","null","html-keyboard-response","58","116794","0.0-6.0-0.26","LAJU","4","f","rechts","24","","fixation","","","",""
"2412","img/120_180.png","70","image-keyboard-response","59","119207","0.0-6.0-1.26","LAJU","4","f","rechts","24","","","object","f","120","true"
"null","<div style=""font-size:60px;"">+</div>","null","html-keyboard-response","60","119558","0.0-6.0-0.27","LAJU","4","f","rechts","24","","fixation","","","",""
"886","img/90_240.png","70","image-keyboard-response","61","120445","0.0-6.0-1.27","LAJU","4","f","rechts","24","","","object","f","90","true"
"null","<div style=""font-size:60px;"">+</div>","null","html-keyboard-response","62","120847","0.0-6.0-0.28","LAJU","4","f","rechts","24","","fixation","","","",""
"910","img/30_240.png","70","image-keyboard-response","63","121758","0.0-6.0-1.28","LAJU","4","f","rechts","24","","","object","f","30","true"
"null","<div style=""font-size:60px;"">+</div>","null","html-keyboard-response","64","122259","0.0-6.0-0.29","LAJU","4","f","rechts","24","","fixation","","","",""
"915","img/90_330.png","74","image-keyboard-response","65","123175","0.0-6.0-1.29","LAJU","4","f","rechts","24","","","object","j","90","true"
"null","<div style=""font-size:60px;"">+</div>","null","html-keyboard-response","66","123526","0.0-6.0-0.30","LAJU","4","f","rechts","24","","fixation","","","",""
"1981","img/90_30.png","70","image-keyboard-response","67","125508","0.0-6.0-1.30","LAJU","4","f","rechts","24","","","object","f","90","true"
"null","<div style=""font-size:60px;"">+</div>","null","html-keyboard-response","68","125860","0.0-6.0-0.31","LAJU","4","f","rechts","24","","fixation","","","",""
"1179","img/30_120.png","74","image-keyboard-response","69","127040","0.0-6.0-1.31","LAJU","4","f","rechts","24","","","object","j","30","true"
"null","<div style=""font-size:60px;"">+</div>","null","html-keyboard-response","70","127392","0.0-6.0-0.32","LAJU","4","f","rechts","24","","fixation","","","",""
"1791","img/90_210.png","74","image-keyboard-response","71","129184","0.0-6.0-1.32","LAJU","4","f","rechts","24","","","object","f","90","false"
"null","<div style=""font-size:60px;"">+</div>","null","html-keyboard-response","72","129485","0.0-6.0-0.33","LAJU","4","f","rechts","24","","fixation","","","",""
"937","img/0_300.png","70","image-keyboard-response","73","130423","0.0-6.0-1.33","LAJU","4","f","rechts","24","","","object","f","0","true"
"null","<div style=""font-size:60px;"">+</div>","null","html-keyboard-response","74","130724","0.0-6.0-0.34","LAJU","4","f","rechts","24","","fixation","","","",""
"2285","img/30_180.png","70","image-keyboard-response","75","133011","0.0-6.0-1.34","LAJU","4","f","rechts","24","","","object","f","30","true"
"null","<div style=""font-size:60px;"">+</div>","null","html-keyboard-response","76","133361","0.0-6.0-0.35","LAJU","4","f","rechts","24","","fixation","","","",""
"1542","img/150_60.png","70","image-keyboard-response","77","134906","0.0-6.0-1.35","LAJU","4","f","rechts","24","","","object","f","150","true"
"null","<div style=""font-size:60px;"">+</div>","null","html-keyboard-response","78","135357","0.0-6.0-0.36","LAJU","4","f","rechts","24","","fixation","","","",""
"2090","img/90_120.png","74","image-keyboard-response","79","137448","0.0-6.0-1.36","LAJU","4","f","rechts","24","","","object","j","90","true"
"null","<div style=""font-size:60px;"">+</div>","null","html-keyboard-response","80","137850","0.0-6.0-0.37","LAJU","4","f","rechts","24","","fixation","","","",""
"1342","img/60_150.png","74","image-keyboard-response","81","139193","0.0-6.0-1.37","LAJU","4","f","rechts","24","","","object","j","60","true"
"null","<div style=""font-size:60px;"">+</div>","null","html-keyboard-response","82","139695","0.0-6.0-0.38","LAJU","4","f","rechts","24","","fixation","","","",""
"947","img/60_330.png","74","image-keyboard-response","83","140643","0.0-6.0-1.38","LAJU","4","f","rechts","24","","","object","j","60","true"
"null","<div style=""font-size:60px;"">+</div>","null","html-keyboard-response","84","141145","0.0-6.0-0.39","LAJU","4","f","rechts","24","","fixation","","","",""
"1834","img/30_90.png","74","image-keyboard-response","85","142980","0.0-6.0-1.39","LAJU","4","f","rechts","24","","","object","j","30","true"
"null","<div style=""font-size:60px;"">+</div>","null","html-keyboard-response","86","143432","0.0-6.0-0.40","LAJU","4","f","rechts","24","","fixation","","","",""
"1615","img/150_120.png","70","image-keyboard-response","87","145048","0.0-6.0-1.40","LAJU","4","f","rechts","24","","","object","f","150","true"
"null","<div style=""font-size:60px;"">+</div>","null","html-keyboard-response","88","145500","0.0-6.0-0.41","LAJU","4","f","rechts","24","","fixation","","","",""
"1566","img/0_270.png","70","image-keyboard-response","89","147067","0.0-6.0-1.41","LAJU","4","f","rechts","24","","","object","f","0","true"
"null","<div style=""font-size:60px;"">+</div>","null","html-keyboard-response","90","147469","0.0-6.0-0.42","LAJU","4","f","rechts","24","","fixation","","","",""
"595","img/0_60.png","74","image-keyboard-response","91","148065","0.0-6.0-1.42","LAJU","4","f","rechts","24","","","object","j","0","true"
"null","<div style=""font-size:60px;"">+</div>","null","html-keyboard-response","92","148466","0.0-6.0-0.43","LAJU","4","f","rechts","24","","fixation","","","",""
"1249","img/150_240.png","74","image-keyboard-response","93","149716","0.0-6.0-1.43","LAJU","4","f","rechts","24","","","object","j","150","true"
"null","<div style=""font-size:60px;"">+</div>","null","html-keyboard-response","94","150118","0.0-6.0-0.44","LAJU","4","f","rechts","24","","fixation","","","",""
"1778","img/60_30.png","70","image-keyboard-response","95","151897","0.0-6.0-1.44","LAJU","4","f","rechts","24","","","object","f","60","true"
"null","<div style=""font-size:60px;"">+</div>","null","html-keyboard-response","96","152399","0.0-6.0-0.45","LAJU","4","f","rechts","24","","fixation","","","",""
"802","img/90_300.png","74","image-keyboard-response","97","153201","0.0-6.0-1.45","LAJU","4","f","rechts","24","","","object","j","90","true"
"null","<div style=""font-size:60px;"">+</div>","null","html-keyboard-response","98","153603","0.0-6.0-0.46","LAJU","4","f","rechts","24","","fixation","","","",""
"1719","img/150_180.png","74","image-keyboard-response","99","155323","0.0-6.0-1.46","LAJU","4","f","rechts","24","","","object","f","150","false"
"null","<div style=""font-size:60px;"">+</div>","null","html-keyboard-response","100","155725","0.0-6.0-0.47","LAJU","4","f","rechts","24","","fixation","","","",""
"1933","img/L120_180.png","70","image-keyboard-response","101","157659","0.0-6.0-1.47","LAJU","4","f","rechts","24","","","object","j","120","false"
"null","<div style=""font-size:60px;"">+</div>","null","html-keyboard-response","102","158110","0.0-6.0-0.48","LAJU","4","f","rechts","24","","fixation","","","",""
"1423","img/0_210.png","70","image-keyboard-response","103","159534","0.0-6.0-1.48","LAJU","4","f","rechts","24","","","object","f","0","true"
"null","<div style=""font-size:60px;"">+</div>","null","html-keyboard-response","104","160035","0.0-6.0-0.49","LAJU","4","f","rechts","24","","fixation","","","",""
"1725","img/120_150.png","70","image-keyboard-response","105","161761","0.0-6.0-1.49","LAJU","4","f","rechts","24","","","object","j","120","false"
"null","<div style=""font-size:60px;"">+</div>","null","html-keyboard-response","106","162113","0.0-6.0-0.50","LAJU","4","f","rechts","24","","fixation","","","",""
"1394","img/30_270.png","70","image-keyboard-response","107","163507","0.0-6.0-1.50","LAJU","4","f","rechts","24","","","object","f","30","true"
"null","<div style=""font-size:60px;"">+</div>","null","html-keyboard-response","108","163808","0.0-6.0-0.51","LAJU","4","f","rechts","24","","fixation","","","",""
"1828","img/60_90.png","70","image-keyboard-response","109","165637","0.0-6.0-1.51","LAJU","4","f","rechts","24","","","object","j","60","false"
"null","<div style=""font-size:60px;"">+</div>","null","html-keyboard-response","110","166089","0.0-6.0-0.52","LAJU","4","f","rechts","24","","fixation","","","",""
"1939","img/90_150.png","74","image-keyboard-response","111","168028","0.0-6.0-1.52","LAJU","4","f","rechts","24","","","object","j","90","true"
"null","<div style=""font-size:60px;"">+</div>","null","html-keyboard-response","112","168379","0.0-6.0-0.53","LAJU","4","f","rechts","24","","fixation","","","",""
"786","img/0_300.png","70","image-keyboard-response","113","169166","0.0-6.0-1.53","LAJU","4","f","rechts","24","","","object","f","0","true"
"null","<div style=""font-size:60px;"">+</div>","null","html-keyboard-response","114","169468","0.0-6.0-0.54","LAJU","4","f","rechts","24","","fixation","","","",""
"2051","img/L60_180.png","74","image-keyboard-response","115","171519","0.0-6.0-1.54","LAJU","4","f","rechts","24","","","object","j","60","true"
"null","<div style=""font-size:60px;"">+</div>","null","html-keyboard-response","116","171870","0.0-6.0-0.55","LAJU","4","f","rechts","24","","fixation","","","",""
"744","img/0_90.png","74","image-keyboard-response","117","172615","0.0-6.0-1.55","LAJU","4","f","rechts","24","","","object","j","0","true"
"null","<div style=""font-size:60px;"">+</div>","null","html-keyboard-response","118","173066","0.0-6.0-0.56","LAJU","4","f","rechts","24","","fixation","","","",""
"2032","img/90_120.png","74","image-keyboard-response","119","175099","0.0-6.0-1.56","LAJU","4","f","rechts","24","","","object","j","90","true"
"null","<div style=""font-size:60px;"">+</div>","null","html-keyboard-response","120","175501","0.0-6.0-0.57","LAJU","4","f","rechts","24","","fixation","","","",""
"893","img/0_150.png","74","image-keyboard-response","121","176395","0.0-6.0-1.57","LAJU","4","f","rechts","24","","","object","j","0","true"
"null","<div style=""font-size:60px;"">+</div>","null","html-keyboard-response","122","176746","0.0-6.0-0.58","LAJU","4","f","rechts","24","","fixation","","","",""
"807","img/30_120.png","74","image-keyboard-response","123","177555","0.0-6.0-1.58","LAJU","4","f","rechts","24","","","object","j","30","true"
"null","<div style=""font-size:60px;"">+</div>","null","html-keyboard-response","124","178056","0.0-6.0-0.59","LAJU","4","f","rechts","24","","fixation","","","",""
"1173","img/60_30.png","70","image-keyboard-response","125","179230","0.0-6.0-1.59","LAJU","4","f","rechts","24","","","object","f","60","true"
"null","<div style=""font-size:60px;"">+</div>","null","html-keyboard-response","126","179682","0.0-6.0-0.60","LAJU","4","f","rechts","24","","fixation","","","",""
"null","img/L90_180.png","null","image-keyboard-response","127","182684","0.0-6.0-1.60","LAJU","4","f","rechts","24","","","object","j","90","false"
"null","<div style=""font-size:60px;"">+</div>","null","html-keyboard-response","128","183136","0.0-6.0-0.61","LAJU","4","f","rechts","24","","fixation","","","",""
"267","img/0_270.png","74","image-keyboard-response","129","183403","0.0-6.0-1.61","LAJU","4","f","rechts","24","","","object","f","0","false"
"null","<div style=""font-size:60px;"">+</div>","null","html-keyboard-response","130","183755","0.0-6.0-0.62","LAJU","4","f","rechts","24","","fixation","","","",""
"1758","img/120_90.png","70","image-keyboard-response","131","185513","0.0-6.0-1.62","LAJU","4","f","rechts","24","","","object","f","120","true"
"null","<div style=""font-size:60px;"">+</div>","null","html-keyboard-response","132","186014","0.0-6.0-0.63","LAJU","4","f","rechts","24","","fixation","","","",""
"1825","img/30_180.png","74","image-keyboard-response","133","187840","0.0-6.0-1.63","LAJU","4","f","rechts","24","","","object","f","30","false"
"null","<div style=""font-size:60px;"">+</div>","null","html-keyboard-response","134","188141","0.0-6.0-0.64","LAJU","4","f","rechts","24","","fixation","","","",""
"1731","img/L150_180.png","74","image-keyboard-response","135","189873","0.0-6.0-1.64","LAJU","4","f","rechts","24","","","object","j","150","true"
"null","<div style=""font-size:60px;"">+</div>","null","html-keyboard-response","136","190325","0.0-6.0-0.65","LAJU","4","f","rechts","24","","fixation","","","",""
"2621","img/150_300.png","74","image-keyboard-response","137","192946","0.0-6.0-1.65","LAJU","4","f","rechts","24","","","object","j","150","true"
"null","<div style=""font-size:60px;"">+</div>","null","html-keyboard-response","138","193297","0.0-6.0-0.66","LAJU","4","f","rechts","24","","fixation","","","",""
"774","img/30_240.png","74","image-keyboard-response","139","194073","0.0-6.0-1.66","LAJU","4","f","rechts","24","","","object","f","30","false"
"null","<div style=""font-size:60px;"">+</div>","null","html-keyboard-response","140","194524","0.0-6.0-0.67","LAJU","4","f","rechts","24","","fixation","","","",""
"2253","img/90_60.png","70","image-keyboard-response","141","196779","0.0-6.0-1.67","LAJU","4","f","rechts","24","","","object","f","90","true"
"null","<div style=""font-size:60px;"">+</div>","null","html-keyboard-response","142","197230","0.0-6.0-0.68","LAJU","4","f","rechts","24","","fixation","","","",""
"1952","img/30_60.png","74","image-keyboard-response","143","199183","0.0-6.0-1.68","LAJU","4","f","rechts","24","","","object","j","30","true"
"null","<div style=""font-size:60px;"">+</div>","null","html-keyboard-response","144","199684","0.0-6.0-0.69","LAJU","4","f","rechts","24","","fixation","","","",""
"1194","img/30_300.png","74","image-keyboard-response","145","200879","0.0-6.0-1.69","LAJU","4","f","rechts","24","","","object","f","30","false"
"null","<div style=""font-size:60px;"">+</div>","null","html-keyboard-response","146","201181","0.0-6.0-0.70","LAJU","4","f","rechts","24","","fixation","","","",""
"986","img/90_330.png","74","image-keyboard-response","147","202169","0.0-6.0-1.70","LAJU","4","f","rechts","24","","","object","j","90","true"
"null","<div style=""font-size:60px;"">+</div>","null","html-keyboard-response","148","202670","0.0-6.0-0.71","LAJU","4","f","rechts","24","","fixation","","","",""
"1919","img/60_90.png","70","image-keyboard-response","149","204590","0.0-6.0-1.71","LAJU","4","f","rechts","24","","","object","j","60","false"
"null","<div style=""font-size:60px;"">+</div>","null","html-keyboard-response","150","205092","0.0-6.0-0.72","LAJU","4","f","rechts","24","","fixation","","","",""
"1186","img/0_30.png","74","image-keyboard-response","151","206279","0.0-6.0-1.72","LAJU","4","f","rechts","24","","","object","j","0","true"
"null","<div style=""font-size:60px;"">+</div>","null","html-keyboard-response","152","206581","0.0-6.0-0.73","LAJU","4","f","rechts","24","","fixation","","","",""
"1879","img/90_180.png","70","image-keyboard-response","153","208461","0.0-6.0-1.73","LAJU","4","f","rechts","24","","","object","f","90","true"
"null","<div style=""font-size:60px;"">+</div>","null","html-keyboard-response","154","208913","0.0-6.0-0.74","LAJU","4","f","rechts","24","","fixation","","","",""
"1191","img/0_330.png","70","image-keyboard-response","155","210105","0.0-6.0-1.74","LAJU","4","f","rechts","24","","","object","f","0","true"
"null","<div style=""font-size:60px;"">+</div>","null","html-keyboard-response","156","210607","0.0-6.0-0.75","LAJU","4","f","rechts","24","","fixation","","","",""
"1100","img/120_270.png","74","image-keyboard-response","157","211708","0.0-6.0-1.75","LAJU","4","f","rechts","24","","","object","j","120","true"
"null","<div style=""font-size:60px;"">+</div>","null","html-keyboard-response","158","212060","0.0-6.0-0.76","LAJU","4","f","rechts","24","","fixation","","","",""
"1264","img/150_90.png","70","image-keyboard-response","159","213325","0.0-6.0-1.76","LAJU","4","f","rechts","24","","","object","f","150","true"
"null","<div style=""font-size:60px;"">+</div>","null","html-keyboard-response","160","213777","0.0-6.0-0.77","LAJU","4","f","rechts","24","","fixation","","","",""
"1388","img/60_180.png","70","image-keyboard-response","161","215166","0.0-6.0-1.77","LAJU","4","f","rechts","24","","","object","f","60","true"
"null","<div style=""font-size:60px;"">+</div>","null","html-keyboard-response","162","215568","0.0-6.0-0.78","LAJU","4","f","rechts","24","","fixation","","","",""
"809","img/90_240.png","70","image-keyboard-response","163","216377","0.0-6.0-1.78","LAJU","4","f","rechts","24","","","object","f","90","true"
"null","<div style=""font-size:60px;"">+</div>","null","html-keyboard-response","164","216779","0.0-6.0-0.79","LAJU","4","f","rechts","24","","fixation","","","",""
"985","img/30_270.png","70","image-keyboard-response","165","217764","0.0-6.0-1.79","LAJU","4","f","rechts","24","","","object","f","30","true"
"null","<div style=""font-size:60px;"">+</div>","null","html-keyboard-response","166","218165","0.0-6.0-0.80","LAJU","4","f","rechts","24","","fixation","","","",""
"939","img/0_120.png","74","image-keyboard-response","167","219105","0.0-6.0-1.80","LAJU","4","f","rechts","24","","","object","j","0","true"
"null","<div style=""font-size:60px;"">+</div>","null","html-keyboard-response","168","219407","0.0-6.0-0.81","LAJU","4","f","rechts","24","","fixation","","","",""
"1199","img/30_90.png","74","image-keyboard-response","169","220606","0.0-6.0-1.81","LAJU","4","f","rechts","24","","","object","j","30","true"
"null","<div style=""font-size:60px;"">+</div>","null","html-keyboard-response","170","221007","0.0-6.0-0.82","LAJU","4","f","rechts","24","","fixation","","","",""
"1079","img/120_330.png","74","image-keyboard-response","171","222087","0.0-6.0-1.82","LAJU","4","f","rechts","24","","","object","j","120","true"
"null","<div style=""font-size:60px;"">+</div>","null","html-keyboard-response","172","222439","0.0-6.0-0.83","LAJU","4","f","rechts","24","","fixation","","","",""
"796","img/0_210.png","70","image-keyboard-response","173","223236","0.0-6.0-1.83","LAJU","4","f","rechts","24","","","object","f","0","true"
"null","<div style=""font-size:60px;"">+</div>","null","html-keyboard-response","174","223588","0.0-6.0-0.84","LAJU","4","f","rechts","24","","fixation","","","",""
"1943","img/120_180.png","74","image-keyboard-response","175","225531","0.0-6.0-1.84","LAJU","4","f","rechts","24","","","object","f","120","false"
"null","<div style=""font-size:60px;"">+</div>","null","html-keyboard-response","176","225883","0.0-6.0-0.85","LAJU","4","f","rechts","24","","fixation","","","",""
"2108","img/150_60.png","70","image-keyboard-response","177","227991","0.0-6.0-1.85","LAJU","4","f","rechts","24","","","object","f","150","true"
"null","<div style=""font-size:60px;"">+</div>","null","html-keyboard-response","178","228442","0.0-6.0-0.86","LAJU","4","f","rechts","24","","fixation","","","",""
"1430","img/150_240.png","74","image-keyboard-response","179","229873","0.0-6.0-1.86","LAJU","4","f","rechts","24","","","object","j","150","true"
"null","<div style=""font-size:60px;"">+</div>","null","html-keyboard-response","180","230325","0.0-6.0-0.87","LAJU","4","f","rechts","24","","fixation","","","",""
"1540","img/60_330.png","74","image-keyboard-response","181","231865","0.0-6.0-1.87","LAJU","4","f","rechts","24","","","object","j","60","true"
"null","<div style=""font-size:60px;"">+</div>","null","html-keyboard-response","182","232216","0.0-6.0-0.88","LAJU","4","f","rechts","24","","fixation","","","",""
"923","img/90_300.png","74","image-keyboard-response","183","233139","0.0-6.0-1.88","LAJU","4","f","rechts","24","","","object","j","90","true"
"null","<div style=""font-size:60px;"">+</div>","null","html-keyboard-response","184","233441","0.0-6.0-0.89","LAJU","4","f","rechts","24","","fixation","","","",""
"1314","img/120_150.png","70","image-keyboard-response","185","234755","0.0-6.0-1.89","LAJU","4","f","rechts","24","","","object","j","120","false"
"null","<div style=""font-size:60px;"">+</div>","null","html-keyboard-response","186","235107","0.0-6.0-0.90","LAJU","4","f","rechts","24","","fixation","","","",""
"2416","img/60_270.png","70","image-keyboard-response","187","237523","0.0-6.0-1.90","LAJU","4","f","rechts","24","","","object","f","60","true"
"null","<div style=""font-size:60px;"">+</div>","null","html-keyboard-response","188","237924","0.0-6.0-0.91","LAJU","4","f","rechts","24","","fixation","","","",""
"1123","img/60_210.png","70","image-keyboard-response","189","239049","0.0-6.0-1.91","LAJU","4","f","rechts","24","","","object","f","60","true"
"null","<div style=""font-size:60px;"">+</div>","null","html-keyboard-response","190","239450","0.0-6.0-0.92","LAJU","4","f","rechts","24","","fixation","","","",""
"1074","img/120_210.png","70","image-keyboard-response","191","240525","0.0-6.0-1.92","LAJU","4","f","rechts","24","","","object","f","120","true"
"null","<div style=""font-size:60px;"">+</div>","null","html-keyboard-response","192","240827","0.0-6.0-0.93","LAJU","4","f","rechts","24","","fixation","","","",""
"817","img/0_240.png","70","image-keyboard-response","193","241644","0.0-6.0-1.93","LAJU","4","f","rechts","24","","","object","f","0","true"
"null","<div style=""font-size:60px;"">+</div>","null","html-keyboard-response","194","241945","0.0-6.0-0.94","LAJU","4","f","rechts","24","","fixation","","","",""
"972","img/150_270.png","74","image-keyboard-response","195","242919","0.0-6.0-1.94","LAJU","4","f","rechts","24","","","object","j","150","true"
"null","<div style=""font-size:60px;"">+</div>","null","html-keyboard-response","196","243420","0.0-6.0-0.95","LAJU","4","f","rechts","24","","fixation","","","",""
"1181","img/90_210.png","70","image-keyboard-response","197","244603","0.0-6.0-1.95","LAJU","4","f","rechts","24","","","object","f","90","true"
"null","<div style=""font-size:60px;"">+</div>","null","html-keyboard-response","198","245104","0.0-6.0-0.96","LAJU","4","f","rechts","24","","fixation","","","",""
"1674","img/L30_180.png","74","image-keyboard-response","199","246779","0.0-6.0-1.96","LAJU","4","f","rechts","24","","","object","j","30","true"
"null","<div style=""font-size:60px;"">+</div>","null","html-keyboard-response","200","247130","0.0-6.0-0.97","LAJU","4","f","rechts","24","","fixation","","","",""
"2525","img/L120_180.png","70","image-keyboard-response","201","249657","0.0-6.0-1.97","LAJU","4","f","rechts","24","","","object","j","120","false"
"null","<div style=""font-size:60px;"">+</div>","null","html-keyboard-response","202","250108","0.0-6.0-0.98","LAJU","4","f","rechts","24","","fixation","","","",""
"2219","img/150_180.png","74","image-keyboard-response","203","252329","0.0-6.0-1.98","LAJU","4","f","rechts","24","","","object","f","150","false"
"null","<div style=""font-size:60px;"">+</div>","null","html-keyboard-response","204","252779","0.0-6.0-0.99","LAJU","4","f","rechts","24","","fixation","","","",""
"2072","img/60_150.png","74","image-keyboard-response","205","254852","0.0-6.0-1.99","LAJU","4","f","rechts","24","","","object","j","60","true"
"null","<div style=""font-size:60px;"">+</div>","null","html-keyboard-response","206","255354","0.0-6.0-0.100","LAJU","4","f","rechts","24","","fixation","","","",""
"1119","img/150_120.png","70","image-keyboard-response","207","256474","0.0-6.0-1.100","LAJU","4","f","rechts","24","","","object","f","150","true"
"null","<div style=""font-size:60px;"">+</div>","null","html-keyboard-response","208","256926","0.0-6.0-0.101","LAJU","4","f","rechts","24","","fixation","","","",""
"1079","img/90_30.png","70","image-keyboard-response","209","258005","0.0-6.0-1.101","LAJU","4","f","rechts","24","","","object","f","90","true"
"null","<div style=""font-size:60px;"">+</div>","null","html-keyboard-response","210","258507","0.0-6.0-0.102","LAJU","4","f","rechts","24","","fixation","","","",""
"1108","img/120_30.png","70","image-keyboard-response","211","259616","0.0-6.0-1.102","LAJU","4","f","rechts","24","","","object","f","120","true"
"null","<div style=""font-size:60px;"">+</div>","null","html-keyboard-response","212","260017","0.0-6.0-0.103","LAJU","4","f","rechts","24","","fixation","","","",""
"1659","img/0_60.png","74","image-keyboard-response","213","261677","0.0-6.0-1.103","LAJU","4","f","rechts","24","","","object","j","0","true"
"null","<div style=""font-size:60px;"">+</div>","null","html-keyboard-response","214","262079","0.0-6.0-0.104","LAJU","4","f","rechts","24","","fixation","","","",""
"577","img/0_120.png","74","image-keyboard-response","215","262657","0.0-6.0-1.104","LAJU","4","f","rechts","24","","","object","j","0","true"
"null","<div style=""font-size:60px;"">+</div>","null","html-keyboard-response","216","262959","0.0-6.0-0.105","LAJU","4","f","rechts","24","","fixation","","","",""
"797","img/60_90.png","74","image-keyboard-response","217","263756","0.0-6.0-1.105","LAJU","4","f","rechts","24","","","object","j","60","true"
"null","<div style=""font-size:60px;"">+</div>","null","html-keyboard-response","218","264058","0.0-6.0-0.106","LAJU","4","f","rechts","24","","fixation","","","",""
"1671","img/L30_180.png","74","image-keyboard-response","219","265730","0.0-6.0-1.106","LAJU","4","f","rechts","24","","","object","j","30","true"
"null","<div style=""font-size:60px;"">+</div>","null","html-keyboard-response","220","266082","0.0-6.0-0.107","LAJU","4","f","rechts","24","","fixation","","","",""
"1466","img/30_90.png","74","image-keyboard-response","221","267549","0.0-6.0-1.107","LAJU","4","f","rechts","24","","","object","j","30","true"
"null","<div style=""font-size:60px;"">+</div>","null","html-keyboard-response","222","267901","0.0-6.0-0.108","LAJU","4","f","rechts","24","","fixation","","","",""
"1815","img/90_300.png","74","image-keyboard-response","223","269716","0.0-6.0-1.108","LAJU","4","f","rechts","24","","","object","j","90","true"
"null","<div style=""font-size:60px;"">+</div>","null","html-keyboard-response","224","270218","0.0-6.0-0.109","LAJU","4","f","rechts","24","","fixation","","","",""
"861","img/150_300.png","74","image-keyboard-response","225","271079","0.0-6.0-1.109","LAJU","4","f","rechts","24","","","object","j","150","true"
"null","<div style=""font-size:60px;"">+</div>","null","html-keyboard-response","226","271380","0.0-6.0-0.110","LAJU","4","f","rechts","24","","fixation","","","",""
"1095","img/60_210.png","70","image-keyboard-response","227","272476","0.0-6.0-1.110","LAJU","4","f","rechts","24","","","object","f","60","true"
"null","<div style=""font-size:60px;"">+</div>","null","html-keyboard-response","228","272777","0.0-6.0-0.111","LAJU","4","f","rechts","24","","fixation","","","",""
"1487","img/150_270.png","74","image-keyboard-response","229","274265","0.0-6.0-1.111","LAJU","4","f","rechts","24","","","object","j","150","true"
"null","<div style=""font-size:60px;"">+</div>","null","html-keyboard-response","230","274767","0.0-6.0-0.112","LAJU","4","f","rechts","24","","fixation","","","",""
"802","img/0_270.png","70","image-keyboard-response","231","275569","0.0-6.0-1.112","LAJU","4","f","rechts","24","","","object","f","0","true"
"null","<div style=""font-size:60px;"">+</div>","null","html-keyboard-response","232","275870","0.0-6.0-0.113","LAJU","4","f","rechts","24","","fixation","","","",""
"666","img/0_30.png","74","image-keyboard-response","233","276536","0.0-6.0-1.113","LAJU","4","f","rechts","24","","","object","j","0","true"
"null","<div style=""font-size:60px;"">+</div>","null","html-keyboard-response","234","276838","0.0-6.0-0.114","LAJU","4","f","rechts","24","","fixation","","","",""
"847","img/0_210.png","70","image-keyboard-response","235","277685","0.0-6.0-1.114","LAJU","4","f","rechts","24","","","object","f","0","true"
"null","<div style=""font-size:60px;"">+</div>","null","html-keyboard-response","236","278086","0.0-6.0-0.115","LAJU","4","f","rechts","24","","fixation","","","",""
"1724","img/30_60.png","74","image-keyboard-response","237","279811","0.0-6.0-1.115","LAJU","4","f","rechts","24","","","object","j","30","true"
"null","<div style=""font-size:60px;"">+</div>","null","html-keyboard-response","238","280263","0.0-6.0-0.116","LAJU","4","f","rechts","24","","fixation","","","",""
"1073","img/60_270.png","70","image-keyboard-response","239","281336","0.0-6.0-1.116","LAJU","4","f","rechts","24","","","object","f","60","true"
"null","<div style=""font-size:60px;"">+</div>","null","html-keyboard-response","240","281688","0.0-6.0-0.117","LAJU","4","f","rechts","24","","fixation","","","",""
"1071","img/150_240.png","74","image-keyboard-response","241","282759","0.0-6.0-1.117","LAJU","4","f","rechts","24","","","object","j","150","true"
"null","<div style=""font-size:60px;"">+</div>","null","html-keyboard-response","242","283111","0.0-6.0-0.118","LAJU","4","f","rechts","24","","fixation","","","",""
"1867","img/90_210.png","74","image-keyboard-response","243","284979","0.0-6.0-1.118","LAJU","4","f","rechts","24","","","object","f","90","false"
"null","<div style=""font-size:60px;"">+</div>","null","html-keyboard-response","244","285381","0.0-6.0-0.119","LAJU","4","f","rechts","24","","fixation","","","",""
"1392","img/60_30.png","70","image-keyboard-response","245","286774","0.0-6.0-1.119","LAJU","4","f","rechts","24","","","object","f","60","true"
"null","<div style=""font-size:60px;"">+</div>","null","html-keyboard-response","246","287125","0.0-6.0-0.120","LAJU","4","f","rechts","24","","fixation","","","",""
"1284","img/150_60.png","70","image-keyboard-response","247","288410","0.0-6.0-1.120","LAJU","4","f","rechts","24","","","object","f","150","true"
"null","<div style=""font-size:60px;"">+</div>","null","html-keyboard-response","248","288911","0.0-6.0-0.121","LAJU","4","f","rechts","24","","fixation","","","",""
"765","img/0_150.png","74","image-keyboard-response","249","289677","0.0-6.0-1.121","LAJU","4","f","rechts","24","","","object","j","0","true"
"null","<div style=""font-size:60px;"">+</div>","null","html-keyboard-response","250","289979","0.0-6.0-0.122","LAJU","4","f","rechts","24","","fixation","","","",""
"1406","img/150_120.png","70","image-keyboard-response","251","291385","0.0-6.0-1.122","LAJU","4","f","rechts","24","","","object","f","150","true"
"null","<div style=""font-size:60px;"">+</div>","null","html-keyboard-response","252","291836","0.0-6.0-0.123","LAJU","4","f","rechts","24","","fixation","","","",""
"927","img/150_90.png","70","image-keyboard-response","253","292764","0.0-6.0-1.123","LAJU","4","f","rechts","24","","","object","f","150","true"
"null","<div style=""font-size:60px;"">+</div>","null","html-keyboard-response","254","293116","0.0-6.0-0.124","LAJU","4","f","rechts","24","","fixation","","","",""
"966","img/90_60.png","70","image-keyboard-response","255","294083","0.0-6.0-1.124","LAJU","4","f","rechts","24","","","object","f","90","true"
"null","<div style=""font-size:60px;"">+</div>","null","html-keyboard-response","256","294583","0.0-6.0-0.125","LAJU","4","f","rechts","24","","fixation","","","",""
"1344","img/90_120.png","74","image-keyboard-response","257","295929","0.0-6.0-1.125","LAJU","4","f","rechts","24","","","object","j","90","true"
"null","<div style=""font-size:60px;"">+</div>","null","html-keyboard-response","258","296280","0.0-6.0-0.126","LAJU","4","f","rechts","24","","fixation","","","",""
"1813","img/30_300.png","70","image-keyboard-response","259","298094","0.0-6.0-1.126","LAJU","4","f","rechts","24","","","object","f","30","true"
"null","<div style=""font-size:60px;"">+</div>","null","html-keyboard-response","260","298595","0.0-6.0-0.127","LAJU","4","f","rechts","24","","fixation","","","",""
"1416","img/90_240.png","74","image-keyboard-response","261","300012","0.0-6.0-1.127","LAJU","4","f","rechts","24","","","object","f","90","false"
"null","<div style=""font-size:60px;"">+</div>","null","html-keyboard-response","262","300464","0.0-6.0-0.128","LAJU","4","f","rechts","24","","fixation","","","",""
"1258","img/30_180.png","70","image-keyboard-response","263","301724","0.0-6.0-1.128","LAJU","4","f","rechts","24","","","object","f","30","true"
"null","<div style=""font-size:60px;"">+</div>","null","html-keyboard-response","264","302075","0.0-6.0-0.129","LAJU","4","f","rechts","24","","fixation","","","",""
"955","img/60_180.png","70","image-keyboard-response","265","303032","0.0-6.0-1.129","LAJU","4","f","rechts","24","","","object","f","60","true"
"null","<div style=""font-size:60px;"">+</div>","null","html-keyboard-response","266","303533","0.0-6.0-0.130","LAJU","4","f","rechts","24","","fixation","","","",""
"2064","img/120_150.png","70","image-keyboard-response","267","305599","0.0-6.0-1.130","LAJU","4","f","rechts","24","","","object","j","120","false"
"null","<div style=""font-size:60px;"">+</div>","null","html-keyboard-response","268","305950","0.0-6.0-0.131","LAJU","4","f","rechts","24","","fixation","","","",""
"777","img/0_60.png","74","image-keyboard-response","269","306729","0.0-6.0-1.131","LAJU","4","f","rechts","24","","","object","j","0","true"
"null","<div style=""font-size:60px;"">+</div>","null","html-keyboard-response","270","307230","0.0-6.0-0.132","LAJU","4","f","rechts","24","","fixation","","","",""
"1479","img/90_150.png","74","image-keyboard-response","271","308710","0.0-6.0-1.132","LAJU","4","f","rechts","24","","","object","j","90","true"
"null","<div style=""font-size:60px;"">+</div>","null","html-keyboard-response","272","309162","0.0-6.0-0.133","LAJU","4","f","rechts","24","","fixation","","","",""
"1218","img/L90_180.png","74","image-keyboard-response","273","310380","0.0-6.0-1.133","LAJU","4","f","rechts","24","","","object","j","90","true"
"null","<div style=""font-size:60px;"">+</div>","null","html-keyboard-response","274","310732","0.0-6.0-0.134","LAJU","4","f","rechts","24","","fixation","","","",""
"778","img/L120_180.png","74","image-keyboard-response","275","311510","0.0-6.0-1.134","LAJU","4","f","rechts","24","","","object","j","120","true"
"null","<div style=""font-size:60px;"">+</div>","null","html-keyboard-response","276","311912","0.0-6.0-0.135","LAJU","4","f","rechts","24","","fixation","","","",""
"808","img/0_300.png","70","image-keyboard-response","277","312721","0.0-6.0-1.135","LAJU","4","f","rechts","24","","","object","f","0","true"
"null","<div style=""font-size:60px;"">+</div>","null","html-keyboard-response","278","313173","0.0-6.0-0.136","LAJU","4","f","rechts","24","","fixation","","","",""
"1627","img/L60_180.png","74","image-keyboard-response","279","314801","0.0-6.0-1.136","LAJU","4","f","rechts","24","","","object","j","60","true"
"null","<div style=""font-size:60px;"">+</div>","null","html-keyboard-response","280","315153","0.0-6.0-0.137","LAJU","4","f","rechts","24","","fixation","","","",""
"974","img/0_90.png","74","image-keyboard-response","281","316127","0.0-6.0-1.137","LAJU","4","f","rechts","24","","","object","j","0","true"
"null","<div style=""font-size:60px;"">+</div>","null","html-keyboard-response","282","316429","0.0-6.0-0.138","LAJU","4","f","rechts","24","","fixation","","","",""
"1181","img/120_90.png","70","image-keyboard-response","283","317610","0.0-6.0-1.138","LAJU","4","f","rechts","24","","","object","f","120","true"
"null","<div style=""font-size:60px;"">+</div>","null","html-keyboard-response","284","318062","0.0-6.0-0.139","LAJU","4","f","rechts","24","","fixation","","","",""
"645","img/120_30.png","74","image-keyboard-response","285","318707","0.0-6.0-1.139","LAJU","4","f","rechts","24","","","object","f","120","false"
"null","<div style=""font-size:60px;"">+</div>","null","html-keyboard-response","286","319159","0.0-6.0-0.140","LAJU","4","f","rechts","24","","fixation","","","",""
"1415","img/30_270.png","70","image-keyboard-response","287","320574","0.0-6.0-1.140","LAJU","4","f","rechts","24","","","object","f","30","true"
"null","<div style=""font-size:60px;"">+</div>","null","html-keyboard-response","288","321076","0.0-6.0-0.141","LAJU","4","f","rechts","24","","fixation","","","",""
"1637","img/L150_180.png","70","image-keyboard-response","289","322713","0.0-6.0-1.141","LAJU","4","f","rechts","24","","","object","j","150","false"
"null","<div style=""font-size:60px;"">+</div>","null","html-keyboard-response","290","323215","0.0-6.0-0.142","LAJU","4","f","rechts","24","","fixation","","","",""
"1310","img/90_180.png","74","image-keyboard-response","291","324526","0.0-6.0-1.142","LAJU","4","f","rechts","24","","","object","f","90","false"
"null","<div style=""font-size:60px;"">+</div>","null","html-keyboard-response","292","324928","0.0-6.0-0.143","LAJU","4","f","rechts","24","","fixation","","","",""
"883","img/120_210.png","74","image-keyboard-response","293","325811","0.0-6.0-1.143","LAJU","4","f","rechts","24","","","object","f","120","false"
"null","<div style=""font-size:60px;"">+</div>","null","html-keyboard-response","294","326213","0.0-6.0-0.144","LAJU","4","f","rechts","24","","fixation","","","",""
"1267","img/30_240.png","70","image-keyboard-response","295","327481","0.0-6.0-1.144","LAJU","4","f","rechts","24","","","object","f","30","true"
"null","<div style=""font-size:60px;"">+</div>","null","html-keyboard-response","296","327982","0.0-6.0-0.145","LAJU","4","f","rechts","24","","fixation","","","",""
"785","img/0_240.png","70","image-keyboard-response","297","328768","0.0-6.0-1.145","LAJU","4","f","rechts","24","","","object","f","0","true"
"null","<div style=""font-size:60px;"">+</div>","null","html-keyboard-response","298","329120","0.0-6.0-0.146","LAJU","4","f","rechts","24","","fixation","","","",""
"null","img/150_180.png","null","image-keyboard-response","299","332122","0.0-6.0-1.146","LAJU","4","f","rechts","24","","","object","f","150","false"
"null","<div style=""font-size:60px;"">+</div>","null","html-keyboard-response","300","332573","0.0-6.0-0.147","LAJU","4","f","rechts","24","","fixation","","","",""
"1258","img/60_150.png","70","image-keyboard-response","301","333831","0.0-6.0-1.147","LAJU","4","f","rechts","24","","","object","j","60","false"
"null","<div style=""font-size:60px;"">+</div>","null","html-keyboard-response","302","334333","0.0-6.0-0.148","LAJU","4","f","rechts","24","","fixation","","","",""
"1279","img/90_30.png","70","image-keyboard-response","303","335612","0.0-6.0-1.148","LAJU","4","f","rechts","24","","","object","f","90","true"
"null","<div style=""font-size:60px;"">+</div>","null","html-keyboard-response","304","336113","0.0-6.0-0.149","LAJU","4","f","rechts","24","","fixation","","","",""
"1203","img/30_120.png","74","image-keyboard-response","305","337317","0.0-6.0-1.149","LAJU","4","f","rechts","24","","","object","j","30","true"
"null","<div style=""font-size:60px;"">+</div>","null","html-keyboard-response","306","337717","0.0-6.0-0.150","LAJU","4","f","rechts","24","","fixation","","","",""
"1150","img/90_330.png","74","image-keyboard-response","307","338867","0.0-6.0-1.150","LAJU","4","f","rechts","24","","","object","j","90","true"
"null","<div style=""font-size:60px;"">+</div>","null","html-keyboard-response","308","339369","0.0-6.0-0.151","LAJU","4","f","rechts","24","","fixation","","","",""
"819","img/60_330.png","74","image-keyboard-response","309","340188","0.0-6.0-1.151","LAJU","4","f","rechts","24","","","object","j","60","true"
"null","<div style=""font-size:60px;"">+</div>","null","html-keyboard-response","310","340689","0.0-6.0-0.152","LAJU","4","f","rechts","24","","fixation","","","",""
"2346","img/120_180.png","70","image-keyboard-response","311","343036","0.0-6.0-1.152","LAJU","4","f","rechts","24","","","object","f","120","true"
"null","<div style=""font-size:60px;"">+</div>","null","html-keyboard-response","312","343337","0.0-6.0-0.153","LAJU","4","f","rechts","24","","fixation","","","",""
"963","img/0_330.png","70","image-keyboard-response","313","344302","0.0-6.0-1.153","LAJU","4","f","rechts","24","","","object","f","0","true"
"null","<div style=""font-size:60px;"">+</div>","null","html-keyboard-response","314","344603","0.0-6.0-0.154","LAJU","4","f","rechts","24","","fixation","","","",""
"991","img/120_330.png","74","image-keyboard-response","315","345595","0.0-6.0-1.154","LAJU","4","f","rechts","24","","","object","j","120","true"
"null","<div style=""font-size:60px;"">+</div>","null","html-keyboard-response","316","345996","0.0-6.0-0.155","LAJU","4","f","rechts","24","","fixation","","","",""
"1071","img/120_270.png","74","image-keyboard-response","317","347068","0.0-6.0-1.155","LAJU","4","f","rechts","24","","","object","j","120","true"
"null","<div style=""font-size:60px;"">+</div>","null","html-keyboard-response","318","347469","0.0-6.0-0.156","LAJU","4","f","rechts","24","","fixation","","","",""
"786","img/0_270.png","70","image-keyboard-response","319","348256","0.0-6.0-1.156","LAJU","4","f","rechts","24","","","object","f","0","true"
"null","<div style=""font-size:60px;"">+</div>","null","html-keyboard-response","320","348607","0.0-6.0-0.157","LAJU","4","f","rechts","24","","fixation","","","",""
"1302","img/60_270.png","70","image-keyboard-response","321","349910","0.0-6.0-1.157","LAJU","4","f","rechts","24","","","object","f","60","true"
"null","<div style=""font-size:60px;"">+</div>","null","html-keyboard-response","322","350261","0.0-6.0-0.158","LAJU","4","f","rechts","24","","fixation","","","",""
"602","img/60_330.png","70","image-keyboard-response","323","350864","0.0-6.0-1.158","LAJU","4","f","rechts","24","","","object","j","60","false"
"null","<div style=""font-size:60px;"">+</div>","null","html-keyboard-response","324","351216","0.0-6.0-0.159","LAJU","4","f","rechts","24","","fixation","","","",""
"1245","img/150_270.png","74","image-keyboard-response","325","352462","0.0-6.0-1.159","LAJU","4","f","rechts","24","","","object","j","150","true"
"null","<div style=""font-size:60px;"">+</div>","null","html-keyboard-response","326","352864","0.0-6.0-0.160","LAJU","4","f","rechts","24","","fixation","","","",""
"1494","img/120_30.png","70","image-keyboard-response","327","354359","0.0-6.0-1.160","LAJU","4","f","rechts","24","","","object","f","120","true"
"null","<div style=""font-size:60px;"">+</div>","null","html-keyboard-response","328","354761","0.0-6.0-0.161","LAJU","4","f","rechts","24","","fixation","","","",""
"2458","img/120_210.png","70","image-keyboard-response","329","357220","0.0-6.0-1.161","LAJU","4","f","rechts","24","","","object","f","120","true"
"null","<div style=""font-size:60px;"">+</div>","null","html-keyboard-response","330","357522","0.0-6.0-0.162","LAJU","4","f","rechts","24","","fixation","","","",""
"1715","img/120_150.png","70","image-keyboard-response","331","359238","0.0-6.0-1.162","LAJU","4","f","rechts","24","","","object","j","120","false"
"null","<div style=""font-size:60px;"">+</div>","null","html-keyboard-response","332","359639","0.0-6.0-0.163","LAJU","4","f","rechts","24","","fixation","","","",""
"741","img/0_120.png","74","image-keyboard-response","333","360380","0.0-6.0-1.163","LAJU","4","f","rechts","24","","","object","j","0","true"
"null","<div style=""font-size:60px;"">+</div>","null","html-keyboard-response","334","360782","0.0-6.0-0.164","LAJU","4","f","rechts","24","","fixation","","","",""
"2023","img/90_150.png","70","image-keyboard-response","335","362806","0.0-6.0-1.164","LAJU","4","f","rechts","24","","","object","j","90","false"
"null","<div style=""font-size:60px;"">+</div>","null","html-keyboard-response","336","363108","0.0-6.0-0.165","LAJU","4","f","rechts","24","","fixation","","","",""
"2489","img/150_300.png","74","image-keyboard-response","337","365598","0.0-6.0-1.165","LAJU","4","f","rechts","24","","","object","j","150","true"
"null","<div style=""font-size:60px;"">+</div>","null","html-keyboard-response","338","366000","0.0-6.0-0.166","LAJU","4","f","rechts","24","","fixation","","","",""
"660","img/0_60.png","74","image-keyboard-response","339","366661","0.0-6.0-1.166","LAJU","4","f","rechts","24","","","object","j","0","true"
"null","<div style=""font-size:60px;"">+</div>","null","html-keyboard-response","340","367113","0.0-6.0-0.167","LAJU","4","f","rechts","24","","fixation","","","",""
"1220","img/60_210.png","70","image-keyboard-response","341","368333","0.0-6.0-1.167","LAJU","4","f","rechts","24","","","object","f","60","true"
"null","<div style=""font-size:60px;"">+</div>","null","html-keyboard-response","342","368685","0.0-6.0-0.168","LAJU","4","f","rechts","24","","fixation","","","",""
"754","img/0_90.png","74","image-keyboard-response","343","369439","0.0-6.0-1.168","LAJU","4","f","rechts","24","","","object","j","0","true"
"null","<div style=""font-size:60px;"">+</div>","null","html-keyboard-response","344","369891","0.0-6.0-0.169","LAJU","4","f","rechts","24","","fixation","","","",""
"1160","img/120_270.png","74","image-keyboard-response","345","371051","0.0-6.0-1.169","LAJU","4","f","rechts","24","","","object","j","120","true"
"null","<div style=""font-size:60px;"">+</div>","null","html-keyboard-response","346","371353","0.0-6.0-0.170","LAJU","4","f","rechts","24","","fixation","","","",""
"1241","img/30_120.png","74","image-keyboard-response","347","372594","0.0-6.0-1.170","LAJU","4","f","rechts","24","","","object","j","30","true"
"null","<div style=""font-size:60px;"">+</div>","null","html-keyboard-response","348","372946","0.0-6.0-0.171","LAJU","4","f","rechts","24","","fixation","","","",""
"1193","img/150_60.png","70","image-keyboard-response","349","374139","0.0-6.0-1.171","LAJU","4","f","rechts","24","","","object","f","150","true"
"null","<div style=""font-size:60px;"">+</div>","null","html-keyboard-response","350","374491","0.0-6.0-0.172","LAJU","4","f","rechts","24","","fixation","","","",""
"1394","img/60_90.png","70","image-keyboard-response","351","375885","0.0-6.0-1.172","LAJU","4","f","rechts","24","","","object","j","60","false"
"null","<div style=""font-size:60px;"">+</div>","null","html-keyboard-response","352","376387","0.0-6.0-0.173","LAJU","4","f","rechts","24","","fixation","","","",""
"1439","img/90_240.png","74","image-keyboard-response","353","377826","0.0-6.0-1.173","LAJU","4","f","rechts","24","","","object","f","90","false"
"null","<div style=""font-size:60px;"">+</div>","null","html-keyboard-response","354","378177","0.0-6.0-0.174","LAJU","4","f","rechts","24","","fixation","","","",""
"2774","img/L60_180.png","74","image-keyboard-response","355","380951","0.0-6.0-1.174","LAJU","4","f","rechts","24","","","object","j","60","true"
"null","<div style=""font-size:60px;"">+</div>","null","html-keyboard-response","356","381453","0.0-6.0-0.175","LAJU","4","f","rechts","24","","fixation","","","",""
"790","img/0_30.png","74","image-keyboard-response","357","382243","0.0-6.0-1.175","LAJU","4","f","rechts","24","","","object","j","0","true"
"null","<div style=""font-size:60px;"">+</div>","null","html-keyboard-response","358","382645","0.0-6.0-0.176","LAJU","4","f","rechts","24","","fixation","","","",""
"1417","img/L120_180.png","70","image-keyboard-response","359","384062","0.0-6.0-1.176","LAJU","4","f","rechts","24","","","object","j","120","false"
"null","<div style=""font-size:60px;"">+</div>","null","html-keyboard-response","360","384564","0.0-6.0-0.177","LAJU","4","f","rechts","24","","fixation","","","",""
"2949","img/30_180.png","70","image-keyboard-response","361","387513","0.0-6.0-1.177","LAJU","4","f","rechts","24","","","object","f","30","true"
"null","<div style=""font-size:60px;"">+</div>","null","html-keyboard-response","362","387815","0.0-6.0-0.178","LAJU","4","f","rechts","24","","fixation","","","",""
"1324","img/90_210.png","70","image-keyboard-response","363","389140","0.0-6.0-1.178","LAJU","4","f","rechts","24","","","object","f","90","true"
"null","<div style=""font-size:60px;"">+</div>","null","html-keyboard-response","364","389592","0.0-6.0-0.179","LAJU","4","f","rechts","24","","fixation","","","",""
"1583","img/90_300.png","74","image-keyboard-response","365","391176","0.0-6.0-1.179","LAJU","4","f","rechts","24","","","object","j","90","true"
"null","<div style=""font-size:60px;"">+</div>","null","html-keyboard-response","366","391678","0.0-6.0-0.180","LAJU","4","f","rechts","24","","fixation","","","",""
"null","img/L30_180.png","null","image-keyboard-response","367","394680","0.0-6.0-1.180","LAJU","4","f","rechts","24","","","object","j","30","false"
"null","<div style=""font-size:60px;"">+</div>","null","html-keyboard-response","368","394982","0.0-6.0-0.181","LAJU","4","f","rechts","24","","fixation","","","",""
"null","img/L150_180.png","null","image-keyboard-response","369","397983","0.0-6.0-1.181","LAJU","4","f","rechts","24","","","object","j","150","false"
"null","<div style=""font-size:60px;"">+</div>","null","html-keyboard-response","370","398435","0.0-6.0-0.182","LAJU","4","f","rechts","24","","fixation","","","",""
"1202","img/30_300.png","70","image-keyboard-response","371","399638","0.0-6.0-1.182","LAJU","4","f","rechts","24","","","object","f","30","true"
"null","<div style=""font-size:60px;"">+</div>","null","html-keyboard-response","372","399989","0.0-6.0-0.183","LAJU","4","f","rechts","24","","fixation","","","",""
"1327","img/150_90.png","70","image-keyboard-response","373","401317","0.0-6.0-1.183","LAJU","4","f","rechts","24","","","object","f","150","true"
"null","<div style=""font-size:60px;"">+</div>","null","html-keyboard-response","374","401618","0.0-6.0-0.184","LAJU","4","f","rechts","24","","fixation","","","",""
"751","img/120_90.png","70","image-keyboard-response","375","402370","0.0-6.0-1.184","LAJU","4","f","rechts","24","","","object","f","120","true"
"null","<div style=""font-size:60px;"">+</div>","null","html-keyboard-response","376","402822","0.0-6.0-0.185","LAJU","4","f","rechts","24","","fixation","","","",""
"1148","img/90_30.png","70","image-keyboard-response","377","403970","0.0-6.0-1.185","LAJU","4","f","rechts","24","","","object","f","90","true"
"null","<div style=""font-size:60px;"">+</div>","null","html-keyboard-response","378","404272","0.0-6.0-0.186","LAJU","4","f","rechts","24","","fixation","","","",""
"2243","img/90_180.png","74","image-keyboard-response","379","406515","0.0-6.0-1.186","LAJU","4","f","rechts","24","","","object","f","90","false"
"null","<div style=""font-size:60px;"">+</div>","null","html-keyboard-response","380","406866","0.0-6.0-0.187","LAJU","4","f","rechts","24","","fixation","","","",""
"1125","img/30_90.png","74","image-keyboard-response","381","407992","0.0-6.0-1.187","LAJU","4","f","rechts","24","","","object","j","30","true"
"null","<div style=""font-size:60px;"">+</div>","null","html-keyboard-response","382","408293","0.0-6.0-0.188","LAJU","4","f","rechts","24","","fixation","","","",""
"1147","img/120_180.png","70","image-keyboard-response","383","409442","0.0-6.0-1.188","LAJU","4","f","rechts","24","","","object","f","120","true"
"null","<div style=""font-size:60px;"">+</div>","null","html-keyboard-response","384","409793","0.0-6.0-0.189","LAJU","4","f","rechts","24","","fixation","","","",""
"1526","img/60_150.png","74","image-keyboard-response","385","411320","0.0-6.0-1.189","LAJU","4","f","rechts","24","","","object","j","60","true"
"null","<div style=""font-size:60px;"">+</div>","null","html-keyboard-response","386","411622","0.0-6.0-0.190","LAJU","4","f","rechts","24","","fixation","","","",""
"1136","img/150_240.png","74","image-keyboard-response","387","412758","0.0-6.0-1.190","LAJU","4","f","rechts","24","","","object","j","150","true"
"null","<div style=""font-size:60px;"">+</div>","null","html-keyboard-response","388","413058","0.0-6.0-0.191","LAJU","4","f","rechts","24","","fixation","","","",""
"783","img/120_330.png","74","image-keyboard-response","389","413843","0.0-6.0-1.191","LAJU","4","f","rechts","24","","","object","j","120","true"
"null","<div style=""font-size:60px;"">+</div>","null","html-keyboard-response","390","414244","0.0-6.0-0.192","LAJU","4","f","rechts","24","","fixation","","","",""
"851","img/0_330.png","70","image-keyboard-response","391","415097","0.0-6.0-1.192","LAJU","4","f","rechts","24","","","object","f","0","true"
"null","<div style=""font-size:60px;"">+</div>","null","html-keyboard-response","392","415498","0.0-6.0-0.193","LAJU","4","f","rechts","24","","fixation","","","",""
"1136","img/150_120.png","70","image-keyboard-response","393","416636","0.0-6.0-1.193","LAJU","4","f","rechts","24","","","object","f","150","true"
"null","<div style=""font-size:60px;"">+</div>","null","html-keyboard-response","394","416987","0.0-6.0-0.194","LAJU","4","f","rechts","24","","fixation","","","",""
"1592","img/L90_180.png","74","image-keyboard-response","395","418581","0.0-6.0-1.194","LAJU","4","f","rechts","24","","","object","j","90","true"
"null","<div style=""font-size:60px;"">+</div>","null","html-keyboard-response","396","418982","0.0-6.0-0.195","LAJU","4","f","rechts","24","","fixation","","","",""
"1618","img/30_60.png","74","image-keyboard-response","397","420602","0.0-6.0-1.195","LAJU","4","f","rechts","24","","","object","j","30","true"
"null","<div style=""font-size:60px;"">+</div>","null","html-keyboard-response","398","420953","0.0-6.0-0.196","LAJU","4","f","rechts","24","","fixation","","","",""
"746","img/0_150.png","74","image-keyboard-response","399","421701","0.0-6.0-1.196","LAJU","4","f","rechts","24","","","object","j","0","true"
"null","<div style=""font-size:60px;"">+</div>","null","html-keyboard-response","400","422152","0.0-6.0-0.197","LAJU","4","f","rechts","24","","fixation","","","",""
"null","img/60_180.png","null","image-keyboard-response","401","425154","0.0-6.0-1.197","LAJU","4","f","rechts","24","","","object","f","60","false"
"null","<div style=""font-size:60px;"">+</div>","null","html-keyboard-response","402","425655","0.0-6.0-0.198","LAJU","4","f","rechts","24","","fixation","","","",""
"1429","img/90_60.png","70","image-keyboard-response","403","427085","0.0-6.0-1.198","LAJU","4","f","rechts","24","","","object","f","90","true"
"null","<div style=""font-size:60px;"">+</div>","null","html-keyboard-response","404","427437","0.0-6.0-0.199","LAJU","4","f","rechts","24","","fixation","","","",""
"1071","img/0_300.png","70","image-keyboard-response","405","428509","0.0-6.0-1.199","LAJU","4","f","rechts","24","","","object","f","0","true"
"null","<div style=""font-size:60px;"">+</div>","null","html-keyboard-response","406","428860","0.0-6.0-0.200","LAJU","4","f","rechts","24","","fixation","","","",""
"2223","img/150_180.png","74","image-keyboard-response","407","431084","0.0-6.0-1.200","LAJU","4","f","rechts","24","","","object","f","150","false"
"null","<div style=""font-size:60px;"">+</div>","null","html-keyboard-response","408","431386","0.0-6.0-0.201","LAJU","4","f","rechts","24","","fixation","","","",""
"1584","img/90_330.png","74","image-keyboard-response","409","432970","0.0-6.0-1.201","LAJU","4","f","rechts","24","","","object","j","90","true"
"null","<div style=""font-size:60px;"">+</div>","null","html-keyboard-response","410","433271","0.0-6.0-0.202","LAJU","4","f","rechts","24","","fixation","","","",""
"1622","img/30_270.png","70","image-keyboard-response","411","434894","0.0-6.0-1.202","LAJU","4","f","rechts","24","","","object","f","30","true"
"null","<div style=""font-size:60px;"">+</div>","null","html-keyboard-response","412","435246","0.0-6.0-0.203","LAJU","4","f","rechts","24","","fixation","","","",""
"772","img/0_210.png","70","image-keyboard-response","413","436018","0.0-6.0-1.203","LAJU","4","f","rechts","24","","","object","f","0","true"
"null","<div style=""font-size:60px;"">+</div>","null","html-keyboard-response","414","436420","0.0-6.0-0.204","LAJU","4","f","rechts","24","","fixation","","","",""
"1669","img/90_120.png","74","image-keyboard-response","415","438089","0.0-6.0-1.204","LAJU","4","f","rechts","24","","","object","j","90","true"
"null","<div style=""font-size:60px;"">+</div>","null","html-keyboard-response","416","438591","0.0-6.0-0.205","LAJU","4","f","rechts","24","","fixation","","","",""
"953","img/0_240.png","70","image-keyboard-response","417","439544","0.0-6.0-1.205","LAJU","4","f","rechts","24","","","object","f","0","true"
"null","<div style=""font-size:60px;"">+</div>","null","html-keyboard-response","418","440046","0.0-6.0-0.206","LAJU","4","f","rechts","24","","fixation","","","",""
"2089","img/60_30.png","70","image-keyboard-response","419","442135","0.0-6.0-1.206","LAJU","4","f","rechts","24","","","object","f","60","true"
"null","<div style=""font-size:60px;"">+</div>","null","html-keyboard-response","420","442586","0.0-6.0-0.207","LAJU","4","f","rechts","24","","fixation","","","",""
"1176","img/30_240.png","74","image-keyboard-response","421","443763","0.0-6.0-1.207","LAJU","4","f","rechts","24","","","object","f","30","false"
"6434","<p>Du hast in 77% der Versuche korrekt entschieden.</p><p>Deine durchschnittliche Reaktionszeit war  1309ms.</p><p>Dr&uuml;cke eine beliebige Taste, um die Session zu beenden. Vielen Dank!</p>","75","html-keyboard-response","422","450199","0.0-7.0","LAJU","4","f","rechts","24","","","","","",""
