"rt","stimulus","key_press","trial_type","trial_index","time_elapsed","internal_node_id","subject","session","sex","handedness","age","responses","test_part","condition","correct_response","angle","correct"
"1006","<p>Mental Rotation Experiment.</p> <p>Dr&uuml;cke eine beliebige Taste, um anzufangen.</p>","72","html-keyboard-response","0","1011","0.0-0.0","LAJU","2","f","rechts","24","","","","","",""
"3923","","","survey-text","1","4934","0.0-1.0","LAJU","2","f","rechts","24","{""Q0"":""LAJU""}","","","","",""
"2425","","","survey-text","2","7360","0.0-2.0","LAJU","2","f","rechts","24","{""Q0"":""2""}","","","","",""
"2790","","","survey-multi-choice","3","10152","0.0-3.0","LAJU","2","f","rechts","24","{""Q0"":""f"",""Q1"":""rechts""}","","","","",""
"1976","","","survey-text","4","12129","0.0-4.0","LAJU","2","f","rechts","24","{""Q0"":""24""}","","","","",""
"24642","<p> Stell dir vor, dass du vor einem runden Tisch stehst, auf dem sich ein blauer Ball am Tischrand befindet. Entlang des Tischrands ist jeweils ein verschieden langer Pfeil. Nun bewegst du dich entlang dieses Pfeils bis an seine Spitze. Wenn du am Ende des Pfeils angekommen bist, schau zur Tischmitte. </p> <img src='img/90_180.png'></img> <br> <p>Entscheide dann, ob der Ball von deiner neuen (vorgestellten) Position links oder rechts von dir liegt.</p> <p>Dr&uuml;cke die <strong>'f'</strong>-Taste f&uuml;r links, die <strong>'j'</strong>-Taste f&uuml;r rechts.</p> <br><p> Das Bild wird jeweils 1 Sekunde lang pr&auml;sentiert. Du hast 3 Sekunden Zeit eine Entscheidung zu treffen.</p>","74","html-keyboard-response","5","36774","0.0-5.0","LAJU","2","f","rechts","24","","","","","",""
"null","<div style=""font-size:60px;"">+</div>","null","html-keyboard-response","6","38278","0.0-6.0-0.0","LAJU","2","f","rechts","24","","fixation","","","",""
"915","img/120_180.png","74","image-keyboard-response","7","39194","0.0-6.0-1.0","LAJU","2","f","rechts","24","","","self","j","120","true"
"null","<div style=""font-size:60px;"">+</div>","null","html-keyboard-response","8","39496","0.0-6.0-0.1","LAJU","2","f","rechts","24","","fixation","","","",""
"1291","img/60_210.png","74","image-keyboard-response","9","40788","0.0-6.0-1.1","LAJU","2","f","rechts","24","","","self","j","60","true"
"null","<div style=""font-size:60px;"">+</div>","null","html-keyboard-response","10","41139","0.0-6.0-0.2","LAJU","2","f","rechts","24","","fixation","","","",""
"1472","img/120_30.png","74","image-keyboard-response","11","42613","0.0-6.0-1.2","LAJU","2","f","rechts","24","","","self","j","120","true"
"null","<div style=""font-size:60px;"">+</div>","null","html-keyboard-response","12","42914","0.0-6.0-0.3","LAJU","2","f","rechts","24","","fixation","","","",""
"1211","img/150_120.png","70","image-keyboard-response","13","44127","0.0-6.0-1.3","LAJU","2","f","rechts","24","","","self","f","150","true"
"null","<div style=""font-size:60px;"">+</div>","null","html-keyboard-response","14","44578","0.0-6.0-0.4","LAJU","2","f","rechts","24","","fixation","","","",""
"941","img/150_270.png","74","image-keyboard-response","15","45520","0.0-6.0-1.4","LAJU","2","f","rechts","24","","","self","j","150","true"
"null","<div style=""font-size:60px;"">+</div>","null","html-keyboard-response","16","46021","0.0-6.0-0.5","LAJU","2","f","rechts","24","","fixation","","","",""
"1713","img/120_330.png","70","image-keyboard-response","17","47736","0.0-6.0-1.5","LAJU","2","f","rechts","24","","","self","f","120","true"
"null","<div style=""font-size:60px;"">+</div>","null","html-keyboard-response","18","48187","0.0-6.0-0.6","LAJU","2","f","rechts","24","","fixation","","","",""
"1086","img/90_150.png","70","image-keyboard-response","19","49275","0.0-6.0-1.6","LAJU","2","f","rechts","24","","","self","f","90","true"
"null","<div style=""font-size:60px;"">+</div>","null","html-keyboard-response","20","49676","0.0-6.0-0.7","LAJU","2","f","rechts","24","","fixation","","","",""
"979","img/30_240.png","70","image-keyboard-response","21","50657","0.0-6.0-1.7","LAJU","2","f","rechts","24","","","self","f","30","true"
"null","<div style=""font-size:60px;"">+</div>","null","html-keyboard-response","22","50958","0.0-6.0-0.8","LAJU","2","f","rechts","24","","fixation","","","",""
"749","img/L60_180.png","70","image-keyboard-response","23","51709","0.0-6.0-1.8","LAJU","2","f","rechts","24","","","self","f","60","true"
"null","<div style=""font-size:60px;"">+</div>","null","html-keyboard-response","24","52210","0.0-6.0-0.9","LAJU","2","f","rechts","24","","fixation","","","",""
"691","img/L30_180.png","70","image-keyboard-response","25","52904","0.0-6.0-1.9","LAJU","2","f","rechts","24","","","self","f","30","true"
"null","<div style=""font-size:60px;"">+</div>","null","html-keyboard-response","26","53355","0.0-6.0-0.10","LAJU","2","f","rechts","24","","fixation","","","",""
"650","img/120_150.png","70","image-keyboard-response","27","54007","0.0-6.0-1.10","LAJU","2","f","rechts","24","","","self","f","120","true"
"null","<div style=""font-size:60px;"">+</div>","null","html-keyboard-response","28","54358","0.0-6.0-0.11","LAJU","2","f","rechts","24","","fixation","","","",""
"988","img/0_120.png","74","image-keyboard-response","29","55348","0.0-6.0-1.11","LAJU","2","f","rechts","24","","","self","j","0","true"
"null","<div style=""font-size:60px;"">+</div>","null","html-keyboard-response","30","55849","0.0-6.0-0.12","LAJU","2","f","rechts","24","","fixation","","","",""
"659","img/0_300.png","70","image-keyboard-response","31","56511","0.0-6.0-1.12","LAJU","2","f","rechts","24","","","self","f","0","true"
"null","<div style=""font-size:60px;"">+</div>","null","html-keyboard-response","32","56962","0.0-6.0-0.13","LAJU","2","f","rechts","24","","fixation","","","",""
"754","img/90_180.png","74","image-keyboard-response","33","57717","0.0-6.0-1.13","LAJU","2","f","rechts","24","","","self","j","90","true"
"null","<div style=""font-size:60px;"">+</div>","null","html-keyboard-response","34","58019","0.0-6.0-0.14","LAJU","2","f","rechts","24","","fixation","","","",""
"1184","img/30_270.png","74","image-keyboard-response","35","59204","0.0-6.0-1.14","LAJU","2","f","rechts","24","","","self","f","30","false"
"null","<div style=""font-size:60px;"">+</div>","null","html-keyboard-response","36","59606","0.0-6.0-0.15","LAJU","2","f","rechts","24","","fixation","","","",""
"1072","img/90_240.png","74","image-keyboard-response","37","60679","0.0-6.0-1.15","LAJU","2","f","rechts","24","","","self","j","90","true"
"null","<div style=""font-size:60px;"">+</div>","null","html-keyboard-response","38","61131","0.0-6.0-0.16","LAJU","2","f","rechts","24","","fixation","","","",""
"1218","img/90_30.png","74","image-keyboard-response","39","62350","0.0-6.0-1.16","LAJU","2","f","rechts","24","","","self","j","90","true"
"null","<div style=""font-size:60px;"">+</div>","null","html-keyboard-response","40","62802","0.0-6.0-0.17","LAJU","2","f","rechts","24","","fixation","","","",""
"1065","img/L120_180.png","70","image-keyboard-response","41","63868","0.0-6.0-1.17","LAJU","2","f","rechts","24","","","self","f","120","true"
"null","<div style=""font-size:60px;"">+</div>","null","html-keyboard-response","42","64319","0.0-6.0-0.18","LAJU","2","f","rechts","24","","fixation","","","",""
"1134","img/30_60.png","74","image-keyboard-response","43","65454","0.0-6.0-1.18","LAJU","2","f","rechts","24","","","self","j","30","true"
"null","<div style=""font-size:60px;"">+</div>","null","html-keyboard-response","44","65756","0.0-6.0-0.19","LAJU","2","f","rechts","24","","fixation","","","",""
"1114","img/60_90.png","74","image-keyboard-response","45","66871","0.0-6.0-1.19","LAJU","2","f","rechts","24","","","self","j","60","true"
"null","<div style=""font-size:60px;"">+</div>","null","html-keyboard-response","46","67373","0.0-6.0-0.20","LAJU","2","f","rechts","24","","fixation","","","",""
"1227","img/90_60.png","74","image-keyboard-response","47","68601","0.0-6.0-1.20","LAJU","2","f","rechts","24","","","self","j","90","true"
"null","<div style=""font-size:60px;"">+</div>","null","html-keyboard-response","48","69103","0.0-6.0-0.21","LAJU","2","f","rechts","24","","fixation","","","",""
"810","img/L90_180.png","70","image-keyboard-response","49","69914","0.0-6.0-1.21","LAJU","2","f","rechts","24","","","self","f","90","true"
"null","<div style=""font-size:60px;"">+</div>","null","html-keyboard-response","50","70216","0.0-6.0-0.22","LAJU","2","f","rechts","24","","fixation","","","",""
"846","img/0_270.png","70","image-keyboard-response","51","71063","0.0-6.0-1.22","LAJU","2","f","rechts","24","","","self","f","0","true"
"null","<div style=""font-size:60px;"">+</div>","null","html-keyboard-response","52","71565","0.0-6.0-0.23","LAJU","2","f","rechts","24","","fixation","","","",""
"594","img/0_90.png","74","image-keyboard-response","53","72160","0.0-6.0-1.23","LAJU","2","f","rechts","24","","","self","j","0","true"
"null","<div style=""font-size:60px;"">+</div>","null","html-keyboard-response","54","72562","0.0-6.0-0.24","LAJU","2","f","rechts","24","","fixation","","","",""
"997","img/60_150.png","70","image-keyboard-response","55","73560","0.0-6.0-1.24","LAJU","2","f","rechts","24","","","self","f","60","true"
"null","<div style=""font-size:60px;"">+</div>","null","html-keyboard-response","56","73862","0.0-6.0-0.25","LAJU","2","f","rechts","24","","fixation","","","",""
"1255","img/30_120.png","74","image-keyboard-response","57","75118","0.0-6.0-1.25","LAJU","2","f","rechts","24","","","self","j","30","true"
"null","<div style=""font-size:60px;"">+</div>","null","html-keyboard-response","58","75470","0.0-6.0-0.26","LAJU","2","f","rechts","24","","fixation","","","",""
"723","img/0_150.png","74","image-keyboard-response","59","76194","0.0-6.0-1.26","LAJU","2","f","rechts","24","","","self","j","0","true"
"null","<div style=""font-size:60px;"">+</div>","null","html-keyboard-response","60","76596","0.0-6.0-0.27","LAJU","2","f","rechts","24","","fixation","","","",""
"1410","img/90_120.png","70","image-keyboard-response","61","78007","0.0-6.0-1.27","LAJU","2","f","rechts","24","","","self","f","90","true"
"null","<div style=""font-size:60px;"">+</div>","null","html-keyboard-response","62","78509","0.0-6.0-0.28","LAJU","2","f","rechts","24","","fixation","","","",""
"747","img/0_60.png","74","image-keyboard-response","63","79257","0.0-6.0-1.28","LAJU","2","f","rechts","24","","","self","j","0","true"
"null","<div style=""font-size:60px;"">+</div>","null","html-keyboard-response","64","79659","0.0-6.0-0.29","LAJU","2","f","rechts","24","","fixation","","","",""
"813","img/120_210.png","74","image-keyboard-response","65","80473","0.0-6.0-1.29","LAJU","2","f","rechts","24","","","self","j","120","true"
"null","<div style=""font-size:60px;"">+</div>","null","html-keyboard-response","66","80875","0.0-6.0-0.30","LAJU","2","f","rechts","24","","fixation","","","",""
"1075","img/120_270.png","74","image-keyboard-response","67","81951","0.0-6.0-1.30","LAJU","2","f","rechts","24","","","self","j","120","true"
"null","<div style=""font-size:60px;"">+</div>","null","html-keyboard-response","68","82353","0.0-6.0-0.31","LAJU","2","f","rechts","24","","fixation","","","",""
"851","img/0_210.png","70","image-keyboard-response","69","83205","0.0-6.0-1.31","LAJU","2","f","rechts","24","","","self","f","0","true"
"null","<div style=""font-size:60px;"">+</div>","null","html-keyboard-response","70","83606","0.0-6.0-0.32","LAJU","2","f","rechts","24","","fixation","","","",""
"969","img/150_90.png","70","image-keyboard-response","71","84576","0.0-6.0-1.32","LAJU","2","f","rechts","24","","","self","f","150","true"
"null","<div style=""font-size:60px;"">+</div>","null","html-keyboard-response","72","85078","0.0-6.0-0.33","LAJU","2","f","rechts","24","","fixation","","","",""
"738","img/150_60.png","70","image-keyboard-response","73","85817","0.0-6.0-1.33","LAJU","2","f","rechts","24","","","self","f","150","true"
"null","<div style=""font-size:60px;"">+</div>","null","html-keyboard-response","74","86219","0.0-6.0-0.34","LAJU","2","f","rechts","24","","fixation","","","",""
"836","img/150_240.png","74","image-keyboard-response","75","87056","0.0-6.0-1.34","LAJU","2","f","rechts","24","","","self","j","150","true"
"null","<div style=""font-size:60px;"">+</div>","null","html-keyboard-response","76","87558","0.0-6.0-0.35","LAJU","2","f","rechts","24","","fixation","","","",""
"1222","img/30_180.png","74","image-keyboard-response","77","88781","0.0-6.0-1.35","LAJU","2","f","rechts","24","","","self","j","30","true"
"null","<div style=""font-size:60px;"">+</div>","null","html-keyboard-response","78","89233","0.0-6.0-0.36","LAJU","2","f","rechts","24","","fixation","","","",""
"849","img/90_210.png","74","image-keyboard-response","79","90083","0.0-6.0-1.36","LAJU","2","f","rechts","24","","","self","j","90","true"
"null","<div style=""font-size:60px;"">+</div>","null","html-keyboard-response","80","90485","0.0-6.0-0.37","LAJU","2","f","rechts","24","","fixation","","","",""
"1757","img/90_330.png","74","image-keyboard-response","81","92243","0.0-6.0-1.37","LAJU","2","f","rechts","24","","","self","f","90","false"
"null","<div style=""font-size:60px;"">+</div>","null","html-keyboard-response","82","92594","0.0-6.0-0.38","LAJU","2","f","rechts","24","","fixation","","","",""
"798","img/60_180.png","74","image-keyboard-response","83","93394","0.0-6.0-1.38","LAJU","2","f","rechts","24","","","self","j","60","true"
"null","<div style=""font-size:60px;"">+</div>","null","html-keyboard-response","84","93896","0.0-6.0-0.39","LAJU","2","f","rechts","24","","fixation","","","",""
"981","img/60_330.png","74","image-keyboard-response","85","94878","0.0-6.0-1.39","LAJU","2","f","rechts","24","","","self","f","60","false"
"null","<div style=""font-size:60px;"">+</div>","null","html-keyboard-response","86","95380","0.0-6.0-0.40","LAJU","2","f","rechts","24","","fixation","","","",""
"1569","img/30_90.png","74","image-keyboard-response","87","96950","0.0-6.0-1.40","LAJU","2","f","rechts","24","","","self","j","30","true"
"null","<div style=""font-size:60px;"">+</div>","null","html-keyboard-response","88","97252","0.0-6.0-0.41","LAJU","2","f","rechts","24","","fixation","","","",""
"1182","img/150_180.png","74","image-keyboard-response","89","98436","0.0-6.0-1.41","LAJU","2","f","rechts","24","","","self","j","150","true"
"null","<div style=""font-size:60px;"">+</div>","null","html-keyboard-response","90","98837","0.0-6.0-0.42","LAJU","2","f","rechts","24","","fixation","","","",""
"784","img/150_300.png","74","image-keyboard-response","91","99624","0.0-6.0-1.42","LAJU","2","f","rechts","24","","","self","j","150","true"
"null","<div style=""font-size:60px;"">+</div>","null","html-keyboard-response","92","100025","0.0-6.0-0.43","LAJU","2","f","rechts","24","","fixation","","","",""
"2249","img/60_270.png","70","image-keyboard-response","93","102277","0.0-6.0-1.43","LAJU","2","f","rechts","24","","","self","f","60","true"
"null","<div style=""font-size:60px;"">+</div>","null","html-keyboard-response","94","102728","0.0-6.0-0.44","LAJU","2","f","rechts","24","","fixation","","","",""
"1666","img/60_30.png","74","image-keyboard-response","95","104397","0.0-6.0-1.44","LAJU","2","f","rechts","24","","","self","j","60","true"
"null","<div style=""font-size:60px;"">+</div>","null","html-keyboard-response","96","104898","0.0-6.0-0.45","LAJU","2","f","rechts","24","","fixation","","","",""
"2039","img/90_300.png","70","image-keyboard-response","97","106939","0.0-6.0-1.45","LAJU","2","f","rechts","24","","","self","f","90","true"
"null","<div style=""font-size:60px;"">+</div>","null","html-keyboard-response","98","107390","0.0-6.0-0.46","LAJU","2","f","rechts","24","","fixation","","","",""
"1187","img/L150_180.png","70","image-keyboard-response","99","108579","0.0-6.0-1.46","LAJU","2","f","rechts","24","","","self","f","150","true"
"null","<div style=""font-size:60px;"">+</div>","null","html-keyboard-response","100","109030","0.0-6.0-0.47","LAJU","2","f","rechts","24","","fixation","","","",""
"1114","img/120_90.png","70","image-keyboard-response","101","110146","0.0-6.0-1.47","LAJU","2","f","rechts","24","","","self","f","120","true"
"null","<div style=""font-size:60px;"">+</div>","null","html-keyboard-response","102","110548","0.0-6.0-0.48","LAJU","2","f","rechts","24","","fixation","","","",""
"1201","img/30_300.png","70","image-keyboard-response","103","111750","0.0-6.0-1.48","LAJU","2","f","rechts","24","","","self","f","30","true"
"null","<div style=""font-size:60px;"">+</div>","null","html-keyboard-response","104","112252","0.0-6.0-0.49","LAJU","2","f","rechts","24","","fixation","","","",""
"788","img/0_240.png","70","image-keyboard-response","105","113041","0.0-6.0-1.49","LAJU","2","f","rechts","24","","","self","f","0","true"
"null","<div style=""font-size:60px;"">+</div>","null","html-keyboard-response","106","113543","0.0-6.0-0.50","LAJU","2","f","rechts","24","","fixation","","","",""
"657","img/0_330.png","70","image-keyboard-response","107","114201","0.0-6.0-1.50","LAJU","2","f","rechts","24","","","self","f","0","true"
"null","<div style=""font-size:60px;"">+</div>","null","html-keyboard-response","108","114603","0.0-6.0-0.51","LAJU","2","f","rechts","24","","fixation","","","",""
"581","img/0_30.png","74","image-keyboard-response","109","115185","0.0-6.0-1.51","LAJU","2","f","rechts","24","","","self","j","0","true"
"null","<div style=""font-size:60px;"">+</div>","null","html-keyboard-response","110","115487","0.0-6.0-0.52","LAJU","2","f","rechts","24","","fixation","","","",""
"794","img/30_270.png","70","image-keyboard-response","111","116282","0.0-6.0-1.52","LAJU","2","f","rechts","24","","","self","f","30","true"
"null","<div style=""font-size:60px;"">+</div>","null","html-keyboard-response","112","116684","0.0-6.0-0.53","LAJU","2","f","rechts","24","","fixation","","","",""
"1196","img/90_30.png","74","image-keyboard-response","113","117881","0.0-6.0-1.53","LAJU","2","f","rechts","24","","","self","j","90","true"
"null","<div style=""font-size:60px;"">+</div>","null","html-keyboard-response","114","118283","0.0-6.0-0.54","LAJU","2","f","rechts","24","","fixation","","","",""
"620","img/0_30.png","74","image-keyboard-response","115","118904","0.0-6.0-1.54","LAJU","2","f","rechts","24","","","self","j","0","true"
"null","<div style=""font-size:60px;"">+</div>","null","html-keyboard-response","116","119405","0.0-6.0-0.55","LAJU","2","f","rechts","24","","fixation","","","",""
"786","img/0_240.png","70","image-keyboard-response","117","120192","0.0-6.0-1.55","LAJU","2","f","rechts","24","","","self","f","0","true"
"null","<div style=""font-size:60px;"">+</div>","null","html-keyboard-response","118","120644","0.0-6.0-0.56","LAJU","2","f","rechts","24","","fixation","","","",""
"1157","img/60_90.png","74","image-keyboard-response","119","121802","0.0-6.0-1.56","LAJU","2","f","rechts","24","","","self","j","60","true"
"null","<div style=""font-size:60px;"">+</div>","null","html-keyboard-response","120","122203","0.0-6.0-0.57","LAJU","2","f","rechts","24","","fixation","","","",""
"993","img/90_240.png","74","image-keyboard-response","121","123197","0.0-6.0-1.57","LAJU","2","f","rechts","24","","","self","j","90","true"
"null","<div style=""font-size:60px;"">+</div>","null","html-keyboard-response","122","123499","0.0-6.0-0.58","LAJU","2","f","rechts","24","","fixation","","","",""
"757","img/0_210.png","70","image-keyboard-response","123","124257","0.0-6.0-1.58","LAJU","2","f","rechts","24","","","self","f","0","true"
"null","<div style=""font-size:60px;"">+</div>","null","html-keyboard-response","124","124659","0.0-6.0-0.59","LAJU","2","f","rechts","24","","fixation","","","",""
"639","img/0_150.png","74","image-keyboard-response","125","125298","0.0-6.0-1.59","LAJU","2","f","rechts","24","","","self","j","0","true"
"null","<div style=""font-size:60px;"">+</div>","null","html-keyboard-response","126","125750","0.0-6.0-0.60","LAJU","2","f","rechts","24","","fixation","","","",""
"632","img/90_180.png","74","image-keyboard-response","127","126383","0.0-6.0-1.60","LAJU","2","f","rechts","24","","","self","j","90","true"
"null","<div style=""font-size:60px;"">+</div>","null","html-keyboard-response","128","126835","0.0-6.0-0.61","LAJU","2","f","rechts","24","","fixation","","","",""
"1140","img/120_30.png","74","image-keyboard-response","129","127976","0.0-6.0-1.61","LAJU","2","f","rechts","24","","","self","j","120","true"
"null","<div style=""font-size:60px;"">+</div>","null","html-keyboard-response","130","128327","0.0-6.0-0.62","LAJU","2","f","rechts","24","","fixation","","","",""
"858","img/150_240.png","74","image-keyboard-response","131","129186","0.0-6.0-1.62","LAJU","2","f","rechts","24","","","self","j","150","true"
"null","<div style=""font-size:60px;"">+</div>","null","html-keyboard-response","132","129588","0.0-6.0-0.63","LAJU","2","f","rechts","24","","fixation","","","",""
"757","img/0_270.png","70","image-keyboard-response","133","130345","0.0-6.0-1.63","LAJU","2","f","rechts","24","","","self","f","0","true"
"null","<div style=""font-size:60px;"">+</div>","null","html-keyboard-response","134","130746","0.0-6.0-0.64","LAJU","2","f","rechts","24","","fixation","","","",""
"1105","img/90_300.png","70","image-keyboard-response","135","131852","0.0-6.0-1.64","LAJU","2","f","rechts","24","","","self","f","90","true"
"null","<div style=""font-size:60px;"">+</div>","null","html-keyboard-response","136","132154","0.0-6.0-0.65","LAJU","2","f","rechts","24","","fixation","","","",""
"1064","img/60_210.png","74","image-keyboard-response","137","133219","0.0-6.0-1.65","LAJU","2","f","rechts","24","","","self","j","60","true"
"null","<div style=""font-size:60px;"">+</div>","null","html-keyboard-response","138","133571","0.0-6.0-0.66","LAJU","2","f","rechts","24","","fixation","","","",""
"1996","img/120_90.png","70","image-keyboard-response","139","135568","0.0-6.0-1.66","LAJU","2","f","rechts","24","","","self","f","120","true"
"null","<div style=""font-size:60px;"">+</div>","null","html-keyboard-response","140","135970","0.0-6.0-0.67","LAJU","2","f","rechts","24","","fixation","","","",""
"638","img/0_90.png","74","image-keyboard-response","141","136609","0.0-6.0-1.67","LAJU","2","f","rechts","24","","","self","j","0","true"
"null","<div style=""font-size:60px;"">+</div>","null","html-keyboard-response","142","136911","0.0-6.0-0.68","LAJU","2","f","rechts","24","","fixation","","","",""
"1508","img/60_150.png","70","image-keyboard-response","143","138419","0.0-6.0-1.68","LAJU","2","f","rechts","24","","","self","f","60","true"
"null","<div style=""font-size:60px;"">+</div>","null","html-keyboard-response","144","138821","0.0-6.0-0.69","LAJU","2","f","rechts","24","","fixation","","","",""
"1544","img/30_120.png","74","image-keyboard-response","145","140365","0.0-6.0-1.69","LAJU","2","f","rechts","24","","","self","j","30","true"
"null","<div style=""font-size:60px;"">+</div>","null","html-keyboard-response","146","140866","0.0-6.0-0.70","LAJU","2","f","rechts","24","","fixation","","","",""
"1145","img/L30_180.png","70","image-keyboard-response","147","142012","0.0-6.0-1.70","LAJU","2","f","rechts","24","","","self","f","30","true"
"null","<div style=""font-size:60px;"">+</div>","null","html-keyboard-response","148","142464","0.0-6.0-0.71","LAJU","2","f","rechts","24","","fixation","","","",""
"1131","img/120_330.png","74","image-keyboard-response","149","143596","0.0-6.0-1.71","LAJU","2","f","rechts","24","","","self","f","120","false"
"null","<div style=""font-size:60px;"">+</div>","null","html-keyboard-response","150","144097","0.0-6.0-0.72","LAJU","2","f","rechts","24","","fixation","","","",""
"1215","img/60_270.png","70","image-keyboard-response","151","145313","0.0-6.0-1.72","LAJU","2","f","rechts","24","","","self","f","60","true"
"null","<div style=""font-size:60px;"">+</div>","null","html-keyboard-response","152","145715","0.0-6.0-0.73","LAJU","2","f","rechts","24","","fixation","","","",""
"1293","img/30_60.png","74","image-keyboard-response","153","147009","0.0-6.0-1.73","LAJU","2","f","rechts","24","","","self","j","30","true"
"null","<div style=""font-size:60px;"">+</div>","null","html-keyboard-response","154","147360","0.0-6.0-0.74","LAJU","2","f","rechts","24","","fixation","","","",""
"1320","img/L150_180.png","70","image-keyboard-response","155","148682","0.0-6.0-1.74","LAJU","2","f","rechts","24","","","self","f","150","true"
"null","<div style=""font-size:60px;"">+</div>","null","html-keyboard-response","156","148983","0.0-6.0-0.75","LAJU","2","f","rechts","24","","fixation","","","",""
"887","img/L120_180.png","70","image-keyboard-response","157","149871","0.0-6.0-1.75","LAJU","2","f","rechts","24","","","self","f","120","true"
"null","<div style=""font-size:60px;"">+</div>","null","html-keyboard-response","158","150223","0.0-6.0-0.76","LAJU","2","f","rechts","24","","fixation","","","",""
"871","img/150_270.png","74","image-keyboard-response","159","151095","0.0-6.0-1.76","LAJU","2","f","rechts","24","","","self","j","150","true"
"null","<div style=""font-size:60px;"">+</div>","null","html-keyboard-response","160","151447","0.0-6.0-0.77","LAJU","2","f","rechts","24","","fixation","","","",""
"1290","img/30_300.png","70","image-keyboard-response","161","152739","0.0-6.0-1.77","LAJU","2","f","rechts","24","","","self","f","30","true"
"null","<div style=""font-size:60px;"">+</div>","null","html-keyboard-response","162","153140","0.0-6.0-0.78","LAJU","2","f","rechts","24","","fixation","","","",""
"1696","img/90_330.png","70","image-keyboard-response","163","154837","0.0-6.0-1.78","LAJU","2","f","rechts","24","","","self","f","90","true"
"null","<div style=""font-size:60px;"">+</div>","null","html-keyboard-response","164","155289","0.0-6.0-0.79","LAJU","2","f","rechts","24","","fixation","","","",""
"1070","img/150_120.png","70","image-keyboard-response","165","156360","0.0-6.0-1.79","LAJU","2","f","rechts","24","","","self","f","150","true"
"null","<div style=""font-size:60px;"">+</div>","null","html-keyboard-response","166","156762","0.0-6.0-0.80","LAJU","2","f","rechts","24","","fixation","","","",""
"960","img/120_180.png","70","image-keyboard-response","167","157724","0.0-6.0-1.80","LAJU","2","f","rechts","24","","","self","j","120","false"
"null","<div style=""font-size:60px;"">+</div>","null","html-keyboard-response","168","158025","0.0-6.0-0.81","LAJU","2","f","rechts","24","","fixation","","","",""
"1468","img/30_90.png","74","image-keyboard-response","169","159494","0.0-6.0-1.81","LAJU","2","f","rechts","24","","","self","j","30","true"
"null","<div style=""font-size:60px;"">+</div>","null","html-keyboard-response","170","159796","0.0-6.0-0.82","LAJU","2","f","rechts","24","","fixation","","","",""
"1054","img/150_90.png","70","image-keyboard-response","171","160851","0.0-6.0-1.82","LAJU","2","f","rechts","24","","","self","f","150","true"
"null","<div style=""font-size:60px;"">+</div>","null","html-keyboard-response","172","161302","0.0-6.0-0.83","LAJU","2","f","rechts","24","","fixation","","","",""
"1566","img/30_240.png","70","image-keyboard-response","173","162870","0.0-6.0-1.83","LAJU","2","f","rechts","24","","","self","f","30","true"
"null","<div style=""font-size:60px;"">+</div>","null","html-keyboard-response","174","163271","0.0-6.0-0.84","LAJU","2","f","rechts","24","","fixation","","","",""
"862","img/120_150.png","70","image-keyboard-response","175","164134","0.0-6.0-1.84","LAJU","2","f","rechts","24","","","self","f","120","true"
"null","<div style=""font-size:60px;"">+</div>","null","html-keyboard-response","176","164536","0.0-6.0-0.85","LAJU","2","f","rechts","24","","fixation","","","",""
"879","img/90_210.png","74","image-keyboard-response","177","165417","0.0-6.0-1.85","LAJU","2","f","rechts","24","","","self","j","90","true"
"null","<div style=""font-size:60px;"">+</div>","null","html-keyboard-response","178","165718","0.0-6.0-0.86","LAJU","2","f","rechts","24","","fixation","","","",""
"1284","img/90_60.png","74","image-keyboard-response","179","167003","0.0-6.0-1.86","LAJU","2","f","rechts","24","","","self","j","90","true"
"null","<div style=""font-size:60px;"">+</div>","null","html-keyboard-response","180","167355","0.0-6.0-0.87","LAJU","2","f","rechts","24","","fixation","","","",""
"1650","img/150_300.png","74","image-keyboard-response","181","169006","0.0-6.0-1.87","LAJU","2","f","rechts","24","","","self","j","150","true"
"null","<div style=""font-size:60px;"">+</div>","null","html-keyboard-response","182","169507","0.0-6.0-0.88","LAJU","2","f","rechts","24","","fixation","","","",""
"835","img/0_120.png","74","image-keyboard-response","183","170343","0.0-6.0-1.88","LAJU","2","f","rechts","24","","","self","j","0","true"
"null","<div style=""font-size:60px;"">+</div>","null","html-keyboard-response","184","170644","0.0-6.0-0.89","LAJU","2","f","rechts","24","","fixation","","","",""
"665","img/150_180.png","74","image-keyboard-response","185","171310","0.0-6.0-1.89","LAJU","2","f","rechts","24","","","self","j","150","true"
"null","<div style=""font-size:60px;"">+</div>","null","html-keyboard-response","186","171762","0.0-6.0-0.90","LAJU","2","f","rechts","24","","fixation","","","",""
"1115","img/90_150.png","70","image-keyboard-response","187","172878","0.0-6.0-1.90","LAJU","2","f","rechts","24","","","self","f","90","true"
"null","<div style=""font-size:60px;"">+</div>","null","html-keyboard-response","188","173380","0.0-6.0-0.91","LAJU","2","f","rechts","24","","fixation","","","",""
"785","img/90_120.png","70","image-keyboard-response","189","174165","0.0-6.0-1.91","LAJU","2","f","rechts","24","","","self","f","90","true"
"null","<div style=""font-size:60px;"">+</div>","null","html-keyboard-response","190","174567","0.0-6.0-0.92","LAJU","2","f","rechts","24","","fixation","","","",""
"838","img/0_330.png","70","image-keyboard-response","191","175406","0.0-6.0-1.92","LAJU","2","f","rechts","24","","","self","f","0","true"
"null","<div style=""font-size:60px;"">+</div>","null","html-keyboard-response","192","175758","0.0-6.0-0.93","LAJU","2","f","rechts","24","","fixation","","","",""
"998","img/0_300.png","70","image-keyboard-response","193","176756","0.0-6.0-1.93","LAJU","2","f","rechts","24","","","self","f","0","true"
"null","<div style=""font-size:60px;"">+</div>","null","html-keyboard-response","194","177158","0.0-6.0-0.94","LAJU","2","f","rechts","24","","fixation","","","",""
"578","img/0_60.png","74","image-keyboard-response","195","177737","0.0-6.0-1.94","LAJU","2","f","rechts","24","","","self","j","0","true"
"null","<div style=""font-size:60px;"">+</div>","null","html-keyboard-response","196","178089","0.0-6.0-0.95","LAJU","2","f","rechts","24","","fixation","","","",""
"816","img/30_180.png","74","image-keyboard-response","197","178906","0.0-6.0-1.95","LAJU","2","f","rechts","24","","","self","j","30","true"
"null","<div style=""font-size:60px;"">+</div>","null","html-keyboard-response","198","179258","0.0-6.0-0.96","LAJU","2","f","rechts","24","","fixation","","","",""
"1831","img/60_330.png","70","image-keyboard-response","199","181089","0.0-6.0-1.96","LAJU","2","f","rechts","24","","","self","f","60","true"
"null","<div style=""font-size:60px;"">+</div>","null","html-keyboard-response","200","181591","0.0-6.0-0.97","LAJU","2","f","rechts","24","","fixation","","","",""
"1183","img/L90_180.png","70","image-keyboard-response","201","182775","0.0-6.0-1.97","LAJU","2","f","rechts","24","","","self","f","90","true"
"null","<div style=""font-size:60px;"">+</div>","null","html-keyboard-response","202","183177","0.0-6.0-0.98","LAJU","2","f","rechts","24","","fixation","","","",""
"1073","img/120_270.png","70","image-keyboard-response","203","184250","0.0-6.0-1.98","LAJU","2","f","rechts","24","","","self","j","120","false"
"null","<div style=""font-size:60px;"">+</div>","null","html-keyboard-response","204","184551","0.0-6.0-0.99","LAJU","2","f","rechts","24","","fixation","","","",""
"1655","img/150_60.png","70","image-keyboard-response","205","186207","0.0-6.0-1.99","LAJU","2","f","rechts","24","","","self","f","150","true"
"null","<div style=""font-size:60px;"">+</div>","null","html-keyboard-response","206","186509","0.0-6.0-0.100","LAJU","2","f","rechts","24","","fixation","","","",""
"798","img/L60_180.png","70","image-keyboard-response","207","187307","0.0-6.0-1.100","LAJU","2","f","rechts","24","","","self","f","60","true"
"null","<div style=""font-size:60px;"">+</div>","null","html-keyboard-response","208","187659","0.0-6.0-0.101","LAJU","2","f","rechts","24","","fixation","","","",""
"2202","img/60_30.png","74","image-keyboard-response","209","189862","0.0-6.0-1.101","LAJU","2","f","rechts","24","","","self","j","60","true"
"null","<div style=""font-size:60px;"">+</div>","null","html-keyboard-response","210","190213","0.0-6.0-0.102","LAJU","2","f","rechts","24","","fixation","","","",""
"810","img/120_210.png","74","image-keyboard-response","211","191024","0.0-6.0-1.102","LAJU","2","f","rechts","24","","","self","j","120","true"
"null","<div style=""font-size:60px;"">+</div>","null","html-keyboard-response","212","191426","0.0-6.0-0.103","LAJU","2","f","rechts","24","","fixation","","","",""
"806","img/60_180.png","74","image-keyboard-response","213","192232","0.0-6.0-1.103","LAJU","2","f","rechts","24","","","self","j","60","true"
"null","<div style=""font-size:60px;"">+</div>","null","html-keyboard-response","214","192634","0.0-6.0-0.104","LAJU","2","f","rechts","24","","fixation","","","",""
"781","img/0_150.png","74","image-keyboard-response","215","193416","0.0-6.0-1.104","LAJU","2","f","rechts","24","","","self","j","0","true"
"null","<div style=""font-size:60px;"">+</div>","null","html-keyboard-response","216","193818","0.0-6.0-0.105","LAJU","2","f","rechts","24","","fixation","","","",""
"1014","img/30_90.png","74","image-keyboard-response","217","194833","0.0-6.0-1.105","LAJU","2","f","rechts","24","","","self","j","30","true"
"null","<div style=""font-size:60px;"">+</div>","null","html-keyboard-response","218","195334","0.0-6.0-0.106","LAJU","2","f","rechts","24","","fixation","","","",""
"871","img/90_240.png","74","image-keyboard-response","219","196206","0.0-6.0-1.106","LAJU","2","f","rechts","24","","","self","j","90","true"
"null","<div style=""font-size:60px;"">+</div>","null","html-keyboard-response","220","196507","0.0-6.0-0.107","LAJU","2","f","rechts","24","","fixation","","","",""
"800","img/0_300.png","70","image-keyboard-response","221","197308","0.0-6.0-1.107","LAJU","2","f","rechts","24","","","self","f","0","true"
"null","<div style=""font-size:60px;"">+</div>","null","html-keyboard-response","222","197710","0.0-6.0-0.108","LAJU","2","f","rechts","24","","fixation","","","",""
"964","img/60_30.png","74","image-keyboard-response","223","198675","0.0-6.0-1.108","LAJU","2","f","rechts","24","","","self","j","60","true"
"null","<div style=""font-size:60px;"">+</div>","null","html-keyboard-response","224","199177","0.0-6.0-0.109","LAJU","2","f","rechts","24","","fixation","","","",""
"1084","img/90_30.png","74","image-keyboard-response","225","200262","0.0-6.0-1.109","LAJU","2","f","rechts","24","","","self","j","90","true"
"null","<div style=""font-size:60px;"">+</div>","null","html-keyboard-response","226","200663","0.0-6.0-0.110","LAJU","2","f","rechts","24","","fixation","","","",""
"950","img/30_60.png","74","image-keyboard-response","227","201615","0.0-6.0-1.110","LAJU","2","f","rechts","24","","","self","j","30","true"
"null","<div style=""font-size:60px;"">+</div>","null","html-keyboard-response","228","201966","0.0-6.0-0.111","LAJU","2","f","rechts","24","","fixation","","","",""
"1964","img/120_330.png","70","image-keyboard-response","229","203932","0.0-6.0-1.111","LAJU","2","f","rechts","24","","","self","f","120","true"
"null","<div style=""font-size:60px;"">+</div>","null","html-keyboard-response","230","204233","0.0-6.0-0.112","LAJU","2","f","rechts","24","","fixation","","","",""
"781","img/0_210.png","70","image-keyboard-response","231","205016","0.0-6.0-1.112","LAJU","2","f","rechts","24","","","self","f","0","true"
"null","<div style=""font-size:60px;"">+</div>","null","html-keyboard-response","232","205317","0.0-6.0-0.113","LAJU","2","f","rechts","24","","fixation","","","",""
"1503","img/150_300.png","74","image-keyboard-response","233","206821","0.0-6.0-1.113","LAJU","2","f","rechts","24","","","self","j","150","true"
"null","<div style=""font-size:60px;"">+</div>","null","html-keyboard-response","234","207123","0.0-6.0-0.114","LAJU","2","f","rechts","24","","fixation","","","",""
"1281","img/60_150.png","74","image-keyboard-response","235","208405","0.0-6.0-1.114","LAJU","2","f","rechts","24","","","self","f","60","false"
"null","<div style=""font-size:60px;"">+</div>","null","html-keyboard-response","236","208807","0.0-6.0-0.115","LAJU","2","f","rechts","24","","fixation","","","",""
"1797","img/90_300.png","70","image-keyboard-response","237","210606","0.0-6.0-1.115","LAJU","2","f","rechts","24","","","self","f","90","true"
"null","<div style=""font-size:60px;"">+</div>","null","html-keyboard-response","238","211007","0.0-6.0-0.116","LAJU","2","f","rechts","24","","fixation","","","",""
"747","img/0_60.png","74","image-keyboard-response","239","211756","0.0-6.0-1.116","LAJU","2","f","rechts","24","","","self","j","0","true"
"null","<div style=""font-size:60px;"">+</div>","null","html-keyboard-response","240","212157","0.0-6.0-0.117","LAJU","2","f","rechts","24","","fixation","","","",""
"673","img/0_240.png","70","image-keyboard-response","241","212831","0.0-6.0-1.117","LAJU","2","f","rechts","24","","","self","f","0","true"
"null","<div style=""font-size:60px;"">+</div>","null","html-keyboard-response","242","213132","0.0-6.0-0.118","LAJU","2","f","rechts","24","","fixation","","","",""
"1303","img/150_120.png","70","image-keyboard-response","243","214436","0.0-6.0-1.118","LAJU","2","f","rechts","24","","","self","f","150","true"
"null","<div style=""font-size:60px;"">+</div>","null","html-keyboard-response","244","214738","0.0-6.0-0.119","LAJU","2","f","rechts","24","","fixation","","","",""
"1067","img/30_180.png","74","image-keyboard-response","245","215806","0.0-6.0-1.119","LAJU","2","f","rechts","24","","","self","j","30","true"
"null","<div style=""font-size:60px;"">+</div>","null","html-keyboard-response","246","216308","0.0-6.0-0.120","LAJU","2","f","rechts","24","","fixation","","","",""
"2178","img/120_90.png","70","image-keyboard-response","247","218487","0.0-6.0-1.120","LAJU","2","f","rechts","24","","","self","f","120","true"
"null","<div style=""font-size:60px;"">+</div>","null","html-keyboard-response","248","218788","0.0-6.0-0.121","LAJU","2","f","rechts","24","","fixation","","","",""
"632","img/150_180.png","74","image-keyboard-response","249","219421","0.0-6.0-1.121","LAJU","2","f","rechts","24","","","self","j","150","true"
"null","<div style=""font-size:60px;"">+</div>","null","html-keyboard-response","250","219773","0.0-6.0-0.122","LAJU","2","f","rechts","24","","fixation","","","",""
"748","img/0_330.png","70","image-keyboard-response","251","220522","0.0-6.0-1.122","LAJU","2","f","rechts","24","","","self","f","0","true"
"null","<div style=""font-size:60px;"">+</div>","null","html-keyboard-response","252","220874","0.0-6.0-0.123","LAJU","2","f","rechts","24","","fixation","","","",""
"1067","img/L30_180.png","70","image-keyboard-response","253","221943","0.0-6.0-1.123","LAJU","2","f","rechts","24","","","self","f","30","true"
"null","<div style=""font-size:60px;"">+</div>","null","html-keyboard-response","254","222394","0.0-6.0-0.124","LAJU","2","f","rechts","24","","fixation","","","",""
"685","img/90_180.png","74","image-keyboard-response","255","223080","0.0-6.0-1.124","LAJU","2","f","rechts","24","","","self","j","90","true"
"null","<div style=""font-size:60px;"">+</div>","null","html-keyboard-response","256","223432","0.0-6.0-0.125","LAJU","2","f","rechts","24","","fixation","","","",""
"2193","img/90_60.png","74","image-keyboard-response","257","225625","0.0-6.0-1.125","LAJU","2","f","rechts","24","","","self","j","90","true"
"null","<div style=""font-size:60px;"">+</div>","null","html-keyboard-response","258","226077","0.0-6.0-0.126","LAJU","2","f","rechts","24","","fixation","","","",""
"1119","img/90_330.png","70","image-keyboard-response","259","227197","0.0-6.0-1.126","LAJU","2","f","rechts","24","","","self","f","90","true"
"null","<div style=""font-size:60px;"">+</div>","null","html-keyboard-response","260","227649","0.0-6.0-0.127","LAJU","2","f","rechts","24","","fixation","","","",""
"1210","img/150_90.png","70","image-keyboard-response","261","228859","0.0-6.0-1.127","LAJU","2","f","rechts","24","","","self","f","150","true"
"null","<div style=""font-size:60px;"">+</div>","null","html-keyboard-response","262","229310","0.0-6.0-0.128","LAJU","2","f","rechts","24","","fixation","","","",""
"857","img/150_270.png","74","image-keyboard-response","263","230168","0.0-6.0-1.128","LAJU","2","f","rechts","24","","","self","j","150","true"
"null","<div style=""font-size:60px;"">+</div>","null","html-keyboard-response","264","230620","0.0-6.0-0.129","LAJU","2","f","rechts","24","","fixation","","","",""
"1340","img/150_60.png","70","image-keyboard-response","265","231960","0.0-6.0-1.129","LAJU","2","f","rechts","24","","","self","f","150","true"
"null","<div style=""font-size:60px;"">+</div>","null","html-keyboard-response","266","232362","0.0-6.0-0.130","LAJU","2","f","rechts","24","","fixation","","","",""
"617","img/0_30.png","74","image-keyboard-response","267","232980","0.0-6.0-1.130","LAJU","2","f","rechts","24","","","self","j","0","true"
"null","<div style=""font-size:60px;"">+</div>","null","html-keyboard-response","268","233332","0.0-6.0-0.131","LAJU","2","f","rechts","24","","fixation","","","",""
"1337","img/120_30.png","74","image-keyboard-response","269","234669","0.0-6.0-1.131","LAJU","2","f","rechts","24","","","self","j","120","true"
"null","<div style=""font-size:60px;"">+</div>","null","html-keyboard-response","270","235121","0.0-6.0-0.132","LAJU","2","f","rechts","24","","fixation","","","",""
"937","img/120_210.png","74","image-keyboard-response","271","236059","0.0-6.0-1.132","LAJU","2","f","rechts","24","","","self","j","120","true"
"null","<div style=""font-size:60px;"">+</div>","null","html-keyboard-response","272","236411","0.0-6.0-0.133","LAJU","2","f","rechts","24","","fixation","","","",""
"1792","img/L150_180.png","70","image-keyboard-response","273","238204","0.0-6.0-1.133","LAJU","2","f","rechts","24","","","self","f","150","true"
"null","<div style=""font-size:60px;"">+</div>","null","html-keyboard-response","274","238506","0.0-6.0-0.134","LAJU","2","f","rechts","24","","fixation","","","",""
"808","img/L120_180.png","70","image-keyboard-response","275","239315","0.0-6.0-1.134","LAJU","2","f","rechts","24","","","self","f","120","true"
"null","<div style=""font-size:60px;"">+</div>","null","html-keyboard-response","276","239766","0.0-6.0-0.135","LAJU","2","f","rechts","24","","fixation","","","",""
"1068","img/60_90.png","74","image-keyboard-response","277","240836","0.0-6.0-1.135","LAJU","2","f","rechts","24","","","self","j","60","true"
"null","<div style=""font-size:60px;"">+</div>","null","html-keyboard-response","278","241187","0.0-6.0-0.136","LAJU","2","f","rechts","24","","fixation","","","",""
"1238","img/30_270.png","70","image-keyboard-response","279","242426","0.0-6.0-1.136","LAJU","2","f","rechts","24","","","self","f","30","true"
"null","<div style=""font-size:60px;"">+</div>","null","html-keyboard-response","280","242827","0.0-6.0-0.137","LAJU","2","f","rechts","24","","fixation","","","",""
"1376","img/120_150.png","70","image-keyboard-response","281","244205","0.0-6.0-1.137","LAJU","2","f","rechts","24","","","self","f","120","true"
"null","<div style=""font-size:60px;"">+</div>","null","html-keyboard-response","282","244706","0.0-6.0-0.138","LAJU","2","f","rechts","24","","fixation","","","",""
"897","img/90_120.png","70","image-keyboard-response","283","245605","0.0-6.0-1.138","LAJU","2","f","rechts","24","","","self","f","90","true"
"null","<div style=""font-size:60px;"">+</div>","null","html-keyboard-response","284","245907","0.0-6.0-0.139","LAJU","2","f","rechts","24","","fixation","","","",""
"951","img/30_240.png","70","image-keyboard-response","285","246858","0.0-6.0-1.139","LAJU","2","f","rechts","24","","","self","f","30","true"
"null","<div style=""font-size:60px;"">+</div>","null","html-keyboard-response","286","247359","0.0-6.0-0.140","LAJU","2","f","rechts","24","","fixation","","","",""
"981","img/60_270.png","70","image-keyboard-response","287","248341","0.0-6.0-1.140","LAJU","2","f","rechts","24","","","self","f","60","true"
"null","<div style=""font-size:60px;"">+</div>","null","html-keyboard-response","288","248692","0.0-6.0-0.141","LAJU","2","f","rechts","24","","fixation","","","",""
"984","img/90_210.png","74","image-keyboard-response","289","249677","0.0-6.0-1.141","LAJU","2","f","rechts","24","","","self","j","90","true"
"null","<div style=""font-size:60px;"">+</div>","null","html-keyboard-response","290","250029","0.0-6.0-0.142","LAJU","2","f","rechts","24","","fixation","","","",""
"1002","img/60_180.png","74","image-keyboard-response","291","251033","0.0-6.0-1.142","LAJU","2","f","rechts","24","","","self","j","60","true"
"null","<div style=""font-size:60px;"">+</div>","null","html-keyboard-response","292","251435","0.0-6.0-0.143","LAJU","2","f","rechts","24","","fixation","","","",""
"951","img/30_300.png","74","image-keyboard-response","293","252387","0.0-6.0-1.143","LAJU","2","f","rechts","24","","","self","f","30","false"
"null","<div style=""font-size:60px;"">+</div>","null","html-keyboard-response","294","252738","0.0-6.0-0.144","LAJU","2","f","rechts","24","","fixation","","","",""
"1077","img/120_180.png","74","image-keyboard-response","295","253816","0.0-6.0-1.144","LAJU","2","f","rechts","24","","","self","j","120","true"
"null","<div style=""font-size:60px;"">+</div>","null","html-keyboard-response","296","254217","0.0-6.0-0.145","LAJU","2","f","rechts","24","","fixation","","","",""
"1602","img/L90_180.png","70","image-keyboard-response","297","255820","0.0-6.0-1.145","LAJU","2","f","rechts","24","","","self","f","90","true"
"null","<div style=""font-size:60px;"">+</div>","null","html-keyboard-response","298","256271","0.0-6.0-0.146","LAJU","2","f","rechts","24","","fixation","","","",""
"974","img/120_270.png","74","image-keyboard-response","299","257246","0.0-6.0-1.146","LAJU","2","f","rechts","24","","","self","j","120","true"
"null","<div style=""font-size:60px;"">+</div>","null","html-keyboard-response","300","257648","0.0-6.0-0.147","LAJU","2","f","rechts","24","","fixation","","","",""
"1058","img/0_270.png","70","image-keyboard-response","301","258706","0.0-6.0-1.147","LAJU","2","f","rechts","24","","","self","f","0","true"
"null","<div style=""font-size:60px;"">+</div>","null","html-keyboard-response","302","259157","0.0-6.0-0.148","LAJU","2","f","rechts","24","","fixation","","","",""
"1065","img/60_330.png","70","image-keyboard-response","303","260223","0.0-6.0-1.148","LAJU","2","f","rechts","24","","","self","f","60","true"
"null","<div style=""font-size:60px;"">+</div>","null","html-keyboard-response","304","260724","0.0-6.0-0.149","LAJU","2","f","rechts","24","","fixation","","","",""
"1069","img/30_120.png","74","image-keyboard-response","305","261794","0.0-6.0-1.149","LAJU","2","f","rechts","24","","","self","j","30","true"
"null","<div style=""font-size:60px;"">+</div>","null","html-keyboard-response","306","262146","0.0-6.0-0.150","LAJU","2","f","rechts","24","","fixation","","","",""
"1065","img/L60_180.png","70","image-keyboard-response","307","263212","0.0-6.0-1.150","LAJU","2","f","rechts","24","","","self","f","60","true"
"null","<div style=""font-size:60px;"">+</div>","null","html-keyboard-response","308","263664","0.0-6.0-0.151","LAJU","2","f","rechts","24","","fixation","","","",""
"717","img/150_240.png","74","image-keyboard-response","309","264381","0.0-6.0-1.151","LAJU","2","f","rechts","24","","","self","j","150","true"
"null","<div style=""font-size:60px;"">+</div>","null","html-keyboard-response","310","264883","0.0-6.0-0.152","LAJU","2","f","rechts","24","","fixation","","","",""
"1016","img/60_210.png","74","image-keyboard-response","311","265900","0.0-6.0-1.152","LAJU","2","f","rechts","24","","","self","j","60","true"
"null","<div style=""font-size:60px;"">+</div>","null","html-keyboard-response","312","266402","0.0-6.0-0.153","LAJU","2","f","rechts","24","","fixation","","","",""
"1064","img/0_90.png","74","image-keyboard-response","313","267468","0.0-6.0-1.153","LAJU","2","f","rechts","24","","","self","j","0","true"
"null","<div style=""font-size:60px;"">+</div>","null","html-keyboard-response","314","267969","0.0-6.0-0.154","LAJU","2","f","rechts","24","","fixation","","","",""
"731","img/0_120.png","74","image-keyboard-response","315","268701","0.0-6.0-1.154","LAJU","2","f","rechts","24","","","self","j","0","true"
"null","<div style=""font-size:60px;"">+</div>","null","html-keyboard-response","316","269053","0.0-6.0-0.155","LAJU","2","f","rechts","24","","fixation","","","",""
"819","img/90_150.png","70","image-keyboard-response","317","269873","0.0-6.0-1.155","LAJU","2","f","rechts","24","","","self","f","90","true"
"null","<div style=""font-size:60px;"">+</div>","null","html-keyboard-response","318","270374","0.0-6.0-0.156","LAJU","2","f","rechts","24","","fixation","","","",""
"870","img/30_90.png","74","image-keyboard-response","319","271245","0.0-6.0-1.156","LAJU","2","f","rechts","24","","","self","j","30","true"
"null","<div style=""font-size:60px;"">+</div>","null","html-keyboard-response","320","271647","0.0-6.0-0.157","LAJU","2","f","rechts","24","","fixation","","","",""
"1406","img/120_330.png","70","image-keyboard-response","321","273054","0.0-6.0-1.157","LAJU","2","f","rechts","24","","","self","f","120","true"
"null","<div style=""font-size:60px;"">+</div>","null","html-keyboard-response","322","273406","0.0-6.0-0.158","LAJU","2","f","rechts","24","","fixation","","","",""
"858","img/150_270.png","74","image-keyboard-response","323","274264","0.0-6.0-1.158","LAJU","2","f","rechts","24","","","self","j","150","true"
"null","<div style=""font-size:60px;"">+</div>","null","html-keyboard-response","324","274666","0.0-6.0-0.159","LAJU","2","f","rechts","24","","fixation","","","",""
"667","img/0_330.png","70","image-keyboard-response","325","275333","0.0-6.0-1.159","LAJU","2","f","rechts","24","","","self","f","0","true"
"null","<div style=""font-size:60px;"">+</div>","null","html-keyboard-response","326","275835","0.0-6.0-0.160","LAJU","2","f","rechts","24","","fixation","","","",""
"494","img/0_60.png","74","image-keyboard-response","327","276330","0.0-6.0-1.160","LAJU","2","f","rechts","24","","","self","j","0","true"
"null","<div style=""font-size:60px;"">+</div>","null","html-keyboard-response","328","276682","0.0-6.0-0.161","LAJU","2","f","rechts","24","","fixation","","","",""
"705","img/120_180.png","74","image-keyboard-response","329","277388","0.0-6.0-1.161","LAJU","2","f","rechts","24","","","self","j","120","true"
"null","<div style=""font-size:60px;"">+</div>","null","html-keyboard-response","330","277790","0.0-6.0-0.162","LAJU","2","f","rechts","24","","fixation","","","",""
"696","img/0_240.png","70","image-keyboard-response","331","278486","0.0-6.0-1.162","LAJU","2","f","rechts","24","","","self","f","0","true"
"null","<div style=""font-size:60px;"">+</div>","null","html-keyboard-response","332","278988","0.0-6.0-0.163","LAJU","2","f","rechts","24","","fixation","","","",""
"808","img/30_270.png","70","image-keyboard-response","333","279797","0.0-6.0-1.163","LAJU","2","f","rechts","24","","","self","f","30","true"
"null","<div style=""font-size:60px;"">+</div>","null","html-keyboard-response","334","280099","0.0-6.0-0.164","LAJU","2","f","rechts","24","","fixation","","","",""
"887","img/60_210.png","74","image-keyboard-response","335","280987","0.0-6.0-1.164","LAJU","2","f","rechts","24","","","self","j","60","true"
"null","<div style=""font-size:60px;"">+</div>","null","html-keyboard-response","336","281439","0.0-6.0-0.165","LAJU","2","f","rechts","24","","fixation","","","",""
"816","img/0_120.png","74","image-keyboard-response","337","282255","0.0-6.0-1.165","LAJU","2","f","rechts","24","","","self","j","0","true"
"null","<div style=""font-size:60px;"">+</div>","null","html-keyboard-response","338","282707","0.0-6.0-0.166","LAJU","2","f","rechts","24","","fixation","","","",""
"613","img/90_210.png","74","image-keyboard-response","339","283320","0.0-6.0-1.166","LAJU","2","f","rechts","24","","","self","j","90","true"
"null","<div style=""font-size:60px;"">+</div>","null","html-keyboard-response","340","283621","0.0-6.0-0.167","LAJU","2","f","rechts","24","","fixation","","","",""
"1217","img/90_240.png","74","image-keyboard-response","341","284840","0.0-6.0-1.167","LAJU","2","f","rechts","24","","","self","j","90","true"
"null","<div style=""font-size:60px;"">+</div>","null","html-keyboard-response","342","285141","0.0-6.0-0.168","LAJU","2","f","rechts","24","","fixation","","","",""
"729","img/L150_180.png","70","image-keyboard-response","343","285871","0.0-6.0-1.168","LAJU","2","f","rechts","24","","","self","f","150","true"
"null","<div style=""font-size:60px;"">+</div>","null","html-keyboard-response","344","286373","0.0-6.0-0.169","LAJU","2","f","rechts","24","","fixation","","","",""
"506","img/60_330.png","74","image-keyboard-response","345","286879","0.0-6.0-1.169","LAJU","2","f","rechts","24","","","self","f","60","false"
"null","<div style=""font-size:60px;"">+</div>","null","html-keyboard-response","346","287381","0.0-6.0-0.170","LAJU","2","f","rechts","24","","fixation","","","",""
"973","img/30_120.png","74","image-keyboard-response","347","288354","0.0-6.0-1.170","LAJU","2","f","rechts","24","","","self","j","30","true"
"null","<div style=""font-size:60px;"">+</div>","null","html-keyboard-response","348","288756","0.0-6.0-0.171","LAJU","2","f","rechts","24","","fixation","","","",""
"1342","img/150_60.png","70","image-keyboard-response","349","290098","0.0-6.0-1.171","LAJU","2","f","rechts","24","","","self","f","150","true"
"null","<div style=""font-size:60px;"">+</div>","null","html-keyboard-response","350","290600","0.0-6.0-0.172","LAJU","2","f","rechts","24","","fixation","","","",""
"752","img/150_120.png","70","image-keyboard-response","351","291352","0.0-6.0-1.172","LAJU","2","f","rechts","24","","","self","f","150","true"
"null","<div style=""font-size:60px;"">+</div>","null","html-keyboard-response","352","291703","0.0-6.0-0.173","LAJU","2","f","rechts","24","","fixation","","","",""
"1261","img/90_330.png","70","image-keyboard-response","353","292965","0.0-6.0-1.173","LAJU","2","f","rechts","24","","","self","f","90","true"
"null","<div style=""font-size:60px;"">+</div>","null","html-keyboard-response","354","293467","0.0-6.0-0.174","LAJU","2","f","rechts","24","","fixation","","","",""
"1071","img/150_300.png","70","image-keyboard-response","355","294538","0.0-6.0-1.174","LAJU","2","f","rechts","24","","","self","j","150","false"
"null","<div style=""font-size:60px;"">+</div>","null","html-keyboard-response","356","294940","0.0-6.0-0.175","LAJU","2","f","rechts","24","","fixation","","","",""
"986","img/0_210.png","70","image-keyboard-response","357","295927","0.0-6.0-1.175","LAJU","2","f","rechts","24","","","self","f","0","true"
"null","<div style=""font-size:60px;"">+</div>","null","html-keyboard-response","358","296328","0.0-6.0-0.176","LAJU","2","f","rechts","24","","fixation","","","",""
"843","img/L30_180.png","70","image-keyboard-response","359","297173","0.0-6.0-1.176","LAJU","2","f","rechts","24","","","self","f","30","true"
"null","<div style=""font-size:60px;"">+</div>","null","html-keyboard-response","360","297524","0.0-6.0-0.177","LAJU","2","f","rechts","24","","fixation","","","",""
"896","img/60_270.png","70","image-keyboard-response","361","298421","0.0-6.0-1.177","LAJU","2","f","rechts","24","","","self","f","60","true"
"null","<div style=""font-size:60px;"">+</div>","null","html-keyboard-response","362","298923","0.0-6.0-0.178","LAJU","2","f","rechts","24","","fixation","","","",""
"1704","img/90_60.png","74","image-keyboard-response","363","300629","0.0-6.0-1.178","LAJU","2","f","rechts","24","","","self","j","90","true"
"null","<div style=""font-size:60px;"">+</div>","null","html-keyboard-response","364","300980","0.0-6.0-0.179","LAJU","2","f","rechts","24","","fixation","","","",""
"1138","img/120_90.png","70","image-keyboard-response","365","302120","0.0-6.0-1.179","LAJU","2","f","rechts","24","","","self","f","120","true"
"null","<div style=""font-size:60px;"">+</div>","null","html-keyboard-response","366","302622","0.0-6.0-0.180","LAJU","2","f","rechts","24","","fixation","","","",""
"861","img/30_240.png","70","image-keyboard-response","367","303483","0.0-6.0-1.180","LAJU","2","f","rechts","24","","","self","f","30","true"
"null","<div style=""font-size:60px;"">+</div>","null","html-keyboard-response","368","303885","0.0-6.0-0.181","LAJU","2","f","rechts","24","","fixation","","","",""
"1378","img/120_270.png","74","image-keyboard-response","369","305264","0.0-6.0-1.181","LAJU","2","f","rechts","24","","","self","j","120","true"
"null","<div style=""font-size:60px;"">+</div>","null","html-keyboard-response","370","305565","0.0-6.0-0.182","LAJU","2","f","rechts","24","","fixation","","","",""
"886","img/L120_180.png","70","image-keyboard-response","371","306453","0.0-6.0-1.182","LAJU","2","f","rechts","24","","","self","f","120","true"
"null","<div style=""font-size:60px;"">+</div>","null","html-keyboard-response","372","306754","0.0-6.0-0.183","LAJU","2","f","rechts","24","","fixation","","","",""
"2463","img/120_30.png","70","image-keyboard-response","373","309219","0.0-6.0-1.183","LAJU","2","f","rechts","24","","","self","j","120","false"
"null","<div style=""font-size:60px;"">+</div>","null","html-keyboard-response","374","309570","0.0-6.0-0.184","LAJU","2","f","rechts","24","","fixation","","","",""
"2386","img/90_150.png","70","image-keyboard-response","375","311957","0.0-6.0-1.184","LAJU","2","f","rechts","24","","","self","f","90","true"
"null","<div style=""font-size:60px;"">+</div>","null","html-keyboard-response","376","312259","0.0-6.0-0.185","LAJU","2","f","rechts","24","","fixation","","","",""
"969","img/90_120.png","70","image-keyboard-response","377","313228","0.0-6.0-1.185","LAJU","2","f","rechts","24","","","self","f","90","true"
"null","<div style=""font-size:60px;"">+</div>","null","html-keyboard-response","378","313580","0.0-6.0-0.186","LAJU","2","f","rechts","24","","fixation","","","",""
"1268","img/30_180.png","74","image-keyboard-response","379","314849","0.0-6.0-1.186","LAJU","2","f","rechts","24","","","self","j","30","true"
"null","<div style=""font-size:60px;"">+</div>","null","html-keyboard-response","380","315251","0.0-6.0-0.187","LAJU","2","f","rechts","24","","fixation","","","",""
"679","img/120_210.png","74","image-keyboard-response","381","315931","0.0-6.0-1.187","LAJU","2","f","rechts","24","","","self","j","120","true"
"null","<div style=""font-size:60px;"">+</div>","null","html-keyboard-response","382","316333","0.0-6.0-0.188","LAJU","2","f","rechts","24","","fixation","","","",""
"1070","img/L60_180.png","70","image-keyboard-response","383","317404","0.0-6.0-1.188","LAJU","2","f","rechts","24","","","self","f","60","true"
"null","<div style=""font-size:60px;"">+</div>","null","html-keyboard-response","384","317705","0.0-6.0-0.189","LAJU","2","f","rechts","24","","fixation","","","",""
"1443","img/30_300.png","74","image-keyboard-response","385","319149","0.0-6.0-1.189","LAJU","2","f","rechts","24","","","self","f","30","false"
"null","<div style=""font-size:60px;"">+</div>","null","html-keyboard-response","386","319501","0.0-6.0-0.190","LAJU","2","f","rechts","24","","fixation","","","",""
"1725","img/60_150.png","70","image-keyboard-response","387","321227","0.0-6.0-1.190","LAJU","2","f","rechts","24","","","self","f","60","true"
"null","<div style=""font-size:60px;"">+</div>","null","html-keyboard-response","388","321579","0.0-6.0-0.191","LAJU","2","f","rechts","24","","fixation","","","",""
"1237","img/60_30.png","74","image-keyboard-response","389","322817","0.0-6.0-1.191","LAJU","2","f","rechts","24","","","self","j","60","true"
"null","<div style=""font-size:60px;"">+</div>","null","html-keyboard-response","390","323319","0.0-6.0-0.192","LAJU","2","f","rechts","24","","fixation","","","",""
"1179","img/60_90.png","74","image-keyboard-response","391","324499","0.0-6.0-1.192","LAJU","2","f","rechts","24","","","self","j","60","true"
"null","<div style=""font-size:60px;"">+</div>","null","html-keyboard-response","392","324801","0.0-6.0-0.193","LAJU","2","f","rechts","24","","fixation","","","",""
"1222","img/120_150.png","70","image-keyboard-response","393","326024","0.0-6.0-1.193","LAJU","2","f","rechts","24","","","self","f","120","true"
"null","<div style=""font-size:60px;"">+</div>","null","html-keyboard-response","394","326376","0.0-6.0-0.194","LAJU","2","f","rechts","24","","fixation","","","",""
"2074","img/90_30.png","74","image-keyboard-response","395","328451","0.0-6.0-1.194","LAJU","2","f","rechts","24","","","self","j","90","true"
"null","<div style=""font-size:60px;"">+</div>","null","html-keyboard-response","396","328853","0.0-6.0-0.195","LAJU","2","f","rechts","24","","fixation","","","",""
"721","img/0_30.png","74","image-keyboard-response","397","329575","0.0-6.0-1.195","LAJU","2","f","rechts","24","","","self","j","0","true"
"null","<div style=""font-size:60px;"">+</div>","null","html-keyboard-response","398","329927","0.0-6.0-0.196","LAJU","2","f","rechts","24","","fixation","","","",""
"721","img/0_150.png","74","image-keyboard-response","399","330648","0.0-6.0-1.196","LAJU","2","f","rechts","24","","","self","j","0","true"
"null","<div style=""font-size:60px;"">+</div>","null","html-keyboard-response","400","331050","0.0-6.0-0.197","LAJU","2","f","rechts","24","","fixation","","","",""
"704","img/30_60.png","74","image-keyboard-response","401","331754","0.0-6.0-1.197","LAJU","2","f","rechts","24","","","self","j","30","true"
"null","<div style=""font-size:60px;"">+</div>","null","html-keyboard-response","402","332056","0.0-6.0-0.198","LAJU","2","f","rechts","24","","fixation","","","",""
"1693","img/150_180.png","74","image-keyboard-response","403","333750","0.0-6.0-1.198","LAJU","2","f","rechts","24","","","self","j","150","true"
"null","<div style=""font-size:60px;"">+</div>","null","html-keyboard-response","404","334152","0.0-6.0-0.199","LAJU","2","f","rechts","24","","fixation","","","",""
"896","img/0_300.png","70","image-keyboard-response","405","335049","0.0-6.0-1.199","LAJU","2","f","rechts","24","","","self","f","0","true"
"null","<div style=""font-size:60px;"">+</div>","null","html-keyboard-response","406","335451","0.0-6.0-0.200","LAJU","2","f","rechts","24","","fixation","","","",""
"862","img/150_240.png","74","image-keyboard-response","407","336313","0.0-6.0-1.200","LAJU","2","f","rechts","24","","","self","j","150","true"
"null","<div style=""font-size:60px;"">+</div>","null","html-keyboard-response","408","336715","0.0-6.0-0.201","LAJU","2","f","rechts","24","","fixation","","","",""
"990","img/90_180.png","74","image-keyboard-response","409","337705","0.0-6.0-1.201","LAJU","2","f","rechts","24","","","self","j","90","true"
"null","<div style=""font-size:60px;"">+</div>","null","html-keyboard-response","410","338107","0.0-6.0-0.202","LAJU","2","f","rechts","24","","fixation","","","",""
"768","img/0_270.png","70","image-keyboard-response","411","338875","0.0-6.0-1.202","LAJU","2","f","rechts","24","","","self","f","0","true"
"null","<div style=""font-size:60px;"">+</div>","null","html-keyboard-response","412","339377","0.0-6.0-0.203","LAJU","2","f","rechts","24","","fixation","","","",""
"1590","img/L90_180.png","70","image-keyboard-response","413","340968","0.0-6.0-1.203","LAJU","2","f","rechts","24","","","self","f","90","true"
"null","<div style=""font-size:60px;"">+</div>","null","html-keyboard-response","414","341319","0.0-6.0-0.204","LAJU","2","f","rechts","24","","fixation","","","",""
"651","img/0_90.png","74","image-keyboard-response","415","341971","0.0-6.0-1.204","LAJU","2","f","rechts","24","","","self","j","0","true"
"null","<div style=""font-size:60px;"">+</div>","null","html-keyboard-response","416","342373","0.0-6.0-0.205","LAJU","2","f","rechts","24","","fixation","","","",""
"670","img/150_90.png","70","image-keyboard-response","417","343044","0.0-6.0-1.205","LAJU","2","f","rechts","24","","","self","f","150","true"
"null","<div style=""font-size:60px;"">+</div>","null","html-keyboard-response","418","343346","0.0-6.0-0.206","LAJU","2","f","rechts","24","","fixation","","","",""
"808","img/60_180.png","74","image-keyboard-response","419","344155","0.0-6.0-1.206","LAJU","2","f","rechts","24","","","self","j","60","true"
"null","<div style=""font-size:60px;"">+</div>","null","html-keyboard-response","420","344656","0.0-6.0-0.207","LAJU","2","f","rechts","24","","fixation","","","",""
"1791","img/90_300.png","70","image-keyboard-response","421","346448","0.0-6.0-1.207","LAJU","2","f","rechts","24","","","self","f","90","true"
"13964","<p>Du hast in 92% der Versuche korrekt entschieden.</p><p>Deine durchschnittliche Reaktionszeit war  1072ms.</p><p>Dr&uuml;cke eine beliebige Taste, um die Session zu beenden. Vielen Dank!</p>","71","html-keyboard-response","422","360414","0.0-7.0","LAJU","2","f","rechts","24","","","","","",""
