"rt","stimulus","key_press","trial_type","trial_index","time_elapsed","internal_node_id","subject","session","sex","handedness","age","responses","test_part","condition","correct_response","angle","correct"
"1461","<p>Mental Rotation Experiment.</p> <p>Dr&uuml;cke eine beliebige Taste, um anzufangen.</p>","72","html-keyboard-response","0","1465","0.0-0.0","LAJU","1","f","rechts","24","","","","","",""
"2797","","","survey-text","1","4264","0.0-1.0","LAJU","1","f","rechts","24","{""Q0"":""LAJU""}","","","","",""
"1552","","","survey-text","2","5818","0.0-2.0","LAJU","1","f","rechts","24","{""Q0"":""1""}","","","","",""
"4703","","","survey-multi-choice","3","10527","0.0-3.0","LAJU","1","f","rechts","24","{""Q0"":""f"",""Q1"":""rechts""}","","","","",""
"2487","","","survey-text","4","13016","0.0-4.0","LAJU","1","f","rechts","24","{""Q0"":""24""}","","","","",""
"130739","<p> Stell dir vor, dass du vor einem runden Tisch stehst, auf dem sich ein blauer Ball am Tischrand befindet. Entlang des Tischrands ist jeweils ein verschieden langer Pfeil. Nun bewegst du dich entlang dieses Pfeils bis an seine Spitze. Wenn du am Ende des Pfeils angekommen bist, schau zur Tischmitte. </p> <img src='img/90_180.png'></img> <br> <p>Entscheide dann, ob der Ball von deiner neuen (vorgestellten) Position links oder rechts von dir liegt.</p> <p>Dr&uuml;cke die <strong>'f'</strong>-Taste f&uuml;r links, die <strong>'j'</strong>-Taste f&uuml;r rechts.</p> <br><p> Das Bild wird jeweils 1 Sekunde lang pr&auml;sentiert. Du hast 3 Sekunden Zeit eine Entscheidung zu treffen.</p>","74","html-keyboard-response","5","143757","0.0-5.0","LAJU","1","f","rechts","24","","","","","",""
"null","<div style=""font-size:60px;"">+</div>","null","html-keyboard-response","6","145159","0.0-6.0-0.0","LAJU","1","f","rechts","24","","fixation","","","",""
"2517","img/120_270.png","74","image-keyboard-response","7","147678","0.0-6.0-1.0","LAJU","1","f","rechts","24","","","self","j","120","true"
"null","<div style=""font-size:60px;"">+</div>","null","html-keyboard-response","8","148130","0.0-6.0-0.1","LAJU","1","f","rechts","24","","fixation","","","",""
"1737","img/30_180.png","74","image-keyboard-response","9","149868","0.0-6.0-1.1","LAJU","1","f","rechts","24","","","self","j","30","true"
"null","<div style=""font-size:60px;"">+</div>","null","html-keyboard-response","10","150270","0.0-6.0-0.2","LAJU","1","f","rechts","24","","fixation","","","",""
"1644","img/L150_180.png","70","image-keyboard-response","11","151915","0.0-6.0-1.2","LAJU","1","f","rechts","24","","","self","f","150","true"
"null","<div style=""font-size:60px;"">+</div>","null","html-keyboard-response","12","152367","0.0-6.0-0.3","LAJU","1","f","rechts","24","","fixation","","","",""
"1263","img/90_180.png","74","image-keyboard-response","13","153630","0.0-6.0-1.3","LAJU","1","f","rechts","24","","","self","j","90","true"
"null","<div style=""font-size:60px;"">+</div>","null","html-keyboard-response","14","153931","0.0-6.0-0.4","LAJU","1","f","rechts","24","","fixation","","","",""
"2149","img/120_330.png","74","image-keyboard-response","15","156081","0.0-6.0-1.4","LAJU","1","f","rechts","24","","","self","f","120","false"
"null","<div style=""font-size:60px;"">+</div>","null","html-keyboard-response","16","156483","0.0-6.0-0.5","LAJU","1","f","rechts","24","","fixation","","","",""
"null","img/30_300.png","null","image-keyboard-response","17","159485","0.0-6.0-1.5","LAJU","1","f","rechts","24","","","self","f","30","false"
"null","<div style=""font-size:60px;"">+</div>","null","html-keyboard-response","18","159937","0.0-6.0-0.6","LAJU","1","f","rechts","24","","fixation","","","",""
"1194","img/120_210.png","74","image-keyboard-response","19","161132","0.0-6.0-1.6","LAJU","1","f","rechts","24","","","self","j","120","true"
"null","<div style=""font-size:60px;"">+</div>","null","html-keyboard-response","20","161484","0.0-6.0-0.7","LAJU","1","f","rechts","24","","fixation","","","",""
"1578","img/60_270.png","70","image-keyboard-response","21","163064","0.0-6.0-1.7","LAJU","1","f","rechts","24","","","self","f","60","true"
"null","<div style=""font-size:60px;"">+</div>","null","html-keyboard-response","22","163365","0.0-6.0-0.8","LAJU","1","f","rechts","24","","fixation","","","",""
"1874","img/120_90.png","70","image-keyboard-response","23","165240","0.0-6.0-1.8","LAJU","1","f","rechts","24","","","self","f","120","true"
"null","<div style=""font-size:60px;"">+</div>","null","html-keyboard-response","24","165542","0.0-6.0-0.9","LAJU","1","f","rechts","24","","fixation","","","",""
"1403","img/60_150.png","70","image-keyboard-response","25","166946","0.0-6.0-1.9","LAJU","1","f","rechts","24","","","self","f","60","true"
"null","<div style=""font-size:60px;"">+</div>","null","html-keyboard-response","26","167248","0.0-6.0-0.10","LAJU","1","f","rechts","24","","fixation","","","",""
"1619","img/60_180.png","74","image-keyboard-response","27","168868","0.0-6.0-1.10","LAJU","1","f","rechts","24","","","self","j","60","true"
"null","<div style=""font-size:60px;"">+</div>","null","html-keyboard-response","28","169170","0.0-6.0-0.11","LAJU","1","f","rechts","24","","fixation","","","",""
"1531","img/150_60.png","70","image-keyboard-response","29","170702","0.0-6.0-1.11","LAJU","1","f","rechts","24","","","self","f","150","true"
"null","<div style=""font-size:60px;"">+</div>","null","html-keyboard-response","30","171204","0.0-6.0-0.12","LAJU","1","f","rechts","24","","fixation","","","",""
"1231","img/90_210.png","74","image-keyboard-response","31","172436","0.0-6.0-1.12","LAJU","1","f","rechts","24","","","self","j","90","true"
"null","<div style=""font-size:60px;"">+</div>","null","html-keyboard-response","32","172838","0.0-6.0-0.13","LAJU","1","f","rechts","24","","fixation","","","",""
"1394","img/90_150.png","70","image-keyboard-response","33","174233","0.0-6.0-1.13","LAJU","1","f","rechts","24","","","self","f","90","true"
"null","<div style=""font-size:60px;"">+</div>","null","html-keyboard-response","34","174735","0.0-6.0-0.14","LAJU","1","f","rechts","24","","fixation","","","",""
"1184","img/0_60.png","74","image-keyboard-response","35","175921","0.0-6.0-1.14","LAJU","1","f","rechts","24","","","self","j","0","true"
"null","<div style=""font-size:60px;"">+</div>","null","html-keyboard-response","36","176372","0.0-6.0-0.15","LAJU","1","f","rechts","24","","fixation","","","",""
"1532","img/60_330.png","70","image-keyboard-response","37","177906","0.0-6.0-1.15","LAJU","1","f","rechts","24","","","self","f","60","true"
"null","<div style=""font-size:60px;"">+</div>","null","html-keyboard-response","38","178407","0.0-6.0-0.16","LAJU","1","f","rechts","24","","fixation","","","",""
"1260","img/120_180.png","74","image-keyboard-response","39","179669","0.0-6.0-1.16","LAJU","1","f","rechts","24","","","self","j","120","true"
"null","<div style=""font-size:60px;"">+</div>","null","html-keyboard-response","40","180170","0.0-6.0-0.17","LAJU","1","f","rechts","24","","fixation","","","",""
"1659","img/90_60.png","70","image-keyboard-response","41","181830","0.0-6.0-1.17","LAJU","1","f","rechts","24","","","self","j","90","false"
"null","<div style=""font-size:60px;"">+</div>","null","html-keyboard-response","42","182231","0.0-6.0-0.18","LAJU","1","f","rechts","24","","fixation","","","",""
"1716","img/90_300.png","74","image-keyboard-response","43","183950","0.0-6.0-1.18","LAJU","1","f","rechts","24","","","self","f","90","false"
"null","<div style=""font-size:60px;"">+</div>","null","html-keyboard-response","44","184301","0.0-6.0-0.19","LAJU","1","f","rechts","24","","fixation","","","",""
"1594","img/L90_180.png","70","image-keyboard-response","45","185897","0.0-6.0-1.19","LAJU","1","f","rechts","24","","","self","f","90","true"
"null","<div style=""font-size:60px;"">+</div>","null","html-keyboard-response","46","186198","0.0-6.0-0.20","LAJU","1","f","rechts","24","","fixation","","","",""
"2074","img/60_30.png","74","image-keyboard-response","47","188274","0.0-6.0-1.20","LAJU","1","f","rechts","24","","","self","j","60","true"
"null","<div style=""font-size:60px;"">+</div>","null","html-keyboard-response","48","188674","0.0-6.0-0.21","LAJU","1","f","rechts","24","","fixation","","","",""
"1692","img/60_90.png","70","image-keyboard-response","49","190369","0.0-6.0-1.21","LAJU","1","f","rechts","24","","","self","j","60","false"
"null","<div style=""font-size:60px;"">+</div>","null","html-keyboard-response","50","190670","0.0-6.0-0.22","LAJU","1","f","rechts","24","","fixation","","","",""
"1661","img/150_300.png","74","image-keyboard-response","51","192333","0.0-6.0-1.22","LAJU","1","f","rechts","24","","","self","j","150","true"
"null","<div style=""font-size:60px;"">+</div>","null","html-keyboard-response","52","192735","0.0-6.0-0.23","LAJU","1","f","rechts","24","","fixation","","","",""
"1072","img/0_150.png","74","image-keyboard-response","53","193808","0.0-6.0-1.23","LAJU","1","f","rechts","24","","","self","j","0","true"
"null","<div style=""font-size:60px;"">+</div>","null","html-keyboard-response","54","194209","0.0-6.0-0.24","LAJU","1","f","rechts","24","","fixation","","","",""
"1244","img/120_150.png","70","image-keyboard-response","55","195454","0.0-6.0-1.24","LAJU","1","f","rechts","24","","","self","f","120","true"
"null","<div style=""font-size:60px;"">+</div>","null","html-keyboard-response","56","195906","0.0-6.0-0.25","LAJU","1","f","rechts","24","","fixation","","","",""
"1979","img/90_30.png","74","image-keyboard-response","57","197886","0.0-6.0-1.25","LAJU","1","f","rechts","24","","","self","j","90","true"
"null","<div style=""font-size:60px;"">+</div>","null","html-keyboard-response","58","198188","0.0-6.0-0.26","LAJU","1","f","rechts","24","","fixation","","","",""
"1320","img/120_30.png","74","image-keyboard-response","59","199509","0.0-6.0-1.26","LAJU","1","f","rechts","24","","","self","j","120","true"
"null","<div style=""font-size:60px;"">+</div>","null","html-keyboard-response","60","199911","0.0-6.0-0.27","LAJU","1","f","rechts","24","","fixation","","","",""
"976","img/0_300.png","70","image-keyboard-response","61","200888","0.0-6.0-1.27","LAJU","1","f","rechts","24","","","self","f","0","true"
"null","<div style=""font-size:60px;"">+</div>","null","html-keyboard-response","62","201289","0.0-6.0-0.28","LAJU","1","f","rechts","24","","fixation","","","",""
"835","img/0_90.png","74","image-keyboard-response","63","202125","0.0-6.0-1.28","LAJU","1","f","rechts","24","","","self","j","0","true"
"null","<div style=""font-size:60px;"">+</div>","null","html-keyboard-response","64","202577","0.0-6.0-0.29","LAJU","1","f","rechts","24","","fixation","","","",""
"1282","img/0_240.png","70","image-keyboard-response","65","203860","0.0-6.0-1.29","LAJU","1","f","rechts","24","","","self","f","0","true"
"null","<div style=""font-size:60px;"">+</div>","null","html-keyboard-response","66","204211","0.0-6.0-0.30","LAJU","1","f","rechts","24","","fixation","","","",""
"1684","img/L30_180.png","70","image-keyboard-response","67","205896","0.0-6.0-1.30","LAJU","1","f","rechts","24","","","self","f","30","true"
"null","<div style=""font-size:60px;"">+</div>","null","html-keyboard-response","68","206248","0.0-6.0-0.31","LAJU","1","f","rechts","24","","fixation","","","",""
"2713","img/30_270.png","70","image-keyboard-response","69","208962","0.0-6.0-1.31","LAJU","1","f","rechts","24","","","self","f","30","true"
"null","<div style=""font-size:60px;"">+</div>","null","html-keyboard-response","70","209464","0.0-6.0-0.32","LAJU","1","f","rechts","24","","fixation","","","",""
"1270","img/150_240.png","74","image-keyboard-response","71","210735","0.0-6.0-1.32","LAJU","1","f","rechts","24","","","self","j","150","true"
"null","<div style=""font-size:60px;"">+</div>","null","html-keyboard-response","72","211086","0.0-6.0-0.33","LAJU","1","f","rechts","24","","fixation","","","",""
"1323","img/L60_180.png","70","image-keyboard-response","73","212410","0.0-6.0-1.33","LAJU","1","f","rechts","24","","","self","f","60","true"
"null","<div style=""font-size:60px;"">+</div>","null","html-keyboard-response","74","212712","0.0-6.0-0.34","LAJU","1","f","rechts","24","","fixation","","","",""
"1523","img/90_240.png","74","image-keyboard-response","75","214236","0.0-6.0-1.34","LAJU","1","f","rechts","24","","","self","j","90","true"
"null","<div style=""font-size:60px;"">+</div>","null","html-keyboard-response","76","214588","0.0-6.0-0.35","LAJU","1","f","rechts","24","","fixation","","","",""
"1236","img/150_120.png","70","image-keyboard-response","77","215825","0.0-6.0-1.35","LAJU","1","f","rechts","24","","","self","f","150","true"
"null","<div style=""font-size:60px;"">+</div>","null","html-keyboard-response","78","216226","0.0-6.0-0.36","LAJU","1","f","rechts","24","","fixation","","","",""
"861","img/150_90.png","70","image-keyboard-response","79","217088","0.0-6.0-1.36","LAJU","1","f","rechts","24","","","self","f","150","true"
"null","<div style=""font-size:60px;"">+</div>","null","html-keyboard-response","80","217538","0.0-6.0-0.37","LAJU","1","f","rechts","24","","fixation","","","",""
"1728","img/90_330.png","70","image-keyboard-response","81","219267","0.0-6.0-1.37","LAJU","1","f","rechts","24","","","self","f","90","true"
"null","<div style=""font-size:60px;"">+</div>","null","html-keyboard-response","82","219669","0.0-6.0-0.38","LAJU","1","f","rechts","24","","fixation","","","",""
"1336","img/0_30.png","74","image-keyboard-response","83","221006","0.0-6.0-1.38","LAJU","1","f","rechts","24","","","self","j","0","true"
"null","<div style=""font-size:60px;"">+</div>","null","html-keyboard-response","84","221358","0.0-6.0-0.39","LAJU","1","f","rechts","24","","fixation","","","",""
"1074","img/L120_180.png","70","image-keyboard-response","85","222433","0.0-6.0-1.39","LAJU","1","f","rechts","24","","","self","f","120","true"
"null","<div style=""font-size:60px;"">+</div>","null","html-keyboard-response","86","222784","0.0-6.0-0.40","LAJU","1","f","rechts","24","","fixation","","","",""
"1948","img/30_120.png","74","image-keyboard-response","87","224734","0.0-6.0-1.40","LAJU","1","f","rechts","24","","","self","j","30","true"
"null","<div style=""font-size:60px;"">+</div>","null","html-keyboard-response","88","225086","0.0-6.0-0.41","LAJU","1","f","rechts","24","","fixation","","","",""
"1410","img/30_240.png","70","image-keyboard-response","89","226497","0.0-6.0-1.41","LAJU","1","f","rechts","24","","","self","f","30","true"
"null","<div style=""font-size:60px;"">+</div>","null","html-keyboard-response","90","226849","0.0-6.0-0.42","LAJU","1","f","rechts","24","","fixation","","","",""
"1813","img/60_210.png","74","image-keyboard-response","91","228663","0.0-6.0-1.42","LAJU","1","f","rechts","24","","","self","j","60","true"
"null","<div style=""font-size:60px;"">+</div>","null","html-keyboard-response","92","228965","0.0-6.0-0.43","LAJU","1","f","rechts","24","","fixation","","","",""
"788","img/0_120.png","74","image-keyboard-response","93","229754","0.0-6.0-1.43","LAJU","1","f","rechts","24","","","self","j","0","true"
"null","<div style=""font-size:60px;"">+</div>","null","html-keyboard-response","94","230205","0.0-6.0-0.44","LAJU","1","f","rechts","24","","fixation","","","",""
"1063","img/0_210.png","70","image-keyboard-response","95","231270","0.0-6.0-1.44","LAJU","1","f","rechts","24","","","self","f","0","true"
"null","<div style=""font-size:60px;"">+</div>","null","html-keyboard-response","96","231772","0.0-6.0-0.45","LAJU","1","f","rechts","24","","fixation","","","",""
"1438","img/30_90.png","74","image-keyboard-response","97","233211","0.0-6.0-1.45","LAJU","1","f","rechts","24","","","self","j","30","true"
"null","<div style=""font-size:60px;"">+</div>","null","html-keyboard-response","98","233612","0.0-6.0-0.46","LAJU","1","f","rechts","24","","fixation","","","",""
"1701","img/90_120.png","70","image-keyboard-response","99","235315","0.0-6.0-1.46","LAJU","1","f","rechts","24","","","self","f","90","true"
"null","<div style=""font-size:60px;"">+</div>","null","html-keyboard-response","100","235767","0.0-6.0-0.47","LAJU","1","f","rechts","24","","fixation","","","",""
"1123","img/150_270.png","74","image-keyboard-response","101","236891","0.0-6.0-1.47","LAJU","1","f","rechts","24","","","self","j","150","true"
"null","<div style=""font-size:60px;"">+</div>","null","html-keyboard-response","102","237343","0.0-6.0-0.48","LAJU","1","f","rechts","24","","fixation","","","",""
"846","img/0_270.png","70","image-keyboard-response","103","238190","0.0-6.0-1.48","LAJU","1","f","rechts","24","","","self","f","0","true"
"null","<div style=""font-size:60px;"">+</div>","null","html-keyboard-response","104","238542","0.0-6.0-0.49","LAJU","1","f","rechts","24","","fixation","","","",""
"735","img/0_330.png","70","image-keyboard-response","105","239279","0.0-6.0-1.49","LAJU","1","f","rechts","24","","","self","f","0","true"
"null","<div style=""font-size:60px;"">+</div>","null","html-keyboard-response","106","239730","0.0-6.0-0.50","LAJU","1","f","rechts","24","","fixation","","","",""
"1324","img/30_60.png","70","image-keyboard-response","107","241055","0.0-6.0-1.50","LAJU","1","f","rechts","24","","","self","j","30","false"
"null","<div style=""font-size:60px;"">+</div>","null","html-keyboard-response","108","241407","0.0-6.0-0.51","LAJU","1","f","rechts","24","","fixation","","","",""
"18","img/150_180.png","74","image-keyboard-response","109","241426","0.0-6.0-1.51","LAJU","1","f","rechts","24","","","self","j","150","true"
"null","<div style=""font-size:60px;"">+</div>","null","html-keyboard-response","110","241928","0.0-6.0-0.52","LAJU","1","f","rechts","24","","fixation","","","",""
"2257","img/90_120.png","70","image-keyboard-response","111","244185","0.0-6.0-1.52","LAJU","1","f","rechts","24","","","self","f","90","true"
"null","<div style=""font-size:60px;"">+</div>","null","html-keyboard-response","112","244687","0.0-6.0-0.53","LAJU","1","f","rechts","24","","fixation","","","",""
"2351","img/60_270.png","74","image-keyboard-response","113","247039","0.0-6.0-1.53","LAJU","1","f","rechts","24","","","self","f","60","false"
"null","<div style=""font-size:60px;"">+</div>","null","html-keyboard-response","114","247541","0.0-6.0-0.54","LAJU","1","f","rechts","24","","fixation","","","",""
"1765","img/30_60.png","74","image-keyboard-response","115","249307","0.0-6.0-1.54","LAJU","1","f","rechts","24","","","self","j","30","true"
"null","<div style=""font-size:60px;"">+</div>","null","html-keyboard-response","116","249759","0.0-6.0-0.55","LAJU","1","f","rechts","24","","fixation","","","",""
"2082","img/150_240.png","74","image-keyboard-response","117","251842","0.0-6.0-1.55","LAJU","1","f","rechts","24","","","self","j","150","true"
"null","<div style=""font-size:60px;"">+</div>","null","html-keyboard-response","118","252244","0.0-6.0-0.56","LAJU","1","f","rechts","24","","fixation","","","",""
"null","img/120_30.png","null","image-keyboard-response","119","255247","0.0-6.0-1.56","LAJU","1","f","rechts","24","","","self","j","120","false"
"null","<div style=""font-size:60px;"">+</div>","null","html-keyboard-response","120","255599","0.0-6.0-0.57","LAJU","1","f","rechts","24","","fixation","","","",""
"119","img/0_120.png","70","image-keyboard-response","121","255718","0.0-6.0-1.57","LAJU","1","f","rechts","24","","","self","j","0","false"
"null","<div style=""font-size:60px;"">+</div>","null","html-keyboard-response","122","256020","0.0-6.0-0.58","LAJU","1","f","rechts","24","","fixation","","","",""
"2389","img/L150_180.png","70","image-keyboard-response","123","258410","0.0-6.0-1.58","LAJU","1","f","rechts","24","","","self","f","150","true"
"null","<div style=""font-size:60px;"">+</div>","null","html-keyboard-response","124","258862","0.0-6.0-0.59","LAJU","1","f","rechts","24","","fixation","","","",""
"1088","img/0_150.png","74","image-keyboard-response","125","259950","0.0-6.0-1.59","LAJU","1","f","rechts","24","","","self","j","0","true"
"null","<div style=""font-size:60px;"">+</div>","null","html-keyboard-response","126","260352","0.0-6.0-0.60","LAJU","1","f","rechts","24","","fixation","","","",""
"1092","img/0_330.png","70","image-keyboard-response","127","261445","0.0-6.0-1.60","LAJU","1","f","rechts","24","","","self","f","0","true"
"null","<div style=""font-size:60px;"">+</div>","null","html-keyboard-response","128","261797","0.0-6.0-0.61","LAJU","1","f","rechts","24","","fixation","","","",""
"2506","img/90_300.png","74","image-keyboard-response","129","264303","0.0-6.0-1.61","LAJU","1","f","rechts","24","","","self","f","90","false"
"null","<div style=""font-size:60px;"">+</div>","null","html-keyboard-response","130","264805","0.0-6.0-0.62","LAJU","1","f","rechts","24","","fixation","","","",""
"2368","img/120_270.png","74","image-keyboard-response","131","267174","0.0-6.0-1.62","LAJU","1","f","rechts","24","","","self","j","120","true"
"null","<div style=""font-size:60px;"">+</div>","null","html-keyboard-response","132","267476","0.0-6.0-0.63","LAJU","1","f","rechts","24","","fixation","","","",""
"1144","img/0_210.png","70","image-keyboard-response","133","268620","0.0-6.0-1.63","LAJU","1","f","rechts","24","","","self","f","0","true"
"null","<div style=""font-size:60px;"">+</div>","null","html-keyboard-response","134","268972","0.0-6.0-0.64","LAJU","1","f","rechts","24","","fixation","","","",""
"1229","img/150_120.png","70","image-keyboard-response","135","270201","0.0-6.0-1.64","LAJU","1","f","rechts","24","","","self","f","150","true"
"null","<div style=""font-size:60px;"">+</div>","null","html-keyboard-response","136","270702","0.0-6.0-0.65","LAJU","1","f","rechts","24","","fixation","","","",""
"913","img/120_150.png","70","image-keyboard-response","137","271616","0.0-6.0-1.65","LAJU","1","f","rechts","24","","","self","f","120","true"
"null","<div style=""font-size:60px;"">+</div>","null","html-keyboard-response","138","271968","0.0-6.0-0.66","LAJU","1","f","rechts","24","","fixation","","","",""
"845","img/150_180.png","74","image-keyboard-response","139","272813","0.0-6.0-1.66","LAJU","1","f","rechts","24","","","self","j","150","true"
"null","<div style=""font-size:60px;"">+</div>","null","html-keyboard-response","140","273265","0.0-6.0-0.67","LAJU","1","f","rechts","24","","fixation","","","",""
"1143","img/30_240.png","70","image-keyboard-response","141","274409","0.0-6.0-1.67","LAJU","1","f","rechts","24","","","self","f","30","true"
"null","<div style=""font-size:60px;"">+</div>","null","html-keyboard-response","142","274910","0.0-6.0-0.68","LAJU","1","f","rechts","24","","fixation","","","",""
"1670","img/60_150.png","70","image-keyboard-response","143","276581","0.0-6.0-1.68","LAJU","1","f","rechts","24","","","self","f","60","true"
"null","<div style=""font-size:60px;"">+</div>","null","html-keyboard-response","144","277032","0.0-6.0-0.69","LAJU","1","f","rechts","24","","fixation","","","",""
"731","img/0_240.png","70","image-keyboard-response","145","277765","0.0-6.0-1.69","LAJU","1","f","rechts","24","","","self","f","0","true"
"null","<div style=""font-size:60px;"">+</div>","null","html-keyboard-response","146","278116","0.0-6.0-0.70","LAJU","1","f","rechts","24","","fixation","","","",""
"1644","img/60_30.png","74","image-keyboard-response","147","279762","0.0-6.0-1.70","LAJU","1","f","rechts","24","","","self","j","60","true"
"null","<div style=""font-size:60px;"">+</div>","null","html-keyboard-response","148","280213","0.0-6.0-0.71","LAJU","1","f","rechts","24","","fixation","","","",""
"1704","img/90_330.png","70","image-keyboard-response","149","281918","0.0-6.0-1.71","LAJU","1","f","rechts","24","","","self","f","90","true"
"null","<div style=""font-size:60px;"">+</div>","null","html-keyboard-response","150","282220","0.0-6.0-0.72","LAJU","1","f","rechts","24","","fixation","","","",""
"1330","img/120_210.png","74","image-keyboard-response","151","283551","0.0-6.0-1.72","LAJU","1","f","rechts","24","","","self","j","120","true"
"null","<div style=""font-size:60px;"">+</div>","null","html-keyboard-response","152","284002","0.0-6.0-0.73","LAJU","1","f","rechts","24","","fixation","","","",""
"1246","img/30_300.png","70","image-keyboard-response","153","285250","0.0-6.0-1.73","LAJU","1","f","rechts","24","","","self","f","30","true"
"null","<div style=""font-size:60px;"">+</div>","null","html-keyboard-response","154","285751","0.0-6.0-0.74","LAJU","1","f","rechts","24","","fixation","","","",""
"1150","img/L90_180.png","70","image-keyboard-response","155","286902","0.0-6.0-1.74","LAJU","1","f","rechts","24","","","self","f","90","true"
"null","<div style=""font-size:60px;"">+</div>","null","html-keyboard-response","156","287354","0.0-6.0-0.75","LAJU","1","f","rechts","24","","fixation","","","",""
"1005","img/30_270.png","70","image-keyboard-response","157","288360","0.0-6.0-1.75","LAJU","1","f","rechts","24","","","self","f","30","true"
"null","<div style=""font-size:60px;"">+</div>","null","html-keyboard-response","158","288662","0.0-6.0-0.76","LAJU","1","f","rechts","24","","fixation","","","",""
"936","img/L30_180.png","70","image-keyboard-response","159","289598","0.0-6.0-1.76","LAJU","1","f","rechts","24","","","self","f","30","true"
"null","<div style=""font-size:60px;"">+</div>","null","html-keyboard-response","160","290000","0.0-6.0-0.77","LAJU","1","f","rechts","24","","fixation","","","",""
"1605","img/30_120.png","74","image-keyboard-response","161","291606","0.0-6.0-1.77","LAJU","1","f","rechts","24","","","self","j","30","true"
"null","<div style=""font-size:60px;"">+</div>","null","html-keyboard-response","162","291958","0.0-6.0-0.78","LAJU","1","f","rechts","24","","fixation","","","",""
"900","img/0_90.png","74","image-keyboard-response","163","292859","0.0-6.0-1.78","LAJU","1","f","rechts","24","","","self","j","0","true"
"null","<div style=""font-size:60px;"">+</div>","null","html-keyboard-response","164","293311","0.0-6.0-0.79","LAJU","1","f","rechts","24","","fixation","","","",""
"null","img/150_300.png","null","image-keyboard-response","165","296313","0.0-6.0-1.79","LAJU","1","f","rechts","24","","","self","j","150","false"
"null","<div style=""font-size:60px;"">+</div>","null","html-keyboard-response","166","296665","0.0-6.0-0.80","LAJU","1","f","rechts","24","","fixation","","","",""
"149","img/90_150.png","70","image-keyboard-response","167","296814","0.0-6.0-1.80","LAJU","1","f","rechts","24","","","self","f","90","true"
"null","<div style=""font-size:60px;"">+</div>","null","html-keyboard-response","168","297166","0.0-6.0-0.81","LAJU","1","f","rechts","24","","fixation","","","",""
"1325","img/60_330.png","70","image-keyboard-response","169","298491","0.0-6.0-1.81","LAJU","1","f","rechts","24","","","self","f","60","true"
"null","<div style=""font-size:60px;"">+</div>","null","html-keyboard-response","170","298843","0.0-6.0-0.82","LAJU","1","f","rechts","24","","fixation","","","",""
"1069","img/120_180.png","74","image-keyboard-response","171","299912","0.0-6.0-1.82","LAJU","1","f","rechts","24","","","self","j","120","true"
"null","<div style=""font-size:60px;"">+</div>","null","html-keyboard-response","172","300364","0.0-6.0-0.83","LAJU","1","f","rechts","24","","fixation","","","",""
"1622","img/150_60.png","70","image-keyboard-response","173","301987","0.0-6.0-1.83","LAJU","1","f","rechts","24","","","self","f","150","true"
"null","<div style=""font-size:60px;"">+</div>","null","html-keyboard-response","174","302389","0.0-6.0-0.84","LAJU","1","f","rechts","24","","fixation","","","",""
"1264","img/60_210.png","74","image-keyboard-response","175","303654","0.0-6.0-1.84","LAJU","1","f","rechts","24","","","self","j","60","true"
"null","<div style=""font-size:60px;"">+</div>","null","html-keyboard-response","176","304156","0.0-6.0-0.85","LAJU","1","f","rechts","24","","fixation","","","",""
"1935","img/150_270.png","74","image-keyboard-response","177","306092","0.0-6.0-1.85","LAJU","1","f","rechts","24","","","self","j","150","true"
"null","<div style=""font-size:60px;"">+</div>","null","html-keyboard-response","178","306444","0.0-6.0-0.86","LAJU","1","f","rechts","24","","fixation","","","",""
"1403","img/90_210.png","74","image-keyboard-response","179","307847","0.0-6.0-1.86","LAJU","1","f","rechts","24","","","self","j","90","true"
"null","<div style=""font-size:60px;"">+</div>","null","html-keyboard-response","180","308149","0.0-6.0-0.87","LAJU","1","f","rechts","24","","fixation","","","",""
"1680","img/30_90.png","74","image-keyboard-response","181","309829","0.0-6.0-1.87","LAJU","1","f","rechts","24","","","self","j","30","true"
"null","<div style=""font-size:60px;"">+</div>","null","html-keyboard-response","182","310231","0.0-6.0-0.88","LAJU","1","f","rechts","24","","fixation","","","",""
"1205","img/L120_180.png","70","image-keyboard-response","183","311436","0.0-6.0-1.88","LAJU","1","f","rechts","24","","","self","f","120","true"
"null","<div style=""font-size:60px;"">+</div>","null","html-keyboard-response","184","311888","0.0-6.0-0.89","LAJU","1","f","rechts","24","","fixation","","","",""
"1507","img/60_90.png","74","image-keyboard-response","185","313395","0.0-6.0-1.89","LAJU","1","f","rechts","24","","","self","j","60","true"
"null","<div style=""font-size:60px;"">+</div>","null","html-keyboard-response","186","313896","0.0-6.0-0.90","LAJU","1","f","rechts","24","","fixation","","","",""
"1425","img/60_180.png","74","image-keyboard-response","187","315322","0.0-6.0-1.90","LAJU","1","f","rechts","24","","","self","j","60","true"
"null","<div style=""font-size:60px;"">+</div>","null","html-keyboard-response","188","315724","0.0-6.0-0.91","LAJU","1","f","rechts","24","","fixation","","","",""
"824","img/0_60.png","74","image-keyboard-response","189","316548","0.0-6.0-1.91","LAJU","1","f","rechts","24","","","self","j","0","true"
"null","<div style=""font-size:60px;"">+</div>","null","html-keyboard-response","190","316950","0.0-6.0-0.92","LAJU","1","f","rechts","24","","fixation","","","",""
"609","img/0_30.png","74","image-keyboard-response","191","317559","0.0-6.0-1.92","LAJU","1","f","rechts","24","","","self","j","0","true"
"null","<div style=""font-size:60px;"">+</div>","null","html-keyboard-response","192","317960","0.0-6.0-0.93","LAJU","1","f","rechts","24","","fixation","","","",""
"1934","img/90_30.png","74","image-keyboard-response","193","319895","0.0-6.0-1.93","LAJU","1","f","rechts","24","","","self","j","90","true"
"null","<div style=""font-size:60px;"">+</div>","null","html-keyboard-response","194","320346","0.0-6.0-0.94","LAJU","1","f","rechts","24","","fixation","","","",""
"1786","img/150_90.png","74","image-keyboard-response","195","322134","0.0-6.0-1.94","LAJU","1","f","rechts","24","","","self","f","150","false"
"null","<div style=""font-size:60px;"">+</div>","null","html-keyboard-response","196","322435","0.0-6.0-0.95","LAJU","1","f","rechts","24","","fixation","","","",""
"1055","img/0_270.png","70","image-keyboard-response","197","323491","0.0-6.0-1.95","LAJU","1","f","rechts","24","","","self","f","0","true"
"null","<div style=""font-size:60px;"">+</div>","null","html-keyboard-response","198","323943","0.0-6.0-0.96","LAJU","1","f","rechts","24","","fixation","","","",""
"1765","img/30_180.png","74","image-keyboard-response","199","325709","0.0-6.0-1.96","LAJU","1","f","rechts","24","","","self","j","30","true"
"null","<div style=""font-size:60px;"">+</div>","null","html-keyboard-response","200","326061","0.0-6.0-0.97","LAJU","1","f","rechts","24","","fixation","","","",""
"1166","img/90_240.png","74","image-keyboard-response","201","327228","0.0-6.0-1.97","LAJU","1","f","rechts","24","","","self","j","90","true"
"null","<div style=""font-size:60px;"">+</div>","null","html-keyboard-response","202","327530","0.0-6.0-0.98","LAJU","1","f","rechts","24","","fixation","","","",""
"808","img/0_300.png","70","image-keyboard-response","203","328338","0.0-6.0-1.98","LAJU","1","f","rechts","24","","","self","f","0","true"
"null","<div style=""font-size:60px;"">+</div>","null","html-keyboard-response","204","328740","0.0-6.0-0.99","LAJU","1","f","rechts","24","","fixation","","","",""
"1074","img/90_180.png","74","image-keyboard-response","205","329814","0.0-6.0-1.99","LAJU","1","f","rechts","24","","","self","j","90","true"
"null","<div style=""font-size:60px;"">+</div>","null","html-keyboard-response","206","330266","0.0-6.0-0.100","LAJU","1","f","rechts","24","","fixation","","","",""
"1522","img/L60_180.png","70","image-keyboard-response","207","331790","0.0-6.0-1.100","LAJU","1","f","rechts","24","","","self","f","60","true"
"null","<div style=""font-size:60px;"">+</div>","null","html-keyboard-response","208","332091","0.0-6.0-0.101","LAJU","1","f","rechts","24","","fixation","","","",""
"1292","img/120_90.png","70","image-keyboard-response","209","333384","0.0-6.0-1.101","LAJU","1","f","rechts","24","","","self","f","120","true"
"null","<div style=""font-size:60px;"">+</div>","null","html-keyboard-response","210","333836","0.0-6.0-0.102","LAJU","1","f","rechts","24","","fixation","","","",""
"2552","img/120_330.png","70","image-keyboard-response","211","336390","0.0-6.0-1.102","LAJU","1","f","rechts","24","","","self","f","120","true"
"null","<div style=""font-size:60px;"">+</div>","null","html-keyboard-response","212","336791","0.0-6.0-0.103","LAJU","1","f","rechts","24","","fixation","","","",""
"2097","img/90_60.png","74","image-keyboard-response","213","338890","0.0-6.0-1.103","LAJU","1","f","rechts","24","","","self","j","90","true"
"null","<div style=""font-size:60px;"">+</div>","null","html-keyboard-response","214","339342","0.0-6.0-0.104","LAJU","1","f","rechts","24","","fixation","","","",""
"1540","img/60_210.png","74","image-keyboard-response","215","340883","0.0-6.0-1.104","LAJU","1","f","rechts","24","","","self","j","60","true"
"null","<div style=""font-size:60px;"">+</div>","null","html-keyboard-response","216","341384","0.0-6.0-0.105","LAJU","1","f","rechts","24","","fixation","","","",""
"2125","img/120_330.png","74","image-keyboard-response","217","343510","0.0-6.0-1.105","LAJU","1","f","rechts","24","","","self","f","120","false"
"null","<div style=""font-size:60px;"">+</div>","null","html-keyboard-response","218","343911","0.0-6.0-0.106","LAJU","1","f","rechts","24","","fixation","","","",""
"1456","img/90_240.png","74","image-keyboard-response","219","345367","0.0-6.0-1.106","LAJU","1","f","rechts","24","","","self","j","90","true"
"null","<div style=""font-size:60px;"">+</div>","null","html-keyboard-response","220","345819","0.0-6.0-0.107","LAJU","1","f","rechts","24","","fixation","","","",""
"2532","img/60_330.png","70","image-keyboard-response","221","348352","0.0-6.0-1.107","LAJU","1","f","rechts","24","","","self","f","60","true"
"null","<div style=""font-size:60px;"">+</div>","null","html-keyboard-response","222","348654","0.0-6.0-0.108","LAJU","1","f","rechts","24","","fixation","","","",""
"734","img/0_60.png","74","image-keyboard-response","223","349388","0.0-6.0-1.108","LAJU","1","f","rechts","24","","","self","j","0","true"
"null","<div style=""font-size:60px;"">+</div>","null","html-keyboard-response","224","349890","0.0-6.0-0.109","LAJU","1","f","rechts","24","","fixation","","","",""
"1526","img/60_150.png","70","image-keyboard-response","225","351417","0.0-6.0-1.109","LAJU","1","f","rechts","24","","","self","f","60","true"
"null","<div style=""font-size:60px;"">+</div>","null","html-keyboard-response","226","351719","0.0-6.0-0.110","LAJU","1","f","rechts","24","","fixation","","","",""
"1299","img/90_120.png","70","image-keyboard-response","227","353019","0.0-6.0-1.110","LAJU","1","f","rechts","24","","","self","f","90","true"
"null","<div style=""font-size:60px;"">+</div>","null","html-keyboard-response","228","353471","0.0-6.0-0.111","LAJU","1","f","rechts","24","","fixation","","","",""
"769","img/0_270.png","70","image-keyboard-response","229","354241","0.0-6.0-1.111","LAJU","1","f","rechts","24","","","self","f","0","true"
"null","<div style=""font-size:60px;"">+</div>","null","html-keyboard-response","230","354743","0.0-6.0-0.112","LAJU","1","f","rechts","24","","fixation","","","",""
"1674","img/120_30.png","74","image-keyboard-response","231","356417","0.0-6.0-1.112","LAJU","1","f","rechts","24","","","self","j","120","true"
"null","<div style=""font-size:60px;"">+</div>","null","html-keyboard-response","232","356719","0.0-6.0-0.113","LAJU","1","f","rechts","24","","fixation","","","",""
"793","img/0_30.png","74","image-keyboard-response","233","357512","0.0-6.0-1.113","LAJU","1","f","rechts","24","","","self","j","0","true"
"null","<div style=""font-size:60px;"">+</div>","null","html-keyboard-response","234","357963","0.0-6.0-0.114","LAJU","1","f","rechts","24","","fixation","","","",""
"1359","img/150_270.png","74","image-keyboard-response","235","359322","0.0-6.0-1.114","LAJU","1","f","rechts","24","","","self","j","150","true"
"null","<div style=""font-size:60px;"">+</div>","null","html-keyboard-response","236","359674","0.0-6.0-0.115","LAJU","1","f","rechts","24","","fixation","","","",""
"1079","img/120_180.png","74","image-keyboard-response","237","360753","0.0-6.0-1.115","LAJU","1","f","rechts","24","","","self","j","120","true"
"null","<div style=""font-size:60px;"">+</div>","null","html-keyboard-response","238","361205","0.0-6.0-0.116","LAJU","1","f","rechts","24","","fixation","","","",""
"1002","img/0_210.png","70","image-keyboard-response","239","362208","0.0-6.0-1.116","LAJU","1","f","rechts","24","","","self","f","0","true"
"null","<div style=""font-size:60px;"">+</div>","null","html-keyboard-response","240","362560","0.0-6.0-0.117","LAJU","1","f","rechts","24","","fixation","","","",""
"2069","img/90_330.png","70","image-keyboard-response","241","364630","0.0-6.0-1.117","LAJU","1","f","rechts","24","","","self","f","90","true"
"null","<div style=""font-size:60px;"">+</div>","null","html-keyboard-response","242","365032","0.0-6.0-0.118","LAJU","1","f","rechts","24","","fixation","","","",""
"1256","img/150_300.png","74","image-keyboard-response","243","366289","0.0-6.0-1.118","LAJU","1","f","rechts","24","","","self","j","150","true"
"null","<div style=""font-size:60px;"">+</div>","null","html-keyboard-response","244","366690","0.0-6.0-0.119","LAJU","1","f","rechts","24","","fixation","","","",""
"921","img/150_240.png","74","image-keyboard-response","245","367612","0.0-6.0-1.119","LAJU","1","f","rechts","24","","","self","j","150","true"
"null","<div style=""font-size:60px;"">+</div>","null","html-keyboard-response","246","367964","0.0-6.0-0.120","LAJU","1","f","rechts","24","","fixation","","","",""
"1421","img/120_150.png","70","image-keyboard-response","247","369385","0.0-6.0-1.120","LAJU","1","f","rechts","24","","","self","f","120","true"
"null","<div style=""font-size:60px;"">+</div>","null","html-keyboard-response","248","369787","0.0-6.0-0.121","LAJU","1","f","rechts","24","","fixation","","","",""
"803","img/L90_180.png","70","image-keyboard-response","249","370590","0.0-6.0-1.121","LAJU","1","f","rechts","24","","","self","f","90","true"
"null","<div style=""font-size:60px;"">+</div>","null","html-keyboard-response","250","371091","0.0-6.0-0.122","LAJU","1","f","rechts","24","","fixation","","","",""
"1071","img/150_180.png","74","image-keyboard-response","251","372163","0.0-6.0-1.122","LAJU","1","f","rechts","24","","","self","j","150","true"
"null","<div style=""font-size:60px;"">+</div>","null","html-keyboard-response","252","372664","0.0-6.0-0.123","LAJU","1","f","rechts","24","","fixation","","","",""
"1588","img/60_180.png","74","image-keyboard-response","253","374253","0.0-6.0-1.123","LAJU","1","f","rechts","24","","","self","j","60","true"
"null","<div style=""font-size:60px;"">+</div>","null","html-keyboard-response","254","374554","0.0-6.0-0.124","LAJU","1","f","rechts","24","","fixation","","","",""
"1362","img/60_30.png","74","image-keyboard-response","255","375917","0.0-6.0-1.124","LAJU","1","f","rechts","24","","","self","j","60","true"
"null","<div style=""font-size:60px;"">+</div>","null","html-keyboard-response","256","376269","0.0-6.0-0.125","LAJU","1","f","rechts","24","","fixation","","","",""
"848","img/0_330.png","70","image-keyboard-response","257","377118","0.0-6.0-1.125","LAJU","1","f","rechts","24","","","self","f","0","true"
"null","<div style=""font-size:60px;"">+</div>","null","html-keyboard-response","258","377519","0.0-6.0-0.126","LAJU","1","f","rechts","24","","fixation","","","",""
"848","img/0_240.png","70","image-keyboard-response","259","378369","0.0-6.0-1.126","LAJU","1","f","rechts","24","","","self","f","0","true"
"null","<div style=""font-size:60px;"">+</div>","null","html-keyboard-response","260","378670","0.0-6.0-0.127","LAJU","1","f","rechts","24","","fixation","","","",""
"1708","img/L150_180.png","70","image-keyboard-response","261","380379","0.0-6.0-1.127","LAJU","1","f","rechts","24","","","self","f","150","true"
"null","<div style=""font-size:60px;"">+</div>","null","html-keyboard-response","262","380680","0.0-6.0-0.128","LAJU","1","f","rechts","24","","fixation","","","",""
"1220","img/L120_180.png","70","image-keyboard-response","263","381902","0.0-6.0-1.128","LAJU","1","f","rechts","24","","","self","f","120","true"
"null","<div style=""font-size:60px;"">+</div>","null","html-keyboard-response","264","382303","0.0-6.0-0.129","LAJU","1","f","rechts","24","","fixation","","","",""
"2004","img/90_30.png","74","image-keyboard-response","265","384309","0.0-6.0-1.129","LAJU","1","f","rechts","24","","","self","j","90","true"
"null","<div style=""font-size:60px;"">+</div>","null","html-keyboard-response","266","384710","0.0-6.0-0.130","LAJU","1","f","rechts","24","","fixation","","","",""
"1156","img/30_120.png","74","image-keyboard-response","267","385868","0.0-6.0-1.130","LAJU","1","f","rechts","24","","","self","j","30","true"
"null","<div style=""font-size:60px;"">+</div>","null","html-keyboard-response","268","386219","0.0-6.0-0.131","LAJU","1","f","rechts","24","","fixation","","","",""
"1565","img/120_210.png","74","image-keyboard-response","269","387785","0.0-6.0-1.131","LAJU","1","f","rechts","24","","","self","j","120","true"
"null","<div style=""font-size:60px;"">+</div>","null","html-keyboard-response","270","388187","0.0-6.0-0.132","LAJU","1","f","rechts","24","","fixation","","","",""
"762","img/90_210.png","74","image-keyboard-response","271","388951","0.0-6.0-1.132","LAJU","1","f","rechts","24","","","self","j","90","true"
"null","<div style=""font-size:60px;"">+</div>","null","html-keyboard-response","272","389252","0.0-6.0-0.133","LAJU","1","f","rechts","24","","fixation","","","",""
"743","img/0_120.png","74","image-keyboard-response","273","389997","0.0-6.0-1.133","LAJU","1","f","rechts","24","","","self","j","0","true"
"null","<div style=""font-size:60px;"">+</div>","null","html-keyboard-response","274","390398","0.0-6.0-0.134","LAJU","1","f","rechts","24","","fixation","","","",""
"1935","img/150_60.png","70","image-keyboard-response","275","392333","0.0-6.0-1.134","LAJU","1","f","rechts","24","","","self","f","150","true"
"null","<div style=""font-size:60px;"">+</div>","null","html-keyboard-response","276","392835","0.0-6.0-0.135","LAJU","1","f","rechts","24","","fixation","","","",""
"1731","img/30_300.png","70","image-keyboard-response","277","394567","0.0-6.0-1.135","LAJU","1","f","rechts","24","","","self","f","30","true"
"null","<div style=""font-size:60px;"">+</div>","null","html-keyboard-response","278","395069","0.0-6.0-0.136","LAJU","1","f","rechts","24","","fixation","","","",""
"1835","img/90_60.png","74","image-keyboard-response","279","396905","0.0-6.0-1.136","LAJU","1","f","rechts","24","","","self","j","90","true"
"null","<div style=""font-size:60px;"">+</div>","null","html-keyboard-response","280","397357","0.0-6.0-0.137","LAJU","1","f","rechts","24","","fixation","","","",""
"1379","img/90_180.png","74","image-keyboard-response","281","398737","0.0-6.0-1.137","LAJU","1","f","rechts","24","","","self","j","90","true"
"null","<div style=""font-size:60px;"">+</div>","null","html-keyboard-response","282","399239","0.0-6.0-0.138","LAJU","1","f","rechts","24","","fixation","","","",""
"1657","img/30_240.png","70","image-keyboard-response","283","400896","0.0-6.0-1.138","LAJU","1","f","rechts","24","","","self","f","30","true"
"null","<div style=""font-size:60px;"">+</div>","null","html-keyboard-response","284","401247","0.0-6.0-0.139","LAJU","1","f","rechts","24","","fixation","","","",""
"1509","img/90_300.png","70","image-keyboard-response","285","402757","0.0-6.0-1.139","LAJU","1","f","rechts","24","","","self","f","90","true"
"null","<div style=""font-size:60px;"">+</div>","null","html-keyboard-response","286","403159","0.0-6.0-0.140","LAJU","1","f","rechts","24","","fixation","","","",""
"1233","img/L60_180.png","70","image-keyboard-response","287","404393","0.0-6.0-1.140","LAJU","1","f","rechts","24","","","self","f","60","true"
"null","<div style=""font-size:60px;"">+</div>","null","html-keyboard-response","288","404695","0.0-6.0-0.141","LAJU","1","f","rechts","24","","fixation","","","",""
"1345","img/120_90.png","74","image-keyboard-response","289","406041","0.0-6.0-1.141","LAJU","1","f","rechts","24","","","self","f","120","false"
"null","<div style=""font-size:60px;"">+</div>","null","html-keyboard-response","290","406493","0.0-6.0-0.142","LAJU","1","f","rechts","24","","fixation","","","",""
"914","img/150_120.png","70","image-keyboard-response","291","407408","0.0-6.0-1.142","LAJU","1","f","rechts","24","","","self","f","150","true"
"null","<div style=""font-size:60px;"">+</div>","null","html-keyboard-response","292","407860","0.0-6.0-0.143","LAJU","1","f","rechts","24","","fixation","","","",""
"1448","img/30_90.png","74","image-keyboard-response","293","409308","0.0-6.0-1.143","LAJU","1","f","rechts","24","","","self","j","30","true"
"null","<div style=""font-size:60px;"">+</div>","null","html-keyboard-response","294","409710","0.0-6.0-0.144","LAJU","1","f","rechts","24","","fixation","","","",""
"2160","img/150_90.png","70","image-keyboard-response","295","411871","0.0-6.0-1.144","LAJU","1","f","rechts","24","","","self","f","150","true"
"null","<div style=""font-size:60px;"">+</div>","null","html-keyboard-response","296","412173","0.0-6.0-0.145","LAJU","1","f","rechts","24","","fixation","","","",""
"1511","img/30_180.png","74","image-keyboard-response","297","413685","0.0-6.0-1.145","LAJU","1","f","rechts","24","","","self","j","30","true"
"null","<div style=""font-size:60px;"">+</div>","null","html-keyboard-response","298","414137","0.0-6.0-0.146","LAJU","1","f","rechts","24","","fixation","","","",""
"1271","img/60_90.png","74","image-keyboard-response","299","415408","0.0-6.0-1.146","LAJU","1","f","rechts","24","","","self","j","60","true"
"null","<div style=""font-size:60px;"">+</div>","null","html-keyboard-response","300","415760","0.0-6.0-0.147","LAJU","1","f","rechts","24","","fixation","","","",""
"1071","img/L30_180.png","70","image-keyboard-response","301","416832","0.0-6.0-1.147","LAJU","1","f","rechts","24","","","self","f","30","true"
"null","<div style=""font-size:60px;"">+</div>","null","html-keyboard-response","302","417333","0.0-6.0-0.148","LAJU","1","f","rechts","24","","fixation","","","",""
"1065","img/120_270.png","74","image-keyboard-response","303","418399","0.0-6.0-1.148","LAJU","1","f","rechts","24","","","self","j","120","true"
"null","<div style=""font-size:60px;"">+</div>","null","html-keyboard-response","304","418901","0.0-6.0-0.149","LAJU","1","f","rechts","24","","fixation","","","",""
"798","img/0_90.png","74","image-keyboard-response","305","419699","0.0-6.0-1.149","LAJU","1","f","rechts","24","","","self","j","0","true"
"null","<div style=""font-size:60px;"">+</div>","null","html-keyboard-response","306","420201","0.0-6.0-0.150","LAJU","1","f","rechts","24","","fixation","","","",""
"766","img/0_300.png","70","image-keyboard-response","307","420967","0.0-6.0-1.150","LAJU","1","f","rechts","24","","","self","f","0","true"
"null","<div style=""font-size:60px;"">+</div>","null","html-keyboard-response","308","421318","0.0-6.0-0.151","LAJU","1","f","rechts","24","","fixation","","","",""
"1138","img/30_60.png","74","image-keyboard-response","309","422457","0.0-6.0-1.151","LAJU","1","f","rechts","24","","","self","j","30","true"
"null","<div style=""font-size:60px;"">+</div>","null","html-keyboard-response","310","422908","0.0-6.0-0.152","LAJU","1","f","rechts","24","","fixation","","","",""
"1334","img/30_270.png","70","image-keyboard-response","311","424243","0.0-6.0-1.152","LAJU","1","f","rechts","24","","","self","f","30","true"
"null","<div style=""font-size:60px;"">+</div>","null","html-keyboard-response","312","424645","0.0-6.0-0.153","LAJU","1","f","rechts","24","","fixation","","","",""
"934","img/60_270.png","70","image-keyboard-response","313","425580","0.0-6.0-1.153","LAJU","1","f","rechts","24","","","self","f","60","true"
"null","<div style=""font-size:60px;"">+</div>","null","html-keyboard-response","314","425932","0.0-6.0-0.154","LAJU","1","f","rechts","24","","fixation","","","",""
"1291","img/90_150.png","70","image-keyboard-response","315","427224","0.0-6.0-1.154","LAJU","1","f","rechts","24","","","self","f","90","true"
"null","<div style=""font-size:60px;"">+</div>","null","html-keyboard-response","316","427576","0.0-6.0-0.155","LAJU","1","f","rechts","24","","fixation","","","",""
"761","img/0_150.png","74","image-keyboard-response","317","428338","0.0-6.0-1.155","LAJU","1","f","rechts","24","","","self","j","0","true"
"null","<div style=""font-size:60px;"">+</div>","null","html-keyboard-response","318","428739","0.0-6.0-0.156","LAJU","1","f","rechts","24","","fixation","","","",""
"1706","img/L150_180.png","70","image-keyboard-response","319","430447","0.0-6.0-1.156","LAJU","1","f","rechts","24","","","self","f","150","true"
"null","<div style=""font-size:60px;"">+</div>","null","html-keyboard-response","320","430848","0.0-6.0-0.157","LAJU","1","f","rechts","24","","fixation","","","",""
"1535","img/60_90.png","74","image-keyboard-response","321","432385","0.0-6.0-1.157","LAJU","1","f","rechts","24","","","self","j","60","true"
"null","<div style=""font-size:60px;"">+</div>","null","html-keyboard-response","322","432686","0.0-6.0-0.158","LAJU","1","f","rechts","24","","fixation","","","",""
"1480","img/90_30.png","74","image-keyboard-response","323","434168","0.0-6.0-1.158","LAJU","1","f","rechts","24","","","self","j","90","true"
"null","<div style=""font-size:60px;"">+</div>","null","html-keyboard-response","324","434669","0.0-6.0-0.159","LAJU","1","f","rechts","24","","fixation","","","",""
"840","img/0_210.png","70","image-keyboard-response","325","435511","0.0-6.0-1.159","LAJU","1","f","rechts","24","","","self","f","0","true"
"null","<div style=""font-size:60px;"">+</div>","null","html-keyboard-response","326","436012","0.0-6.0-0.160","LAJU","1","f","rechts","24","","fixation","","","",""
"1929","img/60_210.png","74","image-keyboard-response","327","437943","0.0-6.0-1.160","LAJU","1","f","rechts","24","","","self","j","60","true"
"null","<div style=""font-size:60px;"">+</div>","null","html-keyboard-response","328","438294","0.0-6.0-0.161","LAJU","1","f","rechts","24","","fixation","","","",""
"1538","img/120_30.png","74","image-keyboard-response","329","439833","0.0-6.0-1.161","LAJU","1","f","rechts","24","","","self","j","120","true"
"null","<div style=""font-size:60px;"">+</div>","null","html-keyboard-response","330","440185","0.0-6.0-0.162","LAJU","1","f","rechts","24","","fixation","","","",""
"1076","img/90_180.png","74","image-keyboard-response","331","441263","0.0-6.0-1.162","LAJU","1","f","rechts","24","","","self","j","90","true"
"null","<div style=""font-size:60px;"">+</div>","null","html-keyboard-response","332","441764","0.0-6.0-0.163","LAJU","1","f","rechts","24","","fixation","","","",""
"867","img/0_300.png","70","image-keyboard-response","333","442632","0.0-6.0-1.163","LAJU","1","f","rechts","24","","","self","f","0","true"
"null","<div style=""font-size:60px;"">+</div>","null","html-keyboard-response","334","442934","0.0-6.0-0.164","LAJU","1","f","rechts","24","","fixation","","","",""
"1806","img/150_120.png","70","image-keyboard-response","335","444741","0.0-6.0-1.164","LAJU","1","f","rechts","24","","","self","f","150","true"
"null","<div style=""font-size:60px;"">+</div>","null","html-keyboard-response","336","445042","0.0-6.0-0.165","LAJU","1","f","rechts","24","","fixation","","","",""
"null","img/90_300.png","null","image-keyboard-response","337","448044","0.0-6.0-1.165","LAJU","1","f","rechts","24","","","self","f","90","false"
"null","<div style=""font-size:60px;"">+</div>","null","html-keyboard-response","338","448496","0.0-6.0-0.166","LAJU","1","f","rechts","24","","fixation","","","",""
"1500","img/120_330.png","70","image-keyboard-response","339","449997","0.0-6.0-1.166","LAJU","1","f","rechts","24","","","self","f","120","true"
"null","<div style=""font-size:60px;"">+</div>","null","html-keyboard-response","340","450299","0.0-6.0-0.167","LAJU","1","f","rechts","24","","fixation","","","",""
"1841","img/90_60.png","74","image-keyboard-response","341","452141","0.0-6.0-1.167","LAJU","1","f","rechts","24","","","self","j","90","true"
"null","<div style=""font-size:60px;"">+</div>","null","html-keyboard-response","342","452493","0.0-6.0-0.168","LAJU","1","f","rechts","24","","fixation","","","",""
"2554","img/60_270.png","70","image-keyboard-response","343","455048","0.0-6.0-1.168","LAJU","1","f","rechts","24","","","self","f","60","true"
"null","<div style=""font-size:60px;"">+</div>","null","html-keyboard-response","344","455500","0.0-6.0-0.169","LAJU","1","f","rechts","24","","fixation","","","",""
"2262","img/30_300.png","70","image-keyboard-response","345","457763","0.0-6.0-1.169","LAJU","1","f","rechts","24","","","self","f","30","true"
"null","<div style=""font-size:60px;"">+</div>","null","html-keyboard-response","346","458115","0.0-6.0-0.170","LAJU","1","f","rechts","24","","fixation","","","",""
"2103","img/120_150.png","74","image-keyboard-response","347","460218","0.0-6.0-1.170","LAJU","1","f","rechts","24","","","self","f","120","false"
"null","<div style=""font-size:60px;"">+</div>","null","html-keyboard-response","348","460520","0.0-6.0-0.171","LAJU","1","f","rechts","24","","fixation","","","",""
"2091","img/60_180.png","74","image-keyboard-response","349","462611","0.0-6.0-1.171","LAJU","1","f","rechts","24","","","self","j","60","true"
"null","<div style=""font-size:60px;"">+</div>","null","html-keyboard-response","350","463063","0.0-6.0-0.172","LAJU","1","f","rechts","24","","fixation","","","",""
"1363","img/L90_180.png","70","image-keyboard-response","351","464426","0.0-6.0-1.172","LAJU","1","f","rechts","24","","","self","f","90","true"
"null","<div style=""font-size:60px;"">+</div>","null","html-keyboard-response","352","464728","0.0-6.0-0.173","LAJU","1","f","rechts","24","","fixation","","","",""
"800","img/0_30.png","74","image-keyboard-response","353","465528","0.0-6.0-1.173","LAJU","1","f","rechts","24","","","self","j","0","true"
"null","<div style=""font-size:60px;"">+</div>","null","html-keyboard-response","354","465829","0.0-6.0-0.174","LAJU","1","f","rechts","24","","fixation","","","",""
"1495","img/150_60.png","70","image-keyboard-response","355","467325","0.0-6.0-1.174","LAJU","1","f","rechts","24","","","self","f","150","true"
"null","<div style=""font-size:60px;"">+</div>","null","html-keyboard-response","356","467727","0.0-6.0-0.175","LAJU","1","f","rechts","24","","fixation","","","",""
"1073","img/L120_180.png","70","image-keyboard-response","357","468800","0.0-6.0-1.175","LAJU","1","f","rechts","24","","","self","f","120","true"
"null","<div style=""font-size:60px;"">+</div>","null","html-keyboard-response","358","469152","0.0-6.0-0.176","LAJU","1","f","rechts","24","","fixation","","","",""
"941","img/0_120.png","74","image-keyboard-response","359","470094","0.0-6.0-1.176","LAJU","1","f","rechts","24","","","self","j","0","true"
"null","<div style=""font-size:60px;"">+</div>","null","html-keyboard-response","360","470496","0.0-6.0-0.177","LAJU","1","f","rechts","24","","fixation","","","",""
"685","img/0_330.png","70","image-keyboard-response","361","471182","0.0-6.0-1.177","LAJU","1","f","rechts","24","","","self","f","0","true"
"null","<div style=""font-size:60px;"">+</div>","null","html-keyboard-response","362","471484","0.0-6.0-0.178","LAJU","1","f","rechts","24","","fixation","","","",""
"1504","img/120_270.png","74","image-keyboard-response","363","472989","0.0-6.0-1.178","LAJU","1","f","rechts","24","","","self","j","120","true"
"null","<div style=""font-size:60px;"">+</div>","null","html-keyboard-response","364","473490","0.0-6.0-0.179","LAJU","1","f","rechts","24","","fixation","","","",""
"1374","img/150_90.png","70","image-keyboard-response","365","474866","0.0-6.0-1.179","LAJU","1","f","rechts","24","","","self","f","150","true"
"null","<div style=""font-size:60px;"">+</div>","null","html-keyboard-response","366","475367","0.0-6.0-0.180","LAJU","1","f","rechts","24","","fixation","","","",""
"1243","img/30_270.png","70","image-keyboard-response","367","476612","0.0-6.0-1.180","LAJU","1","f","rechts","24","","","self","f","30","true"
"null","<div style=""font-size:60px;"">+</div>","null","html-keyboard-response","368","477063","0.0-6.0-0.181","LAJU","1","f","rechts","24","","fixation","","","",""
"1518","img/90_240.png","74","image-keyboard-response","369","478582","0.0-6.0-1.181","LAJU","1","f","rechts","24","","","self","j","90","true"
"null","<div style=""font-size:60px;"">+</div>","null","html-keyboard-response","370","479034","0.0-6.0-0.182","LAJU","1","f","rechts","24","","fixation","","","",""
"1468","img/30_120.png","74","image-keyboard-response","371","480502","0.0-6.0-1.182","LAJU","1","f","rechts","24","","","self","j","30","true"
"null","<div style=""font-size:60px;"">+</div>","null","html-keyboard-response","372","480954","0.0-6.0-0.183","LAJU","1","f","rechts","24","","fixation","","","",""
"743","img/30_60.png","74","image-keyboard-response","373","481699","0.0-6.0-1.183","LAJU","1","f","rechts","24","","","self","j","30","true"
"null","<div style=""font-size:60px;"">+</div>","null","html-keyboard-response","374","482200","0.0-6.0-0.184","LAJU","1","f","rechts","24","","fixation","","","",""
"887","img/0_270.png","70","image-keyboard-response","375","483089","0.0-6.0-1.184","LAJU","1","f","rechts","24","","","self","f","0","true"
"null","<div style=""font-size:60px;"">+</div>","null","html-keyboard-response","376","483440","0.0-6.0-0.185","LAJU","1","f","rechts","24","","fixation","","","",""
"1209","img/120_90.png","70","image-keyboard-response","377","484651","0.0-6.0-1.185","LAJU","1","f","rechts","24","","","self","f","120","true"
"null","<div style=""font-size:60px;"">+</div>","null","html-keyboard-response","378","485052","0.0-6.0-0.186","LAJU","1","f","rechts","24","","fixation","","","",""
"682","img/L60_180.png","70","image-keyboard-response","379","485735","0.0-6.0-1.186","LAJU","1","f","rechts","24","","","self","f","60","true"
"null","<div style=""font-size:60px;"">+</div>","null","html-keyboard-response","380","486237","0.0-6.0-0.187","LAJU","1","f","rechts","24","","fixation","","","",""
"711","img/0_60.png","74","image-keyboard-response","381","486950","0.0-6.0-1.187","LAJU","1","f","rechts","24","","","self","j","0","true"
"null","<div style=""font-size:60px;"">+</div>","null","html-keyboard-response","382","487251","0.0-6.0-0.188","LAJU","1","f","rechts","24","","fixation","","","",""
"914","img/0_240.png","70","image-keyboard-response","383","488166","0.0-6.0-1.188","LAJU","1","f","rechts","24","","","self","f","0","true"
"null","<div style=""font-size:60px;"">+</div>","null","html-keyboard-response","384","488568","0.0-6.0-0.189","LAJU","1","f","rechts","24","","fixation","","","",""
"1354","img/60_30.png","74","image-keyboard-response","385","489923","0.0-6.0-1.189","LAJU","1","f","rechts","24","","","self","j","60","true"
"null","<div style=""font-size:60px;"">+</div>","null","html-keyboard-response","386","490325","0.0-6.0-0.190","LAJU","1","f","rechts","24","","fixation","","","",""
"1180","img/30_180.png","74","image-keyboard-response","387","491506","0.0-6.0-1.190","LAJU","1","f","rechts","24","","","self","j","30","true"
"null","<div style=""font-size:60px;"">+</div>","null","html-keyboard-response","388","491808","0.0-6.0-0.191","LAJU","1","f","rechts","24","","fixation","","","",""
"1328","img/90_210.png","74","image-keyboard-response","389","493137","0.0-6.0-1.191","LAJU","1","f","rechts","24","","","self","j","90","true"
"null","<div style=""font-size:60px;"">+</div>","null","html-keyboard-response","390","493538","0.0-6.0-0.192","LAJU","1","f","rechts","24","","fixation","","","",""
"668","img/0_90.png","74","image-keyboard-response","391","494207","0.0-6.0-1.192","LAJU","1","f","rechts","24","","","self","j","0","true"
"null","<div style=""font-size:60px;"">+</div>","null","html-keyboard-response","392","494559","0.0-6.0-0.193","LAJU","1","f","rechts","24","","fixation","","","",""
"548","img/150_180.png","74","image-keyboard-response","393","495108","0.0-6.0-1.193","LAJU","1","f","rechts","24","","","self","j","150","true"
"null","<div style=""font-size:60px;"">+</div>","null","html-keyboard-response","394","495510","0.0-6.0-0.194","LAJU","1","f","rechts","24","","fixation","","","",""
"641","img/0_150.png","74","image-keyboard-response","395","496152","0.0-6.0-1.194","LAJU","1","f","rechts","24","","","self","j","0","true"
"null","<div style=""font-size:60px;"">+</div>","null","html-keyboard-response","396","496454","0.0-6.0-0.195","LAJU","1","f","rechts","24","","fixation","","","",""
"1368","img/90_150.png","70","image-keyboard-response","397","497823","0.0-6.0-1.195","LAJU","1","f","rechts","24","","","self","f","90","true"
"null","<div style=""font-size:60px;"">+</div>","null","html-keyboard-response","398","498125","0.0-6.0-0.196","LAJU","1","f","rechts","24","","fixation","","","",""
"706","img/120_210.png","74","image-keyboard-response","399","498832","0.0-6.0-1.196","LAJU","1","f","rechts","24","","","self","j","120","true"
"null","<div style=""font-size:60px;"">+</div>","null","html-keyboard-response","400","499234","0.0-6.0-0.197","LAJU","1","f","rechts","24","","fixation","","","",""
"1247","img/60_150.png","74","image-keyboard-response","401","500482","0.0-6.0-1.197","LAJU","1","f","rechts","24","","","self","f","60","false"
"null","<div style=""font-size:60px;"">+</div>","null","html-keyboard-response","402","500884","0.0-6.0-0.198","LAJU","1","f","rechts","24","","fixation","","","",""
"1064","img/90_120.png","70","image-keyboard-response","403","501950","0.0-6.0-1.198","LAJU","1","f","rechts","24","","","self","f","90","true"
"null","<div style=""font-size:60px;"">+</div>","null","html-keyboard-response","404","502401","0.0-6.0-0.199","LAJU","1","f","rechts","24","","fixation","","","",""
"1308","img/L30_180.png","70","image-keyboard-response","405","503710","0.0-6.0-1.199","LAJU","1","f","rechts","24","","","self","f","30","true"
"null","<div style=""font-size:60px;"">+</div>","null","html-keyboard-response","406","504112","0.0-6.0-0.200","LAJU","1","f","rechts","24","","fixation","","","",""
"740","img/120_180.png","74","image-keyboard-response","407","504853","0.0-6.0-1.200","LAJU","1","f","rechts","24","","","self","j","120","true"
"null","<div style=""font-size:60px;"">+</div>","null","html-keyboard-response","408","505355","0.0-6.0-0.201","LAJU","1","f","rechts","24","","fixation","","","",""
"947","img/150_300.png","74","image-keyboard-response","409","506303","0.0-6.0-1.201","LAJU","1","f","rechts","24","","","self","j","150","true"
"null","<div style=""font-size:60px;"">+</div>","null","html-keyboard-response","410","506805","0.0-6.0-0.202","LAJU","1","f","rechts","24","","fixation","","","",""
"1698","img/30_240.png","74","image-keyboard-response","411","508504","0.0-6.0-1.202","LAJU","1","f","rechts","24","","","self","f","30","false"
"null","<div style=""font-size:60px;"">+</div>","null","html-keyboard-response","412","508906","0.0-6.0-0.203","LAJU","1","f","rechts","24","","fixation","","","",""
"922","img/150_270.png","74","image-keyboard-response","413","509829","0.0-6.0-1.203","LAJU","1","f","rechts","24","","","self","j","150","true"
"null","<div style=""font-size:60px;"">+</div>","null","html-keyboard-response","414","510130","0.0-6.0-0.204","LAJU","1","f","rechts","24","","fixation","","","",""
"1068","img/30_90.png","70","image-keyboard-response","415","511199","0.0-6.0-1.204","LAJU","1","f","rechts","24","","","self","j","30","false"
"null","<div style=""font-size:60px;"">+</div>","null","html-keyboard-response","416","511600","0.0-6.0-0.205","LAJU","1","f","rechts","24","","fixation","","","",""
"1494","img/90_330.png","74","image-keyboard-response","417","513095","0.0-6.0-1.205","LAJU","1","f","rechts","24","","","self","f","90","false"
"null","<div style=""font-size:60px;"">+</div>","null","html-keyboard-response","418","513597","0.0-6.0-0.206","LAJU","1","f","rechts","24","","fixation","","","",""
"1355","img/60_330.png","70","image-keyboard-response","419","514952","0.0-6.0-1.206","LAJU","1","f","rechts","24","","","self","f","60","true"
"null","<div style=""font-size:60px;"">+</div>","null","html-keyboard-response","420","515453","0.0-6.0-0.207","LAJU","1","f","rechts","24","","fixation","","","",""
"1072","img/150_240.png","74","image-keyboard-response","421","516526","0.0-6.0-1.207","LAJU","1","f","rechts","24","","","self","j","150","true"
"30683","<p>Du hast in 88% der Versuche korrekt entschieden.</p><p>Deine durchschnittliche Reaktionszeit war  1329ms.</p><p>Dr&uuml;cke eine beliebige Taste, um die Session zu beenden. Vielen Dank!</p>","71","html-keyboard-response","422","547210","0.0-7.0","LAJU","1","f","rechts","24","","","","","",""
