"rt","stimulus","key_press","trial_type","trial_index","time_elapsed","internal_node_id","subject","session","sex","handedness","age","responses","test_part","condition","correct_response","angle","correct"
"2188","<p>Mental Rotation Experiment.</p> <p>Dr&uuml;cke eine beliebige Taste, um anzufangen.</p>","71","html-keyboard-response","0","2190","0.0-0.0","LAJU","3","f","rechts","24","","","","","",""
"3998","","","survey-text","1","6190","0.0-1.0","LAJU","3","f","rechts","24","{""Q0"":""LAJU""}","","","","",""
"2642","","","survey-text","2","8833","0.0-2.0","LAJU","3","f","rechts","24","{""Q0"":""3""}","","","","",""
"9541","","","survey-multi-choice","3","18375","0.0-3.0","LAJU","3","f","rechts","24","{""Q0"":""f"",""Q1"":""rechts""}","","","","",""
"3275","","","survey-text","4","21651","0.0-4.0","LAJU","3","f","rechts","24","{""Q0"":""24""}","","","","",""
"26595","<p> Stell dir vor, dass du vor einem runden Tisch stehst, auf dem sich ein blauer Ball am Tischrand befindet. Entlang des Tischrands ist jeweils ein verschieden langer Pfeil. Nun bewegst du dich entlang dieses Pfeils bis an seine Spitze. Wenn du am Ende des Pfeils angekommen bist, schau zur Tischmitte. </p> <img src='img/90_180.png'></img> <br> <p>Entscheide dann, ob der Ball von deiner neuen (vorgestellten) Position links oder rechts von dir liegt.</p> <p>Dr&uuml;cke die <strong>'f'</strong>-Taste f&uuml;r links, die <strong>'j'</strong>-Taste f&uuml;r rechts.</p> <br><p> Das Bild wird jeweils 1 Sekunde lang pr&auml;sentiert. Du hast 3 Sekunden Zeit eine Entscheidung zu treffen.</p>","70","html-keyboard-response","5","48248","0.0-5.0","LAJU","3","f","rechts","24","","","","","",""
"null","<div style=""font-size:60px;"">+</div>","null","html-keyboard-response","6","49751","0.0-6.0-0.0","LAJU","3","f","rechts","24","","fixation","","","",""
"1634","img/30_300.png","70","image-keyboard-response","7","51386","0.0-6.0-1.0","LAJU","3","f","rechts","24","","","self","f","30","true"
"null","<div style=""font-size:60px;"">+</div>","null","html-keyboard-response","8","51688","0.0-6.0-0.1","LAJU","3","f","rechts","24","","fixation","","","",""
"1395","img/90_180.png","74","image-keyboard-response","9","53084","0.0-6.0-1.1","LAJU","3","f","rechts","24","","","self","j","90","true"
"null","<div style=""font-size:60px;"">+</div>","null","html-keyboard-response","10","53586","0.0-6.0-0.2","LAJU","3","f","rechts","24","","fixation","","","",""
"650","img/0_90.png","74","image-keyboard-response","11","54237","0.0-6.0-1.2","LAJU","3","f","rechts","24","","","self","j","0","true"
"null","<div style=""font-size:60px;"">+</div>","null","html-keyboard-response","12","54689","0.0-6.0-0.3","LAJU","3","f","rechts","24","","fixation","","","",""
"1260","img/90_120.png","70","image-keyboard-response","13","55950","0.0-6.0-1.3","LAJU","3","f","rechts","24","","","self","f","90","true"
"null","<div style=""font-size:60px;"">+</div>","null","html-keyboard-response","14","56352","0.0-6.0-0.4","LAJU","3","f","rechts","24","","fixation","","","",""
"667","img/0_240.png","70","image-keyboard-response","15","57020","0.0-6.0-1.4","LAJU","3","f","rechts","24","","","self","f","0","true"
"null","<div style=""font-size:60px;"">+</div>","null","html-keyboard-response","16","57371","0.0-6.0-0.5","LAJU","3","f","rechts","24","","fixation","","","",""
"890","img/L120_180.png","70","image-keyboard-response","17","58263","0.0-6.0-1.5","LAJU","3","f","rechts","24","","","self","f","120","true"
"null","<div style=""font-size:60px;"">+</div>","null","html-keyboard-response","18","58664","0.0-6.0-0.6","LAJU","3","f","rechts","24","","fixation","","","",""
"1571","img/120_330.png","70","image-keyboard-response","19","60237","0.0-6.0-1.6","LAJU","3","f","rechts","24","","","self","f","120","true"
"null","<div style=""font-size:60px;"">+</div>","null","html-keyboard-response","20","60738","0.0-6.0-0.7","LAJU","3","f","rechts","24","","fixation","","","",""
"811","img/150_90.png","70","image-keyboard-response","21","61550","0.0-6.0-1.7","LAJU","3","f","rechts","24","","","self","f","150","true"
"null","<div style=""font-size:60px;"">+</div>","null","html-keyboard-response","22","62051","0.0-6.0-0.8","LAJU","3","f","rechts","24","","fixation","","","",""
"1114","img/30_270.png","70","image-keyboard-response","23","63166","0.0-6.0-1.8","LAJU","3","f","rechts","24","","","self","f","30","true"
"null","<div style=""font-size:60px;"">+</div>","null","html-keyboard-response","24","63568","0.0-6.0-0.9","LAJU","3","f","rechts","24","","fixation","","","",""
"1164","img/150_300.png","74","image-keyboard-response","25","64732","0.0-6.0-1.9","LAJU","3","f","rechts","24","","","self","j","150","true"
"null","<div style=""font-size:60px;"">+</div>","null","html-keyboard-response","26","65033","0.0-6.0-0.10","LAJU","3","f","rechts","24","","fixation","","","",""
"1104","img/90_150.png","70","image-keyboard-response","27","66139","0.0-6.0-1.10","LAJU","3","f","rechts","24","","","self","f","90","true"
"null","<div style=""font-size:60px;"">+</div>","null","html-keyboard-response","28","66440","0.0-6.0-0.11","LAJU","3","f","rechts","24","","fixation","","","",""
"776","img/L30_180.png","70","image-keyboard-response","29","67218","0.0-6.0-1.11","LAJU","3","f","rechts","24","","","self","f","30","true"
"null","<div style=""font-size:60px;"">+</div>","null","html-keyboard-response","30","67719","0.0-6.0-0.12","LAJU","3","f","rechts","24","","fixation","","","",""
"708","img/0_60.png","74","image-keyboard-response","31","68429","0.0-6.0-1.12","LAJU","3","f","rechts","24","","","self","j","0","true"
"null","<div style=""font-size:60px;"">+</div>","null","html-keyboard-response","32","68730","0.0-6.0-0.13","LAJU","3","f","rechts","24","","fixation","","","",""
"1075","img/90_330.png","70","image-keyboard-response","33","69806","0.0-6.0-1.13","LAJU","3","f","rechts","24","","","self","f","90","true"
"null","<div style=""font-size:60px;"">+</div>","null","html-keyboard-response","34","70307","0.0-6.0-0.14","LAJU","3","f","rechts","24","","fixation","","","",""
"632","img/L60_180.png","70","image-keyboard-response","35","70940","0.0-6.0-1.14","LAJU","3","f","rechts","24","","","self","f","60","true"
"null","<div style=""font-size:60px;"">+</div>","null","html-keyboard-response","36","71291","0.0-6.0-0.15","LAJU","3","f","rechts","24","","fixation","","","",""
"865","img/90_210.png","74","image-keyboard-response","37","72158","0.0-6.0-1.15","LAJU","3","f","rechts","24","","","self","j","90","true"
"null","<div style=""font-size:60px;"">+</div>","null","html-keyboard-response","38","72509","0.0-6.0-0.16","LAJU","3","f","rechts","24","","fixation","","","",""
"674","img/0_300.png","70","image-keyboard-response","39","73184","0.0-6.0-1.16","LAJU","3","f","rechts","24","","","self","f","0","true"
"null","<div style=""font-size:60px;"">+</div>","null","html-keyboard-response","40","73536","0.0-6.0-0.17","LAJU","3","f","rechts","24","","fixation","","","",""
"823","img/60_90.png","70","image-keyboard-response","41","74360","0.0-6.0-1.17","LAJU","3","f","rechts","24","","","self","j","60","false"
"null","<div style=""font-size:60px;"">+</div>","null","html-keyboard-response","42","74812","0.0-6.0-0.18","LAJU","3","f","rechts","24","","fixation","","","",""
"1067","img/L90_180.png","70","image-keyboard-response","43","75879","0.0-6.0-1.18","LAJU","3","f","rechts","24","","","self","f","90","true"
"null","<div style=""font-size:60px;"">+</div>","null","html-keyboard-response","44","76181","0.0-6.0-0.19","LAJU","3","f","rechts","24","","fixation","","","",""
"2228","img/150_120.png","70","image-keyboard-response","45","78411","0.0-6.0-1.19","LAJU","3","f","rechts","24","","","self","f","150","true"
"null","<div style=""font-size:60px;"">+</div>","null","html-keyboard-response","46","78762","0.0-6.0-0.20","LAJU","3","f","rechts","24","","fixation","","","",""
"1052","img/60_330.png","70","image-keyboard-response","47","79816","0.0-6.0-1.20","LAJU","3","f","rechts","24","","","self","f","60","true"
"null","<div style=""font-size:60px;"">+</div>","null","html-keyboard-response","48","80267","0.0-6.0-0.21","LAJU","3","f","rechts","24","","fixation","","","",""
"1091","img/60_30.png","74","image-keyboard-response","49","81360","0.0-6.0-1.21","LAJU","3","f","rechts","24","","","self","j","60","true"
"null","<div style=""font-size:60px;"">+</div>","null","html-keyboard-response","50","81761","0.0-6.0-0.22","LAJU","3","f","rechts","24","","fixation","","","",""
"618","img/0_30.png","74","image-keyboard-response","51","82382","0.0-6.0-1.22","LAJU","3","f","rechts","24","","","self","j","0","true"
"null","<div style=""font-size:60px;"">+</div>","null","html-keyboard-response","52","82732","0.0-6.0-0.23","LAJU","3","f","rechts","24","","fixation","","","",""
"1376","img/150_60.png","70","image-keyboard-response","53","84109","0.0-6.0-1.23","LAJU","3","f","rechts","24","","","self","f","150","true"
"null","<div style=""font-size:60px;"">+</div>","null","html-keyboard-response","54","84461","0.0-6.0-0.24","LAJU","3","f","rechts","24","","fixation","","","",""
"1079","img/30_60.png","74","image-keyboard-response","55","85541","0.0-6.0-1.24","LAJU","3","f","rechts","24","","","self","j","30","true"
"null","<div style=""font-size:60px;"">+</div>","null","html-keyboard-response","56","85992","0.0-6.0-0.25","LAJU","3","f","rechts","24","","fixation","","","",""
"1547","img/60_150.png","70","image-keyboard-response","57","87540","0.0-6.0-1.25","LAJU","3","f","rechts","24","","","self","f","60","true"
"null","<div style=""font-size:60px;"">+</div>","null","html-keyboard-response","58","87991","0.0-6.0-0.26","LAJU","3","f","rechts","24","","fixation","","","",""
"1436","img/120_30.png","70","image-keyboard-response","59","89427","0.0-6.0-1.26","LAJU","3","f","rechts","24","","","self","j","120","false"
"null","<div style=""font-size:60px;"">+</div>","null","html-keyboard-response","60","89929","0.0-6.0-0.27","LAJU","3","f","rechts","24","","fixation","","","",""
"833","img/120_270.png","74","image-keyboard-response","61","90763","0.0-6.0-1.27","LAJU","3","f","rechts","24","","","self","j","120","true"
"null","<div style=""font-size:60px;"">+</div>","null","html-keyboard-response","62","91215","0.0-6.0-0.28","LAJU","3","f","rechts","24","","fixation","","","",""
"1183","img/60_270.png","70","image-keyboard-response","63","92399","0.0-6.0-1.28","LAJU","3","f","rechts","24","","","self","f","60","true"
"null","<div style=""font-size:60px;"">+</div>","null","html-keyboard-response","64","92901","0.0-6.0-0.29","LAJU","3","f","rechts","24","","fixation","","","",""
"728","img/90_30.png","74","image-keyboard-response","65","93630","0.0-6.0-1.29","LAJU","3","f","rechts","24","","","self","j","90","true"
"null","<div style=""font-size:60px;"">+</div>","null","html-keyboard-response","66","94082","0.0-6.0-0.30","LAJU","3","f","rechts","24","","fixation","","","",""
"1066","img/120_180.png","74","image-keyboard-response","67","95149","0.0-6.0-1.30","LAJU","3","f","rechts","24","","","self","j","120","true"
"null","<div style=""font-size:60px;"">+</div>","null","html-keyboard-response","68","95551","0.0-6.0-0.31","LAJU","3","f","rechts","24","","fixation","","","",""
"652","img/90_240.png","74","image-keyboard-response","69","96204","0.0-6.0-1.31","LAJU","3","f","rechts","24","","","self","j","90","true"
"null","<div style=""font-size:60px;"">+</div>","null","html-keyboard-response","70","96556","0.0-6.0-0.32","LAJU","3","f","rechts","24","","fixation","","","",""
"848","img/90_60.png","74","image-keyboard-response","71","97405","0.0-6.0-1.32","LAJU","3","f","rechts","24","","","self","j","90","true"
"null","<div style=""font-size:60px;"">+</div>","null","html-keyboard-response","72","97807","0.0-6.0-0.33","LAJU","3","f","rechts","24","","fixation","","","",""
"875","img/30_90.png","74","image-keyboard-response","73","98683","0.0-6.0-1.33","LAJU","3","f","rechts","24","","","self","j","30","true"
"null","<div style=""font-size:60px;"">+</div>","null","html-keyboard-response","74","98985","0.0-6.0-0.34","LAJU","3","f","rechts","24","","fixation","","","",""
"989","img/90_300.png","74","image-keyboard-response","75","99975","0.0-6.0-1.34","LAJU","3","f","rechts","24","","","self","f","90","false"
"null","<div style=""font-size:60px;"">+</div>","null","html-keyboard-response","76","100477","0.0-6.0-0.35","LAJU","3","f","rechts","24","","fixation","","","",""
"1160","img/L150_180.png","70","image-keyboard-response","77","101638","0.0-6.0-1.35","LAJU","3","f","rechts","24","","","self","f","150","true"
"null","<div style=""font-size:60px;"">+</div>","null","html-keyboard-response","78","102090","0.0-6.0-0.36","LAJU","3","f","rechts","24","","fixation","","","",""
"828","img/30_240.png","70","image-keyboard-response","79","102918","0.0-6.0-1.36","LAJU","3","f","rechts","24","","","self","f","30","true"
"null","<div style=""font-size:60px;"">+</div>","null","html-keyboard-response","80","103370","0.0-6.0-0.37","LAJU","3","f","rechts","24","","fixation","","","",""
"655","img/150_180.png","74","image-keyboard-response","81","104026","0.0-6.0-1.37","LAJU","3","f","rechts","24","","","self","j","150","true"
"null","<div style=""font-size:60px;"">+</div>","null","html-keyboard-response","82","104478","0.0-6.0-0.38","LAJU","3","f","rechts","24","","fixation","","","",""
"687","img/0_150.png","74","image-keyboard-response","83","105165","0.0-6.0-1.38","LAJU","3","f","rechts","24","","","self","j","0","true"
"null","<div style=""font-size:60px;"">+</div>","null","html-keyboard-response","84","105516","0.0-6.0-0.39","LAJU","3","f","rechts","24","","fixation","","","",""
"702","img/0_210.png","70","image-keyboard-response","85","106219","0.0-6.0-1.39","LAJU","3","f","rechts","24","","","self","f","0","true"
"null","<div style=""font-size:60px;"">+</div>","null","html-keyboard-response","86","106670","0.0-6.0-0.40","LAJU","3","f","rechts","24","","fixation","","","",""
"598","img/30_120.png","74","image-keyboard-response","87","107270","0.0-6.0-1.40","LAJU","3","f","rechts","24","","","self","j","30","true"
"null","<div style=""font-size:60px;"">+</div>","null","html-keyboard-response","88","107771","0.0-6.0-0.41","LAJU","3","f","rechts","24","","fixation","","","",""
"725","img/60_210.png","74","image-keyboard-response","89","108497","0.0-6.0-1.41","LAJU","3","f","rechts","24","","","self","j","60","true"
"null","<div style=""font-size:60px;"">+</div>","null","html-keyboard-response","90","108999","0.0-6.0-0.42","LAJU","3","f","rechts","24","","fixation","","","",""
"1890","img/120_90.png","70","image-keyboard-response","91","110890","0.0-6.0-1.42","LAJU","3","f","rechts","24","","","self","f","120","true"
"null","<div style=""font-size:60px;"">+</div>","null","html-keyboard-response","92","111392","0.0-6.0-0.43","LAJU","3","f","rechts","24","","fixation","","","",""
"661","img/30_180.png","74","image-keyboard-response","93","112054","0.0-6.0-1.43","LAJU","3","f","rechts","24","","","self","j","30","true"
"null","<div style=""font-size:60px;"">+</div>","null","html-keyboard-response","94","112556","0.0-6.0-0.44","LAJU","3","f","rechts","24","","fixation","","","",""
"726","img/0_330.png","70","image-keyboard-response","95","113283","0.0-6.0-1.44","LAJU","3","f","rechts","24","","","self","f","0","true"
"null","<div style=""font-size:60px;"">+</div>","null","html-keyboard-response","96","113784","0.0-6.0-0.45","LAJU","3","f","rechts","24","","fixation","","","",""
"598","img/150_240.png","74","image-keyboard-response","97","114383","0.0-6.0-1.45","LAJU","3","f","rechts","24","","","self","j","150","true"
"null","<div style=""font-size:60px;"">+</div>","null","html-keyboard-response","98","114785","0.0-6.0-0.46","LAJU","3","f","rechts","24","","fixation","","","",""
"710","img/0_270.png","70","image-keyboard-response","99","115495","0.0-6.0-1.46","LAJU","3","f","rechts","24","","","self","f","0","true"
"null","<div style=""font-size:60px;"">+</div>","null","html-keyboard-response","100","115897","0.0-6.0-0.47","LAJU","3","f","rechts","24","","fixation","","","",""
"750","img/60_180.png","74","image-keyboard-response","101","116648","0.0-6.0-1.47","LAJU","3","f","rechts","24","","","self","j","60","true"
"null","<div style=""font-size:60px;"">+</div>","null","html-keyboard-response","102","117149","0.0-6.0-0.48","LAJU","3","f","rechts","24","","fixation","","","",""
"766","img/120_150.png","70","image-keyboard-response","103","117916","0.0-6.0-1.48","LAJU","3","f","rechts","24","","","self","f","120","true"
"null","<div style=""font-size:60px;"">+</div>","null","html-keyboard-response","104","118418","0.0-6.0-0.49","LAJU","3","f","rechts","24","","fixation","","","",""
"672","img/150_270.png","74","image-keyboard-response","105","119091","0.0-6.0-1.49","LAJU","3","f","rechts","24","","","self","j","150","true"
"null","<div style=""font-size:60px;"">+</div>","null","html-keyboard-response","106","119542","0.0-6.0-0.50","LAJU","3","f","rechts","24","","fixation","","","",""
"649","img/0_120.png","74","image-keyboard-response","107","120192","0.0-6.0-1.50","LAJU","3","f","rechts","24","","","self","j","0","true"
"null","<div style=""font-size:60px;"">+</div>","null","html-keyboard-response","108","120493","0.0-6.0-0.51","LAJU","3","f","rechts","24","","fixation","","","",""
"617","img/120_210.png","74","image-keyboard-response","109","121112","0.0-6.0-1.51","LAJU","3","f","rechts","24","","","self","j","120","true"
"null","<div style=""font-size:60px;"">+</div>","null","html-keyboard-response","110","121413","0.0-6.0-0.52","LAJU","3","f","rechts","24","","fixation","","","",""
"751","img/L150_180.png","70","image-keyboard-response","111","122165","0.0-6.0-1.52","LAJU","3","f","rechts","24","","","self","f","150","true"
"null","<div style=""font-size:60px;"">+</div>","null","html-keyboard-response","112","122566","0.0-6.0-0.53","LAJU","3","f","rechts","24","","fixation","","","",""
"1141","img/90_30.png","74","image-keyboard-response","113","123709","0.0-6.0-1.53","LAJU","3","f","rechts","24","","","self","j","90","true"
"null","<div style=""font-size:60px;"">+</div>","null","html-keyboard-response","114","124060","0.0-6.0-0.54","LAJU","3","f","rechts","24","","fixation","","","",""
"1073","img/150_90.png","70","image-keyboard-response","115","125134","0.0-6.0-1.54","LAJU","3","f","rechts","24","","","self","f","150","true"
"null","<div style=""font-size:60px;"">+</div>","null","html-keyboard-response","116","125485","0.0-6.0-0.55","LAJU","3","f","rechts","24","","fixation","","","",""
"792","img/L90_180.png","70","image-keyboard-response","117","126279","0.0-6.0-1.55","LAJU","3","f","rechts","24","","","self","f","90","true"
"null","<div style=""font-size:60px;"">+</div>","null","html-keyboard-response","118","126630","0.0-6.0-0.56","LAJU","3","f","rechts","24","","fixation","","","",""
"877","img/90_240.png","74","image-keyboard-response","119","127508","0.0-6.0-1.56","LAJU","3","f","rechts","24","","","self","j","90","true"
"null","<div style=""font-size:60px;"">+</div>","null","html-keyboard-response","120","127960","0.0-6.0-0.57","LAJU","3","f","rechts","24","","fixation","","","",""
"1149","img/30_60.png","74","image-keyboard-response","121","129110","0.0-6.0-1.57","LAJU","3","f","rechts","24","","","self","j","30","true"
"null","<div style=""font-size:60px;"">+</div>","null","html-keyboard-response","122","129462","0.0-6.0-0.58","LAJU","3","f","rechts","24","","fixation","","","",""
"644","img/0_120.png","74","image-keyboard-response","123","130108","0.0-6.0-1.58","LAJU","3","f","rechts","24","","","self","j","0","true"
"null","<div style=""font-size:60px;"">+</div>","null","html-keyboard-response","124","130559","0.0-6.0-0.59","LAJU","3","f","rechts","24","","fixation","","","",""
"495","img/0_60.png","74","image-keyboard-response","125","131055","0.0-6.0-1.59","LAJU","3","f","rechts","24","","","self","j","0","true"
"null","<div style=""font-size:60px;"">+</div>","null","html-keyboard-response","126","131356","0.0-6.0-0.60","LAJU","3","f","rechts","24","","fixation","","","",""
"467","img/0_30.png","74","image-keyboard-response","127","131824","0.0-6.0-1.60","LAJU","3","f","rechts","24","","","self","j","0","true"
"null","<div style=""font-size:60px;"">+</div>","null","html-keyboard-response","128","132225","0.0-6.0-0.61","LAJU","3","f","rechts","24","","fixation","","","",""
"506","img/120_180.png","74","image-keyboard-response","129","132732","0.0-6.0-1.61","LAJU","3","f","rechts","24","","","self","j","120","true"
"null","<div style=""font-size:60px;"">+</div>","null","html-keyboard-response","130","133234","0.0-6.0-0.62","LAJU","3","f","rechts","24","","fixation","","","",""
"648","img/60_210.png","74","image-keyboard-response","131","133882","0.0-6.0-1.62","LAJU","3","f","rechts","24","","","self","j","60","true"
"null","<div style=""font-size:60px;"">+</div>","null","html-keyboard-response","132","134234","0.0-6.0-0.63","LAJU","3","f","rechts","24","","fixation","","","",""
"1472","img/90_300.png","70","image-keyboard-response","133","135707","0.0-6.0-1.63","LAJU","3","f","rechts","24","","","self","f","90","true"
"null","<div style=""font-size:60px;"">+</div>","null","html-keyboard-response","134","136209","0.0-6.0-0.64","LAJU","3","f","rechts","24","","fixation","","","",""
"1097","img/150_300.png","74","image-keyboard-response","135","137307","0.0-6.0-1.64","LAJU","3","f","rechts","24","","","self","j","150","true"
"null","<div style=""font-size:60px;"">+</div>","null","html-keyboard-response","136","137808","0.0-6.0-0.65","LAJU","3","f","rechts","24","","fixation","","","",""
"1005","img/30_120.png","70","image-keyboard-response","137","138814","0.0-6.0-1.65","LAJU","3","f","rechts","24","","","self","j","30","false"
"null","<div style=""font-size:60px;"">+</div>","null","html-keyboard-response","138","139165","0.0-6.0-0.66","LAJU","3","f","rechts","24","","fixation","","","",""
"1511","img/30_240.png","70","image-keyboard-response","139","140677","0.0-6.0-1.66","LAJU","3","f","rechts","24","","","self","f","30","true"
"null","<div style=""font-size:60px;"">+</div>","null","html-keyboard-response","140","140979","0.0-6.0-0.67","LAJU","3","f","rechts","24","","fixation","","","",""
"1108","img/30_300.png","70","image-keyboard-response","141","142088","0.0-6.0-1.67","LAJU","3","f","rechts","24","","","self","f","30","true"
"null","<div style=""font-size:60px;"">+</div>","null","html-keyboard-response","142","142390","0.0-6.0-0.68","LAJU","3","f","rechts","24","","fixation","","","",""
"874","img/150_180.png","74","image-keyboard-response","143","143264","0.0-6.0-1.68","LAJU","3","f","rechts","24","","","self","j","150","true"
"null","<div style=""font-size:60px;"">+</div>","null","html-keyboard-response","144","143616","0.0-6.0-0.69","LAJU","3","f","rechts","24","","fixation","","","",""
"882","img/0_210.png","70","image-keyboard-response","145","144499","0.0-6.0-1.69","LAJU","3","f","rechts","24","","","self","f","0","true"
"null","<div style=""font-size:60px;"">+</div>","null","html-keyboard-response","146","144851","0.0-6.0-0.70","LAJU","3","f","rechts","24","","fixation","","","",""
"976","img/60_180.png","74","image-keyboard-response","147","145828","0.0-6.0-1.70","LAJU","3","f","rechts","24","","","self","j","60","true"
"null","<div style=""font-size:60px;"">+</div>","null","html-keyboard-response","148","146130","0.0-6.0-0.71","LAJU","3","f","rechts","24","","fixation","","","",""
"1378","img/60_150.png","70","image-keyboard-response","149","147508","0.0-6.0-1.71","LAJU","3","f","rechts","24","","","self","f","60","true"
"null","<div style=""font-size:60px;"">+</div>","null","html-keyboard-response","150","148010","0.0-6.0-0.72","LAJU","3","f","rechts","24","","fixation","","","",""
"743","img/0_300.png","70","image-keyboard-response","151","148753","0.0-6.0-1.72","LAJU","3","f","rechts","24","","","self","f","0","true"
"null","<div style=""font-size:60px;"">+</div>","null","html-keyboard-response","152","149155","0.0-6.0-0.73","LAJU","3","f","rechts","24","","fixation","","","",""
"1340","img/120_30.png","74","image-keyboard-response","153","150495","0.0-6.0-1.73","LAJU","3","f","rechts","24","","","self","j","120","true"
"null","<div style=""font-size:60px;"">+</div>","null","html-keyboard-response","154","150947","0.0-6.0-0.74","LAJU","3","f","rechts","24","","fixation","","","",""
"820","img/120_210.png","74","image-keyboard-response","155","151767","0.0-6.0-1.74","LAJU","3","f","rechts","24","","","self","j","120","true"
"null","<div style=""font-size:60px;"">+</div>","null","html-keyboard-response","156","152119","0.0-6.0-0.75","LAJU","3","f","rechts","24","","fixation","","","",""
"1104","img/150_60.png","70","image-keyboard-response","157","153223","0.0-6.0-1.75","LAJU","3","f","rechts","24","","","self","f","150","true"
"null","<div style=""font-size:60px;"">+</div>","null","html-keyboard-response","158","153524","0.0-6.0-0.76","LAJU","3","f","rechts","24","","fixation","","","",""
"936","img/30_90.png","70","image-keyboard-response","159","154461","0.0-6.0-1.76","LAJU","3","f","rechts","24","","","self","j","30","false"
"null","<div style=""font-size:60px;"">+</div>","null","html-keyboard-response","160","154912","0.0-6.0-0.77","LAJU","3","f","rechts","24","","fixation","","","",""
"902","img/L60_180.png","70","image-keyboard-response","161","155815","0.0-6.0-1.77","LAJU","3","f","rechts","24","","","self","f","60","true"
"null","<div style=""font-size:60px;"">+</div>","null","html-keyboard-response","162","156216","0.0-6.0-0.78","LAJU","3","f","rechts","24","","fixation","","","",""
"635","img/0_150.png","74","image-keyboard-response","163","156852","0.0-6.0-1.78","LAJU","3","f","rechts","24","","","self","j","0","true"
"null","<div style=""font-size:60px;"">+</div>","null","html-keyboard-response","164","157353","0.0-6.0-0.79","LAJU","3","f","rechts","24","","fixation","","","",""
"963","img/120_150.png","74","image-keyboard-response","165","158318","0.0-6.0-1.79","LAJU","3","f","rechts","24","","","self","f","120","false"
"null","<div style=""font-size:60px;"">+</div>","null","html-keyboard-response","166","158769","0.0-6.0-0.80","LAJU","3","f","rechts","24","","fixation","","","",""
"811","img/L120_180.png","70","image-keyboard-response","167","159581","0.0-6.0-1.80","LAJU","3","f","rechts","24","","","self","f","120","true"
"null","<div style=""font-size:60px;"">+</div>","null","html-keyboard-response","168","159883","0.0-6.0-0.81","LAJU","3","f","rechts","24","","fixation","","","",""
"943","img/90_150.png","70","image-keyboard-response","169","160826","0.0-6.0-1.81","LAJU","3","f","rechts","24","","","self","f","90","true"
"null","<div style=""font-size:60px;"">+</div>","null","html-keyboard-response","170","161278","0.0-6.0-0.82","LAJU","3","f","rechts","24","","fixation","","","",""
"1519","img/60_270.png","70","image-keyboard-response","171","162797","0.0-6.0-1.82","LAJU","3","f","rechts","24","","","self","f","60","true"
"null","<div style=""font-size:60px;"">+</div>","null","html-keyboard-response","172","163198","0.0-6.0-0.83","LAJU","3","f","rechts","24","","fixation","","","",""
"698","img/L30_180.png","70","image-keyboard-response","173","163897","0.0-6.0-1.83","LAJU","3","f","rechts","24","","","self","f","30","true"
"null","<div style=""font-size:60px;"">+</div>","null","html-keyboard-response","174","164348","0.0-6.0-0.84","LAJU","3","f","rechts","24","","fixation","","","",""
"701","img/150_120.png","70","image-keyboard-response","175","165049","0.0-6.0-1.84","LAJU","3","f","rechts","24","","","self","f","150","true"
"null","<div style=""font-size:60px;"">+</div>","null","html-keyboard-response","176","165499","0.0-6.0-0.85","LAJU","3","f","rechts","24","","fixation","","","",""
"1110","img/60_90.png","74","image-keyboard-response","177","166610","0.0-6.0-1.85","LAJU","3","f","rechts","24","","","self","j","60","true"
"null","<div style=""font-size:60px;"">+</div>","null","html-keyboard-response","178","166961","0.0-6.0-0.86","LAJU","3","f","rechts","24","","fixation","","","",""
"877","img/90_210.png","74","image-keyboard-response","179","167839","0.0-6.0-1.86","LAJU","3","f","rechts","24","","","self","j","90","true"
"null","<div style=""font-size:60px;"">+</div>","null","html-keyboard-response","180","168341","0.0-6.0-0.87","LAJU","3","f","rechts","24","","fixation","","","",""
"849","img/0_270.png","70","image-keyboard-response","181","169190","0.0-6.0-1.87","LAJU","3","f","rechts","24","","","self","f","0","true"
"null","<div style=""font-size:60px;"">+</div>","null","html-keyboard-response","182","169542","0.0-6.0-0.88","LAJU","3","f","rechts","24","","fixation","","","",""
"1006","img/60_30.png","74","image-keyboard-response","183","170548","0.0-6.0-1.88","LAJU","3","f","rechts","24","","","self","j","60","true"
"null","<div style=""font-size:60px;"">+</div>","null","html-keyboard-response","184","171000","0.0-6.0-0.89","LAJU","3","f","rechts","24","","fixation","","","",""
"730","img/0_240.png","70","image-keyboard-response","185","171731","0.0-6.0-1.89","LAJU","3","f","rechts","24","","","self","f","0","true"
"null","<div style=""font-size:60px;"">+</div>","null","html-keyboard-response","186","172132","0.0-6.0-0.90","LAJU","3","f","rechts","24","","fixation","","","",""
"589","img/0_330.png","70","image-keyboard-response","187","172722","0.0-6.0-1.90","LAJU","3","f","rechts","24","","","self","f","0","true"
"null","<div style=""font-size:60px;"">+</div>","null","html-keyboard-response","188","173124","0.0-6.0-0.91","LAJU","3","f","rechts","24","","fixation","","","",""
"968","img/30_180.png","74","image-keyboard-response","189","174094","0.0-6.0-1.91","LAJU","3","f","rechts","24","","","self","j","30","true"
"null","<div style=""font-size:60px;"">+</div>","null","html-keyboard-response","190","174495","0.0-6.0-0.92","LAJU","3","f","rechts","24","","fixation","","","",""
"1997","img/90_120.png","70","image-keyboard-response","191","176493","0.0-6.0-1.92","LAJU","3","f","rechts","24","","","self","f","90","true"
"null","<div style=""font-size:60px;"">+</div>","null","html-keyboard-response","192","176795","0.0-6.0-0.93","LAJU","3","f","rechts","24","","fixation","","","",""
"833","img/150_270.png","74","image-keyboard-response","193","177628","0.0-6.0-1.93","LAJU","3","f","rechts","24","","","self","j","150","true"
"null","<div style=""font-size:60px;"">+</div>","null","html-keyboard-response","194","178130","0.0-6.0-0.94","LAJU","3","f","rechts","24","","fixation","","","",""
"675","img/150_240.png","74","image-keyboard-response","195","178807","0.0-6.0-1.94","LAJU","3","f","rechts","24","","","self","j","150","true"
"null","<div style=""font-size:60px;"">+</div>","null","html-keyboard-response","196","179208","0.0-6.0-0.95","LAJU","3","f","rechts","24","","fixation","","","",""
"530","img/120_270.png","74","image-keyboard-response","197","179739","0.0-6.0-1.95","LAJU","3","f","rechts","24","","","self","j","120","true"
"null","<div style=""font-size:60px;"">+</div>","null","html-keyboard-response","198","180240","0.0-6.0-0.96","LAJU","3","f","rechts","24","","fixation","","","",""
"1076","img/120_90.png","70","image-keyboard-response","199","181317","0.0-6.0-1.96","LAJU","3","f","rechts","24","","","self","f","120","true"
"null","<div style=""font-size:60px;"">+</div>","null","html-keyboard-response","200","181668","0.0-6.0-0.97","LAJU","3","f","rechts","24","","fixation","","","",""
"1409","img/120_330.png","74","image-keyboard-response","201","183077","0.0-6.0-1.97","LAJU","3","f","rechts","24","","","self","f","120","false"
"null","<div style=""font-size:60px;"">+</div>","null","html-keyboard-response","202","183529","0.0-6.0-0.98","LAJU","3","f","rechts","24","","fixation","","","",""
"1423","img/90_330.png","70","image-keyboard-response","203","184954","0.0-6.0-1.98","LAJU","3","f","rechts","24","","","self","f","90","true"
"null","<div style=""font-size:60px;"">+</div>","null","html-keyboard-response","204","185305","0.0-6.0-0.99","LAJU","3","f","rechts","24","","fixation","","","",""
"711","img/0_90.png","74","image-keyboard-response","205","186017","0.0-6.0-1.99","LAJU","3","f","rechts","24","","","self","j","0","true"
"null","<div style=""font-size:60px;"">+</div>","null","html-keyboard-response","206","186418","0.0-6.0-0.100","LAJU","3","f","rechts","24","","fixation","","","",""
"994","img/60_330.png","70","image-keyboard-response","207","187413","0.0-6.0-1.100","LAJU","3","f","rechts","24","","","self","f","60","true"
"null","<div style=""font-size:60px;"">+</div>","null","html-keyboard-response","208","187865","0.0-6.0-0.101","LAJU","3","f","rechts","24","","fixation","","","",""
"1957","img/90_60.png","74","image-keyboard-response","209","189822","0.0-6.0-1.101","LAJU","3","f","rechts","24","","","self","j","90","true"
"null","<div style=""font-size:60px;"">+</div>","null","html-keyboard-response","210","190123","0.0-6.0-0.102","LAJU","3","f","rechts","24","","fixation","","","",""
"1676","img/90_180.png","74","image-keyboard-response","211","191800","0.0-6.0-1.102","LAJU","3","f","rechts","24","","","self","j","90","true"
"null","<div style=""font-size:60px;"">+</div>","null","html-keyboard-response","212","192101","0.0-6.0-0.103","LAJU","3","f","rechts","24","","fixation","","","",""
"868","img/30_270.png","70","image-keyboard-response","213","192970","0.0-6.0-1.103","LAJU","3","f","rechts","24","","","self","f","30","true"
"null","<div style=""font-size:60px;"">+</div>","null","html-keyboard-response","214","193472","0.0-6.0-0.104","LAJU","3","f","rechts","24","","fixation","","","",""
"838","img/60_270.png","70","image-keyboard-response","215","194311","0.0-6.0-1.104","LAJU","3","f","rechts","24","","","self","f","60","true"
"null","<div style=""font-size:60px;"">+</div>","null","html-keyboard-response","216","194663","0.0-6.0-0.105","LAJU","3","f","rechts","24","","fixation","","","",""
"785","img/30_240.png","70","image-keyboard-response","217","195448","0.0-6.0-1.105","LAJU","3","f","rechts","24","","","self","f","30","true"
"null","<div style=""font-size:60px;"">+</div>","null","html-keyboard-response","218","195950","0.0-6.0-0.106","LAJU","3","f","rechts","24","","fixation","","","",""
"637","img/0_330.png","70","image-keyboard-response","219","196588","0.0-6.0-1.106","LAJU","3","f","rechts","24","","","self","f","0","true"
"null","<div style=""font-size:60px;"">+</div>","null","html-keyboard-response","220","196990","0.0-6.0-0.107","LAJU","3","f","rechts","24","","fixation","","","",""
"789","img/0_210.png","70","image-keyboard-response","221","197781","0.0-6.0-1.107","LAJU","3","f","rechts","24","","","self","f","0","true"
"null","<div style=""font-size:60px;"">+</div>","null","html-keyboard-response","222","198282","0.0-6.0-0.108","LAJU","3","f","rechts","24","","fixation","","","",""
"669","img/L90_180.png","70","image-keyboard-response","223","198953","0.0-6.0-1.108","LAJU","3","f","rechts","24","","","self","f","90","true"
"null","<div style=""font-size:60px;"">+</div>","null","html-keyboard-response","224","199403","0.0-6.0-0.109","LAJU","3","f","rechts","24","","fixation","","","",""
"778","img/120_270.png","70","image-keyboard-response","225","200183","0.0-6.0-1.109","LAJU","3","f","rechts","24","","","self","j","120","false"
"null","<div style=""font-size:60px;"">+</div>","null","html-keyboard-response","226","200684","0.0-6.0-0.110","LAJU","3","f","rechts","24","","fixation","","","",""
"860","img/60_150.png","70","image-keyboard-response","227","201545","0.0-6.0-1.110","LAJU","3","f","rechts","24","","","self","f","60","true"
"null","<div style=""font-size:60px;"">+</div>","null","html-keyboard-response","228","201996","0.0-6.0-0.111","LAJU","3","f","rechts","24","","fixation","","","",""
"1284","img/150_270.png","74","image-keyboard-response","229","203281","0.0-6.0-1.111","LAJU","3","f","rechts","24","","","self","j","150","true"
"null","<div style=""font-size:60px;"">+</div>","null","html-keyboard-response","230","203632","0.0-6.0-0.112","LAJU","3","f","rechts","24","","fixation","","","",""
"849","img/0_300.png","70","image-keyboard-response","231","204482","0.0-6.0-1.112","LAJU","3","f","rechts","24","","","self","f","0","true"
"null","<div style=""font-size:60px;"">+</div>","null","html-keyboard-response","232","204883","0.0-6.0-0.113","LAJU","3","f","rechts","24","","fixation","","","",""
"645","img/120_180.png","74","image-keyboard-response","233","205529","0.0-6.0-1.113","LAJU","3","f","rechts","24","","","self","j","120","true"
"null","<div style=""font-size:60px;"">+</div>","null","html-keyboard-response","234","205931","0.0-6.0-0.114","LAJU","3","f","rechts","24","","fixation","","","",""
"1223","img/60_30.png","74","image-keyboard-response","235","207154","0.0-6.0-1.114","LAJU","3","f","rechts","24","","","self","j","60","true"
"null","<div style=""font-size:60px;"">+</div>","null","html-keyboard-response","236","207504","0.0-6.0-0.115","LAJU","3","f","rechts","24","","fixation","","","",""
"811","img/0_120.png","74","image-keyboard-response","237","208316","0.0-6.0-1.115","LAJU","3","f","rechts","24","","","self","j","0","true"
"null","<div style=""font-size:60px;"">+</div>","null","html-keyboard-response","238","208667","0.0-6.0-0.116","LAJU","3","f","rechts","24","","fixation","","","",""
"979","img/30_90.png","74","image-keyboard-response","239","209647","0.0-6.0-1.116","LAJU","3","f","rechts","24","","","self","j","30","true"
"null","<div style=""font-size:60px;"">+</div>","null","html-keyboard-response","240","209999","0.0-6.0-0.117","LAJU","3","f","rechts","24","","fixation","","","",""
"872","img/60_90.png","74","image-keyboard-response","241","210871","0.0-6.0-1.117","LAJU","3","f","rechts","24","","","self","j","60","true"
"null","<div style=""font-size:60px;"">+</div>","null","html-keyboard-response","242","211273","0.0-6.0-0.118","LAJU","3","f","rechts","24","","fixation","","","",""
"788","img/30_300.png","70","image-keyboard-response","243","212062","0.0-6.0-1.118","LAJU","3","f","rechts","24","","","self","f","30","true"
"null","<div style=""font-size:60px;"">+</div>","null","html-keyboard-response","244","212513","0.0-6.0-0.119","LAJU","3","f","rechts","24","","fixation","","","",""
"963","img/90_330.png","70","image-keyboard-response","245","213477","0.0-6.0-1.119","LAJU","3","f","rechts","24","","","self","f","90","true"
"null","<div style=""font-size:60px;"">+</div>","null","html-keyboard-response","246","213978","0.0-6.0-0.120","LAJU","3","f","rechts","24","","fixation","","","",""
"918","img/120_210.png","74","image-keyboard-response","247","214896","0.0-6.0-1.120","LAJU","3","f","rechts","24","","","self","j","120","true"
"null","<div style=""font-size:60px;"">+</div>","null","html-keyboard-response","248","215197","0.0-6.0-0.121","LAJU","3","f","rechts","24","","fixation","","","",""
"1064","img/90_300.png","70","image-keyboard-response","249","216261","0.0-6.0-1.121","LAJU","3","f","rechts","24","","","self","f","90","true"
"null","<div style=""font-size:60px;"">+</div>","null","html-keyboard-response","250","216663","0.0-6.0-0.122","LAJU","3","f","rechts","24","","fixation","","","",""
"899","img/150_120.png","70","image-keyboard-response","251","217562","0.0-6.0-1.122","LAJU","3","f","rechts","24","","","self","f","150","true"
"null","<div style=""font-size:60px;"">+</div>","null","html-keyboard-response","252","217863","0.0-6.0-0.123","LAJU","3","f","rechts","24","","fixation","","","",""
"674","img/90_150.png","70","image-keyboard-response","253","218537","0.0-6.0-1.123","LAJU","3","f","rechts","24","","","self","f","90","true"
"null","<div style=""font-size:60px;"">+</div>","null","html-keyboard-response","254","218889","0.0-6.0-0.124","LAJU","3","f","rechts","24","","fixation","","","",""
"633","img/0_270.png","70","image-keyboard-response","255","219522","0.0-6.0-1.124","LAJU","3","f","rechts","24","","","self","f","0","true"
"null","<div style=""font-size:60px;"">+</div>","null","html-keyboard-response","256","219874","0.0-6.0-0.125","LAJU","3","f","rechts","24","","fixation","","","",""
"580","img/L60_180.png","70","image-keyboard-response","257","220454","0.0-6.0-1.125","LAJU","3","f","rechts","24","","","self","f","60","true"
"null","<div style=""font-size:60px;"">+</div>","null","html-keyboard-response","258","220955","0.0-6.0-0.126","LAJU","3","f","rechts","24","","fixation","","","",""
"526","img/L120_180.png","70","image-keyboard-response","259","221481","0.0-6.0-1.126","LAJU","3","f","rechts","24","","","self","f","120","true"
"null","<div style=""font-size:60px;"">+</div>","null","html-keyboard-response","260","221932","0.0-6.0-0.127","LAJU","3","f","rechts","24","","fixation","","","",""
"621","img/150_240.png","74","image-keyboard-response","261","222554","0.0-6.0-1.127","LAJU","3","f","rechts","24","","","self","j","150","true"
"null","<div style=""font-size:60px;"">+</div>","null","html-keyboard-response","262","223005","0.0-6.0-0.128","LAJU","3","f","rechts","24","","fixation","","","",""
"792","img/150_60.png","70","image-keyboard-response","263","223798","0.0-6.0-1.128","LAJU","3","f","rechts","24","","","self","f","150","true"
"null","<div style=""font-size:60px;"">+</div>","null","html-keyboard-response","264","224099","0.0-6.0-0.129","LAJU","3","f","rechts","24","","fixation","","","",""
"1237","img/90_210.png","74","image-keyboard-response","265","225337","0.0-6.0-1.129","LAJU","3","f","rechts","24","","","self","j","90","true"
"null","<div style=""font-size:60px;"">+</div>","null","html-keyboard-response","266","225738","0.0-6.0-0.130","LAJU","3","f","rechts","24","","fixation","","","",""
"674","img/L30_180.png","70","image-keyboard-response","267","226414","0.0-6.0-1.130","LAJU","3","f","rechts","24","","","self","f","30","true"
"null","<div style=""font-size:60px;"">+</div>","null","html-keyboard-response","268","226814","0.0-6.0-0.131","LAJU","3","f","rechts","24","","fixation","","","",""
"977","img/90_120.png","70","image-keyboard-response","269","227793","0.0-6.0-1.131","LAJU","3","f","rechts","24","","","self","f","90","true"
"null","<div style=""font-size:60px;"">+</div>","null","html-keyboard-response","270","228245","0.0-6.0-0.132","LAJU","3","f","rechts","24","","fixation","","","",""
"767","img/60_180.png","74","image-keyboard-response","271","229014","0.0-6.0-1.132","LAJU","3","f","rechts","24","","","self","j","60","true"
"null","<div style=""font-size:60px;"">+</div>","null","html-keyboard-response","272","229314","0.0-6.0-0.133","LAJU","3","f","rechts","24","","fixation","","","",""
"903","img/30_180.png","74","image-keyboard-response","273","230218","0.0-6.0-1.133","LAJU","3","f","rechts","24","","","self","j","30","true"
"null","<div style=""font-size:60px;"">+</div>","null","html-keyboard-response","274","230519","0.0-6.0-0.134","LAJU","3","f","rechts","24","","fixation","","","",""
"785","img/150_90.png","70","image-keyboard-response","275","231305","0.0-6.0-1.134","LAJU","3","f","rechts","24","","","self","f","150","true"
"null","<div style=""font-size:60px;"">+</div>","null","html-keyboard-response","276","231756","0.0-6.0-0.135","LAJU","3","f","rechts","24","","fixation","","","",""
"1183","img/60_330.png","70","image-keyboard-response","277","232939","0.0-6.0-1.135","LAJU","3","f","rechts","24","","","self","f","60","true"
"null","<div style=""font-size:60px;"">+</div>","null","html-keyboard-response","278","233341","0.0-6.0-0.136","LAJU","3","f","rechts","24","","fixation","","","",""
"710","img/0_60.png","74","image-keyboard-response","279","234053","0.0-6.0-1.136","LAJU","3","f","rechts","24","","","self","j","0","true"
"null","<div style=""font-size:60px;"">+</div>","null","html-keyboard-response","280","234554","0.0-6.0-0.137","LAJU","3","f","rechts","24","","fixation","","","",""
"566","img/120_30.png","70","image-keyboard-response","281","235122","0.0-6.0-1.137","LAJU","3","f","rechts","24","","","self","j","120","false"
"null","<div style=""font-size:60px;"">+</div>","null","html-keyboard-response","282","235573","0.0-6.0-0.138","LAJU","3","f","rechts","24","","fixation","","","",""
"749","img/120_150.png","70","image-keyboard-response","283","236324","0.0-6.0-1.138","LAJU","3","f","rechts","24","","","self","f","120","true"
"null","<div style=""font-size:60px;"">+</div>","null","html-keyboard-response","284","236625","0.0-6.0-0.139","LAJU","3","f","rechts","24","","fixation","","","",""
"1098","img/30_270.png","70","image-keyboard-response","285","237725","0.0-6.0-1.139","LAJU","3","f","rechts","24","","","self","f","30","true"
"null","<div style=""font-size:60px;"">+</div>","null","html-keyboard-response","286","238176","0.0-6.0-0.140","LAJU","3","f","rechts","24","","fixation","","","",""
"801","img/120_330.png","70","image-keyboard-response","287","238978","0.0-6.0-1.140","LAJU","3","f","rechts","24","","","self","f","120","true"
"null","<div style=""font-size:60px;"">+</div>","null","html-keyboard-response","288","239480","0.0-6.0-0.141","LAJU","3","f","rechts","24","","fixation","","","",""
"559","img/90_60.png","70","image-keyboard-response","289","240041","0.0-6.0-1.141","LAJU","3","f","rechts","24","","","self","j","90","false"
"null","<div style=""font-size:60px;"">+</div>","null","html-keyboard-response","290","240391","0.0-6.0-0.142","LAJU","3","f","rechts","24","","fixation","","","",""
"896","img/L150_180.png","70","image-keyboard-response","291","241289","0.0-6.0-1.142","LAJU","3","f","rechts","24","","","self","f","150","true"
"null","<div style=""font-size:60px;"">+</div>","null","html-keyboard-response","292","241590","0.0-6.0-0.143","LAJU","3","f","rechts","24","","fixation","","","",""
"1819","img/60_210.png","74","image-keyboard-response","293","243410","0.0-6.0-1.143","LAJU","3","f","rechts","24","","","self","j","60","true"
"null","<div style=""font-size:60px;"">+</div>","null","html-keyboard-response","294","243762","0.0-6.0-0.144","LAJU","3","f","rechts","24","","fixation","","","",""
"1407","img/90_30.png","74","image-keyboard-response","295","245170","0.0-6.0-1.144","LAJU","3","f","rechts","24","","","self","j","90","true"
"null","<div style=""font-size:60px;"">+</div>","null","html-keyboard-response","296","245472","0.0-6.0-0.145","LAJU","3","f","rechts","24","","fixation","","","",""
"701","img/30_60.png","74","image-keyboard-response","297","246174","0.0-6.0-1.145","LAJU","3","f","rechts","24","","","self","j","30","true"
"null","<div style=""font-size:60px;"">+</div>","null","html-keyboard-response","298","246576","0.0-6.0-0.146","LAJU","3","f","rechts","24","","fixation","","","",""
"769","img/30_120.png","74","image-keyboard-response","299","247346","0.0-6.0-1.146","LAJU","3","f","rechts","24","","","self","j","30","true"
"null","<div style=""font-size:60px;"">+</div>","null","html-keyboard-response","300","247848","0.0-6.0-0.147","LAJU","3","f","rechts","24","","fixation","","","",""
"664","img/0_240.png","70","image-keyboard-response","301","248513","0.0-6.0-1.147","LAJU","3","f","rechts","24","","","self","f","0","true"
"null","<div style=""font-size:60px;"">+</div>","null","html-keyboard-response","302","248865","0.0-6.0-0.148","LAJU","3","f","rechts","24","","fixation","","","",""
"549","img/150_180.png","74","image-keyboard-response","303","249415","0.0-6.0-1.148","LAJU","3","f","rechts","24","","","self","j","150","true"
"null","<div style=""font-size:60px;"">+</div>","null","html-keyboard-response","304","249817","0.0-6.0-0.149","LAJU","3","f","rechts","24","","fixation","","","",""
"1509","img/90_240.png","74","image-keyboard-response","305","251326","0.0-6.0-1.149","LAJU","3","f","rechts","24","","","self","j","90","true"
"null","<div style=""font-size:60px;"">+</div>","null","html-keyboard-response","306","251727","0.0-6.0-0.150","LAJU","3","f","rechts","24","","fixation","","","",""
"612","img/0_30.png","74","image-keyboard-response","307","252339","0.0-6.0-1.150","LAJU","3","f","rechts","24","","","self","j","0","true"
"null","<div style=""font-size:60px;"">+</div>","null","html-keyboard-response","308","252841","0.0-6.0-0.151","LAJU","3","f","rechts","24","","fixation","","","",""
"687","img/90_180.png","74","image-keyboard-response","309","253529","0.0-6.0-1.151","LAJU","3","f","rechts","24","","","self","j","90","true"
"null","<div style=""font-size:60px;"">+</div>","null","html-keyboard-response","310","253981","0.0-6.0-0.152","LAJU","3","f","rechts","24","","fixation","","","",""
"540","img/0_150.png","74","image-keyboard-response","311","254522","0.0-6.0-1.152","LAJU","3","f","rechts","24","","","self","j","0","true"
"null","<div style=""font-size:60px;"">+</div>","null","html-keyboard-response","312","254824","0.0-6.0-0.153","LAJU","3","f","rechts","24","","fixation","","","",""
"577","img/0_90.png","74","image-keyboard-response","313","255402","0.0-6.0-1.153","LAJU","3","f","rechts","24","","","self","j","0","true"
"null","<div style=""font-size:60px;"">+</div>","null","html-keyboard-response","314","255904","0.0-6.0-0.154","LAJU","3","f","rechts","24","","fixation","","","",""
"744","img/150_300.png","74","image-keyboard-response","315","256649","0.0-6.0-1.154","LAJU","3","f","rechts","24","","","self","j","150","true"
"null","<div style=""font-size:60px;"">+</div>","null","html-keyboard-response","316","257151","0.0-6.0-0.155","LAJU","3","f","rechts","24","","fixation","","","",""
"497","img/120_90.png","74","image-keyboard-response","317","257650","0.0-6.0-1.155","LAJU","3","f","rechts","24","","","self","f","120","false"
"null","<div style=""font-size:60px;"">+</div>","null","html-keyboard-response","318","258001","0.0-6.0-0.156","LAJU","3","f","rechts","24","","fixation","","","",""
"950","img/30_120.png","74","image-keyboard-response","319","258951","0.0-6.0-1.156","LAJU","3","f","rechts","24","","","self","j","30","true"
"null","<div style=""font-size:60px;"">+</div>","null","html-keyboard-response","320","259353","0.0-6.0-0.157","LAJU","3","f","rechts","24","","fixation","","","",""
"566","img/0_120.png","74","image-keyboard-response","321","259920","0.0-6.0-1.157","LAJU","3","f","rechts","24","","","self","j","0","true"
"null","<div style=""font-size:60px;"">+</div>","null","html-keyboard-response","322","260322","0.0-6.0-0.158","LAJU","3","f","rechts","24","","fixation","","","",""
"650","img/120_270.png","74","image-keyboard-response","323","260972","0.0-6.0-1.158","LAJU","3","f","rechts","24","","","self","j","120","true"
"null","<div style=""font-size:60px;"">+</div>","null","html-keyboard-response","324","261374","0.0-6.0-0.159","LAJU","3","f","rechts","24","","fixation","","","",""
"1074","img/90_120.png","70","image-keyboard-response","325","262449","0.0-6.0-1.159","LAJU","3","f","rechts","24","","","self","f","90","true"
"null","<div style=""font-size:60px;"">+</div>","null","html-keyboard-response","326","262851","0.0-6.0-0.160","LAJU","3","f","rechts","24","","fixation","","","",""
"763","img/150_120.png","70","image-keyboard-response","327","263615","0.0-6.0-1.160","LAJU","3","f","rechts","24","","","self","f","150","true"
"null","<div style=""font-size:60px;"">+</div>","null","html-keyboard-response","328","264067","0.0-6.0-0.161","LAJU","3","f","rechts","24","","fixation","","","",""
"606","img/150_90.png","70","image-keyboard-response","329","264673","0.0-6.0-1.161","LAJU","3","f","rechts","24","","","self","f","150","true"
"null","<div style=""font-size:60px;"">+</div>","null","html-keyboard-response","330","265025","0.0-6.0-0.162","LAJU","3","f","rechts","24","","fixation","","","",""
"1237","img/60_330.png","70","image-keyboard-response","331","266262","0.0-6.0-1.162","LAJU","3","f","rechts","24","","","self","f","60","true"
"null","<div style=""font-size:60px;"">+</div>","null","html-keyboard-response","332","266664","0.0-6.0-0.163","LAJU","3","f","rechts","24","","fixation","","","",""
"765","img/L120_180.png","70","image-keyboard-response","333","267430","0.0-6.0-1.163","LAJU","3","f","rechts","24","","","self","f","120","true"
"null","<div style=""font-size:60px;"">+</div>","null","html-keyboard-response","334","267781","0.0-6.0-0.164","LAJU","3","f","rechts","24","","fixation","","","",""
"622","img/L60_180.png","70","image-keyboard-response","335","268404","0.0-6.0-1.164","LAJU","3","f","rechts","24","","","self","f","60","true"
"null","<div style=""font-size:60px;"">+</div>","null","html-keyboard-response","336","268906","0.0-6.0-0.165","LAJU","3","f","rechts","24","","fixation","","","",""
"663","img/90_180.png","74","image-keyboard-response","337","269569","0.0-6.0-1.165","LAJU","3","f","rechts","24","","","self","j","90","true"
"null","<div style=""font-size:60px;"">+</div>","null","html-keyboard-response","338","270071","0.0-6.0-0.166","LAJU","3","f","rechts","24","","fixation","","","",""
"625","img/120_180.png","74","image-keyboard-response","339","270697","0.0-6.0-1.166","LAJU","3","f","rechts","24","","","self","j","120","true"
"null","<div style=""font-size:60px;"">+</div>","null","html-keyboard-response","340","271048","0.0-6.0-0.167","LAJU","3","f","rechts","24","","fixation","","","",""
"558","img/0_300.png","70","image-keyboard-response","341","271607","0.0-6.0-1.167","LAJU","3","f","rechts","24","","","self","f","0","true"
"null","<div style=""font-size:60px;"">+</div>","null","html-keyboard-response","342","271959","0.0-6.0-0.168","LAJU","3","f","rechts","24","","fixation","","","",""
"480","img/120_210.png","74","image-keyboard-response","343","272439","0.0-6.0-1.168","LAJU","3","f","rechts","24","","","self","j","120","true"
"null","<div style=""font-size:60px;"">+</div>","null","html-keyboard-response","344","272741","0.0-6.0-0.169","LAJU","3","f","rechts","24","","fixation","","","",""
"1078","img/30_270.png","70","image-keyboard-response","345","273820","0.0-6.0-1.169","LAJU","3","f","rechts","24","","","self","f","30","true"
"null","<div style=""font-size:60px;"">+</div>","null","html-keyboard-response","346","274322","0.0-6.0-0.170","LAJU","3","f","rechts","24","","fixation","","","",""
"573","img/0_270.png","70","image-keyboard-response","347","274895","0.0-6.0-1.170","LAJU","3","f","rechts","24","","","self","f","0","true"
"null","<div style=""font-size:60px;"">+</div>","null","html-keyboard-response","348","275196","0.0-6.0-0.171","LAJU","3","f","rechts","24","","fixation","","","",""
"1080","img/60_30.png","74","image-keyboard-response","349","276277","0.0-6.0-1.171","LAJU","3","f","rechts","24","","","self","j","60","true"
"null","<div style=""font-size:60px;"">+</div>","null","html-keyboard-response","350","276678","0.0-6.0-0.172","LAJU","3","f","rechts","24","","fixation","","","",""
"596","img/0_30.png","74","image-keyboard-response","351","277276","0.0-6.0-1.172","LAJU","3","f","rechts","24","","","self","j","0","true"
"null","<div style=""font-size:60px;"">+</div>","null","html-keyboard-response","352","277627","0.0-6.0-0.173","LAJU","3","f","rechts","24","","fixation","","","",""
"1098","img/150_60.png","70","image-keyboard-response","353","278726","0.0-6.0-1.173","LAJU","3","f","rechts","24","","","self","f","150","true"
"null","<div style=""font-size:60px;"">+</div>","null","html-keyboard-response","354","279077","0.0-6.0-0.174","LAJU","3","f","rechts","24","","fixation","","","",""
"623","img/60_210.png","74","image-keyboard-response","355","279702","0.0-6.0-1.174","LAJU","3","f","rechts","24","","","self","j","60","true"
"null","<div style=""font-size:60px;"">+</div>","null","html-keyboard-response","356","280153","0.0-6.0-0.175","LAJU","3","f","rechts","24","","fixation","","","",""
"611","img/30_180.png","70","image-keyboard-response","357","280766","0.0-6.0-1.175","LAJU","3","f","rechts","24","","","self","j","30","false"
"null","<div style=""font-size:60px;"">+</div>","null","html-keyboard-response","358","281217","0.0-6.0-0.176","LAJU","3","f","rechts","24","","fixation","","","",""
"705","img/0_330.png","70","image-keyboard-response","359","281924","0.0-6.0-1.176","LAJU","3","f","rechts","24","","","self","f","0","true"
"null","<div style=""font-size:60px;"">+</div>","null","html-keyboard-response","360","282275","0.0-6.0-0.177","LAJU","3","f","rechts","24","","fixation","","","",""
"668","img/60_90.png","74","image-keyboard-response","361","282944","0.0-6.0-1.177","LAJU","3","f","rechts","24","","","self","j","60","true"
"null","<div style=""font-size:60px;"">+</div>","null","html-keyboard-response","362","283245","0.0-6.0-0.178","LAJU","3","f","rechts","24","","fixation","","","",""
"1303","img/60_270.png","70","image-keyboard-response","363","284549","0.0-6.0-1.178","LAJU","3","f","rechts","24","","","self","f","60","true"
"null","<div style=""font-size:60px;"">+</div>","null","html-keyboard-response","364","284950","0.0-6.0-0.179","LAJU","3","f","rechts","24","","fixation","","","",""
"1502","img/120_330.png","70","image-keyboard-response","365","286453","0.0-6.0-1.179","LAJU","3","f","rechts","24","","","self","f","120","true"
"null","<div style=""font-size:60px;"">+</div>","null","html-keyboard-response","366","286755","0.0-6.0-0.180","LAJU","3","f","rechts","24","","fixation","","","",""
"1126","img/30_60.png","74","image-keyboard-response","367","287881","0.0-6.0-1.180","LAJU","3","f","rechts","24","","","self","j","30","true"
"null","<div style=""font-size:60px;"">+</div>","null","html-keyboard-response","368","288332","0.0-6.0-0.181","LAJU","3","f","rechts","24","","fixation","","","",""
"933","img/150_270.png","74","image-keyboard-response","369","289266","0.0-6.0-1.181","LAJU","3","f","rechts","24","","","self","j","150","true"
"null","<div style=""font-size:60px;"">+</div>","null","html-keyboard-response","370","289766","0.0-6.0-0.182","LAJU","3","f","rechts","24","","fixation","","","",""
"633","img/90_300.png","74","image-keyboard-response","371","290401","0.0-6.0-1.182","LAJU","3","f","rechts","24","","","self","f","90","false"
"null","<div style=""font-size:60px;"">+</div>","null","html-keyboard-response","372","290852","0.0-6.0-0.183","LAJU","3","f","rechts","24","","fixation","","","",""
"1229","img/60_150.png","70","image-keyboard-response","373","292083","0.0-6.0-1.183","LAJU","3","f","rechts","24","","","self","f","60","true"
"null","<div style=""font-size:60px;"">+</div>","null","html-keyboard-response","374","292384","0.0-6.0-0.184","LAJU","3","f","rechts","24","","fixation","","","",""
"784","img/L90_180.png","70","image-keyboard-response","375","293169","0.0-6.0-1.184","LAJU","3","f","rechts","24","","","self","f","90","true"
"null","<div style=""font-size:60px;"">+</div>","null","html-keyboard-response","376","293571","0.0-6.0-0.185","LAJU","3","f","rechts","24","","fixation","","","",""
"639","img/L30_180.png","70","image-keyboard-response","377","294212","0.0-6.0-1.185","LAJU","3","f","rechts","24","","","self","f","30","true"
"null","<div style=""font-size:60px;"">+</div>","null","html-keyboard-response","378","294663","0.0-6.0-0.186","LAJU","3","f","rechts","24","","fixation","","","",""
"975","img/90_60.png","74","image-keyboard-response","379","295640","0.0-6.0-1.186","LAJU","3","f","rechts","24","","","self","j","90","true"
"null","<div style=""font-size:60px;"">+</div>","null","html-keyboard-response","380","296041","0.0-6.0-0.187","LAJU","3","f","rechts","24","","fixation","","","",""
"1627","img/90_240.png","70","image-keyboard-response","381","297670","0.0-6.0-1.187","LAJU","3","f","rechts","24","","","self","j","90","false"
"null","<div style=""font-size:60px;"">+</div>","null","html-keyboard-response","382","298171","0.0-6.0-0.188","LAJU","3","f","rechts","24","","fixation","","","",""
"1004","img/120_90.png","70","image-keyboard-response","383","299176","0.0-6.0-1.188","LAJU","3","f","rechts","24","","","self","f","120","true"
"null","<div style=""font-size:60px;"">+</div>","null","html-keyboard-response","384","299628","0.0-6.0-0.189","LAJU","3","f","rechts","24","","fixation","","","",""
"1512","img/90_210.png","74","image-keyboard-response","385","301140","0.0-6.0-1.189","LAJU","3","f","rechts","24","","","self","j","90","true"
"null","<div style=""font-size:60px;"">+</div>","null","html-keyboard-response","386","301442","0.0-6.0-0.190","LAJU","3","f","rechts","24","","fixation","","","",""
"1323","img/90_30.png","74","image-keyboard-response","387","302766","0.0-6.0-1.190","LAJU","3","f","rechts","24","","","self","j","90","true"
"null","<div style=""font-size:60px;"">+</div>","null","html-keyboard-response","388","303068","0.0-6.0-0.191","LAJU","3","f","rechts","24","","fixation","","","",""
"1732","img/L150_180.png","70","image-keyboard-response","389","304801","0.0-6.0-1.191","LAJU","3","f","rechts","24","","","self","f","150","true"
"null","<div style=""font-size:60px;"">+</div>","null","html-keyboard-response","390","305203","0.0-6.0-0.192","LAJU","3","f","rechts","24","","fixation","","","",""
"741","img/0_60.png","74","image-keyboard-response","391","305945","0.0-6.0-1.192","LAJU","3","f","rechts","24","","","self","j","0","true"
"null","<div style=""font-size:60px;"">+</div>","null","html-keyboard-response","392","306297","0.0-6.0-0.193","LAJU","3","f","rechts","24","","fixation","","","",""
"715","img/90_150.png","70","image-keyboard-response","393","307012","0.0-6.0-1.193","LAJU","3","f","rechts","24","","","self","f","90","true"
"null","<div style=""font-size:60px;"">+</div>","null","html-keyboard-response","394","307364","0.0-6.0-0.194","LAJU","3","f","rechts","24","","fixation","","","",""
"1637","img/90_330.png","70","image-keyboard-response","395","309002","0.0-6.0-1.194","LAJU","3","f","rechts","24","","","self","f","90","true"
"null","<div style=""font-size:60px;"">+</div>","null","html-keyboard-response","396","309354","0.0-6.0-0.195","LAJU","3","f","rechts","24","","fixation","","","",""
"856","img/150_240.png","74","image-keyboard-response","397","310211","0.0-6.0-1.195","LAJU","3","f","rechts","24","","","self","j","150","true"
"null","<div style=""font-size:60px;"">+</div>","null","html-keyboard-response","398","310663","0.0-6.0-0.196","LAJU","3","f","rechts","24","","fixation","","","",""
"683","img/0_150.png","74","image-keyboard-response","399","311347","0.0-6.0-1.196","LAJU","3","f","rechts","24","","","self","j","0","true"
"null","<div style=""font-size:60px;"">+</div>","null","html-keyboard-response","400","311799","0.0-6.0-0.197","LAJU","3","f","rechts","24","","fixation","","","",""
"638","img/150_300.png","74","image-keyboard-response","401","312437","0.0-6.0-1.197","LAJU","3","f","rechts","24","","","self","j","150","true"
"null","<div style=""font-size:60px;"">+</div>","null","html-keyboard-response","402","312889","0.0-6.0-0.198","LAJU","3","f","rechts","24","","fixation","","","",""
"802","img/30_240.png","70","image-keyboard-response","403","313691","0.0-6.0-1.198","LAJU","3","f","rechts","24","","","self","f","30","true"
"null","<div style=""font-size:60px;"">+</div>","null","html-keyboard-response","404","314193","0.0-6.0-0.199","LAJU","3","f","rechts","24","","fixation","","","",""
"768","img/120_150.png","70","image-keyboard-response","405","314962","0.0-6.0-1.199","LAJU","3","f","rechts","24","","","self","f","120","true"
"null","<div style=""font-size:60px;"">+</div>","null","html-keyboard-response","406","315414","0.0-6.0-0.200","LAJU","3","f","rechts","24","","fixation","","","",""
"810","img/30_90.png","74","image-keyboard-response","407","316225","0.0-6.0-1.200","LAJU","3","f","rechts","24","","","self","j","30","true"
"null","<div style=""font-size:60px;"">+</div>","null","html-keyboard-response","408","316527","0.0-6.0-0.201","LAJU","3","f","rechts","24","","fixation","","","",""
"935","img/150_180.png","74","image-keyboard-response","409","317462","0.0-6.0-1.201","LAJU","3","f","rechts","24","","","self","j","150","true"
"null","<div style=""font-size:60px;"">+</div>","null","html-keyboard-response","410","317814","0.0-6.0-0.202","LAJU","3","f","rechts","24","","fixation","","","",""
"815","img/0_240.png","70","image-keyboard-response","411","318630","0.0-6.0-1.202","LAJU","3","f","rechts","24","","","self","f","0","true"
"null","<div style=""font-size:60px;"">+</div>","null","html-keyboard-response","412","319081","0.0-6.0-0.203","LAJU","3","f","rechts","24","","fixation","","","",""
"920","img/30_300.png","70","image-keyboard-response","413","320002","0.0-6.0-1.203","LAJU","3","f","rechts","24","","","self","f","30","true"
"null","<div style=""font-size:60px;"">+</div>","null","html-keyboard-response","414","320504","0.0-6.0-0.204","LAJU","3","f","rechts","24","","fixation","","","",""
"728","img/60_180.png","74","image-keyboard-response","415","321232","0.0-6.0-1.204","LAJU","3","f","rechts","24","","","self","j","60","true"
"null","<div style=""font-size:60px;"">+</div>","null","html-keyboard-response","416","321534","0.0-6.0-0.205","LAJU","3","f","rechts","24","","fixation","","","",""
"1533","img/120_30.png","74","image-keyboard-response","417","323067","0.0-6.0-1.205","LAJU","3","f","rechts","24","","","self","j","120","true"
"null","<div style=""font-size:60px;"">+</div>","null","html-keyboard-response","418","323519","0.0-6.0-0.206","LAJU","3","f","rechts","24","","fixation","","","",""
"519","img/0_90.png","74","image-keyboard-response","419","324038","0.0-6.0-1.206","LAJU","3","f","rechts","24","","","self","j","0","true"
"null","<div style=""font-size:60px;"">+</div>","null","html-keyboard-response","420","324390","0.0-6.0-0.207","LAJU","3","f","rechts","24","","fixation","","","",""
"660","img/0_210.png","70","image-keyboard-response","421","325050","0.0-6.0-1.207","LAJU","3","f","rechts","24","","","self","f","0","true"
"7568","<p>Du hast in 91% der Versuche korrekt entschieden.</p><p>Deine durchschnittliche Reaktionszeit war  920ms.</p><p>Dr&uuml;cke eine beliebige Taste, um die Session zu beenden. Vielen Dank!</p>","74","html-keyboard-response","422","332619","0.0-7.0","LAJU","3","f","rechts","24","","","","","",""
