"rt","stimulus","key_press","trial_type","trial_index","time_elapsed","internal_node_id","subject","session","sex","handedness","age","responses","test_part","condition","correct_response","angle","correct"
"898","<p>Mental Rotation Experiment.</p> <p>Dr&uuml;cke eine beliebige Taste, um anzufangen.</p>","72","html-keyboard-response","0","899","0.0-0.0","LAJU","4","f","rechts","24","","","","","",""
"6019","","","survey-text","1","6922","0.0-1.0","LAJU","4","f","rechts","24","{""Q0"":""LAJU""}","","","","",""
"2270","","","survey-text","2","9194","0.0-2.0","LAJU","4","f","rechts","24","{""Q0"":""4""}","","","","",""
"3046","","","survey-multi-choice","3","12241","0.0-3.0","LAJU","4","f","rechts","24","{""Q0"":""f"",""Q1"":""rechts""}","","","","",""
"2478","","","survey-text","4","14721","0.0-4.0","LAJU","4","f","rechts","24","{""Q0"":""24""}","","","","",""
"17688","<p> Stell dir vor, dass du vor einem runden Tisch stehst, auf dem sich ein blauer Ball am Tischrand befindet. Entlang des Tischrands ist jeweils ein verschieden langer Pfeil. Nun bewegst du dich entlang dieses Pfeils bis an seine Spitze. Wenn du am Ende des Pfeils angekommen bist, schau zur Tischmitte. </p> <img src='img/90_180.png'></img> <br> <p>Entscheide dann, ob der Ball von deiner neuen (vorgestellten) Position links oder rechts von dir liegt.</p> <p>Dr&uuml;cke die <strong>'f'</strong>-Taste f&uuml;r links, die <strong>'j'</strong>-Taste f&uuml;r rechts.</p> <br><p> Das Bild wird jeweils 1 Sekunde lang pr&auml;sentiert. Du hast 3 Sekunden Zeit eine Entscheidung zu treffen.</p>","74","html-keyboard-response","5","32409","0.0-5.0","LAJU","4","f","rechts","24","","","","","",""
"null","<div style=""font-size:60px;"">+</div>","null","html-keyboard-response","6","33814","0.0-6.0-0.0","LAJU","4","f","rechts","24","","fixation","","","",""
"761","img/0_210.png","70","image-keyboard-response","7","34576","0.0-6.0-1.0","LAJU","4","f","rechts","24","","","self","f","0","true"
"null","<div style=""font-size:60px;"">+</div>","null","html-keyboard-response","8","35028","0.0-6.0-0.1","LAJU","4","f","rechts","24","","fixation","","","",""
"675","img/0_30.png","74","image-keyboard-response","9","35704","0.0-6.0-1.1","LAJU","4","f","rechts","24","","","self","j","0","true"
"null","<div style=""font-size:60px;"">+</div>","null","html-keyboard-response","10","36106","0.0-6.0-0.2","LAJU","4","f","rechts","24","","fixation","","","",""
"820","img/150_270.png","74","image-keyboard-response","11","36927","0.0-6.0-1.2","LAJU","4","f","rechts","24","","","self","j","150","true"
"null","<div style=""font-size:60px;"">+</div>","null","html-keyboard-response","12","37379","0.0-6.0-0.3","LAJU","4","f","rechts","24","","fixation","","","",""
"517","img/150_180.png","74","image-keyboard-response","13","37897","0.0-6.0-1.3","LAJU","4","f","rechts","24","","","self","j","150","true"
"null","<div style=""font-size:60px;"">+</div>","null","html-keyboard-response","14","38349","0.0-6.0-0.4","LAJU","4","f","rechts","24","","fixation","","","",""
"893","img/30_270.png","70","image-keyboard-response","15","39243","0.0-6.0-1.4","LAJU","4","f","rechts","24","","","self","f","30","true"
"null","<div style=""font-size:60px;"">+</div>","null","html-keyboard-response","16","39645","0.0-6.0-0.5","LAJU","4","f","rechts","24","","fixation","","","",""
"636","img/0_300.png","70","image-keyboard-response","17","40282","0.0-6.0-1.5","LAJU","4","f","rechts","24","","","self","f","0","true"
"null","<div style=""font-size:60px;"">+</div>","null","html-keyboard-response","18","40784","0.0-6.0-0.6","LAJU","4","f","rechts","24","","fixation","","","",""
"827","img/30_240.png","70","image-keyboard-response","19","41612","0.0-6.0-1.6","LAJU","4","f","rechts","24","","","self","f","30","true"
"null","<div style=""font-size:60px;"">+</div>","null","html-keyboard-response","20","41914","0.0-6.0-0.7","LAJU","4","f","rechts","24","","fixation","","","",""
"659","img/0_90.png","74","image-keyboard-response","21","42574","0.0-6.0-1.7","LAJU","4","f","rechts","24","","","self","j","0","true"
"null","<div style=""font-size:60px;"">+</div>","null","html-keyboard-response","22","42876","0.0-6.0-0.8","LAJU","4","f","rechts","24","","fixation","","","",""
"860","img/30_120.png","74","image-keyboard-response","23","43737","0.0-6.0-1.8","LAJU","4","f","rechts","24","","","self","j","30","true"
"null","<div style=""font-size:60px;"">+</div>","null","html-keyboard-response","24","44139","0.0-6.0-0.9","LAJU","4","f","rechts","24","","fixation","","","",""
"731","img/90_180.png","74","image-keyboard-response","25","44870","0.0-6.0-1.9","LAJU","4","f","rechts","24","","","self","j","90","true"
"null","<div style=""font-size:60px;"">+</div>","null","html-keyboard-response","26","45372","0.0-6.0-0.10","LAJU","4","f","rechts","24","","fixation","","","",""
"534","img/60_180.png","74","image-keyboard-response","27","45906","0.0-6.0-1.10","LAJU","4","f","rechts","24","","","self","j","60","true"
"null","<div style=""font-size:60px;"">+</div>","null","html-keyboard-response","28","46358","0.0-6.0-0.11","LAJU","4","f","rechts","24","","fixation","","","",""
"625","img/0_150.png","74","image-keyboard-response","29","46983","0.0-6.0-1.11","LAJU","4","f","rechts","24","","","self","j","0","true"
"null","<div style=""font-size:60px;"">+</div>","null","html-keyboard-response","30","47335","0.0-6.0-0.12","LAJU","4","f","rechts","24","","fixation","","","",""
"1075","img/60_150.png","70","image-keyboard-response","31","48410","0.0-6.0-1.12","LAJU","4","f","rechts","24","","","self","f","60","true"
"null","<div style=""font-size:60px;"">+</div>","null","html-keyboard-response","32","48762","0.0-6.0-0.13","LAJU","4","f","rechts","24","","fixation","","","",""
"715","img/30_60.png","74","image-keyboard-response","33","49478","0.0-6.0-1.13","LAJU","4","f","rechts","24","","","self","j","30","true"
"null","<div style=""font-size:60px;"">+</div>","null","html-keyboard-response","34","49880","0.0-6.0-0.14","LAJU","4","f","rechts","24","","fixation","","","",""
"1074","img/L120_180.png","70","image-keyboard-response","35","50955","0.0-6.0-1.14","LAJU","4","f","rechts","24","","","self","f","120","true"
"null","<div style=""font-size:60px;"">+</div>","null","html-keyboard-response","36","51407","0.0-6.0-0.15","LAJU","4","f","rechts","24","","fixation","","","",""
"952","img/90_210.png","74","image-keyboard-response","37","52359","0.0-6.0-1.15","LAJU","4","f","rechts","24","","","self","j","90","true"
"null","<div style=""font-size:60px;"">+</div>","null","html-keyboard-response","38","52660","0.0-6.0-0.16","LAJU","4","f","rechts","24","","fixation","","","",""
"664","img/90_240.png","74","image-keyboard-response","39","53326","0.0-6.0-1.16","LAJU","4","f","rechts","24","","","self","j","90","true"
"null","<div style=""font-size:60px;"">+</div>","null","html-keyboard-response","40","53827","0.0-6.0-0.17","LAJU","4","f","rechts","24","","fixation","","","",""
"587","img/150_240.png","74","image-keyboard-response","41","54416","0.0-6.0-1.17","LAJU","4","f","rechts","24","","","self","j","150","true"
"null","<div style=""font-size:60px;"">+</div>","null","html-keyboard-response","42","54817","0.0-6.0-0.18","LAJU","4","f","rechts","24","","fixation","","","",""
"652","img/30_180.png","74","image-keyboard-response","43","55470","0.0-6.0-1.18","LAJU","4","f","rechts","24","","","self","j","30","true"
"null","<div style=""font-size:60px;"">+</div>","null","html-keyboard-response","44","55972","0.0-6.0-0.19","LAJU","4","f","rechts","24","","fixation","","","",""
"573","img/90_330.png","74","image-keyboard-response","45","56545","0.0-6.0-1.19","LAJU","4","f","rechts","24","","","self","f","90","false"
"null","<div style=""font-size:60px;"">+</div>","null","html-keyboard-response","46","57047","0.0-6.0-0.20","LAJU","4","f","rechts","24","","fixation","","","",""
"742","img/0_60.png","74","image-keyboard-response","47","57789","0.0-6.0-1.20","LAJU","4","f","rechts","24","","","self","j","0","true"
"null","<div style=""font-size:60px;"">+</div>","null","html-keyboard-response","48","58190","0.0-6.0-0.21","LAJU","4","f","rechts","24","","fixation","","","",""
"669","img/0_120.png","74","image-keyboard-response","49","58861","0.0-6.0-1.21","LAJU","4","f","rechts","24","","","self","j","0","true"
"null","<div style=""font-size:60px;"">+</div>","null","html-keyboard-response","50","59162","0.0-6.0-0.22","LAJU","4","f","rechts","24","","fixation","","","",""
"1105","img/L60_180.png","70","image-keyboard-response","51","60269","0.0-6.0-1.22","LAJU","4","f","rechts","24","","","self","f","60","true"
"null","<div style=""font-size:60px;"">+</div>","null","html-keyboard-response","52","60720","0.0-6.0-0.23","LAJU","4","f","rechts","24","","fixation","","","",""
"1176","img/90_300.png","70","image-keyboard-response","53","61898","0.0-6.0-1.23","LAJU","4","f","rechts","24","","","self","f","90","true"
"null","<div style=""font-size:60px;"">+</div>","null","html-keyboard-response","54","62249","0.0-6.0-0.24","LAJU","4","f","rechts","24","","fixation","","","",""
"1495","img/150_60.png","70","image-keyboard-response","55","63745","0.0-6.0-1.24","LAJU","4","f","rechts","24","","","self","f","150","true"
"null","<div style=""font-size:60px;"">+</div>","null","html-keyboard-response","56","64247","0.0-6.0-0.25","LAJU","4","f","rechts","24","","fixation","","","",""
"962","img/L30_180.png","70","image-keyboard-response","57","65211","0.0-6.0-1.25","LAJU","4","f","rechts","24","","","self","f","30","true"
"null","<div style=""font-size:60px;"">+</div>","null","html-keyboard-response","58","65512","0.0-6.0-0.26","LAJU","4","f","rechts","24","","fixation","","","",""
"700","img/0_270.png","70","image-keyboard-response","59","66214","0.0-6.0-1.26","LAJU","4","f","rechts","24","","","self","f","0","true"
"null","<div style=""font-size:60px;"">+</div>","null","html-keyboard-response","60","66515","0.0-6.0-0.27","LAJU","4","f","rechts","24","","fixation","","","",""
"1246","img/60_330.png","70","image-keyboard-response","61","67762","0.0-6.0-1.27","LAJU","4","f","rechts","24","","","self","f","60","true"
"null","<div style=""font-size:60px;"">+</div>","null","html-keyboard-response","62","68164","0.0-6.0-0.28","LAJU","4","f","rechts","24","","fixation","","","",""
"803","img/30_90.png","74","image-keyboard-response","63","68968","0.0-6.0-1.28","LAJU","4","f","rechts","24","","","self","j","30","true"
"null","<div style=""font-size:60px;"">+</div>","null","html-keyboard-response","64","69470","0.0-6.0-0.29","LAJU","4","f","rechts","24","","fixation","","","",""
"1323","img/90_120.png","70","image-keyboard-response","65","70795","0.0-6.0-1.29","LAJU","4","f","rechts","24","","","self","f","90","true"
"null","<div style=""font-size:60px;"">+</div>","null","html-keyboard-response","66","71296","0.0-6.0-0.30","LAJU","4","f","rechts","24","","fixation","","","",""
"703","img/120_150.png","70","image-keyboard-response","67","72000","0.0-6.0-1.30","LAJU","4","f","rechts","24","","","self","f","120","true"
"null","<div style=""font-size:60px;"">+</div>","null","html-keyboard-response","68","72502","0.0-6.0-0.31","LAJU","4","f","rechts","24","","fixation","","","",""
"774","img/120_210.png","74","image-keyboard-response","69","73277","0.0-6.0-1.31","LAJU","4","f","rechts","24","","","self","j","120","true"
"null","<div style=""font-size:60px;"">+</div>","null","html-keyboard-response","70","73779","0.0-6.0-0.32","LAJU","4","f","rechts","24","","fixation","","","",""
"1533","img/90_30.png","74","image-keyboard-response","71","75313","0.0-6.0-1.32","LAJU","4","f","rechts","24","","","self","j","90","true"
"null","<div style=""font-size:60px;"">+</div>","null","html-keyboard-response","72","75715","0.0-6.0-0.33","LAJU","4","f","rechts","24","","fixation","","","",""
"1006","img/150_300.png","74","image-keyboard-response","73","76722","0.0-6.0-1.33","LAJU","4","f","rechts","24","","","self","j","150","true"
"null","<div style=""font-size:60px;"">+</div>","null","html-keyboard-response","74","77223","0.0-6.0-0.34","LAJU","4","f","rechts","24","","fixation","","","",""
"1070","img/60_270.png","70","image-keyboard-response","75","78294","0.0-6.0-1.34","LAJU","4","f","rechts","24","","","self","f","60","true"
"null","<div style=""font-size:60px;"">+</div>","null","html-keyboard-response","76","78695","0.0-6.0-0.35","LAJU","4","f","rechts","24","","fixation","","","",""
"719","img/0_330.png","70","image-keyboard-response","77","79415","0.0-6.0-1.35","LAJU","4","f","rechts","24","","","self","f","0","true"
"null","<div style=""font-size:60px;"">+</div>","null","html-keyboard-response","78","79767","0.0-6.0-0.36","LAJU","4","f","rechts","24","","fixation","","","",""
"1077","img/150_90.png","70","image-keyboard-response","79","80846","0.0-6.0-1.36","LAJU","4","f","rechts","24","","","self","f","150","true"
"null","<div style=""font-size:60px;"">+</div>","null","html-keyboard-response","80","81347","0.0-6.0-0.37","LAJU","4","f","rechts","24","","fixation","","","",""
"1135","img/90_60.png","74","image-keyboard-response","81","82483","0.0-6.0-1.37","LAJU","4","f","rechts","24","","","self","j","90","true"
"null","<div style=""font-size:60px;"">+</div>","null","html-keyboard-response","82","82785","0.0-6.0-0.38","LAJU","4","f","rechts","24","","fixation","","","",""
"790","img/150_120.png","70","image-keyboard-response","83","83576","0.0-6.0-1.38","LAJU","4","f","rechts","24","","","self","f","150","true"
"null","<div style=""font-size:60px;"">+</div>","null","html-keyboard-response","84","83926","0.0-6.0-0.39","LAJU","4","f","rechts","24","","fixation","","","",""
"1183","img/60_90.png","74","image-keyboard-response","85","85110","0.0-6.0-1.39","LAJU","4","f","rechts","24","","","self","j","60","true"
"null","<div style=""font-size:60px;"">+</div>","null","html-keyboard-response","86","85512","0.0-6.0-0.40","LAJU","4","f","rechts","24","","fixation","","","",""
"847","img/L150_180.png","70","image-keyboard-response","87","86360","0.0-6.0-1.40","LAJU","4","f","rechts","24","","","self","f","150","true"
"null","<div style=""font-size:60px;"">+</div>","null","html-keyboard-response","88","86862","0.0-6.0-0.41","LAJU","4","f","rechts","24","","fixation","","","",""
"906","img/120_180.png","74","image-keyboard-response","89","87769","0.0-6.0-1.41","LAJU","4","f","rechts","24","","","self","j","120","true"
"null","<div style=""font-size:60px;"">+</div>","null","html-keyboard-response","90","88121","0.0-6.0-0.42","LAJU","4","f","rechts","24","","fixation","","","",""
"1593","img/120_330.png","70","image-keyboard-response","91","89715","0.0-6.0-1.42","LAJU","4","f","rechts","24","","","self","f","120","true"
"null","<div style=""font-size:60px;"">+</div>","null","html-keyboard-response","92","90117","0.0-6.0-0.43","LAJU","4","f","rechts","24","","fixation","","","",""
"727","img/30_300.png","70","image-keyboard-response","93","90844","0.0-6.0-1.43","LAJU","4","f","rechts","24","","","self","f","30","true"
"null","<div style=""font-size:60px;"">+</div>","null","html-keyboard-response","94","91346","0.0-6.0-0.44","LAJU","4","f","rechts","24","","fixation","","","",""
"656","img/0_240.png","70","image-keyboard-response","95","92003","0.0-6.0-1.44","LAJU","4","f","rechts","24","","","self","f","0","true"
"null","<div style=""font-size:60px;"">+</div>","null","html-keyboard-response","96","92354","0.0-6.0-0.45","LAJU","4","f","rechts","24","","fixation","","","",""
"910","img/120_90.png","70","image-keyboard-response","97","93265","0.0-6.0-1.45","LAJU","4","f","rechts","24","","","self","f","120","true"
"null","<div style=""font-size:60px;"">+</div>","null","html-keyboard-response","98","93717","0.0-6.0-0.46","LAJU","4","f","rechts","24","","fixation","","","",""
"856","img/120_270.png","74","image-keyboard-response","99","94574","0.0-6.0-1.46","LAJU","4","f","rechts","24","","","self","j","120","true"
"null","<div style=""font-size:60px;"">+</div>","null","html-keyboard-response","100","94876","0.0-6.0-0.47","LAJU","4","f","rechts","24","","fixation","","","",""
"805","img/90_150.png","70","image-keyboard-response","101","95682","0.0-6.0-1.47","LAJU","4","f","rechts","24","","","self","f","90","true"
"null","<div style=""font-size:60px;"">+</div>","null","html-keyboard-response","102","96184","0.0-6.0-0.48","LAJU","4","f","rechts","24","","fixation","","","",""
"731","img/L90_180.png","70","image-keyboard-response","103","96916","0.0-6.0-1.48","LAJU","4","f","rechts","24","","","self","f","90","true"
"null","<div style=""font-size:60px;"">+</div>","null","html-keyboard-response","104","97217","0.0-6.0-0.49","LAJU","4","f","rechts","24","","fixation","","","",""
"733","img/60_30.png","74","image-keyboard-response","105","97951","0.0-6.0-1.49","LAJU","4","f","rechts","24","","","self","j","60","true"
"null","<div style=""font-size:60px;"">+</div>","null","html-keyboard-response","106","98453","0.0-6.0-0.50","LAJU","4","f","rechts","24","","fixation","","","",""
"738","img/60_210.png","70","image-keyboard-response","107","99191","0.0-6.0-1.50","LAJU","4","f","rechts","24","","","self","j","60","false"
"null","<div style=""font-size:60px;"">+</div>","null","html-keyboard-response","108","99643","0.0-6.0-0.51","LAJU","4","f","rechts","24","","fixation","","","",""
"711","img/120_30.png","74","image-keyboard-response","109","100354","0.0-6.0-1.51","LAJU","4","f","rechts","24","","","self","j","120","true"
"null","<div style=""font-size:60px;"">+</div>","null","html-keyboard-response","110","100806","0.0-6.0-0.52","LAJU","4","f","rechts","24","","fixation","","","",""
"799","img/120_30.png","74","image-keyboard-response","111","101605","0.0-6.0-1.52","LAJU","4","f","rechts","24","","","self","j","120","true"
"null","<div style=""font-size:60px;"">+</div>","null","html-keyboard-response","112","102107","0.0-6.0-0.53","LAJU","4","f","rechts","24","","fixation","","","",""
"993","img/30_300.png","70","image-keyboard-response","113","103100","0.0-6.0-1.53","LAJU","4","f","rechts","24","","","self","f","30","true"
"null","<div style=""font-size:60px;"">+</div>","null","html-keyboard-response","114","103452","0.0-6.0-0.54","LAJU","4","f","rechts","24","","fixation","","","",""
"1326","img/90_60.png","74","image-keyboard-response","115","104779","0.0-6.0-1.54","LAJU","4","f","rechts","24","","","self","j","90","true"
"null","<div style=""font-size:60px;"">+</div>","null","html-keyboard-response","116","105179","0.0-6.0-0.55","LAJU","4","f","rechts","24","","fixation","","","",""
"754","img/90_30.png","74","image-keyboard-response","117","105934","0.0-6.0-1.55","LAJU","4","f","rechts","24","","","self","j","90","true"
"null","<div style=""font-size:60px;"">+</div>","null","html-keyboard-response","118","106336","0.0-6.0-0.56","LAJU","4","f","rechts","24","","fixation","","","",""
"716","img/0_60.png","74","image-keyboard-response","119","107052","0.0-6.0-1.56","LAJU","4","f","rechts","24","","","self","j","0","true"
"null","<div style=""font-size:60px;"">+</div>","null","html-keyboard-response","120","107353","0.0-6.0-0.57","LAJU","4","f","rechts","24","","fixation","","","",""
"1175","img/150_90.png","70","image-keyboard-response","121","108530","0.0-6.0-1.57","LAJU","4","f","rechts","24","","","self","f","150","true"
"null","<div style=""font-size:60px;"">+</div>","null","html-keyboard-response","122","108831","0.0-6.0-0.58","LAJU","4","f","rechts","24","","fixation","","","",""
"1085","img/L30_180.png","70","image-keyboard-response","123","109917","0.0-6.0-1.58","LAJU","4","f","rechts","24","","","self","f","30","true"
"null","<div style=""font-size:60px;"">+</div>","null","html-keyboard-response","124","110419","0.0-6.0-0.59","LAJU","4","f","rechts","24","","fixation","","","",""
"741","img/120_180.png","74","image-keyboard-response","125","111161","0.0-6.0-1.59","LAJU","4","f","rechts","24","","","self","j","120","true"
"null","<div style=""font-size:60px;"">+</div>","null","html-keyboard-response","126","111462","0.0-6.0-0.60","LAJU","4","f","rechts","24","","fixation","","","",""
"1378","img/150_60.png","70","image-keyboard-response","127","112842","0.0-6.0-1.60","LAJU","4","f","rechts","24","","","self","f","150","true"
"null","<div style=""font-size:60px;"">+</div>","null","html-keyboard-response","128","113243","0.0-6.0-0.61","LAJU","4","f","rechts","24","","fixation","","","",""
"784","img/60_180.png","74","image-keyboard-response","129","114029","0.0-6.0-1.61","LAJU","4","f","rechts","24","","","self","j","60","true"
"null","<div style=""font-size:60px;"">+</div>","null","html-keyboard-response","130","114379","0.0-6.0-0.62","LAJU","4","f","rechts","24","","fixation","","","",""
"1173","img/30_60.png","74","image-keyboard-response","131","115554","0.0-6.0-1.62","LAJU","4","f","rechts","24","","","self","j","30","true"
"null","<div style=""font-size:60px;"">+</div>","null","html-keyboard-response","132","115855","0.0-6.0-0.63","LAJU","4","f","rechts","24","","fixation","","","",""
"999","img/0_120.png","74","image-keyboard-response","133","116856","0.0-6.0-1.63","LAJU","4","f","rechts","24","","","self","j","0","true"
"null","<div style=""font-size:60px;"">+</div>","null","html-keyboard-response","134","117357","0.0-6.0-0.64","LAJU","4","f","rechts","24","","fixation","","","",""
"535","img/0_90.png","74","image-keyboard-response","135","117893","0.0-6.0-1.64","LAJU","4","f","rechts","24","","","self","j","0","true"
"null","<div style=""font-size:60px;"">+</div>","null","html-keyboard-response","136","118395","0.0-6.0-0.65","LAJU","4","f","rechts","24","","fixation","","","",""
"920","img/120_90.png","70","image-keyboard-response","137","119315","0.0-6.0-1.65","LAJU","4","f","rechts","24","","","self","f","120","true"
"null","<div style=""font-size:60px;"">+</div>","null","html-keyboard-response","138","119717","0.0-6.0-0.66","LAJU","4","f","rechts","24","","fixation","","","",""
"861","img/60_150.png","70","image-keyboard-response","139","120578","0.0-6.0-1.66","LAJU","4","f","rechts","24","","","self","f","60","true"
"null","<div style=""font-size:60px;"">+</div>","null","html-keyboard-response","140","120880","0.0-6.0-0.67","LAJU","4","f","rechts","24","","fixation","","","",""
"729","img/90_240.png","74","image-keyboard-response","141","121610","0.0-6.0-1.67","LAJU","4","f","rechts","24","","","self","j","90","true"
"null","<div style=""font-size:60px;"">+</div>","null","html-keyboard-response","142","121911","0.0-6.0-0.68","LAJU","4","f","rechts","24","","fixation","","","",""
"909","img/120_330.png","74","image-keyboard-response","143","122821","0.0-6.0-1.68","LAJU","4","f","rechts","24","","","self","f","120","false"
"null","<div style=""font-size:60px;"">+</div>","null","html-keyboard-response","144","123173","0.0-6.0-0.69","LAJU","4","f","rechts","24","","fixation","","","",""
"742","img/30_90.png","74","image-keyboard-response","145","123915","0.0-6.0-1.69","LAJU","4","f","rechts","24","","","self","j","30","true"
"null","<div style=""font-size:60px;"">+</div>","null","html-keyboard-response","146","124367","0.0-6.0-0.70","LAJU","4","f","rechts","24","","fixation","","","",""
"848","img/L60_180.png","70","image-keyboard-response","147","125216","0.0-6.0-1.70","LAJU","4","f","rechts","24","","","self","f","60","true"
"null","<div style=""font-size:60px;"">+</div>","null","html-keyboard-response","148","125568","0.0-6.0-0.71","LAJU","4","f","rechts","24","","fixation","","","",""
"672","img/L120_180.png","70","image-keyboard-response","149","126241","0.0-6.0-1.71","LAJU","4","f","rechts","24","","","self","f","120","true"
"null","<div style=""font-size:60px;"">+</div>","null","html-keyboard-response","150","126592","0.0-6.0-0.72","LAJU","4","f","rechts","24","","fixation","","","",""
"1067","img/90_300.png","70","image-keyboard-response","151","127660","0.0-6.0-1.72","LAJU","4","f","rechts","24","","","self","f","90","true"
"null","<div style=""font-size:60px;"">+</div>","null","html-keyboard-response","152","128111","0.0-6.0-0.73","LAJU","4","f","rechts","24","","fixation","","","",""
"731","img/0_30.png","74","image-keyboard-response","153","128843","0.0-6.0-1.73","LAJU","4","f","rechts","24","","","self","j","0","true"
"null","<div style=""font-size:60px;"">+</div>","null","html-keyboard-response","154","129195","0.0-6.0-0.74","LAJU","4","f","rechts","24","","fixation","","","",""
"540","img/90_210.png","74","image-keyboard-response","155","129736","0.0-6.0-1.74","LAJU","4","f","rechts","24","","","self","j","90","true"
"null","<div style=""font-size:60px;"">+</div>","null","html-keyboard-response","156","130238","0.0-6.0-0.75","LAJU","4","f","rechts","24","","fixation","","","",""
"874","img/60_330.png","70","image-keyboard-response","157","131113","0.0-6.0-1.75","LAJU","4","f","rechts","24","","","self","f","60","true"
"null","<div style=""font-size:60px;"">+</div>","null","html-keyboard-response","158","131565","0.0-6.0-0.76","LAJU","4","f","rechts","24","","fixation","","","",""
"722","img/0_270.png","70","image-keyboard-response","159","132288","0.0-6.0-1.76","LAJU","4","f","rechts","24","","","self","f","0","true"
"null","<div style=""font-size:60px;"">+</div>","null","html-keyboard-response","160","132690","0.0-6.0-0.77","LAJU","4","f","rechts","24","","fixation","","","",""
"713","img/120_210.png","74","image-keyboard-response","161","133403","0.0-6.0-1.77","LAJU","4","f","rechts","24","","","self","j","120","true"
"null","<div style=""font-size:60px;"">+</div>","null","html-keyboard-response","162","133805","0.0-6.0-0.78","LAJU","4","f","rechts","24","","fixation","","","",""
"656","img/150_300.png","74","image-keyboard-response","163","134461","0.0-6.0-1.78","LAJU","4","f","rechts","24","","","self","j","150","true"
"null","<div style=""font-size:60px;"">+</div>","null","html-keyboard-response","164","134762","0.0-6.0-0.79","LAJU","4","f","rechts","24","","fixation","","","",""
"683","img/90_180.png","74","image-keyboard-response","165","135445","0.0-6.0-1.79","LAJU","4","f","rechts","24","","","self","j","90","true"
"null","<div style=""font-size:60px;"">+</div>","null","html-keyboard-response","166","135747","0.0-6.0-0.80","LAJU","4","f","rechts","24","","fixation","","","",""
"810","img/90_150.png","70","image-keyboard-response","167","136557","0.0-6.0-1.80","LAJU","4","f","rechts","24","","","self","f","90","true"
"null","<div style=""font-size:60px;"">+</div>","null","html-keyboard-response","168","137059","0.0-6.0-0.81","LAJU","4","f","rechts","24","","fixation","","","",""
"619","img/30_240.png","74","image-keyboard-response","169","137678","0.0-6.0-1.81","LAJU","4","f","rechts","24","","","self","f","30","false"
"null","<div style=""font-size:60px;"">+</div>","null","html-keyboard-response","170","138079","0.0-6.0-0.82","LAJU","4","f","rechts","24","","fixation","","","",""
"813","img/120_150.png","70","image-keyboard-response","171","138892","0.0-6.0-1.82","LAJU","4","f","rechts","24","","","self","f","120","true"
"null","<div style=""font-size:60px;"">+</div>","null","html-keyboard-response","172","139244","0.0-6.0-0.83","LAJU","4","f","rechts","24","","fixation","","","",""
"688","img/L90_180.png","70","image-keyboard-response","173","139932","0.0-6.0-1.83","LAJU","4","f","rechts","24","","","self","f","90","true"
"null","<div style=""font-size:60px;"">+</div>","null","html-keyboard-response","174","140283","0.0-6.0-0.84","LAJU","4","f","rechts","24","","fixation","","","",""
"667","img/150_120.png","70","image-keyboard-response","175","140951","0.0-6.0-1.84","LAJU","4","f","rechts","24","","","self","f","150","true"
"null","<div style=""font-size:60px;"">+</div>","null","html-keyboard-response","176","141453","0.0-6.0-0.85","LAJU","4","f","rechts","24","","fixation","","","",""
"1297","img/120_270.png","74","image-keyboard-response","177","142750","0.0-6.0-1.85","LAJU","4","f","rechts","24","","","self","j","120","true"
"null","<div style=""font-size:60px;"">+</div>","null","html-keyboard-response","178","143051","0.0-6.0-0.86","LAJU","4","f","rechts","24","","fixation","","","",""
"1656","img/60_90.png","74","image-keyboard-response","179","144708","0.0-6.0-1.86","LAJU","4","f","rechts","24","","","self","j","60","true"
"null","<div style=""font-size:60px;"">+</div>","null","html-keyboard-response","180","145160","0.0-6.0-0.87","LAJU","4","f","rechts","24","","fixation","","","",""
"614","img/60_30.png","74","image-keyboard-response","181","145774","0.0-6.0-1.87","LAJU","4","f","rechts","24","","","self","j","60","true"
"null","<div style=""font-size:60px;"">+</div>","null","html-keyboard-response","182","146226","0.0-6.0-0.88","LAJU","4","f","rechts","24","","fixation","","","",""
"463","img/30_120.png","74","image-keyboard-response","183","146689","0.0-6.0-1.88","LAJU","4","f","rechts","24","","","self","j","30","true"
"null","<div style=""font-size:60px;"">+</div>","null","html-keyboard-response","184","147191","0.0-6.0-0.89","LAJU","4","f","rechts","24","","fixation","","","",""
"884","img/0_300.png","70","image-keyboard-response","185","148075","0.0-6.0-1.89","LAJU","4","f","rechts","24","","","self","f","0","true"
"null","<div style=""font-size:60px;"">+</div>","null","html-keyboard-response","186","148427","0.0-6.0-0.90","LAJU","4","f","rechts","24","","fixation","","","",""
"595","img/150_180.png","74","image-keyboard-response","187","149022","0.0-6.0-1.90","LAJU","4","f","rechts","24","","","self","j","150","true"
"null","<div style=""font-size:60px;"">+</div>","null","html-keyboard-response","188","149324","0.0-6.0-0.91","LAJU","4","f","rechts","24","","fixation","","","",""
"1535","img/90_330.png","70","image-keyboard-response","189","150859","0.0-6.0-1.91","LAJU","4","f","rechts","24","","","self","f","90","true"
"null","<div style=""font-size:60px;"">+</div>","null","html-keyboard-response","190","151160","0.0-6.0-0.92","LAJU","4","f","rechts","24","","fixation","","","",""
"813","img/30_270.png","70","image-keyboard-response","191","151974","0.0-6.0-1.92","LAJU","4","f","rechts","24","","","self","f","30","true"
"null","<div style=""font-size:60px;"">+</div>","null","html-keyboard-response","192","152276","0.0-6.0-0.93","LAJU","4","f","rechts","24","","fixation","","","",""
"768","img/60_210.png","70","image-keyboard-response","193","153044","0.0-6.0-1.93","LAJU","4","f","rechts","24","","","self","j","60","false"
"null","<div style=""font-size:60px;"">+</div>","null","html-keyboard-response","194","153396","0.0-6.0-0.94","LAJU","4","f","rechts","24","","fixation","","","",""
"743","img/150_270.png","74","image-keyboard-response","195","154139","0.0-6.0-1.94","LAJU","4","f","rechts","24","","","self","j","150","true"
"null","<div style=""font-size:60px;"">+</div>","null","html-keyboard-response","196","154441","0.0-6.0-0.95","LAJU","4","f","rechts","24","","fixation","","","",""
"652","img/150_240.png","74","image-keyboard-response","197","155093","0.0-6.0-1.95","LAJU","4","f","rechts","24","","","self","j","150","true"
"null","<div style=""font-size:60px;"">+</div>","null","html-keyboard-response","198","155494","0.0-6.0-0.96","LAJU","4","f","rechts","24","","fixation","","","",""
"588","img/30_180.png","74","image-keyboard-response","199","156083","0.0-6.0-1.96","LAJU","4","f","rechts","24","","","self","j","30","true"
"null","<div style=""font-size:60px;"">+</div>","null","html-keyboard-response","200","156434","0.0-6.0-0.97","LAJU","4","f","rechts","24","","fixation","","","",""
"1073","img/60_270.png","74","image-keyboard-response","201","157509","0.0-6.0-1.97","LAJU","4","f","rechts","24","","","self","f","60","false"
"null","<div style=""font-size:60px;"">+</div>","null","html-keyboard-response","202","158010","0.0-6.0-0.98","LAJU","4","f","rechts","24","","fixation","","","",""
"808","img/0_330.png","70","image-keyboard-response","203","158819","0.0-6.0-1.98","LAJU","4","f","rechts","24","","","self","f","0","true"
"null","<div style=""font-size:60px;"">+</div>","null","html-keyboard-response","204","159220","0.0-6.0-0.99","LAJU","4","f","rechts","24","","fixation","","","",""
"689","img/0_240.png","70","image-keyboard-response","205","159911","0.0-6.0-1.99","LAJU","4","f","rechts","24","","","self","f","0","true"
"null","<div style=""font-size:60px;"">+</div>","null","html-keyboard-response","206","160212","0.0-6.0-0.100","LAJU","4","f","rechts","24","","fixation","","","",""
"592","img/L150_180.png","70","image-keyboard-response","207","160805","0.0-6.0-1.100","LAJU","4","f","rechts","24","","","self","f","150","true"
"null","<div style=""font-size:60px;"">+</div>","null","html-keyboard-response","208","161206","0.0-6.0-0.101","LAJU","4","f","rechts","24","","fixation","","","",""
"560","img/90_120.png","70","image-keyboard-response","209","161767","0.0-6.0-1.101","LAJU","4","f","rechts","24","","","self","f","90","true"
"null","<div style=""font-size:60px;"">+</div>","null","html-keyboard-response","210","162068","0.0-6.0-0.102","LAJU","4","f","rechts","24","","fixation","","","",""
"840","img/0_210.png","70","image-keyboard-response","211","162909","0.0-6.0-1.102","LAJU","4","f","rechts","24","","","self","f","0","true"
"null","<div style=""font-size:60px;"">+</div>","null","html-keyboard-response","212","163361","0.0-6.0-0.103","LAJU","4","f","rechts","24","","fixation","","","",""
"819","img/0_150.png","74","image-keyboard-response","213","164182","0.0-6.0-1.103","LAJU","4","f","rechts","24","","","self","j","0","true"
"null","<div style=""font-size:60px;"">+</div>","null","html-keyboard-response","214","164533","0.0-6.0-0.104","LAJU","4","f","rechts","24","","fixation","","","",""
"690","img/30_270.png","70","image-keyboard-response","215","165224","0.0-6.0-1.104","LAJU","4","f","rechts","24","","","self","f","30","true"
"null","<div style=""font-size:60px;"">+</div>","null","html-keyboard-response","216","165526","0.0-6.0-0.105","LAJU","4","f","rechts","24","","fixation","","","",""
"656","img/120_180.png","74","image-keyboard-response","217","166184","0.0-6.0-1.105","LAJU","4","f","rechts","24","","","self","j","120","true"
"null","<div style=""font-size:60px;"">+</div>","null","html-keyboard-response","218","166485","0.0-6.0-0.106","LAJU","4","f","rechts","24","","fixation","","","",""
"646","img/0_210.png","70","image-keyboard-response","219","167133","0.0-6.0-1.106","LAJU","4","f","rechts","24","","","self","f","0","true"
"null","<div style=""font-size:60px;"">+</div>","null","html-keyboard-response","220","167434","0.0-6.0-0.107","LAJU","4","f","rechts","24","","fixation","","","",""
"1132","img/90_330.png","70","image-keyboard-response","221","168567","0.0-6.0-1.107","LAJU","4","f","rechts","24","","","self","f","90","true"
"null","<div style=""font-size:60px;"">+</div>","null","html-keyboard-response","222","168969","0.0-6.0-0.108","LAJU","4","f","rechts","24","","fixation","","","",""
"1197","img/90_120.png","70","image-keyboard-response","223","170167","0.0-6.0-1.108","LAJU","4","f","rechts","24","","","self","f","90","true"
"null","<div style=""font-size:60px;"">+</div>","null","html-keyboard-response","224","170669","0.0-6.0-0.109","LAJU","4","f","rechts","24","","fixation","","","",""
"652","img/0_240.png","70","image-keyboard-response","225","171321","0.0-6.0-1.109","LAJU","4","f","rechts","24","","","self","f","0","true"
"null","<div style=""font-size:60px;"">+</div>","null","html-keyboard-response","226","171723","0.0-6.0-0.110","LAJU","4","f","rechts","24","","fixation","","","",""
"830","img/120_270.png","70","image-keyboard-response","227","172554","0.0-6.0-1.110","LAJU","4","f","rechts","24","","","self","j","120","false"
"null","<div style=""font-size:60px;"">+</div>","null","html-keyboard-response","228","173056","0.0-6.0-0.111","LAJU","4","f","rechts","24","","fixation","","","",""
"712","img/0_120.png","74","image-keyboard-response","229","173769","0.0-6.0-1.111","LAJU","4","f","rechts","24","","","self","j","0","true"
"null","<div style=""font-size:60px;"">+</div>","null","html-keyboard-response","230","174271","0.0-6.0-0.112","LAJU","4","f","rechts","24","","fixation","","","",""
"569","img/0_90.png","74","image-keyboard-response","231","174841","0.0-6.0-1.112","LAJU","4","f","rechts","24","","","self","j","0","true"
"null","<div style=""font-size:60px;"">+</div>","null","html-keyboard-response","232","175193","0.0-6.0-0.113","LAJU","4","f","rechts","24","","fixation","","","",""
"1139","img/90_30.png","74","image-keyboard-response","233","176333","0.0-6.0-1.113","LAJU","4","f","rechts","24","","","self","j","90","true"
"null","<div style=""font-size:60px;"">+</div>","null","html-keyboard-response","234","176735","0.0-6.0-0.114","LAJU","4","f","rechts","24","","fixation","","","",""
"867","img/150_300.png","74","image-keyboard-response","235","177603","0.0-6.0-1.114","LAJU","4","f","rechts","24","","","self","j","150","true"
"null","<div style=""font-size:60px;"">+</div>","null","html-keyboard-response","236","177905","0.0-6.0-0.115","LAJU","4","f","rechts","24","","fixation","","","",""
"839","img/30_60.png","74","image-keyboard-response","237","178744","0.0-6.0-1.115","LAJU","4","f","rechts","24","","","self","j","30","true"
"null","<div style=""font-size:60px;"">+</div>","null","html-keyboard-response","238","179246","0.0-6.0-0.116","LAJU","4","f","rechts","24","","fixation","","","",""
"838","img/30_300.png","70","image-keyboard-response","239","180084","0.0-6.0-1.116","LAJU","4","f","rechts","24","","","self","f","30","true"
"null","<div style=""font-size:60px;"">+</div>","null","html-keyboard-response","240","180585","0.0-6.0-0.117","LAJU","4","f","rechts","24","","fixation","","","",""
"1101","img/120_150.png","70","image-keyboard-response","241","181687","0.0-6.0-1.117","LAJU","4","f","rechts","24","","","self","f","120","true"
"null","<div style=""font-size:60px;"">+</div>","null","html-keyboard-response","242","182189","0.0-6.0-0.118","LAJU","4","f","rechts","24","","fixation","","","",""
"938","img/60_330.png","70","image-keyboard-response","243","183127","0.0-6.0-1.118","LAJU","4","f","rechts","24","","","self","f","60","true"
"null","<div style=""font-size:60px;"">+</div>","null","html-keyboard-response","244","183479","0.0-6.0-0.119","LAJU","4","f","rechts","24","","fixation","","","",""
"820","img/150_90.png","70","image-keyboard-response","245","184299","0.0-6.0-1.119","LAJU","4","f","rechts","24","","","self","f","150","true"
"null","<div style=""font-size:60px;"">+</div>","null","html-keyboard-response","246","184751","0.0-6.0-0.120","LAJU","4","f","rechts","24","","fixation","","","",""
"709","img/0_30.png","74","image-keyboard-response","247","185461","0.0-6.0-1.120","LAJU","4","f","rechts","24","","","self","j","0","true"
"null","<div style=""font-size:60px;"">+</div>","null","html-keyboard-response","248","185763","0.0-6.0-0.121","LAJU","4","f","rechts","24","","fixation","","","",""
"923","img/150_270.png","74","image-keyboard-response","249","186687","0.0-6.0-1.121","LAJU","4","f","rechts","24","","","self","j","150","true"
"null","<div style=""font-size:60px;"">+</div>","null","html-keyboard-response","250","187138","0.0-6.0-0.122","LAJU","4","f","rechts","24","","fixation","","","",""
"638","img/150_180.png","74","image-keyboard-response","251","187777","0.0-6.0-1.122","LAJU","4","f","rechts","24","","","self","j","150","true"
"null","<div style=""font-size:60px;"">+</div>","null","html-keyboard-response","252","188279","0.0-6.0-0.123","LAJU","4","f","rechts","24","","fixation","","","",""
"586","img/150_240.png","74","image-keyboard-response","253","188865","0.0-6.0-1.123","LAJU","4","f","rechts","24","","","self","j","150","true"
"null","<div style=""font-size:60px;"">+</div>","null","html-keyboard-response","254","189367","0.0-6.0-0.124","LAJU","4","f","rechts","24","","fixation","","","",""
"538","img/L120_180.png","74","image-keyboard-response","255","189905","0.0-6.0-1.124","LAJU","4","f","rechts","24","","","self","f","120","false"
"null","<div style=""font-size:60px;"">+</div>","null","html-keyboard-response","256","190407","0.0-6.0-0.125","LAJU","4","f","rechts","24","","fixation","","","",""
"1017","img/60_30.png","74","image-keyboard-response","257","191424","0.0-6.0-1.125","LAJU","4","f","rechts","24","","","self","j","60","true"
"null","<div style=""font-size:60px;"">+</div>","null","html-keyboard-response","258","191726","0.0-6.0-0.126","LAJU","4","f","rechts","24","","fixation","","","",""
"1245","img/150_120.png","70","image-keyboard-response","259","192971","0.0-6.0-1.126","LAJU","4","f","rechts","24","","","self","f","150","true"
"null","<div style=""font-size:60px;"">+</div>","null","html-keyboard-response","260","193473","0.0-6.0-0.127","LAJU","4","f","rechts","24","","fixation","","","",""
"772","img/L150_180.png","70","image-keyboard-response","261","194245","0.0-6.0-1.127","LAJU","4","f","rechts","24","","","self","f","150","true"
"null","<div style=""font-size:60px;"">+</div>","null","html-keyboard-response","262","194647","0.0-6.0-0.128","LAJU","4","f","rechts","24","","fixation","","","",""
"633","img/0_60.png","74","image-keyboard-response","263","195280","0.0-6.0-1.128","LAJU","4","f","rechts","24","","","self","j","0","true"
"null","<div style=""font-size:60px;"">+</div>","null","html-keyboard-response","264","195632","0.0-6.0-0.129","LAJU","4","f","rechts","24","","fixation","","","",""
"721","img/120_90.png","70","image-keyboard-response","265","196353","0.0-6.0-1.129","LAJU","4","f","rechts","24","","","self","f","120","true"
"null","<div style=""font-size:60px;"">+</div>","null","html-keyboard-response","266","196705","0.0-6.0-0.130","LAJU","4","f","rechts","24","","fixation","","","",""
"991","img/60_270.png","70","image-keyboard-response","267","197696","0.0-6.0-1.130","LAJU","4","f","rechts","24","","","self","f","60","true"
"null","<div style=""font-size:60px;"">+</div>","null","html-keyboard-response","268","197998","0.0-6.0-0.131","LAJU","4","f","rechts","24","","fixation","","","",""
"887","img/30_90.png","74","image-keyboard-response","269","198885","0.0-6.0-1.131","LAJU","4","f","rechts","24","","","self","j","30","true"
"null","<div style=""font-size:60px;"">+</div>","null","html-keyboard-response","270","199287","0.0-6.0-0.132","LAJU","4","f","rechts","24","","fixation","","","",""
"982","img/L90_180.png","70","image-keyboard-response","271","200269","0.0-6.0-1.132","LAJU","4","f","rechts","24","","","self","f","90","true"
"null","<div style=""font-size:60px;"">+</div>","null","html-keyboard-response","272","200769","0.0-6.0-0.133","LAJU","4","f","rechts","24","","fixation","","","",""
"746","img/30_240.png","70","image-keyboard-response","273","201516","0.0-6.0-1.133","LAJU","4","f","rechts","24","","","self","f","30","true"
"null","<div style=""font-size:60px;"">+</div>","null","html-keyboard-response","274","201867","0.0-6.0-0.134","LAJU","4","f","rechts","24","","fixation","","","",""
"1428","img/90_300.png","70","image-keyboard-response","275","203296","0.0-6.0-1.134","LAJU","4","f","rechts","24","","","self","f","90","true"
"null","<div style=""font-size:60px;"">+</div>","null","html-keyboard-response","276","203598","0.0-6.0-0.135","LAJU","4","f","rechts","24","","fixation","","","",""
"936","img/150_60.png","70","image-keyboard-response","277","204535","0.0-6.0-1.135","LAJU","4","f","rechts","24","","","self","f","150","true"
"null","<div style=""font-size:60px;"">+</div>","null","html-keyboard-response","278","204836","0.0-6.0-0.136","LAJU","4","f","rechts","24","","fixation","","","",""
"739","img/0_150.png","74","image-keyboard-response","279","205577","0.0-6.0-1.136","LAJU","4","f","rechts","24","","","self","j","0","true"
"null","<div style=""font-size:60px;"">+</div>","null","html-keyboard-response","280","205978","0.0-6.0-0.137","LAJU","4","f","rechts","24","","fixation","","","",""
"991","img/120_210.png","74","image-keyboard-response","281","206970","0.0-6.0-1.137","LAJU","4","f","rechts","24","","","self","j","120","true"
"null","<div style=""font-size:60px;"">+</div>","null","html-keyboard-response","282","207472","0.0-6.0-0.138","LAJU","4","f","rechts","24","","fixation","","","",""
"648","img/60_90.png","74","image-keyboard-response","283","208120","0.0-6.0-1.138","LAJU","4","f","rechts","24","","","self","j","60","true"
"null","<div style=""font-size:60px;"">+</div>","null","html-keyboard-response","284","208521","0.0-6.0-0.139","LAJU","4","f","rechts","24","","fixation","","","",""
"709","img/90_180.png","74","image-keyboard-response","285","209231","0.0-6.0-1.139","LAJU","4","f","rechts","24","","","self","j","90","true"
"null","<div style=""font-size:60px;"">+</div>","null","html-keyboard-response","286","209682","0.0-6.0-0.140","LAJU","4","f","rechts","24","","fixation","","","",""
"1535","img/L30_180.png","70","image-keyboard-response","287","211218","0.0-6.0-1.140","LAJU","4","f","rechts","24","","","self","f","30","true"
"null","<div style=""font-size:60px;"">+</div>","null","html-keyboard-response","288","211520","0.0-6.0-0.141","LAJU","4","f","rechts","24","","fixation","","","",""
"977","img/90_240.png","74","image-keyboard-response","289","212499","0.0-6.0-1.141","LAJU","4","f","rechts","24","","","self","j","90","true"
"null","<div style=""font-size:60px;"">+</div>","null","html-keyboard-response","290","213000","0.0-6.0-0.142","LAJU","4","f","rechts","24","","fixation","","","",""
"1067","img/60_150.png","70","image-keyboard-response","291","214068","0.0-6.0-1.142","LAJU","4","f","rechts","24","","","self","f","60","true"
"null","<div style=""font-size:60px;"">+</div>","null","html-keyboard-response","292","214369","0.0-6.0-0.143","LAJU","4","f","rechts","24","","fixation","","","",""
"684","img/0_300.png","70","image-keyboard-response","293","215055","0.0-6.0-1.143","LAJU","4","f","rechts","24","","","self","f","0","true"
"null","<div style=""font-size:60px;"">+</div>","null","html-keyboard-response","294","215557","0.0-6.0-0.144","LAJU","4","f","rechts","24","","fixation","","","",""
"933","img/90_210.png","74","image-keyboard-response","295","216490","0.0-6.0-1.144","LAJU","4","f","rechts","24","","","self","j","90","true"
"null","<div style=""font-size:60px;"">+</div>","null","html-keyboard-response","296","216990","0.0-6.0-0.145","LAJU","4","f","rechts","24","","fixation","","","",""
"887","img/30_180.png","74","image-keyboard-response","297","217879","0.0-6.0-1.145","LAJU","4","f","rechts","24","","","self","j","30","true"
"null","<div style=""font-size:60px;"">+</div>","null","html-keyboard-response","298","218180","0.0-6.0-0.146","LAJU","4","f","rechts","24","","fixation","","","",""
"822","img/90_150.png","70","image-keyboard-response","299","219003","0.0-6.0-1.146","LAJU","4","f","rechts","24","","","self","f","90","true"
"null","<div style=""font-size:60px;"">+</div>","null","html-keyboard-response","300","219505","0.0-6.0-0.147","LAJU","4","f","rechts","24","","fixation","","","",""
"811","img/0_330.png","70","image-keyboard-response","301","220318","0.0-6.0-1.147","LAJU","4","f","rechts","24","","","self","f","0","true"
"null","<div style=""font-size:60px;"">+</div>","null","html-keyboard-response","302","220769","0.0-6.0-0.148","LAJU","4","f","rechts","24","","fixation","","","",""
"674","img/0_270.png","70","image-keyboard-response","303","221444","0.0-6.0-1.148","LAJU","4","f","rechts","24","","","self","f","0","true"
"null","<div style=""font-size:60px;"">+</div>","null","html-keyboard-response","304","221746","0.0-6.0-0.149","LAJU","4","f","rechts","24","","fixation","","","",""
"883","img/L60_180.png","70","image-keyboard-response","305","222630","0.0-6.0-1.149","LAJU","4","f","rechts","24","","","self","f","60","true"
"null","<div style=""font-size:60px;"">+</div>","null","html-keyboard-response","306","223082","0.0-6.0-0.150","LAJU","4","f","rechts","24","","fixation","","","",""
"610","img/120_30.png","70","image-keyboard-response","307","223693","0.0-6.0-1.150","LAJU","4","f","rechts","24","","","self","j","120","false"
"null","<div style=""font-size:60px;"">+</div>","null","html-keyboard-response","308","224095","0.0-6.0-0.151","LAJU","4","f","rechts","24","","fixation","","","",""
"1064","img/60_210.png","74","image-keyboard-response","309","225160","0.0-6.0-1.151","LAJU","4","f","rechts","24","","","self","j","60","true"
"null","<div style=""font-size:60px;"">+</div>","null","html-keyboard-response","310","225660","0.0-6.0-0.152","LAJU","4","f","rechts","24","","fixation","","","",""
"524","img/120_330.png","74","image-keyboard-response","311","226184","0.0-6.0-1.152","LAJU","4","f","rechts","24","","","self","f","120","false"
"null","<div style=""font-size:60px;"">+</div>","null","html-keyboard-response","312","226586","0.0-6.0-0.153","LAJU","4","f","rechts","24","","fixation","","","",""
"1953","img/90_60.png","74","image-keyboard-response","313","228540","0.0-6.0-1.153","LAJU","4","f","rechts","24","","","self","j","90","true"
"null","<div style=""font-size:60px;"">+</div>","null","html-keyboard-response","314","228892","0.0-6.0-0.154","LAJU","4","f","rechts","24","","fixation","","","",""
"1104","img/60_180.png","74","image-keyboard-response","315","229997","0.0-6.0-1.154","LAJU","4","f","rechts","24","","","self","j","60","true"
"null","<div style=""font-size:60px;"">+</div>","null","html-keyboard-response","316","230449","0.0-6.0-0.155","LAJU","4","f","rechts","24","","fixation","","","",""
"1158","img/30_120.png","70","image-keyboard-response","317","231607","0.0-6.0-1.155","LAJU","4","f","rechts","24","","","self","j","30","false"
"null","<div style=""font-size:60px;"">+</div>","null","html-keyboard-response","318","232109","0.0-6.0-0.156","LAJU","4","f","rechts","24","","fixation","","","",""
"1581","img/0_240.png","70","image-keyboard-response","319","233691","0.0-6.0-1.156","LAJU","4","f","rechts","24","","","self","f","0","true"
"null","<div style=""font-size:60px;"">+</div>","null","html-keyboard-response","320","233993","0.0-6.0-0.157","LAJU","4","f","rechts","24","","fixation","","","",""
"812","img/150_270.png","74","image-keyboard-response","321","234805","0.0-6.0-1.157","LAJU","4","f","rechts","24","","","self","j","150","true"
"null","<div style=""font-size:60px;"">+</div>","null","html-keyboard-response","322","235107","0.0-6.0-0.158","LAJU","4","f","rechts","24","","fixation","","","",""
"981","img/L150_180.png","70","image-keyboard-response","323","236089","0.0-6.0-1.158","LAJU","4","f","rechts","24","","","self","f","150","true"
"null","<div style=""font-size:60px;"">+</div>","null","html-keyboard-response","324","236591","0.0-6.0-0.159","LAJU","4","f","rechts","24","","fixation","","","",""
"678","img/0_120.png","74","image-keyboard-response","325","237270","0.0-6.0-1.159","LAJU","4","f","rechts","24","","","self","j","0","true"
"null","<div style=""font-size:60px;"">+</div>","null","html-keyboard-response","326","237772","0.0-6.0-0.160","LAJU","4","f","rechts","24","","fixation","","","",""
"721","img/L90_180.png","70","image-keyboard-response","327","238493","0.0-6.0-1.160","LAJU","4","f","rechts","24","","","self","f","90","true"
"null","<div style=""font-size:60px;"">+</div>","null","html-keyboard-response","328","238794","0.0-6.0-0.161","LAJU","4","f","rechts","24","","fixation","","","",""
"689","img/90_180.png","74","image-keyboard-response","329","239484","0.0-6.0-1.161","LAJU","4","f","rechts","24","","","self","j","90","true"
"null","<div style=""font-size:60px;"">+</div>","null","html-keyboard-response","330","239886","0.0-6.0-0.162","LAJU","4","f","rechts","24","","fixation","","","",""
"703","img/0_90.png","74","image-keyboard-response","331","240590","0.0-6.0-1.162","LAJU","4","f","rechts","24","","","self","j","0","true"
"null","<div style=""font-size:60px;"">+</div>","null","html-keyboard-response","332","240992","0.0-6.0-0.163","LAJU","4","f","rechts","24","","fixation","","","",""
"1088","img/30_240.png","70","image-keyboard-response","333","242081","0.0-6.0-1.163","LAJU","4","f","rechts","24","","","self","f","30","true"
"null","<div style=""font-size:60px;"">+</div>","null","html-keyboard-response","334","242483","0.0-6.0-0.164","LAJU","4","f","rechts","24","","fixation","","","",""
"797","img/L120_180.png","70","image-keyboard-response","335","243281","0.0-6.0-1.164","LAJU","4","f","rechts","24","","","self","f","120","true"
"null","<div style=""font-size:60px;"">+</div>","null","html-keyboard-response","336","243633","0.0-6.0-0.165","LAJU","4","f","rechts","24","","fixation","","","",""
"689","img/0_300.png","70","image-keyboard-response","337","244322","0.0-6.0-1.165","LAJU","4","f","rechts","24","","","self","f","0","true"
"null","<div style=""font-size:60px;"">+</div>","null","html-keyboard-response","338","244724","0.0-6.0-0.166","LAJU","4","f","rechts","24","","fixation","","","",""
"1071","img/60_330.png","70","image-keyboard-response","339","245795","0.0-6.0-1.166","LAJU","4","f","rechts","24","","","self","f","60","true"
"null","<div style=""font-size:60px;"">+</div>","null","html-keyboard-response","340","246097","0.0-6.0-0.167","LAJU","4","f","rechts","24","","fixation","","","",""
"907","img/30_60.png","74","image-keyboard-response","341","247005","0.0-6.0-1.167","LAJU","4","f","rechts","24","","","self","j","30","true"
"null","<div style=""font-size:60px;"">+</div>","null","html-keyboard-response","342","247507","0.0-6.0-0.168","LAJU","4","f","rechts","24","","fixation","","","",""
"2211","img/60_90.png","74","image-keyboard-response","343","249718","0.0-6.0-1.168","LAJU","4","f","rechts","24","","","self","j","60","true"
"null","<div style=""font-size:60px;"">+</div>","null","html-keyboard-response","344","250070","0.0-6.0-0.169","LAJU","4","f","rechts","24","","fixation","","","",""
"742","img/0_270.png","70","image-keyboard-response","345","250812","0.0-6.0-1.169","LAJU","4","f","rechts","24","","","self","f","0","true"
"null","<div style=""font-size:60px;"">+</div>","null","html-keyboard-response","346","251314","0.0-6.0-0.170","LAJU","4","f","rechts","24","","fixation","","","",""
"1077","img/90_150.png","70","image-keyboard-response","347","252392","0.0-6.0-1.170","LAJU","4","f","rechts","24","","","self","f","90","true"
"null","<div style=""font-size:60px;"">+</div>","null","html-keyboard-response","348","252893","0.0-6.0-0.171","LAJU","4","f","rechts","24","","fixation","","","",""
"782","img/L60_180.png","70","image-keyboard-response","349","253676","0.0-6.0-1.171","LAJU","4","f","rechts","24","","","self","f","60","true"
"null","<div style=""font-size:60px;"">+</div>","null","html-keyboard-response","350","253978","0.0-6.0-0.172","LAJU","4","f","rechts","24","","fixation","","","",""
"910","img/120_270.png","74","image-keyboard-response","351","254888","0.0-6.0-1.172","LAJU","4","f","rechts","24","","","self","j","120","true"
"null","<div style=""font-size:60px;"">+</div>","null","html-keyboard-response","352","255340","0.0-6.0-0.173","LAJU","4","f","rechts","24","","fixation","","","",""
"650","img/0_150.png","74","image-keyboard-response","353","255990","0.0-6.0-1.173","LAJU","4","f","rechts","24","","","self","j","0","true"
"null","<div style=""font-size:60px;"">+</div>","null","html-keyboard-response","354","256291","0.0-6.0-0.174","LAJU","4","f","rechts","24","","fixation","","","",""
"866","img/30_120.png","74","image-keyboard-response","355","257158","0.0-6.0-1.174","LAJU","4","f","rechts","24","","","self","j","30","true"
"null","<div style=""font-size:60px;"">+</div>","null","html-keyboard-response","356","257510","0.0-6.0-0.175","LAJU","4","f","rechts","24","","fixation","","","",""
"1661","img/60_270.png","70","image-keyboard-response","357","259171","0.0-6.0-1.175","LAJU","4","f","rechts","24","","","self","f","60","true"
"null","<div style=""font-size:60px;"">+</div>","null","html-keyboard-response","358","259523","0.0-6.0-0.176","LAJU","4","f","rechts","24","","fixation","","","",""
"855","img/150_300.png","74","image-keyboard-response","359","260378","0.0-6.0-1.176","LAJU","4","f","rechts","24","","","self","j","150","true"
"null","<div style=""font-size:60px;"">+</div>","null","html-keyboard-response","360","260880","0.0-6.0-0.177","LAJU","4","f","rechts","24","","fixation","","","",""
"590","img/150_180.png","74","image-keyboard-response","361","261470","0.0-6.0-1.177","LAJU","4","f","rechts","24","","","self","j","150","true"
"null","<div style=""font-size:60px;"">+</div>","null","html-keyboard-response","362","261822","0.0-6.0-0.178","LAJU","4","f","rechts","24","","fixation","","","",""
"930","img/120_90.png","70","image-keyboard-response","363","262753","0.0-6.0-1.178","LAJU","4","f","rechts","24","","","self","f","120","true"
"null","<div style=""font-size:60px;"">+</div>","null","html-keyboard-response","364","263254","0.0-6.0-0.179","LAJU","4","f","rechts","24","","fixation","","","",""
"988","img/30_300.png","70","image-keyboard-response","365","264243","0.0-6.0-1.179","LAJU","4","f","rechts","24","","","self","f","30","true"
"null","<div style=""font-size:60px;"">+</div>","null","html-keyboard-response","366","264745","0.0-6.0-0.180","LAJU","4","f","rechts","24","","fixation","","","",""
"702","img/90_330.png","70","image-keyboard-response","367","265449","0.0-6.0-1.180","LAJU","4","f","rechts","24","","","self","f","90","true"
"null","<div style=""font-size:60px;"">+</div>","null","html-keyboard-response","368","265750","0.0-6.0-0.181","LAJU","4","f","rechts","24","","fixation","","","",""
"619","img/90_240.png","70","image-keyboard-response","369","266370","0.0-6.0-1.181","LAJU","4","f","rechts","24","","","self","j","90","false"
"null","<div style=""font-size:60px;"">+</div>","null","html-keyboard-response","370","266822","0.0-6.0-0.182","LAJU","4","f","rechts","24","","fixation","","","",""
"689","img/90_210.png","74","image-keyboard-response","371","267513","0.0-6.0-1.182","LAJU","4","f","rechts","24","","","self","j","90","true"
"null","<div style=""font-size:60px;"">+</div>","null","html-keyboard-response","372","268014","0.0-6.0-0.183","LAJU","4","f","rechts","24","","fixation","","","",""
"1065","img/30_270.png","70","image-keyboard-response","373","269080","0.0-6.0-1.183","LAJU","4","f","rechts","24","","","self","f","30","true"
"null","<div style=""font-size:60px;"">+</div>","null","html-keyboard-response","374","269482","0.0-6.0-0.184","LAJU","4","f","rechts","24","","fixation","","","",""
"698","img/L30_180.png","70","image-keyboard-response","375","270181","0.0-6.0-1.184","LAJU","4","f","rechts","24","","","self","f","30","true"
"null","<div style=""font-size:60px;"">+</div>","null","html-keyboard-response","376","270482","0.0-6.0-0.185","LAJU","4","f","rechts","24","","fixation","","","",""
"972","img/120_330.png","70","image-keyboard-response","377","271455","0.0-6.0-1.185","LAJU","4","f","rechts","24","","","self","f","120","true"
"null","<div style=""font-size:60px;"">+</div>","null","html-keyboard-response","378","271857","0.0-6.0-0.186","LAJU","4","f","rechts","24","","fixation","","","",""
"842","img/120_210.png","74","image-keyboard-response","379","272701","0.0-6.0-1.186","LAJU","4","f","rechts","24","","","self","j","120","true"
"null","<div style=""font-size:60px;"">+</div>","null","html-keyboard-response","380","273052","0.0-6.0-0.187","LAJU","4","f","rechts","24","","fixation","","","",""
"1161","img/90_300.png","70","image-keyboard-response","381","274214","0.0-6.0-1.187","LAJU","4","f","rechts","24","","","self","f","90","true"
"null","<div style=""font-size:60px;"">+</div>","null","html-keyboard-response","382","274716","0.0-6.0-0.188","LAJU","4","f","rechts","24","","fixation","","","",""
"755","img/0_210.png","70","image-keyboard-response","383","275472","0.0-6.0-1.188","LAJU","4","f","rechts","24","","","self","f","0","true"
"null","<div style=""font-size:60px;"">+</div>","null","html-keyboard-response","384","275974","0.0-6.0-0.189","LAJU","4","f","rechts","24","","fixation","","","",""
"720","img/150_120.png","70","image-keyboard-response","385","276695","0.0-6.0-1.189","LAJU","4","f","rechts","24","","","self","f","150","true"
"null","<div style=""font-size:60px;"">+</div>","null","html-keyboard-response","386","277097","0.0-6.0-0.190","LAJU","4","f","rechts","24","","fixation","","","",""
"1064","img/30_180.png","74","image-keyboard-response","387","278162","0.0-6.0-1.190","LAJU","4","f","rechts","24","","","self","j","30","true"
"null","<div style=""font-size:60px;"">+</div>","null","html-keyboard-response","388","278563","0.0-6.0-0.191","LAJU","4","f","rechts","24","","fixation","","","",""
"727","img/0_330.png","70","image-keyboard-response","389","279291","0.0-6.0-1.191","LAJU","4","f","rechts","24","","","self","f","0","true"
"null","<div style=""font-size:60px;"">+</div>","null","html-keyboard-response","390","279643","0.0-6.0-0.192","LAJU","4","f","rechts","24","","fixation","","","",""
"862","img/120_30.png","74","image-keyboard-response","391","280506","0.0-6.0-1.192","LAJU","4","f","rechts","24","","","self","j","120","true"
"null","<div style=""font-size:60px;"">+</div>","null","html-keyboard-response","392","281007","0.0-6.0-0.193","LAJU","4","f","rechts","24","","fixation","","","",""
"1485","img/60_150.png","70","image-keyboard-response","393","282493","0.0-6.0-1.193","LAJU","4","f","rechts","24","","","self","f","60","true"
"null","<div style=""font-size:60px;"">+</div>","null","html-keyboard-response","394","282795","0.0-6.0-0.194","LAJU","4","f","rechts","24","","fixation","","","",""
"1076","img/30_90.png","74","image-keyboard-response","395","283872","0.0-6.0-1.194","LAJU","4","f","rechts","24","","","self","j","30","true"
"null","<div style=""font-size:60px;"">+</div>","null","html-keyboard-response","396","284374","0.0-6.0-0.195","LAJU","4","f","rechts","24","","fixation","","","",""
"1176","img/60_210.png","70","image-keyboard-response","397","285550","0.0-6.0-1.195","LAJU","4","f","rechts","24","","","self","j","60","false"
"null","<div style=""font-size:60px;"">+</div>","null","html-keyboard-response","398","286052","0.0-6.0-0.196","LAJU","4","f","rechts","24","","fixation","","","",""
"1234","img/150_60.png","70","image-keyboard-response","399","287287","0.0-6.0-1.196","LAJU","4","f","rechts","24","","","self","f","150","true"
"null","<div style=""font-size:60px;"">+</div>","null","html-keyboard-response","400","287689","0.0-6.0-0.197","LAJU","4","f","rechts","24","","fixation","","","",""
"946","img/150_240.png","74","image-keyboard-response","401","288635","0.0-6.0-1.197","LAJU","4","f","rechts","24","","","self","j","150","true"
"null","<div style=""font-size:60px;"">+</div>","null","html-keyboard-response","402","289137","0.0-6.0-0.198","LAJU","4","f","rechts","24","","fixation","","","",""
"942","img/120_150.png","70","image-keyboard-response","403","290079","0.0-6.0-1.198","LAJU","4","f","rechts","24","","","self","f","120","true"
"null","<div style=""font-size:60px;"">+</div>","null","html-keyboard-response","404","290381","0.0-6.0-0.199","LAJU","4","f","rechts","24","","fixation","","","",""
"633","img/0_30.png","74","image-keyboard-response","405","291015","0.0-6.0-1.199","LAJU","4","f","rechts","24","","","self","j","0","true"
"null","<div style=""font-size:60px;"">+</div>","null","html-keyboard-response","406","291367","0.0-6.0-0.200","LAJU","4","f","rechts","24","","fixation","","","",""
"581","img/120_180.png","74","image-keyboard-response","407","291948","0.0-6.0-1.200","LAJU","4","f","rechts","24","","","self","j","120","true"
"null","<div style=""font-size:60px;"">+</div>","null","html-keyboard-response","408","292400","0.0-6.0-0.201","LAJU","4","f","rechts","24","","fixation","","","",""
"811","img/90_120.png","70","image-keyboard-response","409","293212","0.0-6.0-1.201","LAJU","4","f","rechts","24","","","self","f","90","true"
"null","<div style=""font-size:60px;"">+</div>","null","html-keyboard-response","410","293564","0.0-6.0-0.202","LAJU","4","f","rechts","24","","fixation","","","",""
"738","img/150_90.png","70","image-keyboard-response","411","294303","0.0-6.0-1.202","LAJU","4","f","rechts","24","","","self","f","150","true"
"null","<div style=""font-size:60px;"">+</div>","null","html-keyboard-response","412","294705","0.0-6.0-0.203","LAJU","4","f","rechts","24","","fixation","","","",""
"721","img/60_180.png","74","image-keyboard-response","413","295426","0.0-6.0-1.203","LAJU","4","f","rechts","24","","","self","j","60","true"
"null","<div style=""font-size:60px;"">+</div>","null","html-keyboard-response","414","295828","0.0-6.0-0.204","LAJU","4","f","rechts","24","","fixation","","","",""
"1070","img/60_30.png","74","image-keyboard-response","415","296898","0.0-6.0-1.204","LAJU","4","f","rechts","24","","","self","j","60","true"
"null","<div style=""font-size:60px;"">+</div>","null","html-keyboard-response","416","297200","0.0-6.0-0.205","LAJU","4","f","rechts","24","","fixation","","","",""
"735","img/90_60.png","74","image-keyboard-response","417","297935","0.0-6.0-1.205","LAJU","4","f","rechts","24","","","self","j","90","true"
"null","<div style=""font-size:60px;"">+</div>","null","html-keyboard-response","418","298286","0.0-6.0-0.206","LAJU","4","f","rechts","24","","fixation","","","",""
"946","img/90_30.png","74","image-keyboard-response","419","299233","0.0-6.0-1.206","LAJU","4","f","rechts","24","","","self","j","90","true"
"null","<div style=""font-size:60px;"">+</div>","null","html-keyboard-response","420","299585","0.0-6.0-0.207","LAJU","4","f","rechts","24","","fixation","","","",""
"677","img/0_60.png","74","image-keyboard-response","421","300262","0.0-6.0-1.207","LAJU","4","f","rechts","24","","","self","j","0","true"
"10153","<p>Du hast in 91% der Versuche korrekt entschieden.</p><p>Deine durchschnittliche Reaktionszeit war  885ms.</p><p>Dr&uuml;cke eine beliebige Taste, um die Session zu beenden. Vielen Dank!</p>","74","html-keyboard-response","422","310417","0.0-7.0","LAJU","4","f","rechts","24","","","","","",""
