"rt","stimulus","key_press","trial_type","trial_index","time_elapsed","internal_node_id","subject","session","sex","handedness","age","responses","test_part","condition","correct_response","angle","correct"
"3164","<p>Mental Rotation Experiment.</p> <p>Dr&uuml;cke eine beliebige Taste, um anzufangen.</p>","70","html-keyboard-response","0","3168","0.0-0.0","HEFI","3","f","rechts","55","","","","","",""
"3785","","","survey-text","1","6955","0.0-1.0","HEFI","3","f","rechts","55","{""Q0"":""HEFI""}","","","","",""
"2376","","","survey-text","2","9332","0.0-2.0","HEFI","3","f","rechts","55","{""Q0"":""3""}","","","","",""
"3746","","","survey-multi-choice","3","13084","0.0-3.0","HEFI","3","f","rechts","55","{""Q0"":""f"",""Q1"":""rechts""}","","","","",""
"1742","","","survey-text","4","14826","0.0-4.0","HEFI","3","f","rechts","55","{""Q0"":""55""}","","","","",""
"22435","<p>Stell dir vor, dass du vor einem runden Tisch stehst, auf dem sich ein blauer Ball am Tischrand befindet. Entlang des Tischrands ist jeweils ein verschieden langer Pfeil. Nun bleibst du an deinem Platz vor dem Tisch und rotierst den Tisch entlang des Pfeils (gleiche Richtung und Länge). </p> <img src='img/30_180.png'></img> <br><p> Nachdem du diese (vorgestellte) Rotation durchgef&uuml;hrt hast, schau in Richtung der Tischmitte, und entscheide dann, ob der Ball links oder rechts von dir liegt.</p> <p>Dr&uuml;cke die <strong>'f'</strong>-Taste f&uuml;r links, die <strong>'j'</strong>-Taste f&uuml;r rechts.</p><br><p> Das Bild wird jeweils 1 Sekunde lang pr&auml;sentiert. Du hast 3 Sekunden Zeit eine Entscheidung zu treffen.</p>","16","html-keyboard-response","5","37263","0.0-5.0","HEFI","3","f","rechts","55","","","","","",""
"null","<div style=""font-size:60px;"">+</div>","null","html-keyboard-response","6","38667","0.0-6.0-0.0","HEFI","3","f","rechts","55","","fixation","","","",""
"1525","img/90_120.png","70","image-keyboard-response","7","40195","0.0-6.0-1.0","HEFI","3","f","rechts","55","","","object","j","90","false"
"null","<div style=""font-size:60px;"">+</div>","null","html-keyboard-response","8","40696","0.0-6.0-0.1","HEFI","3","f","rechts","55","","fixation","","","",""
"1165","img/90_330.png","74","image-keyboard-response","9","41862","0.0-6.0-1.1","HEFI","3","f","rechts","55","","","object","j","90","true"
"null","<div style=""font-size:60px;"">+</div>","null","html-keyboard-response","10","42264","0.0-6.0-0.2","HEFI","3","f","rechts","55","","fixation","","","",""
"1208","img/30_60.png","74","image-keyboard-response","11","43474","0.0-6.0-1.2","HEFI","3","f","rechts","55","","","object","j","30","true"
"null","<div style=""font-size:60px;"">+</div>","null","html-keyboard-response","12","43876","0.0-6.0-0.3","HEFI","3","f","rechts","55","","fixation","","","",""
"1805","img/30_180.png","74","image-keyboard-response","13","45682","0.0-6.0-1.3","HEFI","3","f","rechts","55","","","object","f","30","false"
"null","<div style=""font-size:60px;"">+</div>","null","html-keyboard-response","14","46083","0.0-6.0-0.4","HEFI","3","f","rechts","55","","fixation","","","",""
"1794","img/120_180.png","74","image-keyboard-response","15","47879","0.0-6.0-1.4","HEFI","3","f","rechts","55","","","object","f","120","false"
"null","<div style=""font-size:60px;"">+</div>","null","html-keyboard-response","16","48280","0.0-6.0-0.5","HEFI","3","f","rechts","55","","fixation","","","",""
"1076","img/120_150.png","70","image-keyboard-response","17","49358","0.0-6.0-1.5","HEFI","3","f","rechts","55","","","object","j","120","false"
"null","<div style=""font-size:60px;"">+</div>","null","html-keyboard-response","18","49810","0.0-6.0-0.6","HEFI","3","f","rechts","55","","fixation","","","",""
"1239","img/30_270.png","74","image-keyboard-response","19","51051","0.0-6.0-1.6","HEFI","3","f","rechts","55","","","object","f","30","false"
"null","<div style=""font-size:60px;"">+</div>","null","html-keyboard-response","20","51401","0.0-6.0-0.7","HEFI","3","f","rechts","55","","fixation","","","",""
"1150","img/120_270.png","74","image-keyboard-response","21","52553","0.0-6.0-1.7","HEFI","3","f","rechts","55","","","object","j","120","true"
"null","<div style=""font-size:60px;"">+</div>","null","html-keyboard-response","22","52954","0.0-6.0-0.8","HEFI","3","f","rechts","55","","fixation","","","",""
"1581","img/90_60.png","70","image-keyboard-response","23","54537","0.0-6.0-1.8","HEFI","3","f","rechts","55","","","object","f","90","true"
"null","<div style=""font-size:60px;"">+</div>","null","html-keyboard-response","24","54989","0.0-6.0-0.9","HEFI","3","f","rechts","55","","fixation","","","",""
"1063","img/30_240.png","74","image-keyboard-response","25","56054","0.0-6.0-1.9","HEFI","3","f","rechts","55","","","object","f","30","false"
"null","<div style=""font-size:60px;"">+</div>","null","html-keyboard-response","26","56555","0.0-6.0-0.10","HEFI","3","f","rechts","55","","fixation","","","",""
"1072","img/0_150.png","74","image-keyboard-response","27","57628","0.0-6.0-1.10","HEFI","3","f","rechts","55","","","object","j","0","true"
"null","<div style=""font-size:60px;"">+</div>","null","html-keyboard-response","28","58029","0.0-6.0-0.11","HEFI","3","f","rechts","55","","fixation","","","",""
"1228","img/L60_180.png","70","image-keyboard-response","29","59259","0.0-6.0-1.11","HEFI","3","f","rechts","55","","","object","j","60","false"
"null","<div style=""font-size:60px;"">+</div>","null","html-keyboard-response","30","59660","0.0-6.0-0.12","HEFI","3","f","rechts","55","","fixation","","","",""
"1685","img/60_90.png","70","image-keyboard-response","31","61347","0.0-6.0-1.12","HEFI","3","f","rechts","55","","","object","j","60","false"
"null","<div style=""font-size:60px;"">+</div>","null","html-keyboard-response","32","61798","0.0-6.0-0.13","HEFI","3","f","rechts","55","","fixation","","","",""
"1092","img/30_120.png","74","image-keyboard-response","33","62893","0.0-6.0-1.13","HEFI","3","f","rechts","55","","","object","j","30","true"
"null","<div style=""font-size:60px;"">+</div>","null","html-keyboard-response","34","63344","0.0-6.0-0.14","HEFI","3","f","rechts","55","","fixation","","","",""
"1116","img/120_30.png","70","image-keyboard-response","35","64463","0.0-6.0-1.14","HEFI","3","f","rechts","55","","","object","f","120","true"
"null","<div style=""font-size:60px;"">+</div>","null","html-keyboard-response","36","64963","0.0-6.0-0.15","HEFI","3","f","rechts","55","","fixation","","","",""
"1080","img/L30_180.png","74","image-keyboard-response","37","66044","0.0-6.0-1.15","HEFI","3","f","rechts","55","","","object","j","30","true"
"null","<div style=""font-size:60px;"">+</div>","null","html-keyboard-response","38","66545","0.0-6.0-0.16","HEFI","3","f","rechts","55","","fixation","","","",""
"1508","img/60_270.png","74","image-keyboard-response","39","68055","0.0-6.0-1.16","HEFI","3","f","rechts","55","","","object","f","60","false"
"null","<div style=""font-size:60px;"">+</div>","null","html-keyboard-response","40","68457","0.0-6.0-0.17","HEFI","3","f","rechts","55","","fixation","","","",""
"1008","img/0_90.png","74","image-keyboard-response","41","69466","0.0-6.0-1.17","HEFI","3","f","rechts","55","","","object","j","0","true"
"null","<div style=""font-size:60px;"">+</div>","null","html-keyboard-response","42","69818","0.0-6.0-0.18","HEFI","3","f","rechts","55","","fixation","","","",""
"1416","img/30_90.png","74","image-keyboard-response","43","71236","0.0-6.0-1.18","HEFI","3","f","rechts","55","","","object","j","30","true"
"null","<div style=""font-size:60px;"">+</div>","null","html-keyboard-response","44","71687","0.0-6.0-0.19","HEFI","3","f","rechts","55","","fixation","","","",""
"847","img/0_330.png","70","image-keyboard-response","45","72537","0.0-6.0-1.19","HEFI","3","f","rechts","55","","","object","f","0","true"
"null","<div style=""font-size:60px;"">+</div>","null","html-keyboard-response","46","72888","0.0-6.0-0.20","HEFI","3","f","rechts","55","","fixation","","","",""
"1171","img/90_300.png","74","image-keyboard-response","47","74061","0.0-6.0-1.20","HEFI","3","f","rechts","55","","","object","j","90","true"
"null","<div style=""font-size:60px;"">+</div>","null","html-keyboard-response","48","74563","0.0-6.0-0.21","HEFI","3","f","rechts","55","","fixation","","","",""
"1644","img/150_270.png","74","image-keyboard-response","49","76209","0.0-6.0-1.21","HEFI","3","f","rechts","55","","","object","j","150","true"
"null","<div style=""font-size:60px;"">+</div>","null","html-keyboard-response","50","76710","0.0-6.0-0.22","HEFI","3","f","rechts","55","","fixation","","","",""
"1231","img/120_210.png","74","image-keyboard-response","51","77942","0.0-6.0-1.22","HEFI","3","f","rechts","55","","","object","f","120","false"
"null","<div style=""font-size:60px;"">+</div>","null","html-keyboard-response","52","78444","0.0-6.0-0.23","HEFI","3","f","rechts","55","","fixation","","","",""
"830","img/0_300.png","70","image-keyboard-response","53","79275","0.0-6.0-1.23","HEFI","3","f","rechts","55","","","object","f","0","true"
"null","<div style=""font-size:60px;"">+</div>","null","html-keyboard-response","54","79576","0.0-6.0-0.24","HEFI","3","f","rechts","55","","fixation","","","",""
"836","img/0_210.png","70","image-keyboard-response","55","80414","0.0-6.0-1.24","HEFI","3","f","rechts","55","","","object","f","0","true"
"null","<div style=""font-size:60px;"">+</div>","null","html-keyboard-response","56","80815","0.0-6.0-0.25","HEFI","3","f","rechts","55","","fixation","","","",""
"666","img/0_270.png","70","image-keyboard-response","57","81482","0.0-6.0-1.25","HEFI","3","f","rechts","55","","","object","f","0","true"
"null","<div style=""font-size:60px;"">+</div>","null","html-keyboard-response","58","81883","0.0-6.0-0.26","HEFI","3","f","rechts","55","","fixation","","","",""
"709","img/0_30.png","74","image-keyboard-response","59","82593","0.0-6.0-1.26","HEFI","3","f","rechts","55","","","object","j","0","true"
"null","<div style=""font-size:60px;"">+</div>","null","html-keyboard-response","60","83044","0.0-6.0-0.27","HEFI","3","f","rechts","55","","fixation","","","",""
"1740","img/60_180.png","70","image-keyboard-response","61","84785","0.0-6.0-1.27","HEFI","3","f","rechts","55","","","object","f","60","true"
"null","<div style=""font-size:60px;"">+</div>","null","html-keyboard-response","62","85087","0.0-6.0-0.28","HEFI","3","f","rechts","55","","fixation","","","",""
"1679","img/L150_180.png","74","image-keyboard-response","63","86767","0.0-6.0-1.28","HEFI","3","f","rechts","55","","","object","j","150","true"
"null","<div style=""font-size:60px;"">+</div>","null","html-keyboard-response","64","87069","0.0-6.0-0.29","HEFI","3","f","rechts","55","","fixation","","","",""
"2147","img/150_120.png","70","image-keyboard-response","65","89218","0.0-6.0-1.29","HEFI","3","f","rechts","55","","","object","f","150","true"
"null","<div style=""font-size:60px;"">+</div>","null","html-keyboard-response","66","89519","0.0-6.0-0.30","HEFI","3","f","rechts","55","","fixation","","","",""
"1849","img/150_180.png","74","image-keyboard-response","67","91370","0.0-6.0-1.30","HEFI","3","f","rechts","55","","","object","f","150","false"
"null","<div style=""font-size:60px;"">+</div>","null","html-keyboard-response","68","91822","0.0-6.0-0.31","HEFI","3","f","rechts","55","","fixation","","","",""
"1397","img/90_240.png","74","image-keyboard-response","69","93220","0.0-6.0-1.31","HEFI","3","f","rechts","55","","","object","f","90","false"
"null","<div style=""font-size:60px;"">+</div>","null","html-keyboard-response","70","93570","0.0-6.0-0.32","HEFI","3","f","rechts","55","","fixation","","","",""
"1369","img/150_300.png","74","image-keyboard-response","71","94940","0.0-6.0-1.32","HEFI","3","f","rechts","55","","","object","j","150","true"
"null","<div style=""font-size:60px;"">+</div>","null","html-keyboard-response","72","95392","0.0-6.0-0.33","HEFI","3","f","rechts","55","","fixation","","","",""
"1652","img/90_30.png","70","image-keyboard-response","73","97045","0.0-6.0-1.33","HEFI","3","f","rechts","55","","","object","f","90","true"
"null","<div style=""font-size:60px;"">+</div>","null","html-keyboard-response","74","97546","0.0-6.0-0.34","HEFI","3","f","rechts","55","","fixation","","","",""
"742","img/0_60.png","74","image-keyboard-response","75","98290","0.0-6.0-1.34","HEFI","3","f","rechts","55","","","object","j","0","true"
"null","<div style=""font-size:60px;"">+</div>","null","html-keyboard-response","76","98642","0.0-6.0-0.35","HEFI","3","f","rechts","55","","fixation","","","",""
"1331","img/30_300.png","74","image-keyboard-response","77","99975","0.0-6.0-1.35","HEFI","3","f","rechts","55","","","object","f","30","false"
"null","<div style=""font-size:60px;"">+</div>","null","html-keyboard-response","78","100477","0.0-6.0-0.36","HEFI","3","f","rechts","55","","fixation","","","",""
"1298","img/120_330.png","74","image-keyboard-response","79","101776","0.0-6.0-1.36","HEFI","3","f","rechts","55","","","object","j","120","true"
"null","<div style=""font-size:60px;"">+</div>","null","html-keyboard-response","80","102278","0.0-6.0-0.37","HEFI","3","f","rechts","55","","fixation","","","",""
"1456","img/90_180.png","74","image-keyboard-response","81","103735","0.0-6.0-1.37","HEFI","3","f","rechts","55","","","object","f","90","false"
"null","<div style=""font-size:60px;"">+</div>","null","html-keyboard-response","82","104037","0.0-6.0-0.38","HEFI","3","f","rechts","55","","fixation","","","",""
"1483","img/60_330.png","74","image-keyboard-response","83","105522","0.0-6.0-1.38","HEFI","3","f","rechts","55","","","object","j","60","true"
"null","<div style=""font-size:60px;"">+</div>","null","html-keyboard-response","84","105873","0.0-6.0-0.39","HEFI","3","f","rechts","55","","fixation","","","",""
"1424","img/120_90.png","70","image-keyboard-response","85","107299","0.0-6.0-1.39","HEFI","3","f","rechts","55","","","object","f","120","true"
"null","<div style=""font-size:60px;"">+</div>","null","html-keyboard-response","86","107801","0.0-6.0-0.40","HEFI","3","f","rechts","55","","fixation","","","",""
"782","img/0_240.png","70","image-keyboard-response","87","108585","0.0-6.0-1.40","HEFI","3","f","rechts","55","","","object","f","0","true"
"null","<div style=""font-size:60px;"">+</div>","null","html-keyboard-response","88","108937","0.0-6.0-0.41","HEFI","3","f","rechts","55","","fixation","","","",""
"1377","img/150_90.png","70","image-keyboard-response","89","110315","0.0-6.0-1.41","HEFI","3","f","rechts","55","","","object","f","150","true"
"null","<div style=""font-size:60px;"">+</div>","null","html-keyboard-response","90","110666","0.0-6.0-0.42","HEFI","3","f","rechts","55","","fixation","","","",""
"1484","img/L120_180.png","74","image-keyboard-response","91","112152","0.0-6.0-1.42","HEFI","3","f","rechts","55","","","object","j","120","true"
"null","<div style=""font-size:60px;"">+</div>","null","html-keyboard-response","92","112553","0.0-6.0-0.43","HEFI","3","f","rechts","55","","fixation","","","",""
"709","img/0_120.png","74","image-keyboard-response","93","113264","0.0-6.0-1.43","HEFI","3","f","rechts","55","","","object","j","0","true"
"null","<div style=""font-size:60px;"">+</div>","null","html-keyboard-response","94","113565","0.0-6.0-0.44","HEFI","3","f","rechts","55","","fixation","","","",""
"846","img/90_150.png","70","image-keyboard-response","95","114412","0.0-6.0-1.44","HEFI","3","f","rechts","55","","","object","j","90","false"
"null","<div style=""font-size:60px;"">+</div>","null","html-keyboard-response","96","114913","0.0-6.0-0.45","HEFI","3","f","rechts","55","","fixation","","","",""
"1119","img/60_150.png","74","image-keyboard-response","97","116034","0.0-6.0-1.45","HEFI","3","f","rechts","55","","","object","j","60","true"
"null","<div style=""font-size:60px;"">+</div>","null","html-keyboard-response","98","116335","0.0-6.0-0.46","HEFI","3","f","rechts","55","","fixation","","","",""
"1341","img/60_30.png","70","image-keyboard-response","99","117677","0.0-6.0-1.46","HEFI","3","f","rechts","55","","","object","f","60","true"
"null","<div style=""font-size:60px;"">+</div>","null","html-keyboard-response","100","118078","0.0-6.0-0.47","HEFI","3","f","rechts","55","","fixation","","","",""
"1265","img/150_60.png","70","image-keyboard-response","101","119344","0.0-6.0-1.47","HEFI","3","f","rechts","55","","","object","f","150","true"
"null","<div style=""font-size:60px;"">+</div>","null","html-keyboard-response","102","119796","0.0-6.0-0.48","HEFI","3","f","rechts","55","","fixation","","","",""
"1919","img/90_210.png","74","image-keyboard-response","103","121717","0.0-6.0-1.48","HEFI","3","f","rechts","55","","","object","f","90","false"
"null","<div style=""font-size:60px;"">+</div>","null","html-keyboard-response","104","122219","0.0-6.0-0.49","HEFI","3","f","rechts","55","","fixation","","","",""
"1805","img/150_240.png","74","image-keyboard-response","105","124026","0.0-6.0-1.49","HEFI","3","f","rechts","55","","","object","j","150","true"
"null","<div style=""font-size:60px;"">+</div>","null","html-keyboard-response","106","124427","0.0-6.0-0.50","HEFI","3","f","rechts","55","","fixation","","","",""
"2598","img/L90_180.png","70","image-keyboard-response","107","127028","0.0-6.0-1.50","HEFI","3","f","rechts","55","","","object","j","90","false"
"null","<div style=""font-size:60px;"">+</div>","null","html-keyboard-response","108","127529","0.0-6.0-0.51","HEFI","3","f","rechts","55","","fixation","","","",""
"1718","img/60_210.png","74","image-keyboard-response","109","129248","0.0-6.0-1.51","HEFI","3","f","rechts","55","","","object","f","60","false"
"null","<div style=""font-size:60px;"">+</div>","null","html-keyboard-response","110","129550","0.0-6.0-0.52","HEFI","3","f","rechts","55","","fixation","","","",""
"1080","img/30_240.png","74","image-keyboard-response","111","130631","0.0-6.0-1.52","HEFI","3","f","rechts","55","","","object","f","30","false"
"null","<div style=""font-size:60px;"">+</div>","null","html-keyboard-response","112","131133","0.0-6.0-0.53","HEFI","3","f","rechts","55","","fixation","","","",""
"829","img/120_30.png","70","image-keyboard-response","113","131963","0.0-6.0-1.53","HEFI","3","f","rechts","55","","","object","f","120","true"
"null","<div style=""font-size:60px;"">+</div>","null","html-keyboard-response","114","132415","0.0-6.0-0.54","HEFI","3","f","rechts","55","","fixation","","","",""
"1441","img/60_210.png","74","image-keyboard-response","115","133856","0.0-6.0-1.54","HEFI","3","f","rechts","55","","","object","f","60","false"
"null","<div style=""font-size:60px;"">+</div>","null","html-keyboard-response","116","134258","0.0-6.0-0.55","HEFI","3","f","rechts","55","","fixation","","","",""
"1776","img/90_210.png","74","image-keyboard-response","117","136035","0.0-6.0-1.55","HEFI","3","f","rechts","55","","","object","f","90","false"
"null","<div style=""font-size:60px;"">+</div>","null","html-keyboard-response","118","136387","0.0-6.0-0.56","HEFI","3","f","rechts","55","","fixation","","","",""
"1445","img/90_330.png","74","image-keyboard-response","119","137833","0.0-6.0-1.56","HEFI","3","f","rechts","55","","","object","j","90","true"
"null","<div style=""font-size:60px;"">+</div>","null","html-keyboard-response","120","138285","0.0-6.0-0.57","HEFI","3","f","rechts","55","","fixation","","","",""
"1381","img/90_300.png","74","image-keyboard-response","121","139667","0.0-6.0-1.57","HEFI","3","f","rechts","55","","","object","j","90","true"
"null","<div style=""font-size:60px;"">+</div>","null","html-keyboard-response","122","140119","0.0-6.0-0.58","HEFI","3","f","rechts","55","","fixation","","","",""
"808","img/0_120.png","74","image-keyboard-response","123","140928","0.0-6.0-1.58","HEFI","3","f","rechts","55","","","object","j","0","true"
"null","<div style=""font-size:60px;"">+</div>","null","html-keyboard-response","124","141380","0.0-6.0-0.59","HEFI","3","f","rechts","55","","fixation","","","",""
"1507","img/150_90.png","70","image-keyboard-response","125","142888","0.0-6.0-1.59","HEFI","3","f","rechts","55","","","object","f","150","true"
"null","<div style=""font-size:60px;"">+</div>","null","html-keyboard-response","126","143390","0.0-6.0-0.60","HEFI","3","f","rechts","55","","fixation","","","",""
"842","img/30_120.png","70","image-keyboard-response","127","144232","0.0-6.0-1.60","HEFI","3","f","rechts","55","","","object","j","30","false"
"null","<div style=""font-size:60px;"">+</div>","null","html-keyboard-response","128","144684","0.0-6.0-0.61","HEFI","3","f","rechts","55","","fixation","","","",""
"1029","img/0_330.png","70","image-keyboard-response","129","145713","0.0-6.0-1.61","HEFI","3","f","rechts","55","","","object","f","0","true"
"null","<div style=""font-size:60px;"">+</div>","null","html-keyboard-response","130","146164","0.0-6.0-0.62","HEFI","3","f","rechts","55","","fixation","","","",""
"926","img/30_270.png","74","image-keyboard-response","131","147091","0.0-6.0-1.62","HEFI","3","f","rechts","55","","","object","f","30","false"
"null","<div style=""font-size:60px;"">+</div>","null","html-keyboard-response","132","147493","0.0-6.0-0.63","HEFI","3","f","rechts","55","","fixation","","","",""
"1502","img/90_30.png","70","image-keyboard-response","133","148995","0.0-6.0-1.63","HEFI","3","f","rechts","55","","","object","f","90","true"
"null","<div style=""font-size:60px;"">+</div>","null","html-keyboard-response","134","149296","0.0-6.0-0.64","HEFI","3","f","rechts","55","","fixation","","","",""
"1335","img/90_60.png","70","image-keyboard-response","135","150632","0.0-6.0-1.64","HEFI","3","f","rechts","55","","","object","f","90","true"
"null","<div style=""font-size:60px;"">+</div>","null","html-keyboard-response","136","151084","0.0-6.0-0.65","HEFI","3","f","rechts","55","","fixation","","","",""
"1607","img/60_270.png","74","image-keyboard-response","137","152692","0.0-6.0-1.65","HEFI","3","f","rechts","55","","","object","f","60","false"
"null","<div style=""font-size:60px;"">+</div>","null","html-keyboard-response","138","153194","0.0-6.0-0.66","HEFI","3","f","rechts","55","","fixation","","","",""
"1121","img/120_330.png","74","image-keyboard-response","139","154316","0.0-6.0-1.66","HEFI","3","f","rechts","55","","","object","j","120","true"
"null","<div style=""font-size:60px;"">+</div>","null","html-keyboard-response","140","154618","0.0-6.0-0.67","HEFI","3","f","rechts","55","","fixation","","","",""
"1658","img/150_270.png","74","image-keyboard-response","141","156277","0.0-6.0-1.67","HEFI","3","f","rechts","55","","","object","j","150","true"
"null","<div style=""font-size:60px;"">+</div>","null","html-keyboard-response","142","156678","0.0-6.0-0.68","HEFI","3","f","rechts","55","","fixation","","","",""
"2331","img/L90_180.png","74","image-keyboard-response","143","159009","0.0-6.0-1.68","HEFI","3","f","rechts","55","","","object","j","90","true"
"null","<div style=""font-size:60px;"">+</div>","null","html-keyboard-response","144","159461","0.0-6.0-0.69","HEFI","3","f","rechts","55","","fixation","","","",""
"1186","img/L30_180.png","74","image-keyboard-response","145","160648","0.0-6.0-1.69","HEFI","3","f","rechts","55","","","object","j","30","true"
"null","<div style=""font-size:60px;"">+</div>","null","html-keyboard-response","146","161100","0.0-6.0-0.70","HEFI","3","f","rechts","55","","fixation","","","",""
"1166","img/30_300.png","70","image-keyboard-response","147","162266","0.0-6.0-1.70","HEFI","3","f","rechts","55","","","object","f","30","true"
"null","<div style=""font-size:60px;"">+</div>","null","html-keyboard-response","148","162567","0.0-6.0-0.71","HEFI","3","f","rechts","55","","fixation","","","",""
"1443","img/60_150.png","74","image-keyboard-response","149","164011","0.0-6.0-1.71","HEFI","3","f","rechts","55","","","object","j","60","true"
"null","<div style=""font-size:60px;"">+</div>","null","html-keyboard-response","150","164413","0.0-6.0-0.72","HEFI","3","f","rechts","55","","fixation","","","",""
"1261","img/0_210.png","70","image-keyboard-response","151","165675","0.0-6.0-1.72","HEFI","3","f","rechts","55","","","object","f","0","true"
"null","<div style=""font-size:60px;"">+</div>","null","html-keyboard-response","152","166077","0.0-6.0-0.73","HEFI","3","f","rechts","55","","fixation","","","",""
"1978","img/150_180.png","70","image-keyboard-response","153","168056","0.0-6.0-1.73","HEFI","3","f","rechts","55","","","object","f","150","true"
"null","<div style=""font-size:60px;"">+</div>","null","html-keyboard-response","154","168358","0.0-6.0-0.74","HEFI","3","f","rechts","55","","fixation","","","",""
"2554","img/150_240.png","74","image-keyboard-response","155","170913","0.0-6.0-1.74","HEFI","3","f","rechts","55","","","object","j","150","true"
"null","<div style=""font-size:60px;"">+</div>","null","html-keyboard-response","156","171364","0.0-6.0-0.75","HEFI","3","f","rechts","55","","fixation","","","",""
"1798","img/120_90.png","70","image-keyboard-response","157","173163","0.0-6.0-1.75","HEFI","3","f","rechts","55","","","object","f","120","true"
"null","<div style=""font-size:60px;"">+</div>","null","html-keyboard-response","158","173564","0.0-6.0-0.76","HEFI","3","f","rechts","55","","fixation","","","",""
"1128","img/60_30.png","70","image-keyboard-response","159","174694","0.0-6.0-1.76","HEFI","3","f","rechts","55","","","object","f","60","true"
"null","<div style=""font-size:60px;"">+</div>","null","html-keyboard-response","160","175194","0.0-6.0-0.77","HEFI","3","f","rechts","55","","fixation","","","",""
"827","img/0_300.png","70","image-keyboard-response","161","176022","0.0-6.0-1.77","HEFI","3","f","rechts","55","","","object","f","0","true"
"null","<div style=""font-size:60px;"">+</div>","null","html-keyboard-response","162","176323","0.0-6.0-0.78","HEFI","3","f","rechts","55","","fixation","","","",""
"879","img/30_90.png","70","image-keyboard-response","163","177204","0.0-6.0-1.78","HEFI","3","f","rechts","55","","","object","j","30","false"
"null","<div style=""font-size:60px;"">+</div>","null","html-keyboard-response","164","177605","0.0-6.0-0.79","HEFI","3","f","rechts","55","","fixation","","","",""
"1264","img/60_330.png","74","image-keyboard-response","165","178870","0.0-6.0-1.79","HEFI","3","f","rechts","55","","","object","j","60","true"
"null","<div style=""font-size:60px;"">+</div>","null","html-keyboard-response","166","179272","0.0-6.0-0.80","HEFI","3","f","rechts","55","","fixation","","","",""
"1321","img/0_150.png","74","image-keyboard-response","167","180595","0.0-6.0-1.80","HEFI","3","f","rechts","55","","","object","j","0","true"
"null","<div style=""font-size:60px;"">+</div>","null","html-keyboard-response","168","181096","0.0-6.0-0.81","HEFI","3","f","rechts","55","","fixation","","","",""
"1353","img/60_90.png","74","image-keyboard-response","169","182450","0.0-6.0-1.81","HEFI","3","f","rechts","55","","","object","j","60","true"
"null","<div style=""font-size:60px;"">+</div>","null","html-keyboard-response","170","182852","0.0-6.0-0.82","HEFI","3","f","rechts","55","","fixation","","","",""
"1224","img/120_150.png","70","image-keyboard-response","171","184076","0.0-6.0-1.82","HEFI","3","f","rechts","55","","","object","j","120","false"
"null","<div style=""font-size:60px;"">+</div>","null","html-keyboard-response","172","184377","0.0-6.0-0.83","HEFI","3","f","rechts","55","","fixation","","","",""
"1737","img/120_180.png","74","image-keyboard-response","173","186115","0.0-6.0-1.83","HEFI","3","f","rechts","55","","","object","f","120","false"
"null","<div style=""font-size:60px;"">+</div>","null","html-keyboard-response","174","186617","0.0-6.0-0.84","HEFI","3","f","rechts","55","","fixation","","","",""
"1027","img/0_240.png","70","image-keyboard-response","175","187645","0.0-6.0-1.84","HEFI","3","f","rechts","55","","","object","f","0","true"
"null","<div style=""font-size:60px;"">+</div>","null","html-keyboard-response","176","188097","0.0-6.0-0.85","HEFI","3","f","rechts","55","","fixation","","","",""
"1255","img/150_120.png","70","image-keyboard-response","177","189353","0.0-6.0-1.85","HEFI","3","f","rechts","55","","","object","f","150","true"
"null","<div style=""font-size:60px;"">+</div>","null","html-keyboard-response","178","189804","0.0-6.0-0.86","HEFI","3","f","rechts","55","","fixation","","","",""
"1266","img/L120_180.png","70","image-keyboard-response","179","191071","0.0-6.0-1.86","HEFI","3","f","rechts","55","","","object","j","120","false"
"null","<div style=""font-size:60px;"">+</div>","null","html-keyboard-response","180","191472","0.0-6.0-0.87","HEFI","3","f","rechts","55","","fixation","","","",""
"1556","img/150_300.png","74","image-keyboard-response","181","193029","0.0-6.0-1.87","HEFI","3","f","rechts","55","","","object","j","150","true"
"null","<div style=""font-size:60px;"">+</div>","null","html-keyboard-response","182","193381","0.0-6.0-0.88","HEFI","3","f","rechts","55","","fixation","","","",""
"2101","img/150_60.png","70","image-keyboard-response","183","195482","0.0-6.0-1.88","HEFI","3","f","rechts","55","","","object","f","150","true"
"null","<div style=""font-size:60px;"">+</div>","null","html-keyboard-response","184","195883","0.0-6.0-0.89","HEFI","3","f","rechts","55","","fixation","","","",""
"2030","img/90_180.png","74","image-keyboard-response","185","197914","0.0-6.0-1.89","HEFI","3","f","rechts","55","","","object","f","90","false"
"null","<div style=""font-size:60px;"">+</div>","null","html-keyboard-response","186","198416","0.0-6.0-0.90","HEFI","3","f","rechts","55","","fixation","","","",""
"1420","img/L150_180.png","74","image-keyboard-response","187","199836","0.0-6.0-1.90","HEFI","3","f","rechts","55","","","object","j","150","true"
"null","<div style=""font-size:60px;"">+</div>","null","html-keyboard-response","188","200237","0.0-6.0-0.91","HEFI","3","f","rechts","55","","fixation","","","",""
"1470","img/120_270.png","74","image-keyboard-response","189","201708","0.0-6.0-1.91","HEFI","3","f","rechts","55","","","object","j","120","true"
"null","<div style=""font-size:60px;"">+</div>","null","html-keyboard-response","190","202009","0.0-6.0-0.92","HEFI","3","f","rechts","55","","fixation","","","",""
"1759","img/L60_180.png","74","image-keyboard-response","191","203769","0.0-6.0-1.92","HEFI","3","f","rechts","55","","","object","j","60","true"
"null","<div style=""font-size:60px;"">+</div>","null","html-keyboard-response","192","204121","0.0-6.0-0.93","HEFI","3","f","rechts","55","","fixation","","","",""
"845","img/0_60.png","74","image-keyboard-response","193","204967","0.0-6.0-1.93","HEFI","3","f","rechts","55","","","object","j","0","true"
"null","<div style=""font-size:60px;"">+</div>","null","html-keyboard-response","194","205268","0.0-6.0-0.94","HEFI","3","f","rechts","55","","fixation","","","",""
"1156","img/30_60.png","74","image-keyboard-response","195","206425","0.0-6.0-1.94","HEFI","3","f","rechts","55","","","object","j","30","true"
"null","<div style=""font-size:60px;"">+</div>","null","html-keyboard-response","196","206775","0.0-6.0-0.95","HEFI","3","f","rechts","55","","fixation","","","",""
"1575","img/30_180.png","70","image-keyboard-response","197","208351","0.0-6.0-1.95","HEFI","3","f","rechts","55","","","object","f","30","true"
"null","<div style=""font-size:60px;"">+</div>","null","html-keyboard-response","198","208802","0.0-6.0-0.96","HEFI","3","f","rechts","55","","fixation","","","",""
"1573","img/120_210.png","70","image-keyboard-response","199","210376","0.0-6.0-1.96","HEFI","3","f","rechts","55","","","object","f","120","true"
"null","<div style=""font-size:60px;"">+</div>","null","html-keyboard-response","200","210777","0.0-6.0-0.97","HEFI","3","f","rechts","55","","fixation","","","",""
"1599","img/90_150.png","74","image-keyboard-response","201","212377","0.0-6.0-1.97","HEFI","3","f","rechts","55","","","object","j","90","true"
"null","<div style=""font-size:60px;"">+</div>","null","html-keyboard-response","202","212778","0.0-6.0-0.98","HEFI","3","f","rechts","55","","fixation","","","",""
"862","img/0_90.png","74","image-keyboard-response","203","213640","0.0-6.0-1.98","HEFI","3","f","rechts","55","","","object","j","0","true"
"null","<div style=""font-size:60px;"">+</div>","null","html-keyboard-response","204","214041","0.0-6.0-0.99","HEFI","3","f","rechts","55","","fixation","","","",""
"1352","img/90_120.png","70","image-keyboard-response","205","215394","0.0-6.0-1.99","HEFI","3","f","rechts","55","","","object","j","90","false"
"null","<div style=""font-size:60px;"">+</div>","null","html-keyboard-response","206","215745","0.0-6.0-0.100","HEFI","3","f","rechts","55","","fixation","","","",""
"712","img/0_30.png","74","image-keyboard-response","207","216458","0.0-6.0-1.100","HEFI","3","f","rechts","55","","","object","j","0","true"
"null","<div style=""font-size:60px;"">+</div>","null","html-keyboard-response","208","216910","0.0-6.0-0.101","HEFI","3","f","rechts","55","","fixation","","","",""
"1054","img/90_240.png","70","image-keyboard-response","209","217965","0.0-6.0-1.101","HEFI","3","f","rechts","55","","","object","f","90","true"
"null","<div style=""font-size:60px;"">+</div>","null","html-keyboard-response","210","218466","0.0-6.0-0.102","HEFI","3","f","rechts","55","","fixation","","","",""
"966","img/60_180.png","70","image-keyboard-response","211","219433","0.0-6.0-1.102","HEFI","3","f","rechts","55","","","object","f","60","true"
"null","<div style=""font-size:60px;"">+</div>","null","html-keyboard-response","212","219784","0.0-6.0-0.103","HEFI","3","f","rechts","55","","fixation","","","",""
"897","img/0_270.png","70","image-keyboard-response","213","220682","0.0-6.0-1.103","HEFI","3","f","rechts","55","","","object","f","0","true"
"null","<div style=""font-size:60px;"">+</div>","null","html-keyboard-response","214","221134","0.0-6.0-0.104","HEFI","3","f","rechts","55","","fixation","","","",""
"1334","img/30_180.png","70","image-keyboard-response","215","222470","0.0-6.0-1.104","HEFI","3","f","rechts","55","","","object","f","30","true"
"null","<div style=""font-size:60px;"">+</div>","null","html-keyboard-response","216","222771","0.0-6.0-0.105","HEFI","3","f","rechts","55","","fixation","","","",""
"1485","img/150_90.png","70","image-keyboard-response","217","224258","0.0-6.0-1.105","HEFI","3","f","rechts","55","","","object","f","150","true"
"null","<div style=""font-size:60px;"">+</div>","null","html-keyboard-response","218","224760","0.0-6.0-0.106","HEFI","3","f","rechts","55","","fixation","","","",""
"1365","img/120_150.png","70","image-keyboard-response","219","226125","0.0-6.0-1.106","HEFI","3","f","rechts","55","","","object","j","120","false"
"null","<div style=""font-size:60px;"">+</div>","null","html-keyboard-response","220","226576","0.0-6.0-0.107","HEFI","3","f","rechts","55","","fixation","","","",""
"902","img/0_120.png","74","image-keyboard-response","221","227479","0.0-6.0-1.107","HEFI","3","f","rechts","55","","","object","j","0","true"
"null","<div style=""font-size:60px;"">+</div>","null","html-keyboard-response","222","227880","0.0-6.0-0.108","HEFI","3","f","rechts","55","","fixation","","","",""
"1474","img/90_30.png","70","image-keyboard-response","223","229356","0.0-6.0-1.108","HEFI","3","f","rechts","55","","","object","f","90","true"
"null","<div style=""font-size:60px;"">+</div>","null","html-keyboard-response","224","229707","0.0-6.0-0.109","HEFI","3","f","rechts","55","","fixation","","","",""
"972","img/0_270.png","70","image-keyboard-response","225","230681","0.0-6.0-1.109","HEFI","3","f","rechts","55","","","object","f","0","true"
"null","<div style=""font-size:60px;"">+</div>","null","html-keyboard-response","226","231133","0.0-6.0-0.110","HEFI","3","f","rechts","55","","fixation","","","",""
"1431","img/L120_180.png","74","image-keyboard-response","227","232564","0.0-6.0-1.110","HEFI","3","f","rechts","55","","","object","j","120","true"
"null","<div style=""font-size:60px;"">+</div>","null","html-keyboard-response","228","232966","0.0-6.0-0.111","HEFI","3","f","rechts","55","","fixation","","","",""
"1217","img/60_180.png","70","image-keyboard-response","229","234184","0.0-6.0-1.111","HEFI","3","f","rechts","55","","","object","f","60","true"
"null","<div style=""font-size:60px;"">+</div>","null","html-keyboard-response","230","234636","0.0-6.0-0.112","HEFI","3","f","rechts","55","","fixation","","","",""
"1522","img/90_150.png","74","image-keyboard-response","231","236158","0.0-6.0-1.112","HEFI","3","f","rechts","55","","","object","j","90","true"
"null","<div style=""font-size:60px;"">+</div>","null","html-keyboard-response","232","236460","0.0-6.0-0.113","HEFI","3","f","rechts","55","","fixation","","","",""
"1882","img/150_300.png","74","image-keyboard-response","233","238343","0.0-6.0-1.113","HEFI","3","f","rechts","55","","","object","j","150","true"
"null","<div style=""font-size:60px;"">+</div>","null","html-keyboard-response","234","238694","0.0-6.0-0.114","HEFI","3","f","rechts","55","","fixation","","","",""
"784","img/0_30.png","74","image-keyboard-response","235","239479","0.0-6.0-1.114","HEFI","3","f","rechts","55","","","object","j","0","true"
"null","<div style=""font-size:60px;"">+</div>","null","html-keyboard-response","236","239881","0.0-6.0-0.115","HEFI","3","f","rechts","55","","fixation","","","",""
"966","img/0_330.png","70","image-keyboard-response","237","240847","0.0-6.0-1.115","HEFI","3","f","rechts","55","","","object","f","0","true"
"null","<div style=""font-size:60px;"">+</div>","null","html-keyboard-response","238","241349","0.0-6.0-0.116","HEFI","3","f","rechts","55","","fixation","","","",""
"1066","img/30_60.png","70","image-keyboard-response","239","242415","0.0-6.0-1.116","HEFI","3","f","rechts","55","","","object","j","30","false"
"null","<div style=""font-size:60px;"">+</div>","null","html-keyboard-response","240","242867","0.0-6.0-0.117","HEFI","3","f","rechts","55","","fixation","","","",""
"970","img/60_90.png","70","image-keyboard-response","241","243838","0.0-6.0-1.117","HEFI","3","f","rechts","55","","","object","j","60","false"
"null","<div style=""font-size:60px;"">+</div>","null","html-keyboard-response","242","244340","0.0-6.0-0.118","HEFI","3","f","rechts","55","","fixation","","","",""
"920","img/L150_180.png","74","image-keyboard-response","243","245260","0.0-6.0-1.118","HEFI","3","f","rechts","55","","","object","j","150","true"
"null","<div style=""font-size:60px;"">+</div>","null","html-keyboard-response","244","245612","0.0-6.0-0.119","HEFI","3","f","rechts","55","","fixation","","","",""
"1385","img/150_180.png","70","image-keyboard-response","245","246997","0.0-6.0-1.119","HEFI","3","f","rechts","55","","","object","f","150","true"
"null","<div style=""font-size:60px;"">+</div>","null","html-keyboard-response","246","247498","0.0-6.0-0.120","HEFI","3","f","rechts","55","","fixation","","","",""
"741","img/0_300.png","70","image-keyboard-response","247","248240","0.0-6.0-1.120","HEFI","3","f","rechts","55","","","object","f","0","true"
"null","<div style=""font-size:60px;"">+</div>","null","html-keyboard-response","248","248542","0.0-6.0-0.121","HEFI","3","f","rechts","55","","fixation","","","",""
"745","img/0_210.png","70","image-keyboard-response","249","249287","0.0-6.0-1.121","HEFI","3","f","rechts","55","","","object","f","0","true"
"null","<div style=""font-size:60px;"">+</div>","null","html-keyboard-response","250","249689","0.0-6.0-0.122","HEFI","3","f","rechts","55","","fixation","","","",""
"1187","img/90_240.png","74","image-keyboard-response","251","250876","0.0-6.0-1.122","HEFI","3","f","rechts","55","","","object","f","90","false"
"null","<div style=""font-size:60px;"">+</div>","null","html-keyboard-response","252","251378","0.0-6.0-0.123","HEFI","3","f","rechts","55","","fixation","","","",""
"821","img/30_90.png","70","image-keyboard-response","253","252200","0.0-6.0-1.123","HEFI","3","f","rechts","55","","","object","j","30","false"
"null","<div style=""font-size:60px;"">+</div>","null","html-keyboard-response","254","252552","0.0-6.0-0.124","HEFI","3","f","rechts","55","","fixation","","","",""
"1224","img/L60_180.png","70","image-keyboard-response","255","253777","0.0-6.0-1.124","HEFI","3","f","rechts","55","","","object","j","60","false"
"null","<div style=""font-size:60px;"">+</div>","null","html-keyboard-response","256","254078","0.0-6.0-0.125","HEFI","3","f","rechts","55","","fixation","","","",""
"1396","img/L90_180.png","70","image-keyboard-response","257","255474","0.0-6.0-1.125","HEFI","3","f","rechts","55","","","object","j","90","false"
"null","<div style=""font-size:60px;"">+</div>","null","html-keyboard-response","258","255775","0.0-6.0-0.126","HEFI","3","f","rechts","55","","fixation","","","",""
"1332","img/90_330.png","74","image-keyboard-response","259","257107","0.0-6.0-1.126","HEFI","3","f","rechts","55","","","object","j","90","true"
"null","<div style=""font-size:60px;"">+</div>","null","html-keyboard-response","260","257609","0.0-6.0-0.127","HEFI","3","f","rechts","55","","fixation","","","",""
"677","img/60_330.png","74","image-keyboard-response","261","258287","0.0-6.0-1.127","HEFI","3","f","rechts","55","","","object","j","60","true"
"null","<div style=""font-size:60px;"">+</div>","null","html-keyboard-response","262","258738","0.0-6.0-0.128","HEFI","3","f","rechts","55","","fixation","","","",""
"1420","img/150_240.png","70","image-keyboard-response","263","260159","0.0-6.0-1.128","HEFI","3","f","rechts","55","","","object","j","150","false"
"null","<div style=""font-size:60px;"">+</div>","null","html-keyboard-response","264","260611","0.0-6.0-0.129","HEFI","3","f","rechts","55","","fixation","","","",""
"1632","img/30_120.png","70","image-keyboard-response","265","262244","0.0-6.0-1.129","HEFI","3","f","rechts","55","","","object","j","30","false"
"null","<div style=""font-size:60px;"">+</div>","null","html-keyboard-response","266","262596","0.0-6.0-0.130","HEFI","3","f","rechts","55","","fixation","","","",""
"1111","img/90_300.png","74","image-keyboard-response","267","263709","0.0-6.0-1.130","HEFI","3","f","rechts","55","","","object","j","90","true"
"null","<div style=""font-size:60px;"">+</div>","null","html-keyboard-response","268","264011","0.0-6.0-0.131","HEFI","3","f","rechts","55","","fixation","","","",""
"1195","img/30_240.png","70","image-keyboard-response","269","265206","0.0-6.0-1.131","HEFI","3","f","rechts","55","","","object","f","30","true"
"null","<div style=""font-size:60px;"">+</div>","null","html-keyboard-response","270","265608","0.0-6.0-0.132","HEFI","3","f","rechts","55","","fixation","","","",""
"1694","img/150_120.png","70","image-keyboard-response","271","267303","0.0-6.0-1.132","HEFI","3","f","rechts","55","","","object","f","150","true"
"null","<div style=""font-size:60px;"">+</div>","null","html-keyboard-response","272","267755","0.0-6.0-0.133","HEFI","3","f","rechts","55","","fixation","","","",""
"1677","img/60_210.png","70","image-keyboard-response","273","269433","0.0-6.0-1.133","HEFI","3","f","rechts","55","","","object","f","60","true"
"null","<div style=""font-size:60px;"">+</div>","null","html-keyboard-response","274","269934","0.0-6.0-0.134","HEFI","3","f","rechts","55","","fixation","","","",""
"1072","img/30_270.png","70","image-keyboard-response","275","271008","0.0-6.0-1.134","HEFI","3","f","rechts","55","","","object","f","30","true"
"null","<div style=""font-size:60px;"">+</div>","null","html-keyboard-response","276","271459","0.0-6.0-0.135","HEFI","3","f","rechts","55","","fixation","","","",""
"1320","img/120_210.png","74","image-keyboard-response","277","272780","0.0-6.0-1.135","HEFI","3","f","rechts","55","","","object","f","120","false"
"null","<div style=""font-size:60px;"">+</div>","null","html-keyboard-response","278","273231","0.0-6.0-0.136","HEFI","3","f","rechts","55","","fixation","","","",""
"1791","img/60_150.png","74","image-keyboard-response","279","275023","0.0-6.0-1.136","HEFI","3","f","rechts","55","","","object","j","60","true"
"null","<div style=""font-size:60px;"">+</div>","null","html-keyboard-response","280","275423","0.0-6.0-0.137","HEFI","3","f","rechts","55","","fixation","","","",""
"1571","img/120_180.png","70","image-keyboard-response","281","276996","0.0-6.0-1.137","HEFI","3","f","rechts","55","","","object","f","120","true"
"null","<div style=""font-size:60px;"">+</div>","null","html-keyboard-response","282","277498","0.0-6.0-0.138","HEFI","3","f","rechts","55","","fixation","","","",""
"1784","img/120_90.png","70","image-keyboard-response","283","279283","0.0-6.0-1.138","HEFI","3","f","rechts","55","","","object","f","120","true"
"null","<div style=""font-size:60px;"">+</div>","null","html-keyboard-response","284","279635","0.0-6.0-0.139","HEFI","3","f","rechts","55","","fixation","","","",""
"1236","img/60_270.png","74","image-keyboard-response","285","280872","0.0-6.0-1.139","HEFI","3","f","rechts","55","","","object","f","60","false"
"null","<div style=""font-size:60px;"">+</div>","null","html-keyboard-response","286","281323","0.0-6.0-0.140","HEFI","3","f","rechts","55","","fixation","","","",""
"1574","img/120_30.png","70","image-keyboard-response","287","282898","0.0-6.0-1.140","HEFI","3","f","rechts","55","","","object","f","120","true"
"null","<div style=""font-size:60px;"">+</div>","null","html-keyboard-response","288","283199","0.0-6.0-0.141","HEFI","3","f","rechts","55","","fixation","","","",""
"774","img/0_90.png","74","image-keyboard-response","289","283974","0.0-6.0-1.141","HEFI","3","f","rechts","55","","","object","j","0","true"
"null","<div style=""font-size:60px;"">+</div>","null","html-keyboard-response","290","284376","0.0-6.0-0.142","HEFI","3","f","rechts","55","","fixation","","","",""
"736","img/0_150.png","74","image-keyboard-response","291","285113","0.0-6.0-1.142","HEFI","3","f","rechts","55","","","object","j","0","true"
"null","<div style=""font-size:60px;"">+</div>","null","html-keyboard-response","292","285565","0.0-6.0-0.143","HEFI","3","f","rechts","55","","fixation","","","",""
"1662","img/90_210.png","74","image-keyboard-response","293","287228","0.0-6.0-1.143","HEFI","3","f","rechts","55","","","object","f","90","false"
"null","<div style=""font-size:60px;"">+</div>","null","html-keyboard-response","294","287729","0.0-6.0-0.144","HEFI","3","f","rechts","55","","fixation","","","",""
"1231","img/150_270.png","74","image-keyboard-response","295","288960","0.0-6.0-1.144","HEFI","3","f","rechts","55","","","object","j","150","true"
"null","<div style=""font-size:60px;"">+</div>","null","html-keyboard-response","296","289261","0.0-6.0-0.145","HEFI","3","f","rechts","55","","fixation","","","",""
"981","img/120_270.png","74","image-keyboard-response","297","290242","0.0-6.0-1.145","HEFI","3","f","rechts","55","","","object","j","120","true"
"null","<div style=""font-size:60px;"">+</div>","null","html-keyboard-response","298","290644","0.0-6.0-0.146","HEFI","3","f","rechts","55","","fixation","","","",""
"1925","img/L30_180.png","74","image-keyboard-response","299","292570","0.0-6.0-1.146","HEFI","3","f","rechts","55","","","object","j","30","true"
"null","<div style=""font-size:60px;"">+</div>","null","html-keyboard-response","300","292921","0.0-6.0-0.147","HEFI","3","f","rechts","55","","fixation","","","",""
"1354","img/150_60.png","70","image-keyboard-response","301","294276","0.0-6.0-1.147","HEFI","3","f","rechts","55","","","object","f","150","true"
"null","<div style=""font-size:60px;"">+</div>","null","html-keyboard-response","302","294777","0.0-6.0-0.148","HEFI","3","f","rechts","55","","fixation","","","",""
"694","img/0_240.png","70","image-keyboard-response","303","295472","0.0-6.0-1.148","HEFI","3","f","rechts","55","","","object","f","0","true"
"null","<div style=""font-size:60px;"">+</div>","null","html-keyboard-response","304","295823","0.0-6.0-0.149","HEFI","3","f","rechts","55","","fixation","","","",""
"1011","img/60_30.png","70","image-keyboard-response","305","296836","0.0-6.0-1.149","HEFI","3","f","rechts","55","","","object","f","60","true"
"null","<div style=""font-size:60px;"">+</div>","null","html-keyboard-response","306","297188","0.0-6.0-0.150","HEFI","3","f","rechts","55","","fixation","","","",""
"1550","img/90_60.png","70","image-keyboard-response","307","298740","0.0-6.0-1.150","HEFI","3","f","rechts","55","","","object","f","90","true"
"null","<div style=""font-size:60px;"">+</div>","null","html-keyboard-response","308","299241","0.0-6.0-0.151","HEFI","3","f","rechts","55","","fixation","","","",""
"1340","img/90_120.png","70","image-keyboard-response","309","300581","0.0-6.0-1.151","HEFI","3","f","rechts","55","","","object","j","90","false"
"null","<div style=""font-size:60px;"">+</div>","null","html-keyboard-response","310","301083","0.0-6.0-0.152","HEFI","3","f","rechts","55","","fixation","","","",""
"716","img/0_60.png","74","image-keyboard-response","311","301799","0.0-6.0-1.152","HEFI","3","f","rechts","55","","","object","j","0","true"
"null","<div style=""font-size:60px;"">+</div>","null","html-keyboard-response","312","302151","0.0-6.0-0.153","HEFI","3","f","rechts","55","","fixation","","","",""
"1062","img/90_180.png","70","image-keyboard-response","313","303213","0.0-6.0-1.153","HEFI","3","f","rechts","55","","","object","f","90","true"
"null","<div style=""font-size:60px;"">+</div>","null","html-keyboard-response","314","303565","0.0-6.0-0.154","HEFI","3","f","rechts","55","","fixation","","","",""
"1057","img/30_300.png","74","image-keyboard-response","315","304622","0.0-6.0-1.154","HEFI","3","f","rechts","55","","","object","f","30","false"
"null","<div style=""font-size:60px;"">+</div>","null","html-keyboard-response","316","305074","0.0-6.0-0.155","HEFI","3","f","rechts","55","","fixation","","","",""
"1831","img/120_330.png","74","image-keyboard-response","317","306905","0.0-6.0-1.155","HEFI","3","f","rechts","55","","","object","j","120","true"
"null","<div style=""font-size:60px;"">+</div>","null","html-keyboard-response","318","307256","0.0-6.0-0.156","HEFI","3","f","rechts","55","","fixation","","","",""
"1145","img/90_240.png","74","image-keyboard-response","319","308401","0.0-6.0-1.156","HEFI","3","f","rechts","55","","","object","f","90","false"
"null","<div style=""font-size:60px;"">+</div>","null","html-keyboard-response","320","308853","0.0-6.0-0.157","HEFI","3","f","rechts","55","","fixation","","","",""
"890","img/120_330.png","74","image-keyboard-response","321","309745","0.0-6.0-1.157","HEFI","3","f","rechts","55","","","object","j","120","true"
"null","<div style=""font-size:60px;"">+</div>","null","html-keyboard-response","322","310196","0.0-6.0-0.158","HEFI","3","f","rechts","55","","fixation","","","",""
"1309","img/150_90.png","70","image-keyboard-response","323","311507","0.0-6.0-1.158","HEFI","3","f","rechts","55","","","object","f","150","true"
"null","<div style=""font-size:60px;"">+</div>","null","html-keyboard-response","324","311807","0.0-6.0-0.159","HEFI","3","f","rechts","55","","fixation","","","",""
"947","img/0_150.png","74","image-keyboard-response","325","312755","0.0-6.0-1.159","HEFI","3","f","rechts","55","","","object","j","0","true"
"null","<div style=""font-size:60px;"">+</div>","null","html-keyboard-response","326","313057","0.0-6.0-0.160","HEFI","3","f","rechts","55","","fixation","","","",""
"1968","img/150_300.png","74","image-keyboard-response","327","315025","0.0-6.0-1.160","HEFI","3","f","rechts","55","","","object","j","150","true"
"null","<div style=""font-size:60px;"">+</div>","null","html-keyboard-response","328","315427","0.0-6.0-0.161","HEFI","3","f","rechts","55","","fixation","","","",""
"1311","img/90_150.png","74","image-keyboard-response","329","316738","0.0-6.0-1.161","HEFI","3","f","rechts","55","","","object","j","90","true"
"null","<div style=""font-size:60px;"">+</div>","null","html-keyboard-response","330","317240","0.0-6.0-0.162","HEFI","3","f","rechts","55","","fixation","","","",""
"1145","img/120_150.png","70","image-keyboard-response","331","318385","0.0-6.0-1.162","HEFI","3","f","rechts","55","","","object","j","120","false"
"null","<div style=""font-size:60px;"">+</div>","null","html-keyboard-response","332","318787","0.0-6.0-0.163","HEFI","3","f","rechts","55","","fixation","","","",""
"716","img/0_120.png","74","image-keyboard-response","333","319504","0.0-6.0-1.163","HEFI","3","f","rechts","55","","","object","j","0","true"
"null","<div style=""font-size:60px;"">+</div>","null","html-keyboard-response","334","320006","0.0-6.0-0.164","HEFI","3","f","rechts","55","","fixation","","","",""
"1371","img/60_180.png","74","image-keyboard-response","335","321378","0.0-6.0-1.164","HEFI","3","f","rechts","55","","","object","f","60","false"
"null","<div style=""font-size:60px;"">+</div>","null","html-keyboard-response","336","321680","0.0-6.0-0.165","HEFI","3","f","rechts","55","","fixation","","","",""
"1287","img/30_90.png","70","image-keyboard-response","337","322967","0.0-6.0-1.165","HEFI","3","f","rechts","55","","","object","j","30","false"
"null","<div style=""font-size:60px;"">+</div>","null","html-keyboard-response","338","323319","0.0-6.0-0.166","HEFI","3","f","rechts","55","","fixation","","","",""
"1064","img/L120_180.png","74","image-keyboard-response","339","324385","0.0-6.0-1.166","HEFI","3","f","rechts","55","","","object","j","120","true"
"null","<div style=""font-size:60px;"">+</div>","null","html-keyboard-response","340","324886","0.0-6.0-0.167","HEFI","3","f","rechts","55","","fixation","","","",""
"769","img/0_270.png","70","image-keyboard-response","341","325656","0.0-6.0-1.167","HEFI","3","f","rechts","55","","","object","f","0","true"
"null","<div style=""font-size:60px;"">+</div>","null","html-keyboard-response","342","325957","0.0-6.0-0.168","HEFI","3","f","rechts","55","","fixation","","","",""
"1087","img/60_270.png","74","image-keyboard-response","343","327045","0.0-6.0-1.168","HEFI","3","f","rechts","55","","","object","f","60","false"
"null","<div style=""font-size:60px;"">+</div>","null","html-keyboard-response","344","327447","0.0-6.0-0.169","HEFI","3","f","rechts","55","","fixation","","","",""
"849","img/0_60.png","74","image-keyboard-response","345","328298","0.0-6.0-1.169","HEFI","3","f","rechts","55","","","object","j","0","true"
"null","<div style=""font-size:60px;"">+</div>","null","html-keyboard-response","346","328699","0.0-6.0-0.170","HEFI","3","f","rechts","55","","fixation","","","",""
"1304","img/L150_180.png","74","image-keyboard-response","347","330004","0.0-6.0-1.170","HEFI","3","f","rechts","55","","","object","j","150","true"
"null","<div style=""font-size:60px;"">+</div>","null","html-keyboard-response","348","330506","0.0-6.0-0.171","HEFI","3","f","rechts","55","","fixation","","","",""
"1075","img/120_210.png","70","image-keyboard-response","349","331582","0.0-6.0-1.171","HEFI","3","f","rechts","55","","","object","f","120","true"
"null","<div style=""font-size:60px;"">+</div>","null","html-keyboard-response","350","332034","0.0-6.0-0.172","HEFI","3","f","rechts","55","","fixation","","","",""
"1304","img/90_300.png","74","image-keyboard-response","351","333338","0.0-6.0-1.172","HEFI","3","f","rechts","55","","","object","j","90","true"
"null","<div style=""font-size:60px;"">+</div>","null","html-keyboard-response","352","333640","0.0-6.0-0.173","HEFI","3","f","rechts","55","","fixation","","","",""
"1781","img/120_30.png","70","image-keyboard-response","353","335422","0.0-6.0-1.173","HEFI","3","f","rechts","55","","","object","f","120","true"
"null","<div style=""font-size:60px;"">+</div>","null","html-keyboard-response","354","335724","0.0-6.0-0.174","HEFI","3","f","rechts","55","","fixation","","","",""
"790","img/0_240.png","70","image-keyboard-response","355","336514","0.0-6.0-1.174","HEFI","3","f","rechts","55","","","object","f","0","true"
"null","<div style=""font-size:60px;"">+</div>","null","html-keyboard-response","356","336865","0.0-6.0-0.175","HEFI","3","f","rechts","55","","fixation","","","",""
"1287","img/150_60.png","74","image-keyboard-response","357","338152","0.0-6.0-1.175","HEFI","3","f","rechts","55","","","object","f","150","false"
"null","<div style=""font-size:60px;"">+</div>","null","html-keyboard-response","358","338603","0.0-6.0-0.176","HEFI","3","f","rechts","55","","fixation","","","",""
"1064","img/60_30.png","70","image-keyboard-response","359","339667","0.0-6.0-1.176","HEFI","3","f","rechts","55","","","object","f","60","true"
"null","<div style=""font-size:60px;"">+</div>","null","html-keyboard-response","360","339969","0.0-6.0-0.177","HEFI","3","f","rechts","55","","fixation","","","",""
"1313","img/60_150.png","70","image-keyboard-response","361","341283","0.0-6.0-1.177","HEFI","3","f","rechts","55","","","object","j","60","false"
"null","<div style=""font-size:60px;"">+</div>","null","html-keyboard-response","362","341733","0.0-6.0-0.178","HEFI","3","f","rechts","55","","fixation","","","",""
"1091","img/90_120.png","74","image-keyboard-response","363","342825","0.0-6.0-1.178","HEFI","3","f","rechts","55","","","object","j","90","true"
"null","<div style=""font-size:60px;"">+</div>","null","html-keyboard-response","364","343327","0.0-6.0-0.179","HEFI","3","f","rechts","55","","fixation","","","",""
"1748","img/90_210.png","74","image-keyboard-response","365","345077","0.0-6.0-1.179","HEFI","3","f","rechts","55","","","object","f","90","false"
"null","<div style=""font-size:60px;"">+</div>","null","html-keyboard-response","366","345578","0.0-6.0-0.180","HEFI","3","f","rechts","55","","fixation","","","",""
"844","img/0_330.png","70","image-keyboard-response","367","346423","0.0-6.0-1.180","HEFI","3","f","rechts","55","","","object","f","0","true"
"null","<div style=""font-size:60px;"">+</div>","null","html-keyboard-response","368","346925","0.0-6.0-0.181","HEFI","3","f","rechts","55","","fixation","","","",""
"976","img/30_300.png","74","image-keyboard-response","369","347902","0.0-6.0-1.181","HEFI","3","f","rechts","55","","","object","f","30","false"
"null","<div style=""font-size:60px;"">+</div>","null","html-keyboard-response","370","348304","0.0-6.0-0.182","HEFI","3","f","rechts","55","","fixation","","","",""
"1068","img/60_330.png","74","image-keyboard-response","371","349372","0.0-6.0-1.182","HEFI","3","f","rechts","55","","","object","j","60","true"
"null","<div style=""font-size:60px;"">+</div>","null","html-keyboard-response","372","349823","0.0-6.0-0.183","HEFI","3","f","rechts","55","","fixation","","","",""
"2138","img/150_180.png","70","image-keyboard-response","373","351962","0.0-6.0-1.183","HEFI","3","f","rechts","55","","","object","f","150","true"
"null","<div style=""font-size:60px;"">+</div>","null","html-keyboard-response","374","352314","0.0-6.0-0.184","HEFI","3","f","rechts","55","","fixation","","","",""
"877","img/0_90.png","74","image-keyboard-response","375","353191","0.0-6.0-1.184","HEFI","3","f","rechts","55","","","object","j","0","true"
"null","<div style=""font-size:60px;"">+</div>","null","html-keyboard-response","376","353692","0.0-6.0-0.185","HEFI","3","f","rechts","55","","fixation","","","",""
"1345","img/60_90.png","74","image-keyboard-response","377","355037","0.0-6.0-1.185","HEFI","3","f","rechts","55","","","object","j","60","true"
"null","<div style=""font-size:60px;"">+</div>","null","html-keyboard-response","378","355539","0.0-6.0-0.186","HEFI","3","f","rechts","55","","fixation","","","",""
"895","img/30_60.png","74","image-keyboard-response","379","356434","0.0-6.0-1.186","HEFI","3","f","rechts","55","","","object","j","30","true"
"null","<div style=""font-size:60px;"">+</div>","null","html-keyboard-response","380","356736","0.0-6.0-0.187","HEFI","3","f","rechts","55","","fixation","","","",""
"942","img/120_90.png","70","image-keyboard-response","381","357678","0.0-6.0-1.187","HEFI","3","f","rechts","55","","","object","f","120","true"
"null","<div style=""font-size:60px;"">+</div>","null","html-keyboard-response","382","358130","0.0-6.0-0.188","HEFI","3","f","rechts","55","","fixation","","","",""
"999","img/0_30.png","70","image-keyboard-response","383","359130","0.0-6.0-1.188","HEFI","3","f","rechts","55","","","object","j","0","false"
"null","<div style=""font-size:60px;"">+</div>","null","html-keyboard-response","384","359581","0.0-6.0-0.189","HEFI","3","f","rechts","55","","fixation","","","",""
"682","img/30_240.png","74","image-keyboard-response","385","360264","0.0-6.0-1.189","HEFI","3","f","rechts","55","","","object","f","30","false"
"null","<div style=""font-size:60px;"">+</div>","null","html-keyboard-response","386","360666","0.0-6.0-0.190","HEFI","3","f","rechts","55","","fixation","","","",""
"1288","img/90_60.png","70","image-keyboard-response","387","361954","0.0-6.0-1.190","HEFI","3","f","rechts","55","","","object","f","90","true"
"null","<div style=""font-size:60px;"">+</div>","null","html-keyboard-response","388","362356","0.0-6.0-0.191","HEFI","3","f","rechts","55","","fixation","","","",""
"1138","img/30_120.png","74","image-keyboard-response","389","363495","0.0-6.0-1.191","HEFI","3","f","rechts","55","","","object","j","30","true"
"null","<div style=""font-size:60px;"">+</div>","null","html-keyboard-response","390","363847","0.0-6.0-0.192","HEFI","3","f","rechts","55","","fixation","","","",""
"1110","img/90_330.png","74","image-keyboard-response","391","364957","0.0-6.0-1.192","HEFI","3","f","rechts","55","","","object","j","90","true"
"null","<div style=""font-size:60px;"">+</div>","null","html-keyboard-response","392","365259","0.0-6.0-0.193","HEFI","3","f","rechts","55","","fixation","","","",""
"919","img/0_300.png","70","image-keyboard-response","393","366179","0.0-6.0-1.193","HEFI","3","f","rechts","55","","","object","f","0","true"
"null","<div style=""font-size:60px;"">+</div>","null","html-keyboard-response","394","366680","0.0-6.0-0.194","HEFI","3","f","rechts","55","","fixation","","","",""
"1086","img/150_240.png","74","image-keyboard-response","395","367767","0.0-6.0-1.194","HEFI","3","f","rechts","55","","","object","j","150","true"
"null","<div style=""font-size:60px;"">+</div>","null","html-keyboard-response","396","368119","0.0-6.0-0.195","HEFI","3","f","rechts","55","","fixation","","","",""
"846","img/150_270.png","74","image-keyboard-response","397","368967","0.0-6.0-1.195","HEFI","3","f","rechts","55","","","object","j","150","true"
"null","<div style=""font-size:60px;"">+</div>","null","html-keyboard-response","398","369469","0.0-6.0-0.196","HEFI","3","f","rechts","55","","fixation","","","",""
"1163","img/30_270.png","70","image-keyboard-response","399","370632","0.0-6.0-1.196","HEFI","3","f","rechts","55","","","object","f","30","true"
"null","<div style=""font-size:60px;"">+</div>","null","html-keyboard-response","400","371134","0.0-6.0-0.197","HEFI","3","f","rechts","55","","fixation","","","",""
"1208","img/90_30.png","70","image-keyboard-response","401","372342","0.0-6.0-1.197","HEFI","3","f","rechts","55","","","object","f","90","true"
"null","<div style=""font-size:60px;"">+</div>","null","html-keyboard-response","402","372643","0.0-6.0-0.198","HEFI","3","f","rechts","55","","fixation","","","",""
"1675","img/L90_180.png","74","image-keyboard-response","403","374319","0.0-6.0-1.198","HEFI","3","f","rechts","55","","","object","j","90","true"
"null","<div style=""font-size:60px;"">+</div>","null","html-keyboard-response","404","374770","0.0-6.0-0.199","HEFI","3","f","rechts","55","","fixation","","","",""
"1342","img/30_180.png","70","image-keyboard-response","405","376114","0.0-6.0-1.199","HEFI","3","f","rechts","55","","","object","f","30","true"
"null","<div style=""font-size:60px;"">+</div>","null","html-keyboard-response","406","376416","0.0-6.0-0.200","HEFI","3","f","rechts","55","","fixation","","","",""
"1415","img/60_210.png","74","image-keyboard-response","407","377833","0.0-6.0-1.200","HEFI","3","f","rechts","55","","","object","f","60","false"
"null","<div style=""font-size:60px;"">+</div>","null","html-keyboard-response","408","378134","0.0-6.0-0.201","HEFI","3","f","rechts","55","","fixation","","","",""
"1691","img/150_120.png","70","image-keyboard-response","409","379826","0.0-6.0-1.201","HEFI","3","f","rechts","55","","","object","f","150","true"
"null","<div style=""font-size:60px;"">+</div>","null","html-keyboard-response","410","380128","0.0-6.0-0.202","HEFI","3","f","rechts","55","","fixation","","","",""
"1834","img/120_180.png","74","image-keyboard-response","411","381963","0.0-6.0-1.202","HEFI","3","f","rechts","55","","","object","f","120","false"
"null","<div style=""font-size:60px;"">+</div>","null","html-keyboard-response","412","382415","0.0-6.0-0.203","HEFI","3","f","rechts","55","","fixation","","","",""
"1797","img/L30_180.png","74","image-keyboard-response","413","384213","0.0-6.0-1.203","HEFI","3","f","rechts","55","","","object","j","30","true"
"null","<div style=""font-size:60px;"">+</div>","null","html-keyboard-response","414","384615","0.0-6.0-0.204","HEFI","3","f","rechts","55","","fixation","","","",""
"1565","img/90_180.png","70","image-keyboard-response","415","386182","0.0-6.0-1.204","HEFI","3","f","rechts","55","","","object","f","90","true"
"null","<div style=""font-size:60px;"">+</div>","null","html-keyboard-response","416","386633","0.0-6.0-0.205","HEFI","3","f","rechts","55","","fixation","","","",""
"981","img/L60_180.png","74","image-keyboard-response","417","387615","0.0-6.0-1.205","HEFI","3","f","rechts","55","","","object","j","60","true"
"null","<div style=""font-size:60px;"">+</div>","null","html-keyboard-response","418","387917","0.0-6.0-0.206","HEFI","3","f","rechts","55","","fixation","","","",""
"2074","img/120_270.png","74","image-keyboard-response","419","389992","0.0-6.0-1.206","HEFI","3","f","rechts","55","","","object","j","120","true"
"null","<div style=""font-size:60px;"">+</div>","null","html-keyboard-response","420","390493","0.0-6.0-0.207","HEFI","3","f","rechts","55","","fixation","","","",""
"947","img/0_210.png","70","image-keyboard-response","421","391441","0.0-6.0-1.207","HEFI","3","f","rechts","55","","","object","f","0","true"
"11183","<p>Du hast in 71% der Versuche korrekt entschieden.</p><p>Deine durchschnittliche Reaktionszeit war  1260ms.</p><p>Dr&uuml;cke eine beliebige Taste, um die Session zu beenden. Vielen Dank!</p>","70","html-keyboard-response","422","402627","0.0-7.0","HEFI","3","f","rechts","55","","","","","",""
