"rt","stimulus","key_press","trial_type","trial_index","time_elapsed","internal_node_id","subject","session","sex","handedness","age","responses","test_part","condition","correct_response","angle","correct"
"2515","<p>Mental Rotation Experiment.</p> <p>Dr&uuml;cke eine beliebige Taste, um anzufangen.</p>","72","html-keyboard-response","0","2519","0.0-0.0","HEFI","1","f","rechts","55","","","","","",""
"3492","","","survey-text","1","6011","0.0-1.0","HEFI","1","f","rechts","55","{""Q0"":""HEFI""}","","","","",""
"2323","","","survey-text","2","8335","0.0-2.0","HEFI","1","f","rechts","55","{""Q0"":""1""}","","","","",""
"4508","","","survey-multi-choice","3","12845","0.0-3.0","HEFI","1","f","rechts","55","{""Q0"":""f"",""Q1"":""rechts""}","","","","",""
"2595","","","survey-text","4","15442","0.0-4.0","HEFI","1","f","rechts","55","{""Q0"":""55""}","","","","",""
"19742","<p>Stell dir vor, dass du vor einem runden Tisch stehst, auf dem sich ein blauer Ball am Tischrand befindet. Entlang des Tischrands ist jeweils ein verschieden langer Pfeil. Nun bleibst du an deinem Platz vor dem Tisch und rotierst den Tisch entlang des Pfeils (gleiche Richtung und Länge). </p> <img src='img/30_180.png'></img> <br><p> Nachdem du diese (vorgestellte) Rotation durchgef&uuml;hrt hast, schau in Richtung der Tischmitte, und entscheide dann, ob der Ball links oder rechts von dir liegt.</p> <p>Dr&uuml;cke die <strong>'f'</strong>-Taste f&uuml;r links, die <strong>'j'</strong>-Taste f&uuml;r rechts.</p><br><p> Das Bild wird jeweils 1 Sekunde lang pr&auml;sentiert. Du hast 3 Sekunden Zeit eine Entscheidung zu treffen.</p>","74","html-keyboard-response","5","35186","0.0-5.0","HEFI","1","f","rechts","55","","","","","",""
"null","<div style=""font-size:60px;"">+</div>","null","html-keyboard-response","6","36640","0.0-6.0-0.0","HEFI","1","f","rechts","55","","fixation","","","",""
"1484","img/L30_180.png","70","image-keyboard-response","7","38127","0.0-6.0-1.0","HEFI","1","f","rechts","55","","","object","j","30","false"
"null","<div style=""font-size:60px;"">+</div>","null","html-keyboard-response","8","38529","0.0-6.0-0.1","HEFI","1","f","rechts","55","","fixation","","","",""
"1217","img/90_180.png","74","image-keyboard-response","9","39747","0.0-6.0-1.1","HEFI","1","f","rechts","55","","","object","f","90","false"
"null","<div style=""font-size:60px;"">+</div>","null","html-keyboard-response","10","40049","0.0-6.0-0.2","HEFI","1","f","rechts","55","","fixation","","","",""
"1678","img/L150_180.png","70","image-keyboard-response","11","41729","0.0-6.0-1.2","HEFI","1","f","rechts","55","","","object","j","150","false"
"null","<div style=""font-size:60px;"">+</div>","null","html-keyboard-response","12","42080","0.0-6.0-0.3","HEFI","1","f","rechts","55","","fixation","","","",""
"1948","img/150_90.png","74","image-keyboard-response","13","44029","0.0-6.0-1.3","HEFI","1","f","rechts","55","","","object","f","150","false"
"null","<div style=""font-size:60px;"">+</div>","null","html-keyboard-response","14","44330","0.0-6.0-0.4","HEFI","1","f","rechts","55","","fixation","","","",""
"1109","img/30_60.png","70","image-keyboard-response","15","45440","0.0-6.0-1.4","HEFI","1","f","rechts","55","","","object","j","30","false"
"null","<div style=""font-size:60px;"">+</div>","null","html-keyboard-response","16","45942","0.0-6.0-0.5","HEFI","1","f","rechts","55","","fixation","","","",""
"1278","img/90_330.png","74","image-keyboard-response","17","47221","0.0-6.0-1.5","HEFI","1","f","rechts","55","","","object","j","90","true"
"null","<div style=""font-size:60px;"">+</div>","null","html-keyboard-response","18","47522","0.0-6.0-0.6","HEFI","1","f","rechts","55","","fixation","","","",""
"1239","img/120_150.png","70","image-keyboard-response","19","48762","0.0-6.0-1.6","HEFI","1","f","rechts","55","","","object","j","120","false"
"null","<div style=""font-size:60px;"">+</div>","null","html-keyboard-response","20","49214","0.0-6.0-0.7","HEFI","1","f","rechts","55","","fixation","","","",""
"1544","img/0_300.png","74","image-keyboard-response","21","50759","0.0-6.0-1.7","HEFI","1","f","rechts","55","","","object","f","0","false"
"null","<div style=""font-size:60px;"">+</div>","null","html-keyboard-response","22","51261","0.0-6.0-0.8","HEFI","1","f","rechts","55","","fixation","","","",""
"1341","img/90_60.png","70","image-keyboard-response","23","52604","0.0-6.0-1.8","HEFI","1","f","rechts","55","","","object","f","90","true"
"null","<div style=""font-size:60px;"">+</div>","null","html-keyboard-response","24","53055","0.0-6.0-0.9","HEFI","1","f","rechts","55","","fixation","","","",""
"1170","img/150_300.png","74","image-keyboard-response","25","54226","0.0-6.0-1.9","HEFI","1","f","rechts","55","","","object","j","150","true"
"null","<div style=""font-size:60px;"">+</div>","null","html-keyboard-response","26","54528","0.0-6.0-0.10","HEFI","1","f","rechts","55","","fixation","","","",""
"1607","img/120_330.png","70","image-keyboard-response","27","56136","0.0-6.0-1.10","HEFI","1","f","rechts","55","","","object","j","120","false"
"null","<div style=""font-size:60px;"">+</div>","null","html-keyboard-response","28","56438","0.0-6.0-0.11","HEFI","1","f","rechts","55","","fixation","","","",""
"1766","img/30_240.png","70","image-keyboard-response","29","58206","0.0-6.0-1.11","HEFI","1","f","rechts","55","","","object","f","30","true"
"null","<div style=""font-size:60px;"">+</div>","null","html-keyboard-response","30","58707","0.0-6.0-0.12","HEFI","1","f","rechts","55","","fixation","","","",""
"1964","img/30_90.png","74","image-keyboard-response","31","60672","0.0-6.0-1.12","HEFI","1","f","rechts","55","","","object","j","30","true"
"null","<div style=""font-size:60px;"">+</div>","null","html-keyboard-response","32","61174","0.0-6.0-0.13","HEFI","1","f","rechts","55","","fixation","","","",""
"1461","img/60_180.png","70","image-keyboard-response","33","62636","0.0-6.0-1.13","HEFI","1","f","rechts","55","","","object","f","60","true"
"null","<div style=""font-size:60px;"">+</div>","null","html-keyboard-response","34","63038","0.0-6.0-0.14","HEFI","1","f","rechts","55","","fixation","","","",""
"1337","img/L60_180.png","70","image-keyboard-response","35","64376","0.0-6.0-1.14","HEFI","1","f","rechts","55","","","object","j","60","false"
"null","<div style=""font-size:60px;"">+</div>","null","html-keyboard-response","36","64778","0.0-6.0-0.15","HEFI","1","f","rechts","55","","fixation","","","",""
"2038","img/L120_180.png","74","image-keyboard-response","37","66817","0.0-6.0-1.15","HEFI","1","f","rechts","55","","","object","j","120","true"
"null","<div style=""font-size:60px;"">+</div>","null","html-keyboard-response","38","67219","0.0-6.0-0.16","HEFI","1","f","rechts","55","","fixation","","","",""
"1348","img/0_60.png","74","image-keyboard-response","39","68568","0.0-6.0-1.16","HEFI","1","f","rechts","55","","","object","j","0","true"
"null","<div style=""font-size:60px;"">+</div>","null","html-keyboard-response","40","68919","0.0-6.0-0.17","HEFI","1","f","rechts","55","","fixation","","","",""
"989","img/0_150.png","74","image-keyboard-response","41","69909","0.0-6.0-1.17","HEFI","1","f","rechts","55","","","object","j","0","true"
"null","<div style=""font-size:60px;"">+</div>","null","html-keyboard-response","42","70311","0.0-6.0-0.18","HEFI","1","f","rechts","55","","fixation","","","",""
"2752","img/30_270.png","70","image-keyboard-response","43","73064","0.0-6.0-1.18","HEFI","1","f","rechts","55","","","object","f","30","true"
"null","<div style=""font-size:60px;"">+</div>","null","html-keyboard-response","44","73566","0.0-6.0-0.19","HEFI","1","f","rechts","55","","fixation","","","",""
"1350","img/60_270.png","74","image-keyboard-response","45","74917","0.0-6.0-1.19","HEFI","1","f","rechts","55","","","object","f","60","false"
"null","<div style=""font-size:60px;"">+</div>","null","html-keyboard-response","46","75369","0.0-6.0-0.20","HEFI","1","f","rechts","55","","fixation","","","",""
"849","img/60_90.png","70","image-keyboard-response","47","76220","0.0-6.0-1.20","HEFI","1","f","rechts","55","","","object","j","60","false"
"null","<div style=""font-size:60px;"">+</div>","null","html-keyboard-response","48","76721","0.0-6.0-0.21","HEFI","1","f","rechts","55","","fixation","","","",""
"603","img/L90_180.png","74","image-keyboard-response","49","77327","0.0-6.0-1.21","HEFI","1","f","rechts","55","","","object","j","90","true"
"null","<div style=""font-size:60px;"">+</div>","null","html-keyboard-response","50","77679","0.0-6.0-0.22","HEFI","1","f","rechts","55","","fixation","","","",""
"549","img/120_90.png","70","image-keyboard-response","51","78229","0.0-6.0-1.22","HEFI","1","f","rechts","55","","","object","f","120","true"
"null","<div style=""font-size:60px;"">+</div>","null","html-keyboard-response","52","78681","0.0-6.0-0.23","HEFI","1","f","rechts","55","","fixation","","","",""
"1418","img/150_180.png","74","image-keyboard-response","53","80100","0.0-6.0-1.23","HEFI","1","f","rechts","55","","","object","f","150","false"
"null","<div style=""font-size:60px;"">+</div>","null","html-keyboard-response","54","80501","0.0-6.0-0.24","HEFI","1","f","rechts","55","","fixation","","","",""
"997","img/90_30.png","70","image-keyboard-response","55","81501","0.0-6.0-1.24","HEFI","1","f","rechts","55","","","object","f","90","true"
"null","<div style=""font-size:60px;"">+</div>","null","html-keyboard-response","56","81952","0.0-6.0-0.25","HEFI","1","f","rechts","55","","fixation","","","",""
"681","img/90_300.png","74","image-keyboard-response","57","82635","0.0-6.0-1.25","HEFI","1","f","rechts","55","","","object","j","90","true"
"null","<div style=""font-size:60px;"">+</div>","null","html-keyboard-response","58","82985","0.0-6.0-0.26","HEFI","1","f","rechts","55","","fixation","","","",""
"1153","img/120_30.png","74","image-keyboard-response","59","84141","0.0-6.0-1.26","HEFI","1","f","rechts","55","","","object","f","120","false"
"null","<div style=""font-size:60px;"">+</div>","null","html-keyboard-response","60","84642","0.0-6.0-0.27","HEFI","1","f","rechts","55","","fixation","","","",""
"673","img/60_30.png","70","image-keyboard-response","61","85317","0.0-6.0-1.27","HEFI","1","f","rechts","55","","","object","f","60","true"
"null","<div style=""font-size:60px;"">+</div>","null","html-keyboard-response","62","85669","0.0-6.0-0.28","HEFI","1","f","rechts","55","","fixation","","","",""
"749","img/60_330.png","74","image-keyboard-response","63","86420","0.0-6.0-1.28","HEFI","1","f","rechts","55","","","object","j","60","true"
"null","<div style=""font-size:60px;"">+</div>","null","html-keyboard-response","64","86871","0.0-6.0-0.29","HEFI","1","f","rechts","55","","fixation","","","",""
"671","img/150_270.png","74","image-keyboard-response","65","87543","0.0-6.0-1.29","HEFI","1","f","rechts","55","","","object","j","150","true"
"null","<div style=""font-size:60px;"">+</div>","null","html-keyboard-response","66","88045","0.0-6.0-0.30","HEFI","1","f","rechts","55","","fixation","","","",""
"896","img/150_120.png","70","image-keyboard-response","67","88943","0.0-6.0-1.30","HEFI","1","f","rechts","55","","","object","f","150","true"
"null","<div style=""font-size:60px;"">+</div>","null","html-keyboard-response","68","89444","0.0-6.0-0.31","HEFI","1","f","rechts","55","","fixation","","","",""
"723","img/120_270.png","74","image-keyboard-response","69","90169","0.0-6.0-1.31","HEFI","1","f","rechts","55","","","object","j","120","true"
"null","<div style=""font-size:60px;"">+</div>","null","html-keyboard-response","70","90620","0.0-6.0-0.32","HEFI","1","f","rechts","55","","fixation","","","",""
"765","img/30_180.png","70","image-keyboard-response","71","91386","0.0-6.0-1.32","HEFI","1","f","rechts","55","","","object","f","30","true"
"null","<div style=""font-size:60px;"">+</div>","null","html-keyboard-response","72","91888","0.0-6.0-0.33","HEFI","1","f","rechts","55","","fixation","","","",""
"503","img/0_270.png","74","image-keyboard-response","73","92392","0.0-6.0-1.33","HEFI","1","f","rechts","55","","","object","f","0","false"
"null","<div style=""font-size:60px;"">+</div>","null","html-keyboard-response","74","92744","0.0-6.0-0.34","HEFI","1","f","rechts","55","","fixation","","","",""
"1108","img/0_120.png","74","image-keyboard-response","75","93853","0.0-6.0-1.34","HEFI","1","f","rechts","55","","","object","j","0","true"
"null","<div style=""font-size:60px;"">+</div>","null","html-keyboard-response","76","94205","0.0-6.0-0.35","HEFI","1","f","rechts","55","","fixation","","","",""
"987","img/120_210.png","70","image-keyboard-response","77","95195","0.0-6.0-1.35","HEFI","1","f","rechts","55","","","object","f","120","true"
"null","<div style=""font-size:60px;"">+</div>","null","html-keyboard-response","78","95646","0.0-6.0-0.36","HEFI","1","f","rechts","55","","fixation","","","",""
"949","img/90_210.png","74","image-keyboard-response","79","96596","0.0-6.0-1.36","HEFI","1","f","rechts","55","","","object","f","90","false"
"null","<div style=""font-size:60px;"">+</div>","null","html-keyboard-response","80","96948","0.0-6.0-0.37","HEFI","1","f","rechts","55","","fixation","","","",""
"686","img/120_180.png","74","image-keyboard-response","81","97635","0.0-6.0-1.37","HEFI","1","f","rechts","55","","","object","f","120","false"
"null","<div style=""font-size:60px;"">+</div>","null","html-keyboard-response","82","98137","0.0-6.0-0.38","HEFI","1","f","rechts","55","","fixation","","","",""
"644","img/150_60.png","74","image-keyboard-response","83","98783","0.0-6.0-1.38","HEFI","1","f","rechts","55","","","object","f","150","false"
"null","<div style=""font-size:60px;"">+</div>","null","html-keyboard-response","84","99284","0.0-6.0-0.39","HEFI","1","f","rechts","55","","fixation","","","",""
"1064","img/0_30.png","74","image-keyboard-response","85","100349","0.0-6.0-1.39","HEFI","1","f","rechts","55","","","object","j","0","true"
"null","<div style=""font-size:60px;"">+</div>","null","html-keyboard-response","86","100751","0.0-6.0-0.40","HEFI","1","f","rechts","55","","fixation","","","",""
"790","img/30_120.png","70","image-keyboard-response","87","101542","0.0-6.0-1.40","HEFI","1","f","rechts","55","","","object","j","30","false"
"null","<div style=""font-size:60px;"">+</div>","null","html-keyboard-response","88","102044","0.0-6.0-0.41","HEFI","1","f","rechts","55","","fixation","","","",""
"738","img/90_120.png","70","image-keyboard-response","89","102784","0.0-6.0-1.41","HEFI","1","f","rechts","55","","","object","j","90","false"
"null","<div style=""font-size:60px;"">+</div>","null","html-keyboard-response","90","103086","0.0-6.0-0.42","HEFI","1","f","rechts","55","","fixation","","","",""
"612","img/90_150.png","74","image-keyboard-response","91","103699","0.0-6.0-1.42","HEFI","1","f","rechts","55","","","object","j","90","true"
"null","<div style=""font-size:60px;"">+</div>","null","html-keyboard-response","92","104051","0.0-6.0-0.43","HEFI","1","f","rechts","55","","fixation","","","",""
"779","img/0_330.png","70","image-keyboard-response","93","104831","0.0-6.0-1.43","HEFI","1","f","rechts","55","","","object","f","0","true"
"null","<div style=""font-size:60px;"">+</div>","null","html-keyboard-response","94","105333","0.0-6.0-0.44","HEFI","1","f","rechts","55","","fixation","","","",""
"603","img/150_240.png","74","image-keyboard-response","95","105937","0.0-6.0-1.44","HEFI","1","f","rechts","55","","","object","j","150","true"
"null","<div style=""font-size:60px;"">+</div>","null","html-keyboard-response","96","106239","0.0-6.0-0.45","HEFI","1","f","rechts","55","","fixation","","","",""
"809","img/30_300.png","74","image-keyboard-response","97","107049","0.0-6.0-1.45","HEFI","1","f","rechts","55","","","object","f","30","false"
"null","<div style=""font-size:60px;"">+</div>","null","html-keyboard-response","98","107451","0.0-6.0-0.46","HEFI","1","f","rechts","55","","fixation","","","",""
"640","img/60_210.png","74","image-keyboard-response","99","108092","0.0-6.0-1.46","HEFI","1","f","rechts","55","","","object","f","60","false"
"null","<div style=""font-size:60px;"">+</div>","null","html-keyboard-response","100","108393","0.0-6.0-0.47","HEFI","1","f","rechts","55","","fixation","","","",""
"619","img/0_90.png","70","image-keyboard-response","101","109013","0.0-6.0-1.47","HEFI","1","f","rechts","55","","","object","j","0","false"
"null","<div style=""font-size:60px;"">+</div>","null","html-keyboard-response","102","109465","0.0-6.0-0.48","HEFI","1","f","rechts","55","","fixation","","","",""
"396","img/0_210.png","74","image-keyboard-response","103","109862","0.0-6.0-1.48","HEFI","1","f","rechts","55","","","object","f","0","false"
"null","<div style=""font-size:60px;"">+</div>","null","html-keyboard-response","104","110263","0.0-6.0-0.49","HEFI","1","f","rechts","55","","fixation","","","",""
"577","img/0_240.png","70","image-keyboard-response","105","110841","0.0-6.0-1.49","HEFI","1","f","rechts","55","","","object","f","0","true"
"null","<div style=""font-size:60px;"">+</div>","null","html-keyboard-response","106","111293","0.0-6.0-0.50","HEFI","1","f","rechts","55","","fixation","","","",""
"544","img/60_150.png","74","image-keyboard-response","107","111838","0.0-6.0-1.50","HEFI","1","f","rechts","55","","","object","j","60","true"
"null","<div style=""font-size:60px;"">+</div>","null","html-keyboard-response","108","112339","0.0-6.0-0.51","HEFI","1","f","rechts","55","","fixation","","","",""
"573","img/90_240.png","74","image-keyboard-response","109","112913","0.0-6.0-1.51","HEFI","1","f","rechts","55","","","object","f","90","false"
"null","<div style=""font-size:60px;"">+</div>","null","html-keyboard-response","110","113315","0.0-6.0-0.52","HEFI","1","f","rechts","55","","fixation","","","",""
"570","img/0_300.png","70","image-keyboard-response","111","113886","0.0-6.0-1.52","HEFI","1","f","rechts","55","","","object","f","0","true"
"null","<div style=""font-size:60px;"">+</div>","null","html-keyboard-response","112","114388","0.0-6.0-0.53","HEFI","1","f","rechts","55","","fixation","","","",""
"802","img/150_90.png","74","image-keyboard-response","113","115190","0.0-6.0-1.53","HEFI","1","f","rechts","55","","","object","f","150","false"
"null","<div style=""font-size:60px;"">+</div>","null","html-keyboard-response","114","115692","0.0-6.0-0.54","HEFI","1","f","rechts","55","","fixation","","","",""
"2079","img/90_60.png","70","image-keyboard-response","115","117771","0.0-6.0-1.54","HEFI","1","f","rechts","55","","","object","f","90","true"
"null","<div style=""font-size:60px;"">+</div>","null","html-keyboard-response","116","118273","0.0-6.0-0.55","HEFI","1","f","rechts","55","","fixation","","","",""
"569","img/120_270.png","74","image-keyboard-response","117","118842","0.0-6.0-1.55","HEFI","1","f","rechts","55","","","object","j","120","true"
"null","<div style=""font-size:60px;"">+</div>","null","html-keyboard-response","118","119144","0.0-6.0-0.56","HEFI","1","f","rechts","55","","fixation","","","",""
"null","img/L120_180.png","null","image-keyboard-response","119","122146","0.0-6.0-1.56","HEFI","1","f","rechts","55","","","object","j","120","false"
"null","<div style=""font-size:60px;"">+</div>","null","html-keyboard-response","120","122548","0.0-6.0-0.57","HEFI","1","f","rechts","55","","fixation","","","",""
"null","img/0_270.png","null","image-keyboard-response","121","125550","0.0-6.0-1.57","HEFI","1","f","rechts","55","","","object","f","0","false"
"null","<div style=""font-size:60px;"">+</div>","null","html-keyboard-response","122","125951","0.0-6.0-0.58","HEFI","1","f","rechts","55","","fixation","","","",""
"61","img/120_330.png","70","image-keyboard-response","123","126013","0.0-6.0-1.58","HEFI","1","f","rechts","55","","","object","j","120","false"
"null","<div style=""font-size:60px;"">+</div>","null","html-keyboard-response","124","126415","0.0-6.0-0.59","HEFI","1","f","rechts","55","","fixation","","","",""
"702","img/0_60.png","74","image-keyboard-response","125","127118","0.0-6.0-1.59","HEFI","1","f","rechts","55","","","object","j","0","true"
"null","<div style=""font-size:60px;"">+</div>","null","html-keyboard-response","126","127620","0.0-6.0-0.60","HEFI","1","f","rechts","55","","fixation","","","",""
"2448","img/L90_180.png","74","image-keyboard-response","127","130068","0.0-6.0-1.60","HEFI","1","f","rechts","55","","","object","j","90","true"
"null","<div style=""font-size:60px;"">+</div>","null","html-keyboard-response","128","130419","0.0-6.0-0.61","HEFI","1","f","rechts","55","","fixation","","","",""
"2291","img/90_300.png","74","image-keyboard-response","129","132712","0.0-6.0-1.61","HEFI","1","f","rechts","55","","","object","j","90","true"
"null","<div style=""font-size:60px;"">+</div>","null","html-keyboard-response","130","133013","0.0-6.0-0.62","HEFI","1","f","rechts","55","","fixation","","","",""
"2187","img/120_150.png","70","image-keyboard-response","131","135201","0.0-6.0-1.62","HEFI","1","f","rechts","55","","","object","j","120","false"
"null","<div style=""font-size:60px;"">+</div>","null","html-keyboard-response","132","135653","0.0-6.0-0.63","HEFI","1","f","rechts","55","","fixation","","","",""
"1678","img/120_210.png","74","image-keyboard-response","133","137332","0.0-6.0-1.63","HEFI","1","f","rechts","55","","","object","f","120","false"
"null","<div style=""font-size:60px;"">+</div>","null","html-keyboard-response","134","137633","0.0-6.0-0.64","HEFI","1","f","rechts","55","","fixation","","","",""
"1811","img/30_180.png","70","image-keyboard-response","135","139446","0.0-6.0-1.64","HEFI","1","f","rechts","55","","","object","f","30","true"
"null","<div style=""font-size:60px;"">+</div>","null","html-keyboard-response","136","139898","0.0-6.0-0.65","HEFI","1","f","rechts","55","","fixation","","","",""
"2220","img/L30_180.png","70","image-keyboard-response","137","142120","0.0-6.0-1.65","HEFI","1","f","rechts","55","","","object","j","30","false"
"null","<div style=""font-size:60px;"">+</div>","null","html-keyboard-response","138","142621","0.0-6.0-0.66","HEFI","1","f","rechts","55","","fixation","","","",""
"1171","img/30_300.png","74","image-keyboard-response","139","143793","0.0-6.0-1.66","HEFI","1","f","rechts","55","","","object","f","30","false"
"null","<div style=""font-size:60px;"">+</div>","null","html-keyboard-response","140","144295","0.0-6.0-0.67","HEFI","1","f","rechts","55","","fixation","","","",""
"886","img/0_210.png","70","image-keyboard-response","141","145181","0.0-6.0-1.67","HEFI","1","f","rechts","55","","","object","f","0","true"
"null","<div style=""font-size:60px;"">+</div>","null","html-keyboard-response","142","145683","0.0-6.0-0.68","HEFI","1","f","rechts","55","","fixation","","","",""
"1599","img/90_150.png","74","image-keyboard-response","143","147283","0.0-6.0-1.68","HEFI","1","f","rechts","55","","","object","j","90","true"
"null","<div style=""font-size:60px;"">+</div>","null","html-keyboard-response","144","147785","0.0-6.0-0.69","HEFI","1","f","rechts","55","","fixation","","","",""
"1407","img/30_60.png","74","image-keyboard-response","145","149193","0.0-6.0-1.69","HEFI","1","f","rechts","55","","","object","j","30","true"
"null","<div style=""font-size:60px;"">+</div>","null","html-keyboard-response","146","149595","0.0-6.0-0.70","HEFI","1","f","rechts","55","","fixation","","","",""
"1456","img/60_30.png","70","image-keyboard-response","147","151052","0.0-6.0-1.70","HEFI","1","f","rechts","55","","","object","f","60","true"
"null","<div style=""font-size:60px;"">+</div>","null","html-keyboard-response","148","151404","0.0-6.0-0.71","HEFI","1","f","rechts","55","","fixation","","","",""
"2594","img/60_330.png","74","image-keyboard-response","149","153998","0.0-6.0-1.71","HEFI","1","f","rechts","55","","","object","j","60","true"
"null","<div style=""font-size:60px;"">+</div>","null","html-keyboard-response","150","154400","0.0-6.0-0.72","HEFI","1","f","rechts","55","","fixation","","","",""
"1530","img/30_270.png","70","image-keyboard-response","151","155931","0.0-6.0-1.72","HEFI","1","f","rechts","55","","","object","f","30","true"
"null","<div style=""font-size:60px;"">+</div>","null","html-keyboard-response","152","156283","0.0-6.0-0.73","HEFI","1","f","rechts","55","","fixation","","","",""
"2097","img/90_330.png","74","image-keyboard-response","153","158381","0.0-6.0-1.73","HEFI","1","f","rechts","55","","","object","j","90","true"
"null","<div style=""font-size:60px;"">+</div>","null","html-keyboard-response","154","158683","0.0-6.0-0.74","HEFI","1","f","rechts","55","","fixation","","","",""
"2240","img/L60_180.png","74","image-keyboard-response","155","160924","0.0-6.0-1.74","HEFI","1","f","rechts","55","","","object","j","60","true"
"null","<div style=""font-size:60px;"">+</div>","null","html-keyboard-response","156","161226","0.0-6.0-0.75","HEFI","1","f","rechts","55","","fixation","","","",""
"1674","img/60_90.png","70","image-keyboard-response","157","162900","0.0-6.0-1.75","HEFI","1","f","rechts","55","","","object","j","60","false"
"null","<div style=""font-size:60px;"">+</div>","null","html-keyboard-response","158","163402","0.0-6.0-0.76","HEFI","1","f","rechts","55","","fixation","","","",""
"1553","img/90_120.png","70","image-keyboard-response","159","164955","0.0-6.0-1.76","HEFI","1","f","rechts","55","","","object","j","90","false"
"null","<div style=""font-size:60px;"">+</div>","null","html-keyboard-response","160","165456","0.0-6.0-0.77","HEFI","1","f","rechts","55","","fixation","","","",""
"2218","img/150_270.png","74","image-keyboard-response","161","167675","0.0-6.0-1.77","HEFI","1","f","rechts","55","","","object","j","150","true"
"null","<div style=""font-size:60px;"">+</div>","null","html-keyboard-response","162","168027","0.0-6.0-0.78","HEFI","1","f","rechts","55","","fixation","","","",""
"677","img/0_120.png","74","image-keyboard-response","163","168704","0.0-6.0-1.78","HEFI","1","f","rechts","55","","","object","j","0","true"
"null","<div style=""font-size:60px;"">+</div>","null","html-keyboard-response","164","169156","0.0-6.0-0.79","HEFI","1","f","rechts","55","","fixation","","","",""
"1561","img/30_120.png","70","image-keyboard-response","165","170717","0.0-6.0-1.79","HEFI","1","f","rechts","55","","","object","j","30","false"
"null","<div style=""font-size:60px;"">+</div>","null","html-keyboard-response","166","171169","0.0-6.0-0.80","HEFI","1","f","rechts","55","","fixation","","","",""
"1453","img/30_240.png","70","image-keyboard-response","167","172622","0.0-6.0-1.80","HEFI","1","f","rechts","55","","","object","f","30","true"
"null","<div style=""font-size:60px;"">+</div>","null","html-keyboard-response","168","173124","0.0-6.0-0.81","HEFI","1","f","rechts","55","","fixation","","","",""
"1590","img/L150_180.png","70","image-keyboard-response","169","174714","0.0-6.0-1.81","HEFI","1","f","rechts","55","","","object","j","150","false"
"null","<div style=""font-size:60px;"">+</div>","null","html-keyboard-response","170","175066","0.0-6.0-0.82","HEFI","1","f","rechts","55","","fixation","","","",""
"null","img/150_180.png","null","image-keyboard-response","171","178068","0.0-6.0-1.82","HEFI","1","f","rechts","55","","","object","f","150","false"
"null","<div style=""font-size:60px;"">+</div>","null","html-keyboard-response","172","178570","0.0-6.0-0.83","HEFI","1","f","rechts","55","","fixation","","","",""
"952","img/0_150.png","74","image-keyboard-response","173","179523","0.0-6.0-1.83","HEFI","1","f","rechts","55","","","object","j","0","true"
"null","<div style=""font-size:60px;"">+</div>","null","html-keyboard-response","174","180024","0.0-6.0-0.84","HEFI","1","f","rechts","55","","fixation","","","",""
"1954","img/150_60.png","70","image-keyboard-response","175","181979","0.0-6.0-1.84","HEFI","1","f","rechts","55","","","object","f","150","true"
"null","<div style=""font-size:60px;"">+</div>","null","html-keyboard-response","176","182381","0.0-6.0-0.85","HEFI","1","f","rechts","55","","fixation","","","",""
"1516","img/30_90.png","74","image-keyboard-response","177","183898","0.0-6.0-1.85","HEFI","1","f","rechts","55","","","object","j","30","true"
"null","<div style=""font-size:60px;"">+</div>","null","html-keyboard-response","178","184250","0.0-6.0-0.86","HEFI","1","f","rechts","55","","fixation","","","",""
"1523","img/150_300.png","74","image-keyboard-response","179","185774","0.0-6.0-1.86","HEFI","1","f","rechts","55","","","object","j","150","true"
"null","<div style=""font-size:60px;"">+</div>","null","html-keyboard-response","180","186075","0.0-6.0-0.87","HEFI","1","f","rechts","55","","fixation","","","",""
"945","img/0_330.png","70","image-keyboard-response","181","187022","0.0-6.0-1.87","HEFI","1","f","rechts","55","","","object","f","0","true"
"null","<div style=""font-size:60px;"">+</div>","null","html-keyboard-response","182","187473","0.0-6.0-0.88","HEFI","1","f","rechts","55","","fixation","","","",""
"2578","img/90_30.png","70","image-keyboard-response","183","190053","0.0-6.0-1.88","HEFI","1","f","rechts","55","","","object","f","90","true"
"null","<div style=""font-size:60px;"">+</div>","null","html-keyboard-response","184","190454","0.0-6.0-0.89","HEFI","1","f","rechts","55","","fixation","","","",""
"1753","img/60_180.png","74","image-keyboard-response","185","192208","0.0-6.0-1.89","HEFI","1","f","rechts","55","","","object","f","60","false"
"null","<div style=""font-size:60px;"">+</div>","null","html-keyboard-response","186","192710","0.0-6.0-0.90","HEFI","1","f","rechts","55","","fixation","","","",""
"1590","img/120_90.png","70","image-keyboard-response","187","194301","0.0-6.0-1.90","HEFI","1","f","rechts","55","","","object","f","120","true"
"null","<div style=""font-size:60px;"">+</div>","null","html-keyboard-response","188","194703","0.0-6.0-0.91","HEFI","1","f","rechts","55","","fixation","","","",""
"1785","img/150_120.png","70","image-keyboard-response","189","196489","0.0-6.0-1.91","HEFI","1","f","rechts","55","","","object","f","150","true"
"null","<div style=""font-size:60px;"">+</div>","null","html-keyboard-response","190","196941","0.0-6.0-0.92","HEFI","1","f","rechts","55","","fixation","","","",""
"1574","img/90_240.png","74","image-keyboard-response","191","198516","0.0-6.0-1.92","HEFI","1","f","rechts","55","","","object","f","90","false"
"null","<div style=""font-size:60px;"">+</div>","null","html-keyboard-response","192","199018","0.0-6.0-0.93","HEFI","1","f","rechts","55","","fixation","","","",""
"782","img/0_30.png","74","image-keyboard-response","193","199801","0.0-6.0-1.93","HEFI","1","f","rechts","55","","","object","j","0","true"
"null","<div style=""font-size:60px;"">+</div>","null","html-keyboard-response","194","200153","0.0-6.0-0.94","HEFI","1","f","rechts","55","","fixation","","","",""
"1544","img/60_210.png","70","image-keyboard-response","195","201698","0.0-6.0-1.94","HEFI","1","f","rechts","55","","","object","f","60","true"
"null","<div style=""font-size:60px;"">+</div>","null","html-keyboard-response","196","202100","0.0-6.0-0.95","HEFI","1","f","rechts","55","","fixation","","","",""
"802","img/0_240.png","70","image-keyboard-response","197","202903","0.0-6.0-1.95","HEFI","1","f","rechts","55","","","object","f","0","true"
"null","<div style=""font-size:60px;"">+</div>","null","html-keyboard-response","198","203305","0.0-6.0-0.96","HEFI","1","f","rechts","55","","fixation","","","",""
"874","img/0_90.png","74","image-keyboard-response","199","204180","0.0-6.0-1.96","HEFI","1","f","rechts","55","","","object","j","0","true"
"null","<div style=""font-size:60px;"">+</div>","null","html-keyboard-response","200","204632","0.0-6.0-0.97","HEFI","1","f","rechts","55","","fixation","","","",""
"1897","img/120_180.png","74","image-keyboard-response","201","206530","0.0-6.0-1.97","HEFI","1","f","rechts","55","","","object","f","120","false"
"null","<div style=""font-size:60px;"">+</div>","null","html-keyboard-response","202","206882","0.0-6.0-0.98","HEFI","1","f","rechts","55","","fixation","","","",""
"1735","img/60_150.png","74","image-keyboard-response","203","208618","0.0-6.0-1.98","HEFI","1","f","rechts","55","","","object","j","60","true"
"null","<div style=""font-size:60px;"">+</div>","null","html-keyboard-response","204","209070","0.0-6.0-0.99","HEFI","1","f","rechts","55","","fixation","","","",""
"2529","img/120_30.png","70","image-keyboard-response","205","211600","0.0-6.0-1.99","HEFI","1","f","rechts","55","","","object","f","120","true"
"null","<div style=""font-size:60px;"">+</div>","null","html-keyboard-response","206","212102","0.0-6.0-0.100","HEFI","1","f","rechts","55","","fixation","","","",""
"2824","img/90_180.png","74","image-keyboard-response","207","214927","0.0-6.0-1.100","HEFI","1","f","rechts","55","","","object","f","90","false"
"null","<div style=""font-size:60px;"">+</div>","null","html-keyboard-response","208","215229","0.0-6.0-0.101","HEFI","1","f","rechts","55","","fixation","","","",""
"2069","img/90_210.png","70","image-keyboard-response","209","217299","0.0-6.0-1.101","HEFI","1","f","rechts","55","","","object","f","90","true"
"null","<div style=""font-size:60px;"">+</div>","null","html-keyboard-response","210","217601","0.0-6.0-0.102","HEFI","1","f","rechts","55","","fixation","","","",""
"1623","img/150_240.png","70","image-keyboard-response","211","219225","0.0-6.0-1.102","HEFI","1","f","rechts","55","","","object","j","150","false"
"null","<div style=""font-size:60px;"">+</div>","null","html-keyboard-response","212","219527","0.0-6.0-0.103","HEFI","1","f","rechts","55","","fixation","","","",""
"2996","img/60_270.png","70","image-keyboard-response","213","222523","0.0-6.0-1.103","HEFI","1","f","rechts","55","","","object","f","60","true"
"null","<div style=""font-size:60px;"">+</div>","null","html-keyboard-response","214","222975","0.0-6.0-0.104","HEFI","1","f","rechts","55","","fixation","","","",""
"767","img/0_330.png","70","image-keyboard-response","215","223742","0.0-6.0-1.104","HEFI","1","f","rechts","55","","","object","f","0","true"
"null","<div style=""font-size:60px;"">+</div>","null","html-keyboard-response","216","224193","0.0-6.0-0.105","HEFI","1","f","rechts","55","","fixation","","","",""
"2762","img/30_120.png","74","image-keyboard-response","217","226955","0.0-6.0-1.105","HEFI","1","f","rechts","55","","","object","j","30","true"
"null","<div style=""font-size:60px;"">+</div>","null","html-keyboard-response","218","227357","0.0-6.0-0.106","HEFI","1","f","rechts","55","","fixation","","","",""
"1859","img/60_90.png","70","image-keyboard-response","219","229217","0.0-6.0-1.106","HEFI","1","f","rechts","55","","","object","j","60","false"
"null","<div style=""font-size:60px;"">+</div>","null","html-keyboard-response","220","229518","0.0-6.0-0.107","HEFI","1","f","rechts","55","","fixation","","","",""
"2598","img/120_30.png","70","image-keyboard-response","221","232117","0.0-6.0-1.107","HEFI","1","f","rechts","55","","","object","f","120","true"
"null","<div style=""font-size:60px;"">+</div>","null","html-keyboard-response","222","232568","0.0-6.0-0.108","HEFI","1","f","rechts","55","","fixation","","","",""
"2404","img/120_210.png","74","image-keyboard-response","223","234973","0.0-6.0-1.108","HEFI","1","f","rechts","55","","","object","f","120","false"
"null","<div style=""font-size:60px;"">+</div>","null","html-keyboard-response","224","235475","0.0-6.0-0.109","HEFI","1","f","rechts","55","","fixation","","","",""
"1600","img/60_330.png","74","image-keyboard-response","225","237076","0.0-6.0-1.109","HEFI","1","f","rechts","55","","","object","j","60","true"
"null","<div style=""font-size:60px;"">+</div>","null","html-keyboard-response","226","237528","0.0-6.0-0.110","HEFI","1","f","rechts","55","","fixation","","","",""
"773","img/0_270.png","70","image-keyboard-response","227","238303","0.0-6.0-1.110","HEFI","1","f","rechts","55","","","object","f","0","true"
"null","<div style=""font-size:60px;"">+</div>","null","html-keyboard-response","228","238804","0.0-6.0-0.111","HEFI","1","f","rechts","55","","fixation","","","",""
"1839","img/150_180.png","74","image-keyboard-response","229","240645","0.0-6.0-1.111","HEFI","1","f","rechts","55","","","object","f","150","false"
"null","<div style=""font-size:60px;"">+</div>","null","html-keyboard-response","230","241146","0.0-6.0-0.112","HEFI","1","f","rechts","55","","fixation","","","",""
"2101","img/60_150.png","74","image-keyboard-response","231","243248","0.0-6.0-1.112","HEFI","1","f","rechts","55","","","object","j","60","true"
"null","<div style=""font-size:60px;"">+</div>","null","html-keyboard-response","232","243700","0.0-6.0-0.113","HEFI","1","f","rechts","55","","fixation","","","",""
"1862","img/150_300.png","74","image-keyboard-response","233","245563","0.0-6.0-1.113","HEFI","1","f","rechts","55","","","object","j","150","true"
"null","<div style=""font-size:60px;"">+</div>","null","html-keyboard-response","234","246015","0.0-6.0-0.114","HEFI","1","f","rechts","55","","fixation","","","",""
"null","img/150_120.png","null","image-keyboard-response","235","249017","0.0-6.0-1.114","HEFI","1","f","rechts","55","","","object","f","150","false"
"null","<div style=""font-size:60px;"">+</div>","null","html-keyboard-response","236","249419","0.0-6.0-0.115","HEFI","1","f","rechts","55","","fixation","","","",""
"603","img/90_60.png","70","image-keyboard-response","237","250023","0.0-6.0-1.115","HEFI","1","f","rechts","55","","","object","f","90","true"
"null","<div style=""font-size:60px;"">+</div>","null","html-keyboard-response","238","250375","0.0-6.0-0.116","HEFI","1","f","rechts","55","","fixation","","","",""
"809","img/0_60.png","74","image-keyboard-response","239","251185","0.0-6.0-1.116","HEFI","1","f","rechts","55","","","object","j","0","true"
"null","<div style=""font-size:60px;"">+</div>","null","html-keyboard-response","240","251487","0.0-6.0-0.117","HEFI","1","f","rechts","55","","fixation","","","",""
"2788","img/150_270.png","74","image-keyboard-response","241","254275","0.0-6.0-1.117","HEFI","1","f","rechts","55","","","object","j","150","true"
"null","<div style=""font-size:60px;"">+</div>","null","html-keyboard-response","242","254777","0.0-6.0-0.118","HEFI","1","f","rechts","55","","fixation","","","",""
"null","img/120_90.png","null","image-keyboard-response","243","257779","0.0-6.0-1.118","HEFI","1","f","rechts","55","","","object","f","120","false"
"null","<div style=""font-size:60px;"">+</div>","null","html-keyboard-response","244","258131","0.0-6.0-0.119","HEFI","1","f","rechts","55","","fixation","","","",""
"2522","img/60_30.png","70","image-keyboard-response","245","260654","0.0-6.0-1.119","HEFI","1","f","rechts","55","","","object","f","60","true"
"null","<div style=""font-size:60px;"">+</div>","null","html-keyboard-response","246","261006","0.0-6.0-0.120","HEFI","1","f","rechts","55","","fixation","","","",""
"859","img/0_90.png","74","image-keyboard-response","247","261865","0.0-6.0-1.120","HEFI","1","f","rechts","55","","","object","j","0","true"
"null","<div style=""font-size:60px;"">+</div>","null","html-keyboard-response","248","262367","0.0-6.0-0.121","HEFI","1","f","rechts","55","","fixation","","","",""
"2072","img/90_180.png","70","image-keyboard-response","249","264439","0.0-6.0-1.121","HEFI","1","f","rechts","55","","","object","f","90","true"
"null","<div style=""font-size:60px;"">+</div>","null","html-keyboard-response","250","264741","0.0-6.0-0.122","HEFI","1","f","rechts","55","","fixation","","","",""
"2017","img/60_270.png","74","image-keyboard-response","251","266758","0.0-6.0-1.122","HEFI","1","f","rechts","55","","","object","f","60","false"
"null","<div style=""font-size:60px;"">+</div>","null","html-keyboard-response","252","267159","0.0-6.0-0.123","HEFI","1","f","rechts","55","","fixation","","","",""
"2039","img/150_240.png","74","image-keyboard-response","253","269199","0.0-6.0-1.123","HEFI","1","f","rechts","55","","","object","j","150","true"
"null","<div style=""font-size:60px;"">+</div>","null","html-keyboard-response","254","269600","0.0-6.0-0.124","HEFI","1","f","rechts","55","","fixation","","","",""
"1863","img/30_270.png","70","image-keyboard-response","255","271464","0.0-6.0-1.124","HEFI","1","f","rechts","55","","","object","f","30","true"
"null","<div style=""font-size:60px;"">+</div>","null","html-keyboard-response","256","271815","0.0-6.0-0.125","HEFI","1","f","rechts","55","","fixation","","","",""
"null","img/L90_180.png","null","image-keyboard-response","257","274818","0.0-6.0-1.125","HEFI","1","f","rechts","55","","","object","j","90","false"
"null","<div style=""font-size:60px;"">+</div>","null","html-keyboard-response","258","275119","0.0-6.0-0.126","HEFI","1","f","rechts","55","","fixation","","","",""
"2367","img/L30_180.png","74","image-keyboard-response","259","277487","0.0-6.0-1.126","HEFI","1","f","rechts","55","","","object","j","30","true"
"null","<div style=""font-size:60px;"">+</div>","null","html-keyboard-response","260","277939","0.0-6.0-0.127","HEFI","1","f","rechts","55","","fixation","","","",""
"2619","img/90_210.png","70","image-keyboard-response","261","280558","0.0-6.0-1.127","HEFI","1","f","rechts","55","","","object","f","90","true"
"null","<div style=""font-size:60px;"">+</div>","null","html-keyboard-response","262","281060","0.0-6.0-0.128","HEFI","1","f","rechts","55","","fixation","","","",""
"null","img/120_270.png","null","image-keyboard-response","263","284062","0.0-6.0-1.128","HEFI","1","f","rechts","55","","","object","j","120","false"
"null","<div style=""font-size:60px;"">+</div>","null","html-keyboard-response","264","284514","0.0-6.0-0.129","HEFI","1","f","rechts","55","","fixation","","","",""
"2945","img/30_60.png","74","image-keyboard-response","265","287460","0.0-6.0-1.129","HEFI","1","f","rechts","55","","","object","j","30","true"
"null","<div style=""font-size:60px;"">+</div>","null","html-keyboard-response","266","287912","0.0-6.0-0.130","HEFI","1","f","rechts","55","","fixation","","","",""
"2827","img/120_330.png","74","image-keyboard-response","267","290740","0.0-6.0-1.130","HEFI","1","f","rechts","55","","","object","j","120","true"
"null","<div style=""font-size:60px;"">+</div>","null","html-keyboard-response","268","291142","0.0-6.0-0.131","HEFI","1","f","rechts","55","","fixation","","","",""
"null","img/120_150.png","null","image-keyboard-response","269","294144","0.0-6.0-1.131","HEFI","1","f","rechts","55","","","object","j","120","false"
"null","<div style=""font-size:60px;"">+</div>","null","html-keyboard-response","270","294546","0.0-6.0-0.132","HEFI","1","f","rechts","55","","fixation","","","",""
"1601","img/60_210.png","70","image-keyboard-response","271","296148","0.0-6.0-1.132","HEFI","1","f","rechts","55","","","object","f","60","true"
"null","<div style=""font-size:60px;"">+</div>","null","html-keyboard-response","272","296499","0.0-6.0-0.133","HEFI","1","f","rechts","55","","fixation","","","",""
"null","img/150_60.png","null","image-keyboard-response","273","299501","0.0-6.0-1.133","HEFI","1","f","rechts","55","","","object","f","150","false"
"null","<div style=""font-size:60px;"">+</div>","null","html-keyboard-response","274","299853","0.0-6.0-0.134","HEFI","1","f","rechts","55","","fixation","","","",""
"13","img/0_240.png","70","image-keyboard-response","275","299867","0.0-6.0-1.134","HEFI","1","f","rechts","55","","","object","f","0","true"
"null","<div style=""font-size:60px;"">+</div>","null","html-keyboard-response","276","300319","0.0-6.0-0.135","HEFI","1","f","rechts","55","","fixation","","","",""
"815","img/0_300.png","70","image-keyboard-response","277","301136","0.0-6.0-1.135","HEFI","1","f","rechts","55","","","object","f","0","true"
"null","<div style=""font-size:60px;"">+</div>","null","html-keyboard-response","278","301537","0.0-6.0-0.136","HEFI","1","f","rechts","55","","fixation","","","",""
"null","img/120_180.png","null","image-keyboard-response","279","304540","0.0-6.0-1.136","HEFI","1","f","rechts","55","","","object","f","120","false"
"null","<div style=""font-size:60px;"">+</div>","null","html-keyboard-response","280","304991","0.0-6.0-0.137","HEFI","1","f","rechts","55","","fixation","","","",""
"2556","img/90_240.png","74","image-keyboard-response","281","307548","0.0-6.0-1.137","HEFI","1","f","rechts","55","","","object","f","90","false"
"null","<div style=""font-size:60px;"">+</div>","null","html-keyboard-response","282","307850","0.0-6.0-0.138","HEFI","1","f","rechts","55","","fixation","","","",""
"2337","img/30_90.png","74","image-keyboard-response","283","310187","0.0-6.0-1.138","HEFI","1","f","rechts","55","","","object","j","30","true"
"null","<div style=""font-size:60px;"">+</div>","null","html-keyboard-response","284","310538","0.0-6.0-0.139","HEFI","1","f","rechts","55","","fixation","","","",""
"2956","img/90_300.png","70","image-keyboard-response","285","313495","0.0-6.0-1.139","HEFI","1","f","rechts","55","","","object","j","90","false"
"null","<div style=""font-size:60px;"">+</div>","null","html-keyboard-response","286","313947","0.0-6.0-0.140","HEFI","1","f","rechts","55","","fixation","","","",""
"2998","img/150_90.png","74","image-keyboard-response","287","316946","0.0-6.0-1.140","HEFI","1","f","rechts","55","","","object","f","150","false"
"null","<div style=""font-size:60px;"">+</div>","null","html-keyboard-response","288","317248","0.0-6.0-0.141","HEFI","1","f","rechts","55","","fixation","","","",""
"1889","img/90_120.png","74","image-keyboard-response","289","319138","0.0-6.0-1.141","HEFI","1","f","rechts","55","","","object","j","90","true"
"null","<div style=""font-size:60px;"">+</div>","null","html-keyboard-response","290","319440","0.0-6.0-0.142","HEFI","1","f","rechts","55","","fixation","","","",""
"926","img/0_150.png","74","image-keyboard-response","291","320367","0.0-6.0-1.142","HEFI","1","f","rechts","55","","","object","j","0","true"
"null","<div style=""font-size:60px;"">+</div>","null","html-keyboard-response","292","320869","0.0-6.0-0.143","HEFI","1","f","rechts","55","","fixation","","","",""
"1183","img/0_120.png","74","image-keyboard-response","293","322053","0.0-6.0-1.143","HEFI","1","f","rechts","55","","","object","j","0","true"
"null","<div style=""font-size:60px;"">+</div>","null","html-keyboard-response","294","322555","0.0-6.0-0.144","HEFI","1","f","rechts","55","","fixation","","","",""
"null","img/90_150.png","null","image-keyboard-response","295","325557","0.0-6.0-1.144","HEFI","1","f","rechts","55","","","object","j","90","false"
"null","<div style=""font-size:60px;"">+</div>","null","html-keyboard-response","296","325859","0.0-6.0-0.145","HEFI","1","f","rechts","55","","fixation","","","",""
"2583","img/L120_180.png","70","image-keyboard-response","297","328443","0.0-6.0-1.145","HEFI","1","f","rechts","55","","","object","j","120","false"
"null","<div style=""font-size:60px;"">+</div>","null","html-keyboard-response","298","328894","0.0-6.0-0.146","HEFI","1","f","rechts","55","","fixation","","","",""
"2002","img/90_30.png","70","image-keyboard-response","299","330896","0.0-6.0-1.146","HEFI","1","f","rechts","55","","","object","f","90","true"
"null","<div style=""font-size:60px;"">+</div>","null","html-keyboard-response","300","331248","0.0-6.0-0.147","HEFI","1","f","rechts","55","","fixation","","","",""
"824","img/0_30.png","74","image-keyboard-response","301","332072","0.0-6.0-1.147","HEFI","1","f","rechts","55","","","object","j","0","true"
"null","<div style=""font-size:60px;"">+</div>","null","html-keyboard-response","302","332574","0.0-6.0-0.148","HEFI","1","f","rechts","55","","fixation","","","",""
"862","img/0_210.png","70","image-keyboard-response","303","333436","0.0-6.0-1.148","HEFI","1","f","rechts","55","","","object","f","0","true"
"null","<div style=""font-size:60px;"">+</div>","null","html-keyboard-response","304","333938","0.0-6.0-0.149","HEFI","1","f","rechts","55","","fixation","","","",""
"2195","img/60_180.png","74","image-keyboard-response","305","336133","0.0-6.0-1.149","HEFI","1","f","rechts","55","","","object","f","60","false"
"null","<div style=""font-size:60px;"">+</div>","null","html-keyboard-response","306","336635","0.0-6.0-0.150","HEFI","1","f","rechts","55","","fixation","","","",""
"2126","img/L150_180.png","70","image-keyboard-response","307","338762","0.0-6.0-1.150","HEFI","1","f","rechts","55","","","object","j","150","false"
"null","<div style=""font-size:60px;"">+</div>","null","html-keyboard-response","308","339114","0.0-6.0-0.151","HEFI","1","f","rechts","55","","fixation","","","",""
"2255","img/30_240.png","70","image-keyboard-response","309","341369","0.0-6.0-1.151","HEFI","1","f","rechts","55","","","object","f","30","true"
"null","<div style=""font-size:60px;"">+</div>","null","html-keyboard-response","310","341871","0.0-6.0-0.152","HEFI","1","f","rechts","55","","fixation","","","",""
"1772","img/L60_180.png","74","image-keyboard-response","311","343643","0.0-6.0-1.152","HEFI","1","f","rechts","55","","","object","j","60","true"
"null","<div style=""font-size:60px;"">+</div>","null","html-keyboard-response","312","344094","0.0-6.0-0.153","HEFI","1","f","rechts","55","","fixation","","","",""
"982","img/30_300.png","70","image-keyboard-response","313","345078","0.0-6.0-1.153","HEFI","1","f","rechts","55","","","object","f","30","true"
"null","<div style=""font-size:60px;"">+</div>","null","html-keyboard-response","314","345429","0.0-6.0-0.154","HEFI","1","f","rechts","55","","fixation","","","",""
"1822","img/30_180.png","70","image-keyboard-response","315","347252","0.0-6.0-1.154","HEFI","1","f","rechts","55","","","object","f","30","true"
"null","<div style=""font-size:60px;"">+</div>","null","html-keyboard-response","316","347704","0.0-6.0-0.155","HEFI","1","f","rechts","55","","fixation","","","",""
"1721","img/90_330.png","74","image-keyboard-response","317","349427","0.0-6.0-1.155","HEFI","1","f","rechts","55","","","object","j","90","true"
"null","<div style=""font-size:60px;"">+</div>","null","html-keyboard-response","318","349728","0.0-6.0-0.156","HEFI","1","f","rechts","55","","fixation","","","",""
"1787","img/30_60.png","70","image-keyboard-response","319","351516","0.0-6.0-1.156","HEFI","1","f","rechts","55","","","object","j","30","false"
"null","<div style=""font-size:60px;"">+</div>","null","html-keyboard-response","320","351868","0.0-6.0-0.157","HEFI","1","f","rechts","55","","fixation","","","",""
"639","img/0_120.png","74","image-keyboard-response","321","352508","0.0-6.0-1.157","HEFI","1","f","rechts","55","","","object","j","0","true"
"null","<div style=""font-size:60px;"">+</div>","null","html-keyboard-response","322","353010","0.0-6.0-0.158","HEFI","1","f","rechts","55","","fixation","","","",""
"2044","img/30_180.png","70","image-keyboard-response","323","355056","0.0-6.0-1.158","HEFI","1","f","rechts","55","","","object","f","30","true"
"null","<div style=""font-size:60px;"">+</div>","null","html-keyboard-response","324","355557","0.0-6.0-0.159","HEFI","1","f","rechts","55","","fixation","","","",""
"2097","img/60_270.png","70","image-keyboard-response","325","357655","0.0-6.0-1.159","HEFI","1","f","rechts","55","","","object","f","60","true"
"null","<div style=""font-size:60px;"">+</div>","null","html-keyboard-response","326","358157","0.0-6.0-0.160","HEFI","1","f","rechts","55","","fixation","","","",""
"1893","img/L60_180.png","74","image-keyboard-response","327","360052","0.0-6.0-1.160","HEFI","1","f","rechts","55","","","object","j","60","true"
"null","<div style=""font-size:60px;"">+</div>","null","html-keyboard-response","328","360403","0.0-6.0-0.161","HEFI","1","f","rechts","55","","fixation","","","",""
"2445","img/150_60.png","70","image-keyboard-response","329","362849","0.0-6.0-1.161","HEFI","1","f","rechts","55","","","object","f","150","true"
"null","<div style=""font-size:60px;"">+</div>","null","html-keyboard-response","330","363251","0.0-6.0-0.162","HEFI","1","f","rechts","55","","fixation","","","",""
"2418","img/150_240.png","74","image-keyboard-response","331","365670","0.0-6.0-1.162","HEFI","1","f","rechts","55","","","object","j","150","true"
"null","<div style=""font-size:60px;"">+</div>","null","html-keyboard-response","332","366072","0.0-6.0-0.163","HEFI","1","f","rechts","55","","fixation","","","",""
"2499","img/120_270.png","74","image-keyboard-response","333","368571","0.0-6.0-1.163","HEFI","1","f","rechts","55","","","object","j","120","true"
"null","<div style=""font-size:60px;"">+</div>","null","html-keyboard-response","334","368973","0.0-6.0-0.164","HEFI","1","f","rechts","55","","fixation","","","",""
"1654","img/30_90.png","70","image-keyboard-response","335","370628","0.0-6.0-1.164","HEFI","1","f","rechts","55","","","object","j","30","false"
"null","<div style=""font-size:60px;"">+</div>","null","html-keyboard-response","336","370980","0.0-6.0-0.165","HEFI","1","f","rechts","55","","fixation","","","",""
"1928","img/90_330.png","74","image-keyboard-response","337","372909","0.0-6.0-1.165","HEFI","1","f","rechts","55","","","object","j","90","true"
"null","<div style=""font-size:60px;"">+</div>","null","html-keyboard-response","338","373260","0.0-6.0-0.166","HEFI","1","f","rechts","55","","fixation","","","",""
"908","img/0_30.png","74","image-keyboard-response","339","374169","0.0-6.0-1.166","HEFI","1","f","rechts","55","","","object","j","0","true"
"null","<div style=""font-size:60px;"">+</div>","null","html-keyboard-response","340","374621","0.0-6.0-0.167","HEFI","1","f","rechts","55","","fixation","","","",""
"2063","img/120_90.png","70","image-keyboard-response","341","376685","0.0-6.0-1.167","HEFI","1","f","rechts","55","","","object","f","120","true"
"null","<div style=""font-size:60px;"">+</div>","null","html-keyboard-response","342","377037","0.0-6.0-0.168","HEFI","1","f","rechts","55","","fixation","","","",""
"2217","img/30_300.png","70","image-keyboard-response","343","379254","0.0-6.0-1.168","HEFI","1","f","rechts","55","","","object","f","30","true"
"null","<div style=""font-size:60px;"">+</div>","null","html-keyboard-response","344","379706","0.0-6.0-0.169","HEFI","1","f","rechts","55","","fixation","","","",""
"1421","img/90_210.png","74","image-keyboard-response","345","381127","0.0-6.0-1.169","HEFI","1","f","rechts","55","","","object","f","90","false"
"null","<div style=""font-size:60px;"">+</div>","null","html-keyboard-response","346","381479","0.0-6.0-0.170","HEFI","1","f","rechts","55","","fixation","","","",""
"1424","img/150_270.png","74","image-keyboard-response","347","382905","0.0-6.0-1.170","HEFI","1","f","rechts","55","","","object","j","150","true"
"null","<div style=""font-size:60px;"">+</div>","null","html-keyboard-response","348","383206","0.0-6.0-0.171","HEFI","1","f","rechts","55","","fixation","","","",""
"2138","img/60_150.png","74","image-keyboard-response","349","385345","0.0-6.0-1.171","HEFI","1","f","rechts","55","","","object","j","60","true"
"null","<div style=""font-size:60px;"">+</div>","null","html-keyboard-response","350","385646","0.0-6.0-0.172","HEFI","1","f","rechts","55","","fixation","","","",""
"2988","img/120_330.png","74","image-keyboard-response","351","388635","0.0-6.0-1.172","HEFI","1","f","rechts","55","","","object","j","120","true"
"null","<div style=""font-size:60px;"">+</div>","null","html-keyboard-response","352","389037","0.0-6.0-0.173","HEFI","1","f","rechts","55","","fixation","","","",""
"1271","img/60_90.png","70","image-keyboard-response","353","390309","0.0-6.0-1.173","HEFI","1","f","rechts","55","","","object","j","60","false"
"null","<div style=""font-size:60px;"">+</div>","null","html-keyboard-response","354","390660","0.0-6.0-0.174","HEFI","1","f","rechts","55","","fixation","","","",""
"2219","img/L30_180.png","74","image-keyboard-response","355","392881","0.0-6.0-1.174","HEFI","1","f","rechts","55","","","object","j","30","true"
"null","<div style=""font-size:60px;"">+</div>","null","html-keyboard-response","356","393182","0.0-6.0-0.175","HEFI","1","f","rechts","55","","fixation","","","",""
"1063","img/30_270.png","70","image-keyboard-response","357","394246","0.0-6.0-1.175","HEFI","1","f","rechts","55","","","object","f","30","true"
"null","<div style=""font-size:60px;"">+</div>","null","html-keyboard-response","358","394648","0.0-6.0-0.176","HEFI","1","f","rechts","55","","fixation","","","",""
"1903","img/0_90.png","74","image-keyboard-response","359","396552","0.0-6.0-1.176","HEFI","1","f","rechts","55","","","object","j","0","true"
"null","<div style=""font-size:60px;"">+</div>","null","html-keyboard-response","360","396903","0.0-6.0-0.177","HEFI","1","f","rechts","55","","fixation","","","",""
"1346","img/0_330.png","70","image-keyboard-response","361","398250","0.0-6.0-1.177","HEFI","1","f","rechts","55","","","object","f","0","true"
"null","<div style=""font-size:60px;"">+</div>","null","html-keyboard-response","362","398751","0.0-6.0-0.178","HEFI","1","f","rechts","55","","fixation","","","",""
"1608","img/60_30.png","70","image-keyboard-response","363","400361","0.0-6.0-1.178","HEFI","1","f","rechts","55","","","object","f","60","true"
"null","<div style=""font-size:60px;"">+</div>","null","html-keyboard-response","364","400813","0.0-6.0-0.179","HEFI","1","f","rechts","55","","fixation","","","",""
"1835","img/60_210.png","74","image-keyboard-response","365","402649","0.0-6.0-1.179","HEFI","1","f","rechts","55","","","object","f","60","false"
"null","<div style=""font-size:60px;"">+</div>","null","html-keyboard-response","366","403100","0.0-6.0-0.180","HEFI","1","f","rechts","55","","fixation","","","",""
"2373","img/90_30.png","70","image-keyboard-response","367","405474","0.0-6.0-1.180","HEFI","1","f","rechts","55","","","object","f","90","true"
"null","<div style=""font-size:60px;"">+</div>","null","html-keyboard-response","368","405826","0.0-6.0-0.181","HEFI","1","f","rechts","55","","fixation","","","",""
"2450","img/120_180.png","74","image-keyboard-response","369","408277","0.0-6.0-1.181","HEFI","1","f","rechts","55","","","object","f","120","false"
"null","<div style=""font-size:60px;"">+</div>","null","html-keyboard-response","370","408679","0.0-6.0-0.182","HEFI","1","f","rechts","55","","fixation","","","",""
"2075","img/L120_180.png","70","image-keyboard-response","371","410755","0.0-6.0-1.182","HEFI","1","f","rechts","55","","","object","j","120","false"
"null","<div style=""font-size:60px;"">+</div>","null","html-keyboard-response","372","411157","0.0-6.0-0.183","HEFI","1","f","rechts","55","","fixation","","","",""
"1154","img/150_120.png","70","image-keyboard-response","373","412312","0.0-6.0-1.183","HEFI","1","f","rechts","55","","","object","f","150","true"
"null","<div style=""font-size:60px;"">+</div>","null","html-keyboard-response","374","412714","0.0-6.0-0.184","HEFI","1","f","rechts","55","","fixation","","","",""
"2163","img/90_240.png","70","image-keyboard-response","375","414878","0.0-6.0-1.184","HEFI","1","f","rechts","55","","","object","f","90","true"
"null","<div style=""font-size:60px;"">+</div>","null","html-keyboard-response","376","415180","0.0-6.0-0.185","HEFI","1","f","rechts","55","","fixation","","","",""
"733","img/0_240.png","70","image-keyboard-response","377","415914","0.0-6.0-1.185","HEFI","1","f","rechts","55","","","object","f","0","true"
"null","<div style=""font-size:60px;"">+</div>","null","html-keyboard-response","378","416416","0.0-6.0-0.186","HEFI","1","f","rechts","55","","fixation","","","",""
"1428","img/30_240.png","70","image-keyboard-response","379","417845","0.0-6.0-1.186","HEFI","1","f","rechts","55","","","object","f","30","true"
"null","<div style=""font-size:60px;"">+</div>","null","html-keyboard-response","380","418146","0.0-6.0-0.187","HEFI","1","f","rechts","55","","fixation","","","",""
"1067","img/60_330.png","74","image-keyboard-response","381","419214","0.0-6.0-1.187","HEFI","1","f","rechts","55","","","object","j","60","true"
"null","<div style=""font-size:60px;"">+</div>","null","html-keyboard-response","382","419666","0.0-6.0-0.188","HEFI","1","f","rechts","55","","fixation","","","",""
"716","img/0_150.png","74","image-keyboard-response","383","420382","0.0-6.0-1.188","HEFI","1","f","rechts","55","","","object","j","0","true"
"null","<div style=""font-size:60px;"">+</div>","null","html-keyboard-response","384","420834","0.0-6.0-0.189","HEFI","1","f","rechts","55","","fixation","","","",""
"1064","img/150_300.png","74","image-keyboard-response","385","421899","0.0-6.0-1.189","HEFI","1","f","rechts","55","","","object","j","150","true"
"null","<div style=""font-size:60px;"">+</div>","null","html-keyboard-response","386","422201","0.0-6.0-0.190","HEFI","1","f","rechts","55","","fixation","","","",""
"726","img/90_300.png","74","image-keyboard-response","387","422927","0.0-6.0-1.190","HEFI","1","f","rechts","55","","","object","j","90","true"
"null","<div style=""font-size:60px;"">+</div>","null","html-keyboard-response","388","423278","0.0-6.0-0.191","HEFI","1","f","rechts","55","","fixation","","","",""
"1554","img/150_90.png","70","image-keyboard-response","389","424833","0.0-6.0-1.191","HEFI","1","f","rechts","55","","","object","f","150","true"
"null","<div style=""font-size:60px;"">+</div>","null","html-keyboard-response","390","425235","0.0-6.0-0.192","HEFI","1","f","rechts","55","","fixation","","","",""
"588","img/0_60.png","74","image-keyboard-response","391","425824","0.0-6.0-1.192","HEFI","1","f","rechts","55","","","object","j","0","true"
"null","<div style=""font-size:60px;"">+</div>","null","html-keyboard-response","392","426226","0.0-6.0-0.193","HEFI","1","f","rechts","55","","fixation","","","",""
"1133","img/60_180.png","70","image-keyboard-response","393","427360","0.0-6.0-1.193","HEFI","1","f","rechts","55","","","object","f","60","true"
"null","<div style=""font-size:60px;"">+</div>","null","html-keyboard-response","394","427662","0.0-6.0-0.194","HEFI","1","f","rechts","55","","fixation","","","",""
"1028","img/90_120.png","74","image-keyboard-response","395","428691","0.0-6.0-1.194","HEFI","1","f","rechts","55","","","object","j","90","true"
"null","<div style=""font-size:60px;"">+</div>","null","html-keyboard-response","396","429042","0.0-6.0-0.195","HEFI","1","f","rechts","55","","fixation","","","",""
"632","img/0_210.png","70","image-keyboard-response","397","429675","0.0-6.0-1.195","HEFI","1","f","rechts","55","","","object","f","0","true"
"null","<div style=""font-size:60px;"">+</div>","null","html-keyboard-response","398","430177","0.0-6.0-0.196","HEFI","1","f","rechts","55","","fixation","","","",""
"1459","img/150_180.png","70","image-keyboard-response","399","431636","0.0-6.0-1.196","HEFI","1","f","rechts","55","","","object","f","150","true"
"null","<div style=""font-size:60px;"">+</div>","null","html-keyboard-response","400","431938","0.0-6.0-0.197","HEFI","1","f","rechts","55","","fixation","","","",""
"1070","img/30_120.png","74","image-keyboard-response","401","433008","0.0-6.0-1.197","HEFI","1","f","rechts","55","","","object","j","30","true"
"null","<div style=""font-size:60px;"">+</div>","null","html-keyboard-response","402","433310","0.0-6.0-0.198","HEFI","1","f","rechts","55","","fixation","","","",""
"1749","img/120_30.png","70","image-keyboard-response","403","435059","0.0-6.0-1.198","HEFI","1","f","rechts","55","","","object","f","120","true"
"null","<div style=""font-size:60px;"">+</div>","null","html-keyboard-response","404","435461","0.0-6.0-0.199","HEFI","1","f","rechts","55","","fixation","","","",""
"2121","img/L90_180.png","74","image-keyboard-response","405","437582","0.0-6.0-1.199","HEFI","1","f","rechts","55","","","object","j","90","true"
"null","<div style=""font-size:60px;"">+</div>","null","html-keyboard-response","406","437884","0.0-6.0-0.200","HEFI","1","f","rechts","55","","fixation","","","",""
"1331","img/90_60.png","70","image-keyboard-response","407","439215","0.0-6.0-1.200","HEFI","1","f","rechts","55","","","object","f","90","true"
"null","<div style=""font-size:60px;"">+</div>","null","html-keyboard-response","408","439516","0.0-6.0-0.201","HEFI","1","f","rechts","55","","fixation","","","",""
"1741","img/90_150.png","74","image-keyboard-response","409","441258","0.0-6.0-1.201","HEFI","1","f","rechts","55","","","object","j","90","true"
"null","<div style=""font-size:60px;"">+</div>","null","html-keyboard-response","410","441710","0.0-6.0-0.202","HEFI","1","f","rechts","55","","fixation","","","",""
"553","img/0_270.png","70","image-keyboard-response","411","442263","0.0-6.0-1.202","HEFI","1","f","rechts","55","","","object","f","0","true"
"null","<div style=""font-size:60px;"">+</div>","null","html-keyboard-response","412","442715","0.0-6.0-0.203","HEFI","1","f","rechts","55","","fixation","","","",""
"568","img/0_300.png","70","image-keyboard-response","413","443283","0.0-6.0-1.203","HEFI","1","f","rechts","55","","","object","f","0","true"
"null","<div style=""font-size:60px;"">+</div>","null","html-keyboard-response","414","443635","0.0-6.0-0.204","HEFI","1","f","rechts","55","","fixation","","","",""
"1358","img/L150_180.png","74","image-keyboard-response","415","444994","0.0-6.0-1.204","HEFI","1","f","rechts","55","","","object","j","150","true"
"null","<div style=""font-size:60px;"">+</div>","null","html-keyboard-response","416","445396","0.0-6.0-0.205","HEFI","1","f","rechts","55","","fixation","","","",""
"1863","img/120_150.png","70","image-keyboard-response","417","447259","0.0-6.0-1.205","HEFI","1","f","rechts","55","","","object","j","120","false"
"null","<div style=""font-size:60px;"">+</div>","null","html-keyboard-response","418","447761","0.0-6.0-0.206","HEFI","1","f","rechts","55","","fixation","","","",""
"2955","img/90_180.png","70","image-keyboard-response","419","450717","0.0-6.0-1.206","HEFI","1","f","rechts","55","","","object","f","90","true"
"null","<div style=""font-size:60px;"">+</div>","null","html-keyboard-response","420","451168","0.0-6.0-0.207","HEFI","1","f","rechts","55","","fixation","","","",""
"2277","img/120_210.png","74","image-keyboard-response","421","453446","0.0-6.0-1.207","HEFI","1","f","rechts","55","","","object","f","120","false"
"14228","<p>Du hast in 65% der Versuche korrekt entschieden.</p><p>Deine durchschnittliche Reaktionszeit war  1506ms.</p><p>Dr&uuml;cke eine beliebige Taste, um die Session zu beenden. Vielen Dank!</p>","72","html-keyboard-response","422","467676","0.0-7.0","HEFI","1","f","rechts","55","","","","","",""
