"rt","stimulus","key_press","trial_type","trial_index","time_elapsed","internal_node_id","subject","session","sex","handedness","age","responses","test_part","condition","correct_response","angle","correct"
"2034","<p>Mental Rotation Experiment.</p> <p>Dr&uuml;cke eine beliebige Taste, um anzufangen.</p>","70","html-keyboard-response","0","2037","0.0-0.0","HEFI","4","f","rechts","55","","","","","",""
"2399","","","survey-text","1","4438","0.0-1.0","HEFI","4","f","rechts","55","{""Q0"":""HEFI""}","","","","",""
"2032","","","survey-text","2","6470","0.0-2.0","HEFI","4","f","rechts","55","{""Q0"":""4""}","","","","",""
"3963","","","survey-multi-choice","3","10435","0.0-3.0","HEFI","4","f","rechts","55","{""Q0"":""f"",""Q1"":""rechts""}","","","","",""
"1947","","","survey-text","4","12383","0.0-4.0","HEFI","4","f","rechts","55","{""Q0"":""55""}","","","","",""
"6918","<p>Stell dir vor, dass du vor einem runden Tisch stehst, auf dem sich ein blauer Ball am Tischrand befindet. Entlang des Tischrands ist jeweils ein verschieden langer Pfeil. Nun bleibst du an deinem Platz vor dem Tisch und rotierst den Tisch entlang des Pfeils (gleiche Richtung und Länge). </p> <img src='img/30_180.png'></img> <br><p> Nachdem du diese (vorgestellte) Rotation durchgef&uuml;hrt hast, schau in Richtung der Tischmitte, und entscheide dann, ob der Ball links oder rechts von dir liegt.</p> <p>Dr&uuml;cke die <strong>'f'</strong>-Taste f&uuml;r links, die <strong>'j'</strong>-Taste f&uuml;r rechts.</p><br><p> Das Bild wird jeweils 1 Sekunde lang pr&auml;sentiert. Du hast 3 Sekunden Zeit eine Entscheidung zu treffen.</p>","16","html-keyboard-response","5","19303","0.0-5.0","HEFI","4","f","rechts","55","","","","","",""
"null","<div style=""font-size:60px;"">+</div>","null","html-keyboard-response","6","20608","0.0-6.0-0.0","HEFI","4","f","rechts","55","","fixation","","","",""
"310","img/150_300.png","70","image-keyboard-response","7","20919","0.0-6.0-1.0","HEFI","4","f","rechts","55","","","object","j","150","false"
"null","<div style=""font-size:60px;"">+</div>","null","html-keyboard-response","8","21371","0.0-6.0-0.1","HEFI","4","f","rechts","55","","fixation","","","",""
"1181","img/150_270.png","74","image-keyboard-response","9","22553","0.0-6.0-1.1","HEFI","4","f","rechts","55","","","object","j","150","true"
"null","<div style=""font-size:60px;"">+</div>","null","html-keyboard-response","10","23055","0.0-6.0-0.2","HEFI","4","f","rechts","55","","fixation","","","",""
"1334","img/90_180.png","70","image-keyboard-response","11","24391","0.0-6.0-1.2","HEFI","4","f","rechts","55","","","object","f","90","true"
"null","<div style=""font-size:60px;"">+</div>","null","html-keyboard-response","12","24842","0.0-6.0-0.3","HEFI","4","f","rechts","55","","fixation","","","",""
"1062","img/60_210.png","70","image-keyboard-response","13","25905","0.0-6.0-1.3","HEFI","4","f","rechts","55","","","object","f","60","true"
"null","<div style=""font-size:60px;"">+</div>","null","html-keyboard-response","14","26207","0.0-6.0-0.4","HEFI","4","f","rechts","55","","fixation","","","",""
"1143","img/150_240.png","74","image-keyboard-response","15","27351","0.0-6.0-1.4","HEFI","4","f","rechts","55","","","object","j","150","true"
"null","<div style=""font-size:60px;"">+</div>","null","html-keyboard-response","16","27703","0.0-6.0-0.5","HEFI","4","f","rechts","55","","fixation","","","",""
"1086","img/60_150.png","74","image-keyboard-response","17","28791","0.0-6.0-1.5","HEFI","4","f","rechts","55","","","object","j","60","true"
"null","<div style=""font-size:60px;"">+</div>","null","html-keyboard-response","18","29142","0.0-6.0-0.6","HEFI","4","f","rechts","55","","fixation","","","",""
"956","img/L90_180.png","74","image-keyboard-response","19","30099","0.0-6.0-1.6","HEFI","4","f","rechts","55","","","object","j","90","true"
"null","<div style=""font-size:60px;"">+</div>","null","html-keyboard-response","20","30400","0.0-6.0-0.7","HEFI","4","f","rechts","55","","fixation","","","",""
"1219","img/150_120.png","70","image-keyboard-response","21","31620","0.0-6.0-1.7","HEFI","4","f","rechts","55","","","object","f","150","true"
"null","<div style=""font-size:60px;"">+</div>","null","html-keyboard-response","22","32022","0.0-6.0-0.8","HEFI","4","f","rechts","55","","fixation","","","",""
"751","img/0_120.png","74","image-keyboard-response","23","32775","0.0-6.0-1.8","HEFI","4","f","rechts","55","","","object","j","0","true"
"null","<div style=""font-size:60px;"">+</div>","null","html-keyboard-response","24","33077","0.0-6.0-0.9","HEFI","4","f","rechts","55","","fixation","","","",""
"1202","img/150_60.png","70","image-keyboard-response","25","34281","0.0-6.0-1.9","HEFI","4","f","rechts","55","","","object","f","150","true"
"null","<div style=""font-size:60px;"">+</div>","null","html-keyboard-response","26","34581","0.0-6.0-0.10","HEFI","4","f","rechts","55","","fixation","","","",""
"1093","img/90_120.png","74","image-keyboard-response","27","35675","0.0-6.0-1.10","HEFI","4","f","rechts","55","","","object","j","90","true"
"null","<div style=""font-size:60px;"">+</div>","null","html-keyboard-response","28","36177","0.0-6.0-0.11","HEFI","4","f","rechts","55","","fixation","","","",""
"1356","img/90_60.png","70","image-keyboard-response","29","37534","0.0-6.0-1.11","HEFI","4","f","rechts","55","","","object","f","90","true"
"null","<div style=""font-size:60px;"">+</div>","null","html-keyboard-response","30","37836","0.0-6.0-0.12","HEFI","4","f","rechts","55","","fixation","","","",""
"1118","img/30_90.png","74","image-keyboard-response","31","38954","0.0-6.0-1.12","HEFI","4","f","rechts","55","","","object","j","30","true"
"null","<div style=""font-size:60px;"">+</div>","null","html-keyboard-response","32","39406","0.0-6.0-0.13","HEFI","4","f","rechts","55","","fixation","","","",""
"788","img/0_240.png","70","image-keyboard-response","33","40195","0.0-6.0-1.13","HEFI","4","f","rechts","55","","","object","f","0","true"
"null","<div style=""font-size:60px;"">+</div>","null","html-keyboard-response","34","40496","0.0-6.0-0.14","HEFI","4","f","rechts","55","","fixation","","","",""
"825","img/0_150.png","74","image-keyboard-response","35","41322","0.0-6.0-1.14","HEFI","4","f","rechts","55","","","object","j","0","true"
"null","<div style=""font-size:60px;"">+</div>","null","html-keyboard-response","36","41623","0.0-6.0-0.15","HEFI","4","f","rechts","55","","fixation","","","",""
"965","img/150_90.png","70","image-keyboard-response","37","42589","0.0-6.0-1.15","HEFI","4","f","rechts","55","","","object","f","150","true"
"null","<div style=""font-size:60px;"">+</div>","null","html-keyboard-response","38","42991","0.0-6.0-0.16","HEFI","4","f","rechts","55","","fixation","","","",""
"972","img/90_210.png","74","image-keyboard-response","39","43964","0.0-6.0-1.16","HEFI","4","f","rechts","55","","","object","f","90","false"
"null","<div style=""font-size:60px;"">+</div>","null","html-keyboard-response","40","44316","0.0-6.0-0.17","HEFI","4","f","rechts","55","","fixation","","","",""
"1296","img/60_90.png","74","image-keyboard-response","41","45613","0.0-6.0-1.17","HEFI","4","f","rechts","55","","","object","j","60","true"
"null","<div style=""font-size:60px;"">+</div>","null","html-keyboard-response","42","45964","0.0-6.0-0.18","HEFI","4","f","rechts","55","","fixation","","","",""
"1084","img/120_210.png","74","image-keyboard-response","43","47049","0.0-6.0-1.18","HEFI","4","f","rechts","55","","","object","f","120","false"
"null","<div style=""font-size:60px;"">+</div>","null","html-keyboard-response","44","47351","0.0-6.0-0.19","HEFI","4","f","rechts","55","","fixation","","","",""
"1172","img/120_30.png","70","image-keyboard-response","45","48524","0.0-6.0-1.19","HEFI","4","f","rechts","55","","","object","f","120","true"
"null","<div style=""font-size:60px;"">+</div>","null","html-keyboard-response","46","48826","0.0-6.0-0.20","HEFI","4","f","rechts","55","","fixation","","","",""
"796","img/0_60.png","74","image-keyboard-response","47","49623","0.0-6.0-1.20","HEFI","4","f","rechts","55","","","object","j","0","true"
"null","<div style=""font-size:60px;"">+</div>","null","html-keyboard-response","48","50025","0.0-6.0-0.21","HEFI","4","f","rechts","55","","fixation","","","",""
"1016","img/120_150.png","70","image-keyboard-response","49","51042","0.0-6.0-1.21","HEFI","4","f","rechts","55","","","object","j","120","false"
"null","<div style=""font-size:60px;"">+</div>","null","html-keyboard-response","50","51394","0.0-6.0-0.22","HEFI","4","f","rechts","55","","fixation","","","",""
"863","img/30_120.png","74","image-keyboard-response","51","52257","0.0-6.0-1.22","HEFI","4","f","rechts","55","","","object","j","30","true"
"null","<div style=""font-size:60px;"">+</div>","null","html-keyboard-response","52","52558","0.0-6.0-0.23","HEFI","4","f","rechts","55","","fixation","","","",""
"1057","img/L60_180.png","74","image-keyboard-response","53","53615","0.0-6.0-1.23","HEFI","4","f","rechts","55","","","object","j","60","true"
"null","<div style=""font-size:60px;"">+</div>","null","html-keyboard-response","54","53967","0.0-6.0-0.24","HEFI","4","f","rechts","55","","fixation","","","",""
"1047","img/90_330.png","74","image-keyboard-response","55","55015","0.0-6.0-1.24","HEFI","4","f","rechts","55","","","object","j","90","true"
"null","<div style=""font-size:60px;"">+</div>","null","html-keyboard-response","56","55317","0.0-6.0-0.25","HEFI","4","f","rechts","55","","fixation","","","",""
"1263","img/30_300.png","70","image-keyboard-response","57","56581","0.0-6.0-1.25","HEFI","4","f","rechts","55","","","object","f","30","true"
"null","<div style=""font-size:60px;"">+</div>","null","html-keyboard-response","58","56933","0.0-6.0-0.26","HEFI","4","f","rechts","55","","fixation","","","",""
"1011","img/30_240.png","70","image-keyboard-response","59","57944","0.0-6.0-1.26","HEFI","4","f","rechts","55","","","object","f","30","true"
"null","<div style=""font-size:60px;"">+</div>","null","html-keyboard-response","60","58395","0.0-6.0-0.27","HEFI","4","f","rechts","55","","fixation","","","",""
"948","img/0_300.png","70","image-keyboard-response","61","59343","0.0-6.0-1.27","HEFI","4","f","rechts","55","","","object","f","0","true"
"null","<div style=""font-size:60px;"">+</div>","null","html-keyboard-response","62","59744","0.0-6.0-0.28","HEFI","4","f","rechts","55","","fixation","","","",""
"1150","img/30_60.png","74","image-keyboard-response","63","60894","0.0-6.0-1.28","HEFI","4","f","rechts","55","","","object","j","30","true"
"null","<div style=""font-size:60px;"">+</div>","null","html-keyboard-response","64","61246","0.0-6.0-0.29","HEFI","4","f","rechts","55","","fixation","","","",""
"837","img/0_30.png","74","image-keyboard-response","65","62083","0.0-6.0-1.29","HEFI","4","f","rechts","55","","","object","j","0","true"
"null","<div style=""font-size:60px;"">+</div>","null","html-keyboard-response","66","62484","0.0-6.0-0.30","HEFI","4","f","rechts","55","","fixation","","","",""
"1109","img/0_270.png","70","image-keyboard-response","67","63594","0.0-6.0-1.30","HEFI","4","f","rechts","55","","","object","f","0","true"
"null","<div style=""font-size:60px;"">+</div>","null","html-keyboard-response","68","63945","0.0-6.0-0.31","HEFI","4","f","rechts","55","","fixation","","","",""
"1356","img/L30_180.png","74","image-keyboard-response","69","65303","0.0-6.0-1.31","HEFI","4","f","rechts","55","","","object","j","30","true"
"null","<div style=""font-size:60px;"">+</div>","null","html-keyboard-response","70","65804","0.0-6.0-0.32","HEFI","4","f","rechts","55","","fixation","","","",""
"1073","img/90_300.png","74","image-keyboard-response","71","66878","0.0-6.0-1.32","HEFI","4","f","rechts","55","","","object","j","90","true"
"null","<div style=""font-size:60px;"">+</div>","null","html-keyboard-response","72","67379","0.0-6.0-0.33","HEFI","4","f","rechts","55","","fixation","","","",""
"1233","img/60_270.png","74","image-keyboard-response","73","68615","0.0-6.0-1.33","HEFI","4","f","rechts","55","","","object","f","60","false"
"null","<div style=""font-size:60px;"">+</div>","null","html-keyboard-response","74","69016","0.0-6.0-0.34","HEFI","4","f","rechts","55","","fixation","","","",""
"1450","img/60_180.png","70","image-keyboard-response","75","70468","0.0-6.0-1.34","HEFI","4","f","rechts","55","","","object","f","60","true"
"null","<div style=""font-size:60px;"">+</div>","null","html-keyboard-response","76","70919","0.0-6.0-0.35","HEFI","4","f","rechts","55","","fixation","","","",""
"1060","img/120_180.png","74","image-keyboard-response","77","71980","0.0-6.0-1.35","HEFI","4","f","rechts","55","","","object","f","120","false"
"null","<div style=""font-size:60px;"">+</div>","null","html-keyboard-response","78","72431","0.0-6.0-0.36","HEFI","4","f","rechts","55","","fixation","","","",""
"1364","img/90_240.png","74","image-keyboard-response","79","73796","0.0-6.0-1.36","HEFI","4","f","rechts","55","","","object","f","90","false"
"null","<div style=""font-size:60px;"">+</div>","null","html-keyboard-response","80","74247","0.0-6.0-0.37","HEFI","4","f","rechts","55","","fixation","","","",""
"958","img/30_270.png","70","image-keyboard-response","81","75206","0.0-6.0-1.37","HEFI","4","f","rechts","55","","","object","f","30","true"
"null","<div style=""font-size:60px;"">+</div>","null","html-keyboard-response","82","75607","0.0-6.0-0.38","HEFI","4","f","rechts","55","","fixation","","","",""
"1060","img/150_180.png","70","image-keyboard-response","83","76668","0.0-6.0-1.38","HEFI","4","f","rechts","55","","","object","f","150","true"
"null","<div style=""font-size:60px;"">+</div>","null","html-keyboard-response","84","77069","0.0-6.0-0.39","HEFI","4","f","rechts","55","","fixation","","","",""
"1701","img/90_150.png","74","image-keyboard-response","85","78771","0.0-6.0-1.39","HEFI","4","f","rechts","55","","","object","j","90","true"
"null","<div style=""font-size:60px;"">+</div>","null","html-keyboard-response","86","79173","0.0-6.0-0.40","HEFI","4","f","rechts","55","","fixation","","","",""
"1362","img/120_330.png","70","image-keyboard-response","87","80537","0.0-6.0-1.40","HEFI","4","f","rechts","55","","","object","j","120","false"
"null","<div style=""font-size:60px;"">+</div>","null","html-keyboard-response","88","80838","0.0-6.0-0.41","HEFI","4","f","rechts","55","","fixation","","","",""
"2073","img/L150_180.png","74","image-keyboard-response","89","82912","0.0-6.0-1.41","HEFI","4","f","rechts","55","","","object","j","150","true"
"null","<div style=""font-size:60px;"">+</div>","null","html-keyboard-response","90","83364","0.0-6.0-0.42","HEFI","4","f","rechts","55","","fixation","","","",""
"1612","img/120_270.png","74","image-keyboard-response","91","84977","0.0-6.0-1.42","HEFI","4","f","rechts","55","","","object","j","120","true"
"null","<div style=""font-size:60px;"">+</div>","null","html-keyboard-response","92","85329","0.0-6.0-0.43","HEFI","4","f","rechts","55","","fixation","","","",""
"726","img/0_330.png","70","image-keyboard-response","93","86056","0.0-6.0-1.43","HEFI","4","f","rechts","55","","","object","f","0","true"
"null","<div style=""font-size:60px;"">+</div>","null","html-keyboard-response","94","86558","0.0-6.0-0.44","HEFI","4","f","rechts","55","","fixation","","","",""
"1592","img/120_90.png","70","image-keyboard-response","95","88152","0.0-6.0-1.44","HEFI","4","f","rechts","55","","","object","f","120","true"
"null","<div style=""font-size:60px;"">+</div>","null","html-keyboard-response","96","88653","0.0-6.0-0.45","HEFI","4","f","rechts","55","","fixation","","","",""
"843","img/0_210.png","70","image-keyboard-response","97","89497","0.0-6.0-1.45","HEFI","4","f","rechts","55","","","object","f","0","true"
"null","<div style=""font-size:60px;"">+</div>","null","html-keyboard-response","98","89799","0.0-6.0-0.46","HEFI","4","f","rechts","55","","fixation","","","",""
"1153","img/30_180.png","74","image-keyboard-response","99","90953","0.0-6.0-1.46","HEFI","4","f","rechts","55","","","object","f","30","false"
"null","<div style=""font-size:60px;"">+</div>","null","html-keyboard-response","100","91455","0.0-6.0-0.47","HEFI","4","f","rechts","55","","fixation","","","",""
"1657","img/L120_180.png","74","image-keyboard-response","101","93112","0.0-6.0-1.47","HEFI","4","f","rechts","55","","","object","j","120","true"
"null","<div style=""font-size:60px;"">+</div>","null","html-keyboard-response","102","93614","0.0-6.0-0.48","HEFI","4","f","rechts","55","","fixation","","","",""
"1063","img/60_330.png","74","image-keyboard-response","103","94678","0.0-6.0-1.48","HEFI","4","f","rechts","55","","","object","j","60","true"
"null","<div style=""font-size:60px;"">+</div>","null","html-keyboard-response","104","95030","0.0-6.0-0.49","HEFI","4","f","rechts","55","","fixation","","","",""
"1379","img/90_30.png","70","image-keyboard-response","105","96410","0.0-6.0-1.49","HEFI","4","f","rechts","55","","","object","f","90","true"
"null","<div style=""font-size:60px;"">+</div>","null","html-keyboard-response","106","96911","0.0-6.0-0.50","HEFI","4","f","rechts","55","","fixation","","","",""
"1337","img/0_90.png","74","image-keyboard-response","107","98249","0.0-6.0-1.50","HEFI","4","f","rechts","55","","","object","j","0","true"
"null","<div style=""font-size:60px;"">+</div>","null","html-keyboard-response","108","98750","0.0-6.0-0.51","HEFI","4","f","rechts","55","","fixation","","","",""
"1064","img/60_30.png","70","image-keyboard-response","109","99815","0.0-6.0-1.51","HEFI","4","f","rechts","55","","","object","f","60","true"
"null","<div style=""font-size:60px;"">+</div>","null","html-keyboard-response","110","100167","0.0-6.0-0.52","HEFI","4","f","rechts","55","","fixation","","","",""
"1594","img/30_120.png","70","image-keyboard-response","111","101761","0.0-6.0-1.52","HEFI","4","f","rechts","55","","","object","j","30","false"
"null","<div style=""font-size:60px;"">+</div>","null","html-keyboard-response","112","102062","0.0-6.0-0.53","HEFI","4","f","rechts","55","","fixation","","","",""
"1656","img/30_240.png","70","image-keyboard-response","113","103719","0.0-6.0-1.53","HEFI","4","f","rechts","55","","","object","f","30","true"
"null","<div style=""font-size:60px;"">+</div>","null","html-keyboard-response","114","104170","0.0-6.0-0.54","HEFI","4","f","rechts","55","","fixation","","","",""
"1225","img/150_60.png","74","image-keyboard-response","115","105396","0.0-6.0-1.54","HEFI","4","f","rechts","55","","","object","f","150","false"
"null","<div style=""font-size:60px;"">+</div>","null","html-keyboard-response","116","105748","0.0-6.0-0.55","HEFI","4","f","rechts","55","","fixation","","","",""
"1360","img/150_240.png","74","image-keyboard-response","117","107108","0.0-6.0-1.55","HEFI","4","f","rechts","55","","","object","j","150","true"
"null","<div style=""font-size:60px;"">+</div>","null","html-keyboard-response","118","107459","0.0-6.0-0.56","HEFI","4","f","rechts","55","","fixation","","","",""
"1887","img/90_120.png","70","image-keyboard-response","119","109347","0.0-6.0-1.56","HEFI","4","f","rechts","55","","","object","j","90","false"
"null","<div style=""font-size:60px;"">+</div>","null","html-keyboard-response","120","109799","0.0-6.0-0.57","HEFI","4","f","rechts","55","","fixation","","","",""
"1725","img/90_150.png","74","image-keyboard-response","121","111525","0.0-6.0-1.57","HEFI","4","f","rechts","55","","","object","j","90","true"
"null","<div style=""font-size:60px;"">+</div>","null","html-keyboard-response","122","112025","0.0-6.0-0.58","HEFI","4","f","rechts","55","","fixation","","","",""
"854","img/30_300.png","70","image-keyboard-response","123","112881","0.0-6.0-1.58","HEFI","4","f","rechts","55","","","object","f","30","true"
"null","<div style=""font-size:60px;"">+</div>","null","html-keyboard-response","124","113332","0.0-6.0-0.59","HEFI","4","f","rechts","55","","fixation","","","",""
"875","img/0_120.png","74","image-keyboard-response","125","114209","0.0-6.0-1.59","HEFI","4","f","rechts","55","","","object","j","0","true"
"null","<div style=""font-size:60px;"">+</div>","null","html-keyboard-response","126","114660","0.0-6.0-0.60","HEFI","4","f","rechts","55","","fixation","","","",""
"764","img/0_150.png","74","image-keyboard-response","127","115425","0.0-6.0-1.60","HEFI","4","f","rechts","55","","","object","j","0","true"
"null","<div style=""font-size:60px;"">+</div>","null","html-keyboard-response","128","115927","0.0-6.0-0.61","HEFI","4","f","rechts","55","","fixation","","","",""
"900","img/0_300.png","70","image-keyboard-response","129","116827","0.0-6.0-1.61","HEFI","4","f","rechts","55","","","object","f","0","true"
"null","<div style=""font-size:60px;"">+</div>","null","html-keyboard-response","130","117128","0.0-6.0-0.62","HEFI","4","f","rechts","55","","fixation","","","",""
"783","img/0_330.png","70","image-keyboard-response","131","117912","0.0-6.0-1.62","HEFI","4","f","rechts","55","","","object","f","0","true"
"null","<div style=""font-size:60px;"">+</div>","null","html-keyboard-response","132","118213","0.0-6.0-0.63","HEFI","4","f","rechts","55","","fixation","","","",""
"1022","img/30_60.png","74","image-keyboard-response","133","119236","0.0-6.0-1.63","HEFI","4","f","rechts","55","","","object","j","30","true"
"null","<div style=""font-size:60px;"">+</div>","null","html-keyboard-response","134","119687","0.0-6.0-0.64","HEFI","4","f","rechts","55","","fixation","","","",""
"1152","img/90_330.png","74","image-keyboard-response","135","120841","0.0-6.0-1.64","HEFI","4","f","rechts","55","","","object","j","90","true"
"null","<div style=""font-size:60px;"">+</div>","null","html-keyboard-response","136","121242","0.0-6.0-0.65","HEFI","4","f","rechts","55","","fixation","","","",""
"1183","img/60_90.png","70","image-keyboard-response","137","122426","0.0-6.0-1.65","HEFI","4","f","rechts","55","","","object","j","60","false"
"null","<div style=""font-size:60px;"">+</div>","null","html-keyboard-response","138","122728","0.0-6.0-0.66","HEFI","4","f","rechts","55","","fixation","","","",""
"1104","img/60_180.png","74","image-keyboard-response","139","123834","0.0-6.0-1.66","HEFI","4","f","rechts","55","","","object","f","60","false"
"null","<div style=""font-size:60px;"">+</div>","null","html-keyboard-response","140","124235","0.0-6.0-0.67","HEFI","4","f","rechts","55","","fixation","","","",""
"1770","img/90_180.png","70","image-keyboard-response","141","126006","0.0-6.0-1.67","HEFI","4","f","rechts","55","","","object","f","90","true"
"null","<div style=""font-size:60px;"">+</div>","null","html-keyboard-response","142","126508","0.0-6.0-0.68","HEFI","4","f","rechts","55","","fixation","","","",""
"1599","img/90_30.png","70","image-keyboard-response","143","128107","0.0-6.0-1.68","HEFI","4","f","rechts","55","","","object","f","90","true"
"null","<div style=""font-size:60px;"">+</div>","null","html-keyboard-response","144","128558","0.0-6.0-0.69","HEFI","4","f","rechts","55","","fixation","","","",""
"1084","img/120_210.png","74","image-keyboard-response","145","129643","0.0-6.0-1.69","HEFI","4","f","rechts","55","","","object","f","120","false"
"null","<div style=""font-size:60px;"">+</div>","null","html-keyboard-response","146","129995","0.0-6.0-0.70","HEFI","4","f","rechts","55","","fixation","","","",""
"883","img/0_240.png","70","image-keyboard-response","147","130880","0.0-6.0-1.70","HEFI","4","f","rechts","55","","","object","f","0","true"
"null","<div style=""font-size:60px;"">+</div>","null","html-keyboard-response","148","131181","0.0-6.0-0.71","HEFI","4","f","rechts","55","","fixation","","","",""
"968","img/120_330.png","74","image-keyboard-response","149","132150","0.0-6.0-1.71","HEFI","4","f","rechts","55","","","object","j","120","true"
"null","<div style=""font-size:60px;"">+</div>","null","html-keyboard-response","150","132452","0.0-6.0-0.72","HEFI","4","f","rechts","55","","fixation","","","",""
"971","img/0_90.png","74","image-keyboard-response","151","133423","0.0-6.0-1.72","HEFI","4","f","rechts","55","","","object","j","0","true"
"null","<div style=""font-size:60px;"">+</div>","null","html-keyboard-response","152","133725","0.0-6.0-0.73","HEFI","4","f","rechts","55","","fixation","","","",""
"688","img/0_60.png","74","image-keyboard-response","153","134414","0.0-6.0-1.73","HEFI","4","f","rechts","55","","","object","j","0","true"
"null","<div style=""font-size:60px;"">+</div>","null","html-keyboard-response","154","134816","0.0-6.0-0.74","HEFI","4","f","rechts","55","","fixation","","","",""
"980","img/150_90.png","70","image-keyboard-response","155","135797","0.0-6.0-1.74","HEFI","4","f","rechts","55","","","object","f","150","true"
"null","<div style=""font-size:60px;"">+</div>","null","html-keyboard-response","156","136098","0.0-6.0-0.75","HEFI","4","f","rechts","55","","fixation","","","",""
"1275","img/L120_180.png","74","image-keyboard-response","157","137374","0.0-6.0-1.75","HEFI","4","f","rechts","55","","","object","j","120","true"
"null","<div style=""font-size:60px;"">+</div>","null","html-keyboard-response","158","137776","0.0-6.0-0.76","HEFI","4","f","rechts","55","","fixation","","","",""
"1167","img/90_300.png","74","image-keyboard-response","159","138943","0.0-6.0-1.76","HEFI","4","f","rechts","55","","","object","j","90","true"
"null","<div style=""font-size:60px;"">+</div>","null","html-keyboard-response","160","139444","0.0-6.0-0.77","HEFI","4","f","rechts","55","","fixation","","","",""
"1538","img/L60_180.png","74","image-keyboard-response","161","140983","0.0-6.0-1.77","HEFI","4","f","rechts","55","","","object","j","60","true"
"null","<div style=""font-size:60px;"">+</div>","null","html-keyboard-response","162","141435","0.0-6.0-0.78","HEFI","4","f","rechts","55","","fixation","","","",""
"967","img/90_60.png","70","image-keyboard-response","163","142403","0.0-6.0-1.78","HEFI","4","f","rechts","55","","","object","f","90","true"
"null","<div style=""font-size:60px;"">+</div>","null","html-keyboard-response","164","142705","0.0-6.0-0.79","HEFI","4","f","rechts","55","","fixation","","","",""
"935","img/60_330.png","74","image-keyboard-response","165","143640","0.0-6.0-1.79","HEFI","4","f","rechts","55","","","object","j","60","true"
"null","<div style=""font-size:60px;"">+</div>","null","html-keyboard-response","166","144041","0.0-6.0-0.80","HEFI","4","f","rechts","55","","fixation","","","",""
"1335","img/60_150.png","74","image-keyboard-response","167","145377","0.0-6.0-1.80","HEFI","4","f","rechts","55","","","object","j","60","true"
"null","<div style=""font-size:60px;"">+</div>","null","html-keyboard-response","168","145729","0.0-6.0-0.81","HEFI","4","f","rechts","55","","fixation","","","",""
"1066","img/120_90.png","70","image-keyboard-response","169","146795","0.0-6.0-1.81","HEFI","4","f","rechts","55","","","object","f","120","true"
"null","<div style=""font-size:60px;"">+</div>","null","html-keyboard-response","170","147196","0.0-6.0-0.82","HEFI","4","f","rechts","55","","fixation","","","",""
"1300","img/30_180.png","74","image-keyboard-response","171","148497","0.0-6.0-1.82","HEFI","4","f","rechts","55","","","object","f","30","false"
"null","<div style=""font-size:60px;"">+</div>","null","html-keyboard-response","172","148898","0.0-6.0-0.83","HEFI","4","f","rechts","55","","fixation","","","",""
"1789","img/90_210.png","74","image-keyboard-response","173","150688","0.0-6.0-1.83","HEFI","4","f","rechts","55","","","object","f","90","false"
"null","<div style=""font-size:60px;"">+</div>","null","html-keyboard-response","174","151190","0.0-6.0-0.84","HEFI","4","f","rechts","55","","fixation","","","",""
"858","img/0_30.png","74","image-keyboard-response","175","152049","0.0-6.0-1.84","HEFI","4","f","rechts","55","","","object","j","0","true"
"null","<div style=""font-size:60px;"">+</div>","null","html-keyboard-response","176","152451","0.0-6.0-0.85","HEFI","4","f","rechts","55","","fixation","","","",""
"1688","img/120_30.png","70","image-keyboard-response","177","154139","0.0-6.0-1.85","HEFI","4","f","rechts","55","","","object","f","120","true"
"null","<div style=""font-size:60px;"">+</div>","null","html-keyboard-response","178","154441","0.0-6.0-0.86","HEFI","4","f","rechts","55","","fixation","","","",""
"909","img/0_270.png","70","image-keyboard-response","179","155350","0.0-6.0-1.86","HEFI","4","f","rechts","55","","","object","f","0","true"
"null","<div style=""font-size:60px;"">+</div>","null","html-keyboard-response","180","155652","0.0-6.0-0.87","HEFI","4","f","rechts","55","","fixation","","","",""
"1837","img/60_270.png","70","image-keyboard-response","181","157489","0.0-6.0-1.87","HEFI","4","f","rechts","55","","","object","f","60","true"
"null","<div style=""font-size:60px;"">+</div>","null","html-keyboard-response","182","157991","0.0-6.0-0.88","HEFI","4","f","rechts","55","","fixation","","","",""
"881","img/30_90.png","70","image-keyboard-response","183","158872","0.0-6.0-1.88","HEFI","4","f","rechts","55","","","object","j","30","false"
"null","<div style=""font-size:60px;"">+</div>","null","html-keyboard-response","184","159373","0.0-6.0-0.89","HEFI","4","f","rechts","55","","fixation","","","",""
"893","img/60_30.png","70","image-keyboard-response","185","160267","0.0-6.0-1.89","HEFI","4","f","rechts","55","","","object","f","60","true"
"null","<div style=""font-size:60px;"">+</div>","null","html-keyboard-response","186","160569","0.0-6.0-0.90","HEFI","4","f","rechts","55","","fixation","","","",""
"1340","img/L90_180.png","74","image-keyboard-response","187","161911","0.0-6.0-1.90","HEFI","4","f","rechts","55","","","object","j","90","true"
"null","<div style=""font-size:60px;"">+</div>","null","html-keyboard-response","188","162211","0.0-6.0-0.91","HEFI","4","f","rechts","55","","fixation","","","",""
"1695","img/150_180.png","70","image-keyboard-response","189","163908","0.0-6.0-1.91","HEFI","4","f","rechts","55","","","object","f","150","true"
"null","<div style=""font-size:60px;"">+</div>","null","html-keyboard-response","190","164309","0.0-6.0-0.92","HEFI","4","f","rechts","55","","fixation","","","",""
"1502","img/L150_180.png","74","image-keyboard-response","191","165812","0.0-6.0-1.92","HEFI","4","f","rechts","55","","","object","j","150","true"
"null","<div style=""font-size:60px;"">+</div>","null","html-keyboard-response","192","166212","0.0-6.0-0.93","HEFI","4","f","rechts","55","","fixation","","","",""
"1159","img/90_240.png","70","image-keyboard-response","193","167372","0.0-6.0-1.93","HEFI","4","f","rechts","55","","","object","f","90","true"
"null","<div style=""font-size:60px;"">+</div>","null","html-keyboard-response","194","167723","0.0-6.0-0.94","HEFI","4","f","rechts","55","","fixation","","","",""
"1418","img/60_210.png","70","image-keyboard-response","195","169143","0.0-6.0-1.94","HEFI","4","f","rechts","55","","","object","f","60","true"
"null","<div style=""font-size:60px;"">+</div>","null","html-keyboard-response","196","169544","0.0-6.0-0.95","HEFI","4","f","rechts","55","","fixation","","","",""
"1270","img/120_270.png","74","image-keyboard-response","197","170816","0.0-6.0-1.95","HEFI","4","f","rechts","55","","","object","j","120","true"
"null","<div style=""font-size:60px;"">+</div>","null","html-keyboard-response","198","171316","0.0-6.0-0.96","HEFI","4","f","rechts","55","","fixation","","","",""
"1506","img/150_120.png","70","image-keyboard-response","199","172824","0.0-6.0-1.96","HEFI","4","f","rechts","55","","","object","f","150","true"
"null","<div style=""font-size:60px;"">+</div>","null","html-keyboard-response","200","173175","0.0-6.0-0.97","HEFI","4","f","rechts","55","","fixation","","","",""
"1341","img/120_150.png","70","image-keyboard-response","201","174517","0.0-6.0-1.97","HEFI","4","f","rechts","55","","","object","j","120","false"
"null","<div style=""font-size:60px;"">+</div>","null","html-keyboard-response","202","175019","0.0-6.0-0.98","HEFI","4","f","rechts","55","","fixation","","","",""
"1126","img/150_300.png","74","image-keyboard-response","203","176146","0.0-6.0-1.98","HEFI","4","f","rechts","55","","","object","j","150","true"
"null","<div style=""font-size:60px;"">+</div>","null","html-keyboard-response","204","176448","0.0-6.0-0.99","HEFI","4","f","rechts","55","","fixation","","","",""
"1402","img/30_270.png","70","image-keyboard-response","205","177850","0.0-6.0-1.99","HEFI","4","f","rechts","55","","","object","f","30","true"
"null","<div style=""font-size:60px;"">+</div>","null","html-keyboard-response","206","178252","0.0-6.0-0.100","HEFI","4","f","rechts","55","","fixation","","","",""
"1374","img/120_180.png","70","image-keyboard-response","207","179627","0.0-6.0-1.100","HEFI","4","f","rechts","55","","","object","f","120","true"
"null","<div style=""font-size:60px;"">+</div>","null","html-keyboard-response","208","180078","0.0-6.0-0.101","HEFI","4","f","rechts","55","","fixation","","","",""
"1467","img/150_270.png","74","image-keyboard-response","209","181546","0.0-6.0-1.101","HEFI","4","f","rechts","55","","","object","j","150","true"
"null","<div style=""font-size:60px;"">+</div>","null","html-keyboard-response","210","181848","0.0-6.0-0.102","HEFI","4","f","rechts","55","","fixation","","","",""
"1750","img/L30_180.png","70","image-keyboard-response","211","183600","0.0-6.0-1.102","HEFI","4","f","rechts","55","","","object","j","30","false"
"null","<div style=""font-size:60px;"">+</div>","null","html-keyboard-response","212","184101","0.0-6.0-0.103","HEFI","4","f","rechts","55","","fixation","","","",""
"833","img/0_210.png","70","image-keyboard-response","213","184935","0.0-6.0-1.103","HEFI","4","f","rechts","55","","","object","f","0","true"
"null","<div style=""font-size:60px;"">+</div>","null","html-keyboard-response","214","185286","0.0-6.0-0.104","HEFI","4","f","rechts","55","","fixation","","","",""
"810","img/0_60.png","74","image-keyboard-response","215","186096","0.0-6.0-1.104","HEFI","4","f","rechts","55","","","object","j","0","true"
"null","<div style=""font-size:60px;"">+</div>","null","html-keyboard-response","216","186448","0.0-6.0-0.105","HEFI","4","f","rechts","55","","fixation","","","",""
"535","img/0_150.png","74","image-keyboard-response","217","186983","0.0-6.0-1.105","HEFI","4","f","rechts","55","","","object","j","0","true"
"null","<div style=""font-size:60px;"">+</div>","null","html-keyboard-response","218","187485","0.0-6.0-0.106","HEFI","4","f","rechts","55","","fixation","","","",""
"1342","img/30_60.png","74","image-keyboard-response","219","188829","0.0-6.0-1.106","HEFI","4","f","rechts","55","","","object","j","30","true"
"null","<div style=""font-size:60px;"">+</div>","null","html-keyboard-response","220","189180","0.0-6.0-0.107","HEFI","4","f","rechts","55","","fixation","","","",""
"699","img/0_90.png","74","image-keyboard-response","221","189880","0.0-6.0-1.107","HEFI","4","f","rechts","55","","","object","j","0","true"
"null","<div style=""font-size:60px;"">+</div>","null","html-keyboard-response","222","190182","0.0-6.0-0.108","HEFI","4","f","rechts","55","","fixation","","","",""
"1353","img/120_270.png","74","image-keyboard-response","223","191535","0.0-6.0-1.108","HEFI","4","f","rechts","55","","","object","j","120","true"
"null","<div style=""font-size:60px;"">+</div>","null","html-keyboard-response","224","191887","0.0-6.0-0.109","HEFI","4","f","rechts","55","","fixation","","","",""
"1070","img/30_300.png","70","image-keyboard-response","225","192958","0.0-6.0-1.109","HEFI","4","f","rechts","55","","","object","f","30","true"
"null","<div style=""font-size:60px;"">+</div>","null","html-keyboard-response","226","193409","0.0-6.0-0.110","HEFI","4","f","rechts","55","","fixation","","","",""
"1301","img/L90_180.png","74","image-keyboard-response","227","194711","0.0-6.0-1.110","HEFI","4","f","rechts","55","","","object","j","90","true"
"null","<div style=""font-size:60px;"">+</div>","null","html-keyboard-response","228","195213","0.0-6.0-0.111","HEFI","4","f","rechts","55","","fixation","","","",""
"1601","img/60_270.png","70","image-keyboard-response","229","196814","0.0-6.0-1.111","HEFI","4","f","rechts","55","","","object","f","60","true"
"null","<div style=""font-size:60px;"">+</div>","null","html-keyboard-response","230","197166","0.0-6.0-0.112","HEFI","4","f","rechts","55","","fixation","","","",""
"1472","img/150_300.png","74","image-keyboard-response","231","198638","0.0-6.0-1.112","HEFI","4","f","rechts","55","","","object","j","150","true"
"null","<div style=""font-size:60px;"">+</div>","null","html-keyboard-response","232","199140","0.0-6.0-0.113","HEFI","4","f","rechts","55","","fixation","","","",""
"1125","img/120_30.png","70","image-keyboard-response","233","200265","0.0-6.0-1.113","HEFI","4","f","rechts","55","","","object","f","120","true"
"null","<div style=""font-size:60px;"">+</div>","null","html-keyboard-response","234","200717","0.0-6.0-0.114","HEFI","4","f","rechts","55","","fixation","","","",""
"900","img/60_330.png","74","image-keyboard-response","235","201618","0.0-6.0-1.114","HEFI","4","f","rechts","55","","","object","j","60","true"
"null","<div style=""font-size:60px;"">+</div>","null","html-keyboard-response","236","201920","0.0-6.0-0.115","HEFI","4","f","rechts","55","","fixation","","","",""
"1629","img/L120_180.png","74","image-keyboard-response","237","203549","0.0-6.0-1.115","HEFI","4","f","rechts","55","","","object","j","120","true"
"null","<div style=""font-size:60px;"">+</div>","null","html-keyboard-response","238","203901","0.0-6.0-0.116","HEFI","4","f","rechts","55","","fixation","","","",""
"1245","img/60_150.png","74","image-keyboard-response","239","205146","0.0-6.0-1.116","HEFI","4","f","rechts","55","","","object","j","60","true"
"null","<div style=""font-size:60px;"">+</div>","null","html-keyboard-response","240","205447","0.0-6.0-0.117","HEFI","4","f","rechts","55","","fixation","","","",""
"1224","img/150_90.png","70","image-keyboard-response","241","206671","0.0-6.0-1.117","HEFI","4","f","rechts","55","","","object","f","150","true"
"null","<div style=""font-size:60px;"">+</div>","null","html-keyboard-response","242","207123","0.0-6.0-0.118","HEFI","4","f","rechts","55","","fixation","","","",""
"2686","img/60_180.png","74","image-keyboard-response","243","209810","0.0-6.0-1.118","HEFI","4","f","rechts","55","","","object","f","60","false"
"null","<div style=""font-size:60px;"">+</div>","null","html-keyboard-response","244","210311","0.0-6.0-0.119","HEFI","4","f","rechts","55","","fixation","","","",""
"1387","img/90_210.png","74","image-keyboard-response","245","211699","0.0-6.0-1.119","HEFI","4","f","rechts","55","","","object","f","90","false"
"null","<div style=""font-size:60px;"">+</div>","null","html-keyboard-response","246","212201","0.0-6.0-0.120","HEFI","4","f","rechts","55","","fixation","","","",""
"2370","img/150_270.png","74","image-keyboard-response","247","214571","0.0-6.0-1.120","HEFI","4","f","rechts","55","","","object","j","150","true"
"null","<div style=""font-size:60px;"">+</div>","null","html-keyboard-response","248","214923","0.0-6.0-0.121","HEFI","4","f","rechts","55","","fixation","","","",""
"1594","img/90_180.png","70","image-keyboard-response","249","216518","0.0-6.0-1.121","HEFI","4","f","rechts","55","","","object","f","90","true"
"null","<div style=""font-size:60px;"">+</div>","null","html-keyboard-response","250","216969","0.0-6.0-0.122","HEFI","4","f","rechts","55","","fixation","","","",""
"840","img/0_270.png","70","image-keyboard-response","251","217811","0.0-6.0-1.122","HEFI","4","f","rechts","55","","","object","f","0","true"
"null","<div style=""font-size:60px;"">+</div>","null","html-keyboard-response","252","218162","0.0-6.0-0.123","HEFI","4","f","rechts","55","","fixation","","","",""
"965","img/120_180.png","74","image-keyboard-response","253","219129","0.0-6.0-1.123","HEFI","4","f","rechts","55","","","object","f","120","false"
"null","<div style=""font-size:60px;"">+</div>","null","html-keyboard-response","254","219480","0.0-6.0-0.124","HEFI","4","f","rechts","55","","fixation","","","",""
"1577","img/60_210.png","70","image-keyboard-response","255","221059","0.0-6.0-1.124","HEFI","4","f","rechts","55","","","object","f","60","true"
"null","<div style=""font-size:60px;"">+</div>","null","html-keyboard-response","256","221510","0.0-6.0-0.125","HEFI","4","f","rechts","55","","fixation","","","",""
"753","img/0_120.png","74","image-keyboard-response","257","222265","0.0-6.0-1.125","HEFI","4","f","rechts","55","","","object","j","0","true"
"null","<div style=""font-size:60px;"">+</div>","null","html-keyboard-response","258","222566","0.0-6.0-0.126","HEFI","4","f","rechts","55","","fixation","","","",""
"750","img/0_30.png","74","image-keyboard-response","259","223317","0.0-6.0-1.126","HEFI","4","f","rechts","55","","","object","j","0","true"
"null","<div style=""font-size:60px;"">+</div>","null","html-keyboard-response","260","223668","0.0-6.0-0.127","HEFI","4","f","rechts","55","","fixation","","","",""
"1070","img/60_90.png","70","image-keyboard-response","261","224740","0.0-6.0-1.127","HEFI","4","f","rechts","55","","","object","j","60","false"
"null","<div style=""font-size:60px;"">+</div>","null","html-keyboard-response","262","225041","0.0-6.0-0.128","HEFI","4","f","rechts","55","","fixation","","","",""
"1235","img/90_240.png","74","image-keyboard-response","263","226278","0.0-6.0-1.128","HEFI","4","f","rechts","55","","","object","f","90","false"
"null","<div style=""font-size:60px;"">+</div>","null","html-keyboard-response","264","226729","0.0-6.0-0.129","HEFI","4","f","rechts","55","","fixation","","","",""
"1435","img/30_240.png","70","image-keyboard-response","265","228166","0.0-6.0-1.129","HEFI","4","f","rechts","55","","","object","f","30","true"
"null","<div style=""font-size:60px;"">+</div>","null","html-keyboard-response","266","228467","0.0-6.0-0.130","HEFI","4","f","rechts","55","","fixation","","","",""
"1125","img/60_30.png","70","image-keyboard-response","267","229593","0.0-6.0-1.130","HEFI","4","f","rechts","55","","","object","f","60","true"
"null","<div style=""font-size:60px;"">+</div>","null","html-keyboard-response","268","229944","0.0-6.0-0.131","HEFI","4","f","rechts","55","","fixation","","","",""
"1212","img/L30_180.png","74","image-keyboard-response","269","231156","0.0-6.0-1.131","HEFI","4","f","rechts","55","","","object","j","30","true"
"null","<div style=""font-size:60px;"">+</div>","null","html-keyboard-response","270","231508","0.0-6.0-0.132","HEFI","4","f","rechts","55","","fixation","","","",""
"1137","img/150_60.png","70","image-keyboard-response","271","232645","0.0-6.0-1.132","HEFI","4","f","rechts","55","","","object","f","150","true"
"null","<div style=""font-size:60px;"">+</div>","null","html-keyboard-response","272","232997","0.0-6.0-0.133","HEFI","4","f","rechts","55","","fixation","","","",""
"1123","img/120_90.png","70","image-keyboard-response","273","234121","0.0-6.0-1.133","HEFI","4","f","rechts","55","","","object","f","120","true"
"null","<div style=""font-size:60px;"">+</div>","null","html-keyboard-response","274","234623","0.0-6.0-0.134","HEFI","4","f","rechts","55","","fixation","","","",""
"905","img/150_120.png","70","image-keyboard-response","275","235530","0.0-6.0-1.134","HEFI","4","f","rechts","55","","","object","f","150","true"
"null","<div style=""font-size:60px;"">+</div>","null","html-keyboard-response","276","235882","0.0-6.0-0.135","HEFI","4","f","rechts","55","","fixation","","","",""
"2044","img/120_150.png","74","image-keyboard-response","277","237927","0.0-6.0-1.135","HEFI","4","f","rechts","55","","","object","j","120","true"
"null","<div style=""font-size:60px;"">+</div>","null","html-keyboard-response","278","238228","0.0-6.0-0.136","HEFI","4","f","rechts","55","","fixation","","","",""
"1676","img/90_120.png","70","image-keyboard-response","279","239905","0.0-6.0-1.136","HEFI","4","f","rechts","55","","","object","j","90","false"
"null","<div style=""font-size:60px;"">+</div>","null","html-keyboard-response","280","240206","0.0-6.0-0.137","HEFI","4","f","rechts","55","","fixation","","","",""
"1225","img/90_330.png","74","image-keyboard-response","281","241432","0.0-6.0-1.137","HEFI","4","f","rechts","55","","","object","j","90","true"
"null","<div style=""font-size:60px;"">+</div>","null","html-keyboard-response","282","241884","0.0-6.0-0.138","HEFI","4","f","rechts","55","","fixation","","","",""
"1405","img/90_150.png","74","image-keyboard-response","283","243289","0.0-6.0-1.138","HEFI","4","f","rechts","55","","","object","j","90","true"
"null","<div style=""font-size:60px;"">+</div>","null","html-keyboard-response","284","243791","0.0-6.0-0.139","HEFI","4","f","rechts","55","","fixation","","","",""
"1274","img/30_270.png","70","image-keyboard-response","285","245066","0.0-6.0-1.139","HEFI","4","f","rechts","55","","","object","f","30","true"
"null","<div style=""font-size:60px;"">+</div>","null","html-keyboard-response","286","245468","0.0-6.0-0.140","HEFI","4","f","rechts","55","","fixation","","","",""
"959","img/120_330.png","74","image-keyboard-response","287","246428","0.0-6.0-1.140","HEFI","4","f","rechts","55","","","object","j","120","true"
"null","<div style=""font-size:60px;"">+</div>","null","html-keyboard-response","288","246830","0.0-6.0-0.141","HEFI","4","f","rechts","55","","fixation","","","",""
"750","img/0_300.png","70","image-keyboard-response","289","247581","0.0-6.0-1.141","HEFI","4","f","rechts","55","","","object","f","0","true"
"null","<div style=""font-size:60px;"">+</div>","null","html-keyboard-response","290","248083","0.0-6.0-0.142","HEFI","4","f","rechts","55","","fixation","","","",""
"717","img/0_330.png","70","image-keyboard-response","291","248801","0.0-6.0-1.142","HEFI","4","f","rechts","55","","","object","f","0","true"
"null","<div style=""font-size:60px;"">+</div>","null","html-keyboard-response","292","249102","0.0-6.0-0.143","HEFI","4","f","rechts","55","","fixation","","","",""
"1239","img/90_300.png","74","image-keyboard-response","293","250342","0.0-6.0-1.143","HEFI","4","f","rechts","55","","","object","j","90","true"
"null","<div style=""font-size:60px;"">+</div>","null","html-keyboard-response","294","250743","0.0-6.0-0.144","HEFI","4","f","rechts","55","","fixation","","","",""
"1323","img/L150_180.png","70","image-keyboard-response","295","252067","0.0-6.0-1.144","HEFI","4","f","rechts","55","","","object","j","150","false"
"null","<div style=""font-size:60px;"">+</div>","null","html-keyboard-response","296","252469","0.0-6.0-0.145","HEFI","4","f","rechts","55","","fixation","","","",""
"1613","img/30_180.png","70","image-keyboard-response","297","254082","0.0-6.0-1.145","HEFI","4","f","rechts","55","","","object","f","30","true"
"null","<div style=""font-size:60px;"">+</div>","null","html-keyboard-response","298","254384","0.0-6.0-0.146","HEFI","4","f","rechts","55","","fixation","","","",""
"958","img/150_180.png","74","image-keyboard-response","299","255342","0.0-6.0-1.146","HEFI","4","f","rechts","55","","","object","f","150","false"
"null","<div style=""font-size:60px;"">+</div>","null","html-keyboard-response","300","255794","0.0-6.0-0.147","HEFI","4","f","rechts","55","","fixation","","","",""
"1232","img/30_120.png","74","image-keyboard-response","301","257027","0.0-6.0-1.147","HEFI","4","f","rechts","55","","","object","j","30","true"
"null","<div style=""font-size:60px;"">+</div>","null","html-keyboard-response","302","257328","0.0-6.0-0.148","HEFI","4","f","rechts","55","","fixation","","","",""
"1787","img/150_240.png","74","image-keyboard-response","303","259116","0.0-6.0-1.148","HEFI","4","f","rechts","55","","","object","j","150","true"
"null","<div style=""font-size:60px;"">+</div>","null","html-keyboard-response","304","259617","0.0-6.0-0.149","HEFI","4","f","rechts","55","","fixation","","","",""
"1360","img/0_210.png","70","image-keyboard-response","305","260978","0.0-6.0-1.149","HEFI","4","f","rechts","55","","","object","f","0","true"
"null","<div style=""font-size:60px;"">+</div>","null","html-keyboard-response","306","261429","0.0-6.0-0.150","HEFI","4","f","rechts","55","","fixation","","","",""
"806","img/L60_180.png","74","image-keyboard-response","307","262236","0.0-6.0-1.150","HEFI","4","f","rechts","55","","","object","j","60","true"
"null","<div style=""font-size:60px;"">+</div>","null","html-keyboard-response","308","262687","0.0-6.0-0.151","HEFI","4","f","rechts","55","","fixation","","","",""
"787","img/0_240.png","70","image-keyboard-response","309","263475","0.0-6.0-1.151","HEFI","4","f","rechts","55","","","object","f","0","true"
"null","<div style=""font-size:60px;"">+</div>","null","html-keyboard-response","310","263877","0.0-6.0-0.152","HEFI","4","f","rechts","55","","fixation","","","",""
"1019","img/90_60.png","70","image-keyboard-response","311","264897","0.0-6.0-1.152","HEFI","4","f","rechts","55","","","object","f","90","true"
"null","<div style=""font-size:60px;"">+</div>","null","html-keyboard-response","312","265399","0.0-6.0-0.153","HEFI","4","f","rechts","55","","fixation","","","",""
"1190","img/30_90.png","70","image-keyboard-response","313","266590","0.0-6.0-1.153","HEFI","4","f","rechts","55","","","object","j","30","false"
"null","<div style=""font-size:60px;"">+</div>","null","html-keyboard-response","314","267091","0.0-6.0-0.154","HEFI","4","f","rechts","55","","fixation","","","",""
"1023","img/90_30.png","70","image-keyboard-response","315","268115","0.0-6.0-1.154","HEFI","4","f","rechts","55","","","object","f","90","true"
"null","<div style=""font-size:60px;"">+</div>","null","html-keyboard-response","316","268466","0.0-6.0-0.155","HEFI","4","f","rechts","55","","fixation","","","",""
"1836","img/120_210.png","74","image-keyboard-response","317","270304","0.0-6.0-1.155","HEFI","4","f","rechts","55","","","object","f","120","false"
"null","<div style=""font-size:60px;"">+</div>","null","html-keyboard-response","318","270755","0.0-6.0-0.156","HEFI","4","f","rechts","55","","fixation","","","",""
"2276","img/120_180.png","70","image-keyboard-response","319","273032","0.0-6.0-1.156","HEFI","4","f","rechts","55","","","object","f","120","true"
"null","<div style=""font-size:60px;"">+</div>","null","html-keyboard-response","320","273483","0.0-6.0-0.157","HEFI","4","f","rechts","55","","fixation","","","",""
"2074","img/150_60.png","74","image-keyboard-response","321","275559","0.0-6.0-1.157","HEFI","4","f","rechts","55","","","object","f","150","false"
"null","<div style=""font-size:60px;"">+</div>","null","html-keyboard-response","322","276060","0.0-6.0-0.158","HEFI","4","f","rechts","55","","fixation","","","",""
"1018","img/150_240.png","70","image-keyboard-response","323","277079","0.0-6.0-1.158","HEFI","4","f","rechts","55","","","object","j","150","false"
"null","<div style=""font-size:60px;"">+</div>","null","html-keyboard-response","324","277431","0.0-6.0-0.159","HEFI","4","f","rechts","55","","fixation","","","",""
"794","img/0_60.png","74","image-keyboard-response","325","278226","0.0-6.0-1.159","HEFI","4","f","rechts","55","","","object","j","0","true"
"null","<div style=""font-size:60px;"">+</div>","null","html-keyboard-response","326","278627","0.0-6.0-0.160","HEFI","4","f","rechts","55","","fixation","","","",""
"1857","img/60_210.png","70","image-keyboard-response","327","280484","0.0-6.0-1.160","HEFI","4","f","rechts","55","","","object","f","60","true"
"null","<div style=""font-size:60px;"">+</div>","null","html-keyboard-response","328","280936","0.0-6.0-0.161","HEFI","4","f","rechts","55","","fixation","","","",""
"920","img/150_300.png","74","image-keyboard-response","329","281857","0.0-6.0-1.161","HEFI","4","f","rechts","55","","","object","j","150","true"
"null","<div style=""font-size:60px;"">+</div>","null","html-keyboard-response","330","282359","0.0-6.0-0.162","HEFI","4","f","rechts","55","","fixation","","","",""
"1002","img/150_180.png","70","image-keyboard-response","331","283362","0.0-6.0-1.162","HEFI","4","f","rechts","55","","","object","f","150","true"
"null","<div style=""font-size:60px;"">+</div>","null","html-keyboard-response","332","283863","0.0-6.0-0.163","HEFI","4","f","rechts","55","","fixation","","","",""
"1539","img/120_210.png","74","image-keyboard-response","333","285403","0.0-6.0-1.163","HEFI","4","f","rechts","55","","","object","f","120","false"
"null","<div style=""font-size:60px;"">+</div>","null","html-keyboard-response","334","285755","0.0-6.0-0.164","HEFI","4","f","rechts","55","","fixation","","","",""
"727","img/0_240.png","70","image-keyboard-response","335","286484","0.0-6.0-1.164","HEFI","4","f","rechts","55","","","object","f","0","true"
"null","<div style=""font-size:60px;"">+</div>","null","html-keyboard-response","336","286784","0.0-6.0-0.165","HEFI","4","f","rechts","55","","fixation","","","",""
"1287","img/120_150.png","70","image-keyboard-response","337","288072","0.0-6.0-1.165","HEFI","4","f","rechts","55","","","object","j","120","false"
"null","<div style=""font-size:60px;"">+</div>","null","html-keyboard-response","338","288423","0.0-6.0-0.166","HEFI","4","f","rechts","55","","fixation","","","",""
"781","img/0_210.png","70","image-keyboard-response","339","289205","0.0-6.0-1.166","HEFI","4","f","rechts","55","","","object","f","0","true"
"null","<div style=""font-size:60px;"">+</div>","null","html-keyboard-response","340","289707","0.0-6.0-0.167","HEFI","4","f","rechts","55","","fixation","","","",""
"707","img/0_270.png","70","image-keyboard-response","341","290415","0.0-6.0-1.167","HEFI","4","f","rechts","55","","","object","f","0","true"
"null","<div style=""font-size:60px;"">+</div>","null","html-keyboard-response","342","290716","0.0-6.0-0.168","HEFI","4","f","rechts","55","","fixation","","","",""
"662","img/0_300.png","70","image-keyboard-response","343","291379","0.0-6.0-1.168","HEFI","4","f","rechts","55","","","object","f","0","true"
"null","<div style=""font-size:60px;"">+</div>","null","html-keyboard-response","344","291781","0.0-6.0-0.169","HEFI","4","f","rechts","55","","fixation","","","",""
"896","img/30_180.png","74","image-keyboard-response","345","292677","0.0-6.0-1.169","HEFI","4","f","rechts","55","","","object","f","30","false"
"null","<div style=""font-size:60px;"">+</div>","null","html-keyboard-response","346","293029","0.0-6.0-0.170","HEFI","4","f","rechts","55","","fixation","","","",""
"1341","img/60_30.png","70","image-keyboard-response","347","294371","0.0-6.0-1.170","HEFI","4","f","rechts","55","","","object","f","60","true"
"null","<div style=""font-size:60px;"">+</div>","null","html-keyboard-response","348","294723","0.0-6.0-0.171","HEFI","4","f","rechts","55","","fixation","","","",""
"1580","img/L90_180.png","74","image-keyboard-response","349","296303","0.0-6.0-1.171","HEFI","4","f","rechts","55","","","object","j","90","true"
"null","<div style=""font-size:60px;"">+</div>","null","html-keyboard-response","350","296755","0.0-6.0-0.172","HEFI","4","f","rechts","55","","fixation","","","",""
"1583","img/L30_180.png","74","image-keyboard-response","351","298339","0.0-6.0-1.172","HEFI","4","f","rechts","55","","","object","j","30","true"
"null","<div style=""font-size:60px;"">+</div>","null","html-keyboard-response","352","298641","0.0-6.0-0.173","HEFI","4","f","rechts","55","","fixation","","","",""
"1589","img/90_150.png","74","image-keyboard-response","353","300230","0.0-6.0-1.173","HEFI","4","f","rechts","55","","","object","j","90","true"
"null","<div style=""font-size:60px;"">+</div>","null","html-keyboard-response","354","300632","0.0-6.0-0.174","HEFI","4","f","rechts","55","","fixation","","","",""
"1769","img/150_270.png","74","image-keyboard-response","355","302401","0.0-6.0-1.174","HEFI","4","f","rechts","55","","","object","j","150","true"
"null","<div style=""font-size:60px;"">+</div>","null","html-keyboard-response","356","302853","0.0-6.0-0.175","HEFI","4","f","rechts","55","","fixation","","","",""
"779","img/0_90.png","74","image-keyboard-response","357","303632","0.0-6.0-1.175","HEFI","4","f","rechts","55","","","object","j","0","true"
"null","<div style=""font-size:60px;"">+</div>","null","html-keyboard-response","358","303934","0.0-6.0-0.176","HEFI","4","f","rechts","55","","fixation","","","",""
"892","img/60_180.png","70","image-keyboard-response","359","304826","0.0-6.0-1.176","HEFI","4","f","rechts","55","","","object","f","60","true"
"null","<div style=""font-size:60px;"">+</div>","null","html-keyboard-response","360","305128","0.0-6.0-0.177","HEFI","4","f","rechts","55","","fixation","","","",""
"1410","img/120_270.png","74","image-keyboard-response","361","306538","0.0-6.0-1.177","HEFI","4","f","rechts","55","","","object","j","120","true"
"null","<div style=""font-size:60px;"">+</div>","null","html-keyboard-response","362","307040","0.0-6.0-0.178","HEFI","4","f","rechts","55","","fixation","","","",""
"1152","img/30_240.png","70","image-keyboard-response","363","308192","0.0-6.0-1.178","HEFI","4","f","rechts","55","","","object","f","30","true"
"null","<div style=""font-size:60px;"">+</div>","null","html-keyboard-response","364","308644","0.0-6.0-0.179","HEFI","4","f","rechts","55","","fixation","","","",""
"1289","img/30_60.png","74","image-keyboard-response","365","309934","0.0-6.0-1.179","HEFI","4","f","rechts","55","","","object","j","30","true"
"null","<div style=""font-size:60px;"">+</div>","null","html-keyboard-response","366","310286","0.0-6.0-0.180","HEFI","4","f","rechts","55","","fixation","","","",""
"1328","img/90_180.png","70","image-keyboard-response","367","311615","0.0-6.0-1.180","HEFI","4","f","rechts","55","","","object","f","90","true"
"null","<div style=""font-size:60px;"">+</div>","null","html-keyboard-response","368","311917","0.0-6.0-0.181","HEFI","4","f","rechts","55","","fixation","","","",""
"1486","img/60_90.png","74","image-keyboard-response","369","313404","0.0-6.0-1.181","HEFI","4","f","rechts","55","","","object","j","60","true"
"null","<div style=""font-size:60px;"">+</div>","null","html-keyboard-response","370","313806","0.0-6.0-0.182","HEFI","4","f","rechts","55","","fixation","","","",""
"1492","img/90_330.png","74","image-keyboard-response","371","315298","0.0-6.0-1.182","HEFI","4","f","rechts","55","","","object","j","90","true"
"null","<div style=""font-size:60px;"">+</div>","null","html-keyboard-response","372","315699","0.0-6.0-0.183","HEFI","4","f","rechts","55","","fixation","","","",""
"825","img/0_30.png","74","image-keyboard-response","373","316525","0.0-6.0-1.183","HEFI","4","f","rechts","55","","","object","j","0","true"
"null","<div style=""font-size:60px;"">+</div>","null","html-keyboard-response","374","316826","0.0-6.0-0.184","HEFI","4","f","rechts","55","","fixation","","","",""
"1286","img/L60_180.png","74","image-keyboard-response","375","318113","0.0-6.0-1.184","HEFI","4","f","rechts","55","","","object","j","60","true"
"null","<div style=""font-size:60px;"">+</div>","null","html-keyboard-response","376","318614","0.0-6.0-0.185","HEFI","4","f","rechts","55","","fixation","","","",""
"1219","img/60_270.png","70","image-keyboard-response","377","319834","0.0-6.0-1.185","HEFI","4","f","rechts","55","","","object","f","60","true"
"null","<div style=""font-size:60px;"">+</div>","null","html-keyboard-response","378","320235","0.0-6.0-0.186","HEFI","4","f","rechts","55","","fixation","","","",""
"1204","img/30_300.png","70","image-keyboard-response","379","321439","0.0-6.0-1.186","HEFI","4","f","rechts","55","","","object","f","30","true"
"null","<div style=""font-size:60px;"">+</div>","null","html-keyboard-response","380","321740","0.0-6.0-0.187","HEFI","4","f","rechts","55","","fixation","","","",""
"1662","img/90_120.png","70","image-keyboard-response","381","323404","0.0-6.0-1.187","HEFI","4","f","rechts","55","","","object","j","90","false"
"null","<div style=""font-size:60px;"">+</div>","null","html-keyboard-response","382","323755","0.0-6.0-0.188","HEFI","4","f","rechts","55","","fixation","","","",""
"1640","img/150_120.png","70","image-keyboard-response","383","325397","0.0-6.0-1.188","HEFI","4","f","rechts","55","","","object","f","150","true"
"null","<div style=""font-size:60px;"">+</div>","null","html-keyboard-response","384","325698","0.0-6.0-0.189","HEFI","4","f","rechts","55","","fixation","","","",""
"1353","img/90_30.png","70","image-keyboard-response","385","327052","0.0-6.0-1.189","HEFI","4","f","rechts","55","","","object","f","90","true"
"null","<div style=""font-size:60px;"">+</div>","null","html-keyboard-response","386","327454","0.0-6.0-0.190","HEFI","4","f","rechts","55","","fixation","","","",""
"2106","img/90_300.png","74","image-keyboard-response","387","329562","0.0-6.0-1.190","HEFI","4","f","rechts","55","","","object","j","90","true"
"null","<div style=""font-size:60px;"">+</div>","null","html-keyboard-response","388","329963","0.0-6.0-0.191","HEFI","4","f","rechts","55","","fixation","","","",""
"1367","img/150_90.png","70","image-keyboard-response","389","331331","0.0-6.0-1.191","HEFI","4","f","rechts","55","","","object","f","150","true"
"null","<div style=""font-size:60px;"">+</div>","null","html-keyboard-response","390","331633","0.0-6.0-0.192","HEFI","4","f","rechts","55","","fixation","","","",""
"807","img/60_330.png","74","image-keyboard-response","391","332441","0.0-6.0-1.192","HEFI","4","f","rechts","55","","","object","j","60","true"
"null","<div style=""font-size:60px;"">+</div>","null","html-keyboard-response","392","332843","0.0-6.0-0.193","HEFI","4","f","rechts","55","","fixation","","","",""
"1158","img/30_120.png","74","image-keyboard-response","393","334002","0.0-6.0-1.193","HEFI","4","f","rechts","55","","","object","j","30","true"
"null","<div style=""font-size:60px;"">+</div>","null","html-keyboard-response","394","334354","0.0-6.0-0.194","HEFI","4","f","rechts","55","","fixation","","","",""
"1696","img/L120_180.png","70","image-keyboard-response","395","336051","0.0-6.0-1.194","HEFI","4","f","rechts","55","","","object","j","120","false"
"null","<div style=""font-size:60px;"">+</div>","null","html-keyboard-response","396","336502","0.0-6.0-0.195","HEFI","4","f","rechts","55","","fixation","","","",""
"1410","img/L150_180.png","74","image-keyboard-response","397","337914","0.0-6.0-1.195","HEFI","4","f","rechts","55","","","object","j","150","true"
"null","<div style=""font-size:60px;"">+</div>","null","html-keyboard-response","398","338214","0.0-6.0-0.196","HEFI","4","f","rechts","55","","fixation","","","",""
"1437","img/90_240.png","74","image-keyboard-response","399","339652","0.0-6.0-1.196","HEFI","4","f","rechts","55","","","object","f","90","false"
"null","<div style=""font-size:60px;"">+</div>","null","html-keyboard-response","400","340054","0.0-6.0-0.197","HEFI","4","f","rechts","55","","fixation","","","",""
"1103","img/120_90.png","70","image-keyboard-response","401","341158","0.0-6.0-1.197","HEFI","4","f","rechts","55","","","object","f","120","true"
"null","<div style=""font-size:60px;"">+</div>","null","html-keyboard-response","402","341660","0.0-6.0-0.198","HEFI","4","f","rechts","55","","fixation","","","",""
"897","img/60_150.png","74","image-keyboard-response","403","342557","0.0-6.0-1.198","HEFI","4","f","rechts","55","","","object","j","60","true"
"null","<div style=""font-size:60px;"">+</div>","null","html-keyboard-response","404","342959","0.0-6.0-0.199","HEFI","4","f","rechts","55","","fixation","","","",""
"989","img/0_120.png","74","image-keyboard-response","405","343948","0.0-6.0-1.199","HEFI","4","f","rechts","55","","","object","j","0","true"
"null","<div style=""font-size:60px;"">+</div>","null","html-keyboard-response","406","344449","0.0-6.0-0.200","HEFI","4","f","rechts","55","","fixation","","","",""
"958","img/120_30.png","70","image-keyboard-response","407","345408","0.0-6.0-1.200","HEFI","4","f","rechts","55","","","object","f","120","true"
"null","<div style=""font-size:60px;"">+</div>","null","html-keyboard-response","408","345860","0.0-6.0-0.201","HEFI","4","f","rechts","55","","fixation","","","",""
"984","img/30_90.png","74","image-keyboard-response","409","346844","0.0-6.0-1.201","HEFI","4","f","rechts","55","","","object","j","30","true"
"null","<div style=""font-size:60px;"">+</div>","null","html-keyboard-response","410","347246","0.0-6.0-0.202","HEFI","4","f","rechts","55","","fixation","","","",""
"1074","img/30_270.png","70","image-keyboard-response","411","348320","0.0-6.0-1.202","HEFI","4","f","rechts","55","","","object","f","30","true"
"null","<div style=""font-size:60px;"">+</div>","null","html-keyboard-response","412","348671","0.0-6.0-0.203","HEFI","4","f","rechts","55","","fixation","","","",""
"1382","img/90_210.png","74","image-keyboard-response","413","350053","0.0-6.0-1.203","HEFI","4","f","rechts","55","","","object","f","90","false"
"null","<div style=""font-size:60px;"">+</div>","null","html-keyboard-response","414","350505","0.0-6.0-0.204","HEFI","4","f","rechts","55","","fixation","","","",""
"868","img/120_330.png","74","image-keyboard-response","415","351373","0.0-6.0-1.204","HEFI","4","f","rechts","55","","","object","j","120","true"
"null","<div style=""font-size:60px;"">+</div>","null","html-keyboard-response","416","351674","0.0-6.0-0.205","HEFI","4","f","rechts","55","","fixation","","","",""
"1063","img/0_150.png","74","image-keyboard-response","417","352738","0.0-6.0-1.205","HEFI","4","f","rechts","55","","","object","j","0","true"
"null","<div style=""font-size:60px;"">+</div>","null","html-keyboard-response","418","353090","0.0-6.0-0.206","HEFI","4","f","rechts","55","","fixation","","","",""
"840","img/90_60.png","70","image-keyboard-response","419","353930","0.0-6.0-1.206","HEFI","4","f","rechts","55","","","object","f","90","true"
"null","<div style=""font-size:60px;"">+</div>","null","html-keyboard-response","420","354332","0.0-6.0-0.207","HEFI","4","f","rechts","55","","fixation","","","",""
"683","img/0_330.png","70","image-keyboard-response","421","355016","0.0-6.0-1.207","HEFI","4","f","rechts","55","","","object","f","0","true"
"11240","<p>Du hast in 79% der Versuche korrekt entschieden.</p><p>Deine durchschnittliche Reaktionszeit war  1188ms.</p><p>Dr&uuml;cke eine beliebige Taste, um die Session zu beenden. Vielen Dank!</p>","71","html-keyboard-response","422","366257","0.0-7.0","HEFI","4","f","rechts","55","","","","","",""
