"rt","stimulus","key_press","trial_type","trial_index","time_elapsed","internal_node_id","subject","session","sex","handedness","age","responses","test_part","condition","correct_response","angle","correct"
"1955","<p>Mental Rotation Experiment.</p> <p>Dr&uuml;cke eine beliebige Taste, um anzufangen.</p>","70","html-keyboard-response","0","1960","0.0-0.0","HEFI","2","f","rechts","55","","","","","",""
"2992","","","survey-text","1","4953","0.0-1.0","HEFI","2","f","rechts","55","{""Q0"":""HEFI""}","","","","",""
"3028","","","survey-text","2","7981","0.0-2.0","HEFI","2","f","rechts","55","{""Q0"":""2""}","","","","",""
"2566","","","survey-multi-choice","3","10550","0.0-3.0","HEFI","2","f","rechts","55","{""Q0"":""f"",""Q1"":""rechts""}","","","","",""
"2210","","","survey-text","4","12761","0.0-4.0","HEFI","2","f","rechts","55","{""Q0"":""55""}","","","","",""
"8703","<p>Stell dir vor, dass du vor einem runden Tisch stehst, auf dem sich ein blauer Ball am Tischrand befindet. Entlang des Tischrands ist jeweils ein verschieden langer Pfeil. Nun bleibst du an deinem Platz vor dem Tisch und rotierst den Tisch entlang des Pfeils (gleiche Richtung und Länge). </p> <img src='img/30_180.png'></img> <br><p> Nachdem du diese (vorgestellte) Rotation durchgef&uuml;hrt hast, schau in Richtung der Tischmitte, und entscheide dann, ob der Ball links oder rechts von dir liegt.</p> <p>Dr&uuml;cke die <strong>'f'</strong>-Taste f&uuml;r links, die <strong>'j'</strong>-Taste f&uuml;r rechts.</p><br><p> Das Bild wird jeweils 1 Sekunde lang pr&auml;sentiert. Du hast 3 Sekunden Zeit eine Entscheidung zu treffen.</p>","13","html-keyboard-response","5","21466","0.0-5.0","HEFI","2","f","rechts","55","","","","","",""
"null","<div style=""font-size:60px;"">+</div>","null","html-keyboard-response","6","22920","0.0-6.0-0.0","HEFI","2","f","rechts","55","","fixation","","","",""
"65","img/90_330.png","70","image-keyboard-response","7","22988","0.0-6.0-1.0","HEFI","2","f","rechts","55","","","object","j","90","false"
"null","<div style=""font-size:60px;"">+</div>","null","html-keyboard-response","8","23289","0.0-6.0-0.1","HEFI","2","f","rechts","55","","fixation","","","",""
"1596","img/90_120.png","70","image-keyboard-response","9","24887","0.0-6.0-1.1","HEFI","2","f","rechts","55","","","object","j","90","false"
"null","<div style=""font-size:60px;"">+</div>","null","html-keyboard-response","10","25338","0.0-6.0-0.2","HEFI","2","f","rechts","55","","fixation","","","",""
"1389","img/120_330.png","74","image-keyboard-response","11","26729","0.0-6.0-1.2","HEFI","2","f","rechts","55","","","object","j","120","true"
"null","<div style=""font-size:60px;"">+</div>","null","html-keyboard-response","12","27230","0.0-6.0-0.3","HEFI","2","f","rechts","55","","fixation","","","",""
"1075","img/90_30.png","70","image-keyboard-response","13","28306","0.0-6.0-1.3","HEFI","2","f","rechts","55","","","object","f","90","true"
"null","<div style=""font-size:60px;"">+</div>","null","html-keyboard-response","14","28708","0.0-6.0-0.4","HEFI","2","f","rechts","55","","fixation","","","",""
"1609","img/0_210.png","70","image-keyboard-response","15","30319","0.0-6.0-1.4","HEFI","2","f","rechts","55","","","object","f","0","true"
"null","<div style=""font-size:60px;"">+</div>","null","html-keyboard-response","16","30770","0.0-6.0-0.5","HEFI","2","f","rechts","55","","fixation","","","",""
"1684","img/30_120.png","74","image-keyboard-response","17","32455","0.0-6.0-1.5","HEFI","2","f","rechts","55","","","object","j","30","true"
"null","<div style=""font-size:60px;"">+</div>","null","html-keyboard-response","18","32756","0.0-6.0-0.6","HEFI","2","f","rechts","55","","fixation","","","",""
"1384","img/0_90.png","74","image-keyboard-response","19","34141","0.0-6.0-1.6","HEFI","2","f","rechts","55","","","object","j","0","true"
"null","<div style=""font-size:60px;"">+</div>","null","html-keyboard-response","20","34641","0.0-6.0-0.7","HEFI","2","f","rechts","55","","fixation","","","",""
"1226","img/90_60.png","70","image-keyboard-response","21","35870","0.0-6.0-1.7","HEFI","2","f","rechts","55","","","object","f","90","true"
"null","<div style=""font-size:60px;"">+</div>","null","html-keyboard-response","22","36271","0.0-6.0-0.8","HEFI","2","f","rechts","55","","fixation","","","",""
"1256","img/L120_180.png","70","image-keyboard-response","23","37529","0.0-6.0-1.8","HEFI","2","f","rechts","55","","","object","j","120","false"
"null","<div style=""font-size:60px;"">+</div>","null","html-keyboard-response","24","37880","0.0-6.0-0.9","HEFI","2","f","rechts","55","","fixation","","","",""
"1085","img/30_90.png","74","image-keyboard-response","25","38967","0.0-6.0-1.9","HEFI","2","f","rechts","55","","","object","j","30","true"
"null","<div style=""font-size:60px;"">+</div>","null","html-keyboard-response","26","39468","0.0-6.0-0.10","HEFI","2","f","rechts","55","","fixation","","","",""
"994","img/120_270.png","74","image-keyboard-response","27","40464","0.0-6.0-1.10","HEFI","2","f","rechts","55","","","object","j","120","true"
"null","<div style=""font-size:60px;"">+</div>","null","html-keyboard-response","28","40965","0.0-6.0-0.11","HEFI","2","f","rechts","55","","fixation","","","",""
"1807","img/120_90.png","70","image-keyboard-response","29","42773","0.0-6.0-1.11","HEFI","2","f","rechts","55","","","object","f","120","true"
"null","<div style=""font-size:60px;"">+</div>","null","html-keyboard-response","30","43125","0.0-6.0-0.12","HEFI","2","f","rechts","55","","fixation","","","",""
"2322","img/60_90.png","74","image-keyboard-response","31","45449","0.0-6.0-1.12","HEFI","2","f","rechts","55","","","object","j","60","true"
"null","<div style=""font-size:60px;"">+</div>","null","html-keyboard-response","32","45800","0.0-6.0-0.13","HEFI","2","f","rechts","55","","fixation","","","",""
"1680","img/60_30.png","70","image-keyboard-response","33","47482","0.0-6.0-1.13","HEFI","2","f","rechts","55","","","object","f","60","true"
"null","<div style=""font-size:60px;"">+</div>","null","html-keyboard-response","34","47883","0.0-6.0-0.14","HEFI","2","f","rechts","55","","fixation","","","",""
"2713","img/L60_180.png","74","image-keyboard-response","35","50597","0.0-6.0-1.14","HEFI","2","f","rechts","55","","","object","j","60","true"
"null","<div style=""font-size:60px;"">+</div>","null","html-keyboard-response","36","50899","0.0-6.0-0.15","HEFI","2","f","rechts","55","","fixation","","","",""
"2495","img/60_270.png","70","image-keyboard-response","37","53397","0.0-6.0-1.15","HEFI","2","f","rechts","55","","","object","f","60","true"
"null","<div style=""font-size:60px;"">+</div>","null","html-keyboard-response","38","53898","0.0-6.0-0.16","HEFI","2","f","rechts","55","","fixation","","","",""
"2072","img/150_300.png","74","image-keyboard-response","39","55971","0.0-6.0-1.16","HEFI","2","f","rechts","55","","","object","j","150","true"
"null","<div style=""font-size:60px;"">+</div>","null","html-keyboard-response","40","56323","0.0-6.0-0.17","HEFI","2","f","rechts","55","","fixation","","","",""
"1417","img/30_270.png","70","image-keyboard-response","41","57742","0.0-6.0-1.17","HEFI","2","f","rechts","55","","","object","f","30","true"
"null","<div style=""font-size:60px;"">+</div>","null","html-keyboard-response","42","58193","0.0-6.0-0.18","HEFI","2","f","rechts","55","","fixation","","","",""
"1630","img/150_240.png","74","image-keyboard-response","43","59824","0.0-6.0-1.18","HEFI","2","f","rechts","55","","","object","j","150","true"
"null","<div style=""font-size:60px;"">+</div>","null","html-keyboard-response","44","60276","0.0-6.0-0.19","HEFI","2","f","rechts","55","","fixation","","","",""
"1312","img/90_300.png","70","image-keyboard-response","45","61589","0.0-6.0-1.19","HEFI","2","f","rechts","55","","","object","j","90","false"
"null","<div style=""font-size:60px;"">+</div>","null","html-keyboard-response","46","61941","0.0-6.0-0.20","HEFI","2","f","rechts","55","","fixation","","","",""
"1243","img/0_270.png","70","image-keyboard-response","47","63186","0.0-6.0-1.20","HEFI","2","f","rechts","55","","","object","f","0","true"
"null","<div style=""font-size:60px;"">+</div>","null","html-keyboard-response","48","63688","0.0-6.0-0.21","HEFI","2","f","rechts","55","","fixation","","","",""
"1306","img/30_60.png","70","image-keyboard-response","49","64995","0.0-6.0-1.21","HEFI","2","f","rechts","55","","","object","j","30","false"
"null","<div style=""font-size:60px;"">+</div>","null","html-keyboard-response","50","65347","0.0-6.0-0.22","HEFI","2","f","rechts","55","","fixation","","","",""
"1978","img/30_300.png","70","image-keyboard-response","51","67327","0.0-6.0-1.22","HEFI","2","f","rechts","55","","","object","f","30","true"
"null","<div style=""font-size:60px;"">+</div>","null","html-keyboard-response","52","67729","0.0-6.0-0.23","HEFI","2","f","rechts","55","","fixation","","","",""
"1003","img/30_180.png","74","image-keyboard-response","53","68734","0.0-6.0-1.23","HEFI","2","f","rechts","55","","","object","f","30","false"
"null","<div style=""font-size:60px;"">+</div>","null","html-keyboard-response","54","69236","0.0-6.0-0.24","HEFI","2","f","rechts","55","","fixation","","","",""
"995","img/0_240.png","70","image-keyboard-response","55","70232","0.0-6.0-1.24","HEFI","2","f","rechts","55","","","object","f","0","true"
"null","<div style=""font-size:60px;"">+</div>","null","html-keyboard-response","56","70584","0.0-6.0-0.25","HEFI","2","f","rechts","55","","fixation","","","",""
"2312","img/L150_180.png","74","image-keyboard-response","57","72897","0.0-6.0-1.25","HEFI","2","f","rechts","55","","","object","j","150","true"
"null","<div style=""font-size:60px;"">+</div>","null","html-keyboard-response","58","73348","0.0-6.0-0.26","HEFI","2","f","rechts","55","","fixation","","","",""
"2246","img/120_30.png","70","image-keyboard-response","59","75595","0.0-6.0-1.26","HEFI","2","f","rechts","55","","","object","f","120","true"
"null","<div style=""font-size:60px;"">+</div>","null","html-keyboard-response","60","76047","0.0-6.0-0.27","HEFI","2","f","rechts","55","","fixation","","","",""
"2472","img/90_240.png","74","image-keyboard-response","61","78520","0.0-6.0-1.27","HEFI","2","f","rechts","55","","","object","f","90","false"
"null","<div style=""font-size:60px;"">+</div>","null","html-keyboard-response","62","78822","0.0-6.0-0.28","HEFI","2","f","rechts","55","","fixation","","","",""
"1186","img/0_150.png","74","image-keyboard-response","63","80009","0.0-6.0-1.28","HEFI","2","f","rechts","55","","","object","j","0","true"
"null","<div style=""font-size:60px;"">+</div>","null","html-keyboard-response","64","80411","0.0-6.0-0.29","HEFI","2","f","rechts","55","","fixation","","","",""
"2057","img/L30_180.png","74","image-keyboard-response","65","82469","0.0-6.0-1.29","HEFI","2","f","rechts","55","","","object","j","30","true"
"null","<div style=""font-size:60px;"">+</div>","null","html-keyboard-response","66","82871","0.0-6.0-0.30","HEFI","2","f","rechts","55","","fixation","","","",""
"1712","img/60_150.png","74","image-keyboard-response","67","84584","0.0-6.0-1.30","HEFI","2","f","rechts","55","","","object","j","60","true"
"null","<div style=""font-size:60px;"">+</div>","null","html-keyboard-response","68","85036","0.0-6.0-0.31","HEFI","2","f","rechts","55","","fixation","","","",""
"902","img/0_30.png","74","image-keyboard-response","69","85939","0.0-6.0-1.31","HEFI","2","f","rechts","55","","","object","j","0","true"
"null","<div style=""font-size:60px;"">+</div>","null","html-keyboard-response","70","86241","0.0-6.0-0.32","HEFI","2","f","rechts","55","","fixation","","","",""
"1516","img/L90_180.png","74","image-keyboard-response","71","87758","0.0-6.0-1.32","HEFI","2","f","rechts","55","","","object","j","90","true"
"null","<div style=""font-size:60px;"">+</div>","null","html-keyboard-response","72","88260","0.0-6.0-0.33","HEFI","2","f","rechts","55","","fixation","","","",""
"1096","img/0_300.png","70","image-keyboard-response","73","89357","0.0-6.0-1.33","HEFI","2","f","rechts","55","","","object","f","0","true"
"null","<div style=""font-size:60px;"">+</div>","null","html-keyboard-response","74","89708","0.0-6.0-0.34","HEFI","2","f","rechts","55","","fixation","","","",""
"1971","img/150_120.png","70","image-keyboard-response","75","91680","0.0-6.0-1.34","HEFI","2","f","rechts","55","","","object","f","150","true"
"null","<div style=""font-size:60px;"">+</div>","null","html-keyboard-response","76","92082","0.0-6.0-0.35","HEFI","2","f","rechts","55","","fixation","","","",""
"1926","img/150_180.png","74","image-keyboard-response","77","94010","0.0-6.0-1.35","HEFI","2","f","rechts","55","","","object","f","150","false"
"null","<div style=""font-size:60px;"">+</div>","null","html-keyboard-response","78","94461","0.0-6.0-0.36","HEFI","2","f","rechts","55","","fixation","","","",""
"1435","img/60_330.png","74","image-keyboard-response","79","95897","0.0-6.0-1.36","HEFI","2","f","rechts","55","","","object","j","60","true"
"null","<div style=""font-size:60px;"">+</div>","null","html-keyboard-response","80","96249","0.0-6.0-0.37","HEFI","2","f","rechts","55","","fixation","","","",""
"1720","img/120_210.png","70","image-keyboard-response","81","97970","0.0-6.0-1.37","HEFI","2","f","rechts","55","","","object","f","120","true"
"null","<div style=""font-size:60px;"">+</div>","null","html-keyboard-response","82","98471","0.0-6.0-0.38","HEFI","2","f","rechts","55","","fixation","","","",""
"1077","img/0_120.png","74","image-keyboard-response","83","99551","0.0-6.0-1.38","HEFI","2","f","rechts","55","","","object","j","0","true"
"null","<div style=""font-size:60px;"">+</div>","null","html-keyboard-response","84","100002","0.0-6.0-0.39","HEFI","2","f","rechts","55","","fixation","","","",""
"1342","img/120_180.png","70","image-keyboard-response","85","101345","0.0-6.0-1.39","HEFI","2","f","rechts","55","","","object","f","120","true"
"null","<div style=""font-size:60px;"">+</div>","null","html-keyboard-response","86","101797","0.0-6.0-0.40","HEFI","2","f","rechts","55","","fixation","","","",""
"1743","img/150_90.png","70","image-keyboard-response","87","103541","0.0-6.0-1.40","HEFI","2","f","rechts","55","","","object","f","150","true"
"null","<div style=""font-size:60px;"">+</div>","null","html-keyboard-response","88","103993","0.0-6.0-0.41","HEFI","2","f","rechts","55","","fixation","","","",""
"1327","img/150_270.png","74","image-keyboard-response","89","105322","0.0-6.0-1.41","HEFI","2","f","rechts","55","","","object","j","150","true"
"null","<div style=""font-size:60px;"">+</div>","null","html-keyboard-response","90","105674","0.0-6.0-0.42","HEFI","2","f","rechts","55","","fixation","","","",""
"1453","img/90_210.png","70","image-keyboard-response","91","107129","0.0-6.0-1.42","HEFI","2","f","rechts","55","","","object","f","90","true"
"null","<div style=""font-size:60px;"">+</div>","null","html-keyboard-response","92","107580","0.0-6.0-0.43","HEFI","2","f","rechts","55","","fixation","","","",""
"1071","img/0_330.png","70","image-keyboard-response","93","108653","0.0-6.0-1.43","HEFI","2","f","rechts","55","","","object","f","0","true"
"null","<div style=""font-size:60px;"">+</div>","null","html-keyboard-response","94","109004","0.0-6.0-0.44","HEFI","2","f","rechts","55","","fixation","","","",""
"1263","img/120_150.png","74","image-keyboard-response","95","110268","0.0-6.0-1.44","HEFI","2","f","rechts","55","","","object","j","120","true"
"null","<div style=""font-size:60px;"">+</div>","null","html-keyboard-response","96","110620","0.0-6.0-0.45","HEFI","2","f","rechts","55","","fixation","","","",""
"1197","img/30_240.png","70","image-keyboard-response","97","111818","0.0-6.0-1.45","HEFI","2","f","rechts","55","","","object","f","30","true"
"null","<div style=""font-size:60px;"">+</div>","null","html-keyboard-response","98","112170","0.0-6.0-0.46","HEFI","2","f","rechts","55","","fixation","","","",""
"1263","img/0_60.png","74","image-keyboard-response","99","113434","0.0-6.0-1.46","HEFI","2","f","rechts","55","","","object","j","0","true"
"null","<div style=""font-size:60px;"">+</div>","null","html-keyboard-response","100","113836","0.0-6.0-0.47","HEFI","2","f","rechts","55","","fixation","","","",""
"1692","img/90_150.png","74","image-keyboard-response","101","115529","0.0-6.0-1.47","HEFI","2","f","rechts","55","","","object","j","90","true"
"null","<div style=""font-size:60px;"">+</div>","null","html-keyboard-response","102","115931","0.0-6.0-0.48","HEFI","2","f","rechts","55","","fixation","","","",""
"1751","img/60_180.png","70","image-keyboard-response","103","117683","0.0-6.0-1.48","HEFI","2","f","rechts","55","","","object","f","60","true"
"null","<div style=""font-size:60px;"">+</div>","null","html-keyboard-response","104","117985","0.0-6.0-0.49","HEFI","2","f","rechts","55","","fixation","","","",""
"2269","img/90_180.png","70","image-keyboard-response","105","120255","0.0-6.0-1.49","HEFI","2","f","rechts","55","","","object","f","90","true"
"null","<div style=""font-size:60px;"">+</div>","null","html-keyboard-response","106","120657","0.0-6.0-0.50","HEFI","2","f","rechts","55","","fixation","","","",""
"1554","img/60_210.png","70","image-keyboard-response","107","122212","0.0-6.0-1.50","HEFI","2","f","rechts","55","","","object","f","60","true"
"null","<div style=""font-size:60px;"">+</div>","null","html-keyboard-response","108","122614","0.0-6.0-0.51","HEFI","2","f","rechts","55","","fixation","","","",""
"1375","img/150_60.png","74","image-keyboard-response","109","123990","0.0-6.0-1.51","HEFI","2","f","rechts","55","","","object","f","150","false"
"null","<div style=""font-size:60px;"">+</div>","null","html-keyboard-response","110","124442","0.0-6.0-0.52","HEFI","2","f","rechts","55","","fixation","","","",""
"1902","img/150_240.png","70","image-keyboard-response","111","126345","0.0-6.0-1.52","HEFI","2","f","rechts","55","","","object","j","150","false"
"null","<div style=""font-size:60px;"">+</div>","null","html-keyboard-response","112","126696","0.0-6.0-0.53","HEFI","2","f","rechts","55","","fixation","","","",""
"1080","img/60_30.png","74","image-keyboard-response","113","127777","0.0-6.0-1.53","HEFI","2","f","rechts","55","","","object","f","60","false"
"null","<div style=""font-size:60px;"">+</div>","null","html-keyboard-response","114","128279","0.0-6.0-0.54","HEFI","2","f","rechts","55","","fixation","","","",""
"952","img/0_150.png","74","image-keyboard-response","115","129232","0.0-6.0-1.54","HEFI","2","f","rechts","55","","","object","j","0","true"
"null","<div style=""font-size:60px;"">+</div>","null","html-keyboard-response","116","129534","0.0-6.0-0.55","HEFI","2","f","rechts","55","","fixation","","","",""
"1084","img/90_180.png","74","image-keyboard-response","117","130618","0.0-6.0-1.55","HEFI","2","f","rechts","55","","","object","f","90","false"
"null","<div style=""font-size:60px;"">+</div>","null","html-keyboard-response","118","131120","0.0-6.0-0.56","HEFI","2","f","rechts","55","","fixation","","","",""
"1964","img/90_60.png","70","image-keyboard-response","119","133084","0.0-6.0-1.56","HEFI","2","f","rechts","55","","","object","f","90","true"
"null","<div style=""font-size:60px;"">+</div>","null","html-keyboard-response","120","133436","0.0-6.0-0.57","HEFI","2","f","rechts","55","","fixation","","","",""
"1385","img/30_300.png","74","image-keyboard-response","121","134821","0.0-6.0-1.57","HEFI","2","f","rechts","55","","","object","f","30","false"
"null","<div style=""font-size:60px;"">+</div>","null","html-keyboard-response","122","135122","0.0-6.0-0.58","HEFI","2","f","rechts","55","","fixation","","","",""
"953","img/0_210.png","70","image-keyboard-response","123","136076","0.0-6.0-1.58","HEFI","2","f","rechts","55","","","object","f","0","true"
"null","<div style=""font-size:60px;"">+</div>","null","html-keyboard-response","124","136428","0.0-6.0-0.59","HEFI","2","f","rechts","55","","fixation","","","",""
"1666","img/120_210.png","70","image-keyboard-response","125","138094","0.0-6.0-1.59","HEFI","2","f","rechts","55","","","object","f","120","true"
"null","<div style=""font-size:60px;"">+</div>","null","html-keyboard-response","126","138546","0.0-6.0-0.60","HEFI","2","f","rechts","55","","fixation","","","",""
"2251","img/30_90.png","70","image-keyboard-response","127","140797","0.0-6.0-1.60","HEFI","2","f","rechts","55","","","object","j","30","false"
"null","<div style=""font-size:60px;"">+</div>","null","html-keyboard-response","128","141248","0.0-6.0-0.61","HEFI","2","f","rechts","55","","fixation","","","",""
"1851","img/150_300.png","74","image-keyboard-response","129","143100","0.0-6.0-1.61","HEFI","2","f","rechts","55","","","object","j","150","true"
"null","<div style=""font-size:60px;"">+</div>","null","html-keyboard-response","130","143402","0.0-6.0-0.62","HEFI","2","f","rechts","55","","fixation","","","",""
"1432","img/120_330.png","74","image-keyboard-response","131","144834","0.0-6.0-1.62","HEFI","2","f","rechts","55","","","object","j","120","true"
"null","<div style=""font-size:60px;"">+</div>","null","html-keyboard-response","132","145136","0.0-6.0-0.63","HEFI","2","f","rechts","55","","fixation","","","",""
"1564","img/L150_180.png","70","image-keyboard-response","133","146700","0.0-6.0-1.63","HEFI","2","f","rechts","55","","","object","j","150","false"
"null","<div style=""font-size:60px;"">+</div>","null","html-keyboard-response","134","147150","0.0-6.0-0.64","HEFI","2","f","rechts","55","","fixation","","","",""
"1765","img/150_180.png","74","image-keyboard-response","135","148916","0.0-6.0-1.64","HEFI","2","f","rechts","55","","","object","f","150","false"
"null","<div style=""font-size:60px;"">+</div>","null","html-keyboard-response","136","149368","0.0-6.0-0.65","HEFI","2","f","rechts","55","","fixation","","","",""
"1110","img/0_330.png","70","image-keyboard-response","137","150478","0.0-6.0-1.65","HEFI","2","f","rechts","55","","","object","f","0","true"
"null","<div style=""font-size:60px;"">+</div>","null","html-keyboard-response","138","150780","0.0-6.0-0.66","HEFI","2","f","rechts","55","","fixation","","","",""
"1305","img/30_180.png","74","image-keyboard-response","139","152086","0.0-6.0-1.66","HEFI","2","f","rechts","55","","","object","f","30","false"
"null","<div style=""font-size:60px;"">+</div>","null","html-keyboard-response","140","152387","0.0-6.0-0.67","HEFI","2","f","rechts","55","","fixation","","","",""
"1343","img/60_90.png","70","image-keyboard-response","141","153732","0.0-6.0-1.67","HEFI","2","f","rechts","55","","","object","j","60","false"
"null","<div style=""font-size:60px;"">+</div>","null","html-keyboard-response","142","154183","0.0-6.0-0.68","HEFI","2","f","rechts","55","","fixation","","","",""
"1299","img/30_270.png","70","image-keyboard-response","143","155483","0.0-6.0-1.68","HEFI","2","f","rechts","55","","","object","f","30","true"
"null","<div style=""font-size:60px;"">+</div>","null","html-keyboard-response","144","155935","0.0-6.0-0.69","HEFI","2","f","rechts","55","","fixation","","","",""
"2039","img/120_30.png","74","image-keyboard-response","145","157976","0.0-6.0-1.69","HEFI","2","f","rechts","55","","","object","f","120","false"
"null","<div style=""font-size:60px;"">+</div>","null","html-keyboard-response","146","158477","0.0-6.0-0.70","HEFI","2","f","rechts","55","","fixation","","","",""
"1217","img/120_180.png","74","image-keyboard-response","147","159695","0.0-6.0-1.70","HEFI","2","f","rechts","55","","","object","f","120","false"
"null","<div style=""font-size:60px;"">+</div>","null","html-keyboard-response","148","160097","0.0-6.0-0.71","HEFI","2","f","rechts","55","","fixation","","","",""
"1276","img/60_180.png","74","image-keyboard-response","149","161375","0.0-6.0-1.71","HEFI","2","f","rechts","55","","","object","f","60","false"
"null","<div style=""font-size:60px;"">+</div>","null","html-keyboard-response","150","161826","0.0-6.0-0.72","HEFI","2","f","rechts","55","","fixation","","","",""
"1162","img/L90_180.png","70","image-keyboard-response","151","162988","0.0-6.0-1.72","HEFI","2","f","rechts","55","","","object","j","90","false"
"null","<div style=""font-size:60px;"">+</div>","null","html-keyboard-response","152","163490","0.0-6.0-0.73","HEFI","2","f","rechts","55","","fixation","","","",""
"1307","img/60_150.png","74","image-keyboard-response","153","164798","0.0-6.0-1.73","HEFI","2","f","rechts","55","","","object","j","60","true"
"null","<div style=""font-size:60px;"">+</div>","null","html-keyboard-response","154","165099","0.0-6.0-0.74","HEFI","2","f","rechts","55","","fixation","","","",""
"1371","img/120_90.png","70","image-keyboard-response","155","166471","0.0-6.0-1.74","HEFI","2","f","rechts","55","","","object","f","120","true"
"null","<div style=""font-size:60px;"">+</div>","null","html-keyboard-response","156","166823","0.0-6.0-0.75","HEFI","2","f","rechts","55","","fixation","","","",""
"966","img/0_30.png","74","image-keyboard-response","157","167790","0.0-6.0-1.75","HEFI","2","f","rechts","55","","","object","j","0","true"
"null","<div style=""font-size:60px;"">+</div>","null","html-keyboard-response","158","168092","0.0-6.0-0.76","HEFI","2","f","rechts","55","","fixation","","","",""
"1066","img/30_120.png","74","image-keyboard-response","159","169160","0.0-6.0-1.76","HEFI","2","f","rechts","55","","","object","j","30","true"
"null","<div style=""font-size:60px;"">+</div>","null","html-keyboard-response","160","169561","0.0-6.0-0.77","HEFI","2","f","rechts","55","","fixation","","","",""
"1116","img/0_120.png","74","image-keyboard-response","161","170678","0.0-6.0-1.77","HEFI","2","f","rechts","55","","","object","j","0","true"
"null","<div style=""font-size:60px;"">+</div>","null","html-keyboard-response","162","171030","0.0-6.0-0.78","HEFI","2","f","rechts","55","","fixation","","","",""
"990","img/90_210.png","70","image-keyboard-response","163","172020","0.0-6.0-1.78","HEFI","2","f","rechts","55","","","object","f","90","true"
"null","<div style=""font-size:60px;"">+</div>","null","html-keyboard-response","164","172321","0.0-6.0-0.79","HEFI","2","f","rechts","55","","fixation","","","",""
"1382","img/60_330.png","74","image-keyboard-response","165","173704","0.0-6.0-1.79","HEFI","2","f","rechts","55","","","object","j","60","true"
"null","<div style=""font-size:60px;"">+</div>","null","html-keyboard-response","166","174206","0.0-6.0-0.80","HEFI","2","f","rechts","55","","fixation","","","",""
"1434","img/30_240.png","74","image-keyboard-response","167","175641","0.0-6.0-1.80","HEFI","2","f","rechts","55","","","object","f","30","false"
"null","<div style=""font-size:60px;"">+</div>","null","html-keyboard-response","168","176143","0.0-6.0-0.81","HEFI","2","f","rechts","55","","fixation","","","",""
"1067","img/0_240.png","70","image-keyboard-response","169","177211","0.0-6.0-1.81","HEFI","2","f","rechts","55","","","object","f","0","true"
"null","<div style=""font-size:60px;"">+</div>","null","html-keyboard-response","170","177662","0.0-6.0-0.82","HEFI","2","f","rechts","55","","fixation","","","",""
"1344","img/L60_180.png","74","image-keyboard-response","171","179007","0.0-6.0-1.82","HEFI","2","f","rechts","55","","","object","j","60","true"
"null","<div style=""font-size:60px;"">+</div>","null","html-keyboard-response","172","179409","0.0-6.0-0.83","HEFI","2","f","rechts","55","","fixation","","","",""
"992","img/0_60.png","74","image-keyboard-response","173","180401","0.0-6.0-1.83","HEFI","2","f","rechts","55","","","object","j","0","true"
"null","<div style=""font-size:60px;"">+</div>","null","html-keyboard-response","174","180902","0.0-6.0-0.84","HEFI","2","f","rechts","55","","fixation","","","",""
"828","img/0_300.png","70","image-keyboard-response","175","181731","0.0-6.0-1.84","HEFI","2","f","rechts","55","","","object","f","0","true"
"null","<div style=""font-size:60px;"">+</div>","null","html-keyboard-response","176","182083","0.0-6.0-0.85","HEFI","2","f","rechts","55","","fixation","","","",""
"1266","img/60_270.png","74","image-keyboard-response","177","183350","0.0-6.0-1.85","HEFI","2","f","rechts","55","","","object","f","60","false"
"null","<div style=""font-size:60px;"">+</div>","null","html-keyboard-response","178","183852","0.0-6.0-0.86","HEFI","2","f","rechts","55","","fixation","","","",""
"1312","img/90_300.png","74","image-keyboard-response","179","185165","0.0-6.0-1.86","HEFI","2","f","rechts","55","","","object","j","90","true"
"null","<div style=""font-size:60px;"">+</div>","null","html-keyboard-response","180","185467","0.0-6.0-0.87","HEFI","2","f","rechts","55","","fixation","","","",""
"935","img/90_330.png","74","image-keyboard-response","181","186402","0.0-6.0-1.87","HEFI","2","f","rechts","55","","","object","j","90","true"
"null","<div style=""font-size:60px;"">+</div>","null","html-keyboard-response","182","186904","0.0-6.0-0.88","HEFI","2","f","rechts","55","","fixation","","","",""
"805","img/0_90.png","74","image-keyboard-response","183","187709","0.0-6.0-1.88","HEFI","2","f","rechts","55","","","object","j","0","true"
"null","<div style=""font-size:60px;"">+</div>","null","html-keyboard-response","184","188111","0.0-6.0-0.89","HEFI","2","f","rechts","55","","fixation","","","",""
"1065","img/150_120.png","70","image-keyboard-response","185","189176","0.0-6.0-1.89","HEFI","2","f","rechts","55","","","object","f","150","true"
"null","<div style=""font-size:60px;"">+</div>","null","html-keyboard-response","186","189478","0.0-6.0-0.90","HEFI","2","f","rechts","55","","fixation","","","",""
"1548","img/90_240.png","70","image-keyboard-response","187","191027","0.0-6.0-1.90","HEFI","2","f","rechts","55","","","object","f","90","true"
"null","<div style=""font-size:60px;"">+</div>","null","html-keyboard-response","188","191328","0.0-6.0-0.91","HEFI","2","f","rechts","55","","fixation","","","",""
"1917","img/90_120.png","74","image-keyboard-response","189","193246","0.0-6.0-1.91","HEFI","2","f","rechts","55","","","object","j","90","true"
"null","<div style=""font-size:60px;"">+</div>","null","html-keyboard-response","190","193697","0.0-6.0-0.92","HEFI","2","f","rechts","55","","fixation","","","",""
"1981","img/L30_180.png","74","image-keyboard-response","191","195679","0.0-6.0-1.92","HEFI","2","f","rechts","55","","","object","j","30","true"
"null","<div style=""font-size:60px;"">+</div>","null","html-keyboard-response","192","196080","0.0-6.0-0.93","HEFI","2","f","rechts","55","","fixation","","","",""
"1323","img/90_30.png","70","image-keyboard-response","193","197404","0.0-6.0-1.93","HEFI","2","f","rechts","55","","","object","f","90","true"
"null","<div style=""font-size:60px;"">+</div>","null","html-keyboard-response","194","197906","0.0-6.0-0.94","HEFI","2","f","rechts","55","","fixation","","","",""
"1062","img/0_270.png","70","image-keyboard-response","195","198969","0.0-6.0-1.94","HEFI","2","f","rechts","55","","","object","f","0","true"
"null","<div style=""font-size:60px;"">+</div>","null","html-keyboard-response","196","199320","0.0-6.0-0.95","HEFI","2","f","rechts","55","","fixation","","","",""
"1287","img/120_150.png","70","image-keyboard-response","197","200609","0.0-6.0-1.95","HEFI","2","f","rechts","55","","","object","j","120","false"
"null","<div style=""font-size:60px;"">+</div>","null","html-keyboard-response","198","201010","0.0-6.0-0.96","HEFI","2","f","rechts","55","","fixation","","","",""
"854","img/90_150.png","70","image-keyboard-response","199","201866","0.0-6.0-1.96","HEFI","2","f","rechts","55","","","object","j","90","false"
"null","<div style=""font-size:60px;"">+</div>","null","html-keyboard-response","200","202268","0.0-6.0-0.97","HEFI","2","f","rechts","55","","fixation","","","",""
"1482","img/150_270.png","74","image-keyboard-response","201","203751","0.0-6.0-1.97","HEFI","2","f","rechts","55","","","object","j","150","true"
"null","<div style=""font-size:60px;"">+</div>","null","html-keyboard-response","202","204202","0.0-6.0-0.98","HEFI","2","f","rechts","55","","fixation","","","",""
"1596","img/60_210.png","70","image-keyboard-response","203","205800","0.0-6.0-1.98","HEFI","2","f","rechts","55","","","object","f","60","true"
"null","<div style=""font-size:60px;"">+</div>","null","html-keyboard-response","204","206202","0.0-6.0-0.99","HEFI","2","f","rechts","55","","fixation","","","",""
"1551","img/30_60.png","74","image-keyboard-response","205","207754","0.0-6.0-1.99","HEFI","2","f","rechts","55","","","object","j","30","true"
"null","<div style=""font-size:60px;"">+</div>","null","html-keyboard-response","206","208255","0.0-6.0-0.100","HEFI","2","f","rechts","55","","fixation","","","",""
"2029","img/150_60.png","70","image-keyboard-response","207","210285","0.0-6.0-1.100","HEFI","2","f","rechts","55","","","object","f","150","true"
"null","<div style=""font-size:60px;"">+</div>","null","html-keyboard-response","208","210737","0.0-6.0-0.101","HEFI","2","f","rechts","55","","fixation","","","",""
"2089","img/150_90.png","70","image-keyboard-response","209","212828","0.0-6.0-1.101","HEFI","2","f","rechts","55","","","object","f","150","true"
"null","<div style=""font-size:60px;"">+</div>","null","html-keyboard-response","210","213129","0.0-6.0-0.102","HEFI","2","f","rechts","55","","fixation","","","",""
"1780","img/L120_180.png","74","image-keyboard-response","211","214910","0.0-6.0-1.102","HEFI","2","f","rechts","55","","","object","j","120","true"
"null","<div style=""font-size:60px;"">+</div>","null","html-keyboard-response","212","215262","0.0-6.0-0.103","HEFI","2","f","rechts","55","","fixation","","","",""
"2011","img/120_270.png","70","image-keyboard-response","213","217274","0.0-6.0-1.103","HEFI","2","f","rechts","55","","","object","j","120","false"
"null","<div style=""font-size:60px;"">+</div>","null","html-keyboard-response","214","217726","0.0-6.0-0.104","HEFI","2","f","rechts","55","","fixation","","","",""
"1796","img/150_180.png","70","image-keyboard-response","215","219523","0.0-6.0-1.104","HEFI","2","f","rechts","55","","","object","f","150","true"
"null","<div style=""font-size:60px;"">+</div>","null","html-keyboard-response","216","219875","0.0-6.0-0.105","HEFI","2","f","rechts","55","","fixation","","","",""
"990","img/0_60.png","74","image-keyboard-response","217","220866","0.0-6.0-1.105","HEFI","2","f","rechts","55","","","object","j","0","true"
"null","<div style=""font-size:60px;"">+</div>","null","html-keyboard-response","218","221368","0.0-6.0-0.106","HEFI","2","f","rechts","55","","fixation","","","",""
"694","img/0_30.png","74","image-keyboard-response","219","222063","0.0-6.0-1.106","HEFI","2","f","rechts","55","","","object","j","0","true"
"null","<div style=""font-size:60px;"">+</div>","null","html-keyboard-response","220","222465","0.0-6.0-0.107","HEFI","2","f","rechts","55","","fixation","","","",""
"1529","img/L30_180.png","70","image-keyboard-response","221","223995","0.0-6.0-1.107","HEFI","2","f","rechts","55","","","object","j","30","false"
"null","<div style=""font-size:60px;"">+</div>","null","html-keyboard-response","222","224297","0.0-6.0-0.108","HEFI","2","f","rechts","55","","fixation","","","",""
"1350","img/90_240.png","74","image-keyboard-response","223","225647","0.0-6.0-1.108","HEFI","2","f","rechts","55","","","object","f","90","false"
"null","<div style=""font-size:60px;"">+</div>","null","html-keyboard-response","224","226049","0.0-6.0-0.109","HEFI","2","f","rechts","55","","fixation","","","",""
"1370","img/L90_180.png","74","image-keyboard-response","225","227419","0.0-6.0-1.109","HEFI","2","f","rechts","55","","","object","j","90","true"
"null","<div style=""font-size:60px;"">+</div>","null","html-keyboard-response","226","227771","0.0-6.0-0.110","HEFI","2","f","rechts","55","","fixation","","","",""
"1238","img/30_240.png","70","image-keyboard-response","227","229010","0.0-6.0-1.110","HEFI","2","f","rechts","55","","","object","f","30","true"
"null","<div style=""font-size:60px;"">+</div>","null","html-keyboard-response","228","229511","0.0-6.0-0.111","HEFI","2","f","rechts","55","","fixation","","","",""
"812","img/30_270.png","70","image-keyboard-response","229","230324","0.0-6.0-1.111","HEFI","2","f","rechts","55","","","object","f","30","true"
"null","<div style=""font-size:60px;"">+</div>","null","html-keyboard-response","230","230726","0.0-6.0-0.112","HEFI","2","f","rechts","55","","fixation","","","",""
"1854","img/120_150.png","74","image-keyboard-response","231","232580","0.0-6.0-1.112","HEFI","2","f","rechts","55","","","object","j","120","true"
"null","<div style=""font-size:60px;"">+</div>","null","html-keyboard-response","232","232882","0.0-6.0-0.113","HEFI","2","f","rechts","55","","fixation","","","",""
"1565","img/60_270.png","70","image-keyboard-response","233","234448","0.0-6.0-1.113","HEFI","2","f","rechts","55","","","object","f","60","true"
"null","<div style=""font-size:60px;"">+</div>","null","html-keyboard-response","234","234800","0.0-6.0-0.114","HEFI","2","f","rechts","55","","fixation","","","",""
"983","img/0_120.png","74","image-keyboard-response","235","235784","0.0-6.0-1.114","HEFI","2","f","rechts","55","","","object","j","0","true"
"null","<div style=""font-size:60px;"">+</div>","null","html-keyboard-response","236","236136","0.0-6.0-0.115","HEFI","2","f","rechts","55","","fixation","","","",""
"1118","img/30_300.png","74","image-keyboard-response","237","237254","0.0-6.0-1.115","HEFI","2","f","rechts","55","","","object","f","30","false"
"null","<div style=""font-size:60px;"">+</div>","null","html-keyboard-response","238","237755","0.0-6.0-0.116","HEFI","2","f","rechts","55","","fixation","","","",""
"1327","img/90_60.png","70","image-keyboard-response","239","239083","0.0-6.0-1.116","HEFI","2","f","rechts","55","","","object","f","90","true"
"null","<div style=""font-size:60px;"">+</div>","null","html-keyboard-response","240","239584","0.0-6.0-0.117","HEFI","2","f","rechts","55","","fixation","","","",""
"1161","img/150_270.png","74","image-keyboard-response","241","240745","0.0-6.0-1.117","HEFI","2","f","rechts","55","","","object","j","150","true"
"null","<div style=""font-size:60px;"">+</div>","null","html-keyboard-response","242","241196","0.0-6.0-0.118","HEFI","2","f","rechts","55","","fixation","","","",""
"796","img/0_300.png","70","image-keyboard-response","243","241992","0.0-6.0-1.118","HEFI","2","f","rechts","55","","","object","f","0","true"
"null","<div style=""font-size:60px;"">+</div>","null","html-keyboard-response","244","242344","0.0-6.0-0.119","HEFI","2","f","rechts","55","","fixation","","","",""
"1156","img/30_180.png","74","image-keyboard-response","245","243500","0.0-6.0-1.119","HEFI","2","f","rechts","55","","","object","f","30","false"
"null","<div style=""font-size:60px;"">+</div>","null","html-keyboard-response","246","244002","0.0-6.0-0.120","HEFI","2","f","rechts","55","","fixation","","","",""
"1435","img/L120_180.png","70","image-keyboard-response","247","245438","0.0-6.0-1.120","HEFI","2","f","rechts","55","","","object","j","120","false"
"null","<div style=""font-size:60px;"">+</div>","null","html-keyboard-response","248","245939","0.0-6.0-0.121","HEFI","2","f","rechts","55","","fixation","","","",""
"1136","img/0_210.png","70","image-keyboard-response","249","247076","0.0-6.0-1.121","HEFI","2","f","rechts","55","","","object","f","0","true"
"null","<div style=""font-size:60px;"">+</div>","null","html-keyboard-response","250","247428","0.0-6.0-0.122","HEFI","2","f","rechts","55","","fixation","","","",""
"1396","img/90_120.png","70","image-keyboard-response","251","248824","0.0-6.0-1.122","HEFI","2","f","rechts","55","","","object","j","90","false"
"null","<div style=""font-size:60px;"">+</div>","null","html-keyboard-response","252","249226","0.0-6.0-0.123","HEFI","2","f","rechts","55","","fixation","","","",""
"1273","img/30_120.png","74","image-keyboard-response","253","250500","0.0-6.0-1.123","HEFI","2","f","rechts","55","","","object","j","30","true"
"null","<div style=""font-size:60px;"">+</div>","null","html-keyboard-response","254","250951","0.0-6.0-0.124","HEFI","2","f","rechts","55","","fixation","","","",""
"1136","img/0_240.png","70","image-keyboard-response","255","252089","0.0-6.0-1.124","HEFI","2","f","rechts","55","","","object","f","0","true"
"null","<div style=""font-size:60px;"">+</div>","null","html-keyboard-response","256","252540","0.0-6.0-0.125","HEFI","2","f","rechts","55","","fixation","","","",""
"1208","img/150_120.png","70","image-keyboard-response","257","253749","0.0-6.0-1.125","HEFI","2","f","rechts","55","","","object","f","150","true"
"null","<div style=""font-size:60px;"">+</div>","null","html-keyboard-response","258","254101","0.0-6.0-0.126","HEFI","2","f","rechts","55","","fixation","","","",""
"1257","img/120_30.png","70","image-keyboard-response","259","255359","0.0-6.0-1.126","HEFI","2","f","rechts","55","","","object","f","120","true"
"null","<div style=""font-size:60px;"">+</div>","null","html-keyboard-response","260","255661","0.0-6.0-0.127","HEFI","2","f","rechts","55","","fixation","","","",""
"1309","img/L150_180.png","70","image-keyboard-response","261","256972","0.0-6.0-1.127","HEFI","2","f","rechts","55","","","object","j","150","false"
"null","<div style=""font-size:60px;"">+</div>","null","html-keyboard-response","262","257472","0.0-6.0-0.128","HEFI","2","f","rechts","55","","fixation","","","",""
"808","img/0_90.png","74","image-keyboard-response","263","258282","0.0-6.0-1.128","HEFI","2","f","rechts","55","","","object","j","0","true"
"null","<div style=""font-size:60px;"">+</div>","null","html-keyboard-response","264","258783","0.0-6.0-0.129","HEFI","2","f","rechts","55","","fixation","","","",""
"1106","img/90_150.png","70","image-keyboard-response","265","259890","0.0-6.0-1.129","HEFI","2","f","rechts","55","","","object","j","90","false"
"null","<div style=""font-size:60px;"">+</div>","null","html-keyboard-response","266","260242","0.0-6.0-0.130","HEFI","2","f","rechts","55","","fixation","","","",""
"1087","img/120_180.png","70","image-keyboard-response","267","261331","0.0-6.0-1.130","HEFI","2","f","rechts","55","","","object","f","120","true"
"null","<div style=""font-size:60px;"">+</div>","null","html-keyboard-response","268","261832","0.0-6.0-0.131","HEFI","2","f","rechts","55","","fixation","","","",""
"1813","img/90_300.png","74","image-keyboard-response","269","263647","0.0-6.0-1.131","HEFI","2","f","rechts","55","","","object","j","90","true"
"null","<div style=""font-size:60px;"">+</div>","null","html-keyboard-response","270","263948","0.0-6.0-0.132","HEFI","2","f","rechts","55","","fixation","","","",""
"1439","img/30_60.png","74","image-keyboard-response","271","265389","0.0-6.0-1.132","HEFI","2","f","rechts","55","","","object","j","30","true"
"null","<div style=""font-size:60px;"">+</div>","null","html-keyboard-response","272","265790","0.0-6.0-0.133","HEFI","2","f","rechts","55","","fixation","","","",""
"1235","img/120_90.png","70","image-keyboard-response","273","267026","0.0-6.0-1.133","HEFI","2","f","rechts","55","","","object","f","120","true"
"null","<div style=""font-size:60px;"">+</div>","null","html-keyboard-response","274","267478","0.0-6.0-0.134","HEFI","2","f","rechts","55","","fixation","","","",""
"1480","img/90_180.png","74","image-keyboard-response","275","268959","0.0-6.0-1.134","HEFI","2","f","rechts","55","","","object","f","90","false"
"null","<div style=""font-size:60px;"">+</div>","null","html-keyboard-response","276","269361","0.0-6.0-0.135","HEFI","2","f","rechts","55","","fixation","","","",""
"881","img/0_150.png","74","image-keyboard-response","277","270243","0.0-6.0-1.135","HEFI","2","f","rechts","55","","","object","j","0","true"
"null","<div style=""font-size:60px;"">+</div>","null","html-keyboard-response","278","270545","0.0-6.0-0.136","HEFI","2","f","rechts","55","","fixation","","","",""
"1759","img/120_330.png","74","image-keyboard-response","279","272305","0.0-6.0-1.136","HEFI","2","f","rechts","55","","","object","j","120","true"
"null","<div style=""font-size:60px;"">+</div>","null","html-keyboard-response","280","272707","0.0-6.0-0.137","HEFI","2","f","rechts","55","","fixation","","","",""
"2399","img/90_30.png","70","image-keyboard-response","281","275106","0.0-6.0-1.137","HEFI","2","f","rechts","55","","","object","f","90","true"
"null","<div style=""font-size:60px;"">+</div>","null","html-keyboard-response","282","275558","0.0-6.0-0.138","HEFI","2","f","rechts","55","","fixation","","","",""
"1350","img/120_210.png","74","image-keyboard-response","283","276909","0.0-6.0-1.138","HEFI","2","f","rechts","55","","","object","f","120","false"
"null","<div style=""font-size:60px;"">+</div>","null","html-keyboard-response","284","277261","0.0-6.0-0.139","HEFI","2","f","rechts","55","","fixation","","","",""
"1341","img/120_270.png","74","image-keyboard-response","285","278602","0.0-6.0-1.139","HEFI","2","f","rechts","55","","","object","j","120","true"
"null","<div style=""font-size:60px;"">+</div>","null","html-keyboard-response","286","278954","0.0-6.0-0.140","HEFI","2","f","rechts","55","","fixation","","","",""
"1839","img/60_30.png","70","image-keyboard-response","287","280794","0.0-6.0-1.140","HEFI","2","f","rechts","55","","","object","f","60","true"
"null","<div style=""font-size:60px;"">+</div>","null","html-keyboard-response","288","281096","0.0-6.0-0.141","HEFI","2","f","rechts","55","","fixation","","","",""
"1460","img/150_90.png","74","image-keyboard-response","289","282556","0.0-6.0-1.141","HEFI","2","f","rechts","55","","","object","f","150","false"
"null","<div style=""font-size:60px;"">+</div>","null","html-keyboard-response","290","282958","0.0-6.0-0.142","HEFI","2","f","rechts","55","","fixation","","","",""
"1320","img/60_210.png","74","image-keyboard-response","291","284279","0.0-6.0-1.142","HEFI","2","f","rechts","55","","","object","f","60","false"
"null","<div style=""font-size:60px;"">+</div>","null","html-keyboard-response","292","284580","0.0-6.0-0.143","HEFI","2","f","rechts","55","","fixation","","","",""
"1449","img/30_90.png","74","image-keyboard-response","293","286030","0.0-6.0-1.143","HEFI","2","f","rechts","55","","","object","j","30","true"
"null","<div style=""font-size:60px;"">+</div>","null","html-keyboard-response","294","286531","0.0-6.0-0.144","HEFI","2","f","rechts","55","","fixation","","","",""
"1125","img/60_150.png","74","image-keyboard-response","295","287657","0.0-6.0-1.144","HEFI","2","f","rechts","55","","","object","j","60","true"
"null","<div style=""font-size:60px;"">+</div>","null","html-keyboard-response","296","288009","0.0-6.0-0.145","HEFI","2","f","rechts","55","","fixation","","","",""
"1786","img/60_180.png","74","image-keyboard-response","297","289795","0.0-6.0-1.145","HEFI","2","f","rechts","55","","","object","f","60","false"
"null","<div style=""font-size:60px;"">+</div>","null","html-keyboard-response","298","290247","0.0-6.0-0.146","HEFI","2","f","rechts","55","","fixation","","","",""
"1199","img/150_60.png","70","image-keyboard-response","299","291446","0.0-6.0-1.146","HEFI","2","f","rechts","55","","","object","f","150","true"
"null","<div style=""font-size:60px;"">+</div>","null","html-keyboard-response","300","291898","0.0-6.0-0.147","HEFI","2","f","rechts","55","","fixation","","","",""
"1145","img/150_300.png","70","image-keyboard-response","301","293044","0.0-6.0-1.147","HEFI","2","f","rechts","55","","","object","j","150","false"
"null","<div style=""font-size:60px;"">+</div>","null","html-keyboard-response","302","293444","0.0-6.0-0.148","HEFI","2","f","rechts","55","","fixation","","","",""
"869","img/0_270.png","70","image-keyboard-response","303","294314","0.0-6.0-1.148","HEFI","2","f","rechts","55","","","object","f","0","true"
"null","<div style=""font-size:60px;"">+</div>","null","html-keyboard-response","304","294716","0.0-6.0-0.149","HEFI","2","f","rechts","55","","fixation","","","",""
"1071","img/60_330.png","74","image-keyboard-response","305","295787","0.0-6.0-1.149","HEFI","2","f","rechts","55","","","object","j","60","true"
"null","<div style=""font-size:60px;"">+</div>","null","html-keyboard-response","306","296189","0.0-6.0-0.150","HEFI","2","f","rechts","55","","fixation","","","",""
"1836","img/L60_180.png","70","image-keyboard-response","307","298026","0.0-6.0-1.150","HEFI","2","f","rechts","55","","","object","j","60","false"
"null","<div style=""font-size:60px;"">+</div>","null","html-keyboard-response","308","298328","0.0-6.0-0.151","HEFI","2","f","rechts","55","","fixation","","","",""
"1410","img/90_210.png","74","image-keyboard-response","309","299738","0.0-6.0-1.151","HEFI","2","f","rechts","55","","","object","f","90","false"
"null","<div style=""font-size:60px;"">+</div>","null","html-keyboard-response","310","300240","0.0-6.0-0.152","HEFI","2","f","rechts","55","","fixation","","","",""
"1089","img/150_240.png","74","image-keyboard-response","311","301330","0.0-6.0-1.152","HEFI","2","f","rechts","55","","","object","j","150","true"
"null","<div style=""font-size:60px;"">+</div>","null","html-keyboard-response","312","301731","0.0-6.0-0.153","HEFI","2","f","rechts","55","","fixation","","","",""
"1319","img/60_90.png","70","image-keyboard-response","313","303052","0.0-6.0-1.153","HEFI","2","f","rechts","55","","","object","j","60","false"
"null","<div style=""font-size:60px;"">+</div>","null","html-keyboard-response","314","303353","0.0-6.0-0.154","HEFI","2","f","rechts","55","","fixation","","","",""
"1081","img/90_330.png","70","image-keyboard-response","315","304435","0.0-6.0-1.154","HEFI","2","f","rechts","55","","","object","j","90","false"
"null","<div style=""font-size:60px;"">+</div>","null","html-keyboard-response","316","304836","0.0-6.0-0.155","HEFI","2","f","rechts","55","","fixation","","","",""
"940","img/0_330.png","70","image-keyboard-response","317","305778","0.0-6.0-1.155","HEFI","2","f","rechts","55","","","object","f","0","true"
"null","<div style=""font-size:60px;"">+</div>","null","html-keyboard-response","318","306229","0.0-6.0-0.156","HEFI","2","f","rechts","55","","fixation","","","",""
"852","img/0_300.png","70","image-keyboard-response","319","307082","0.0-6.0-1.156","HEFI","2","f","rechts","55","","","object","f","0","true"
"null","<div style=""font-size:60px;"">+</div>","null","html-keyboard-response","320","307584","0.0-6.0-0.157","HEFI","2","f","rechts","55","","fixation","","","",""
"874","img/0_210.png","70","image-keyboard-response","321","308460","0.0-6.0-1.157","HEFI","2","f","rechts","55","","","object","f","0","true"
"null","<div style=""font-size:60px;"">+</div>","null","html-keyboard-response","322","308760","0.0-6.0-0.158","HEFI","2","f","rechts","55","","fixation","","","",""
"1537","img/90_210.png","74","image-keyboard-response","323","310298","0.0-6.0-1.158","HEFI","2","f","rechts","55","","","object","f","90","false"
"null","<div style=""font-size:60px;"">+</div>","null","html-keyboard-response","324","310650","0.0-6.0-0.159","HEFI","2","f","rechts","55","","fixation","","","",""
"1226","img/120_210.png","74","image-keyboard-response","325","311877","0.0-6.0-1.159","HEFI","2","f","rechts","55","","","object","f","120","false"
"null","<div style=""font-size:60px;"">+</div>","null","html-keyboard-response","326","312229","0.0-6.0-0.160","HEFI","2","f","rechts","55","","fixation","","","",""
"1338","img/90_330.png","74","image-keyboard-response","327","313569","0.0-6.0-1.160","HEFI","2","f","rechts","55","","","object","j","90","true"
"null","<div style=""font-size:60px;"">+</div>","null","html-keyboard-response","328","313869","0.0-6.0-0.161","HEFI","2","f","rechts","55","","fixation","","","",""
"1170","img/30_270.png","70","image-keyboard-response","329","315040","0.0-6.0-1.161","HEFI","2","f","rechts","55","","","object","f","30","true"
"null","<div style=""font-size:60px;"">+</div>","null","html-keyboard-response","330","315542","0.0-6.0-0.162","HEFI","2","f","rechts","55","","fixation","","","",""
"860","img/0_240.png","70","image-keyboard-response","331","316402","0.0-6.0-1.162","HEFI","2","f","rechts","55","","","object","f","0","true"
"null","<div style=""font-size:60px;"">+</div>","null","html-keyboard-response","332","316754","0.0-6.0-0.163","HEFI","2","f","rechts","55","","fixation","","","",""
"1673","img/90_150.png","74","image-keyboard-response","333","318428","0.0-6.0-1.163","HEFI","2","f","rechts","55","","","object","j","90","true"
"null","<div style=""font-size:60px;"">+</div>","null","html-keyboard-response","334","318780","0.0-6.0-0.164","HEFI","2","f","rechts","55","","fixation","","","",""
"907","img/0_150.png","74","image-keyboard-response","335","319688","0.0-6.0-1.164","HEFI","2","f","rechts","55","","","object","j","0","true"
"null","<div style=""font-size:60px;"">+</div>","null","html-keyboard-response","336","319990","0.0-6.0-0.165","HEFI","2","f","rechts","55","","fixation","","","",""
"2164","img/120_30.png","70","image-keyboard-response","337","322154","0.0-6.0-1.165","HEFI","2","f","rechts","55","","","object","f","120","true"
"null","<div style=""font-size:60px;"">+</div>","null","html-keyboard-response","338","322456","0.0-6.0-0.166","HEFI","2","f","rechts","55","","fixation","","","",""
"1069","img/0_270.png","70","image-keyboard-response","339","323525","0.0-6.0-1.166","HEFI","2","f","rechts","55","","","object","f","0","true"
"null","<div style=""font-size:60px;"">+</div>","null","html-keyboard-response","340","324026","0.0-6.0-0.167","HEFI","2","f","rechts","55","","fixation","","","",""
"1318","img/90_120.png","74","image-keyboard-response","341","325345","0.0-6.0-1.167","HEFI","2","f","rechts","55","","","object","j","90","true"
"null","<div style=""font-size:60px;"">+</div>","null","html-keyboard-response","342","325696","0.0-6.0-0.168","HEFI","2","f","rechts","55","","fixation","","","",""
"761","img/30_90.png","70","image-keyboard-response","343","326458","0.0-6.0-1.168","HEFI","2","f","rechts","55","","","object","j","30","false"
"null","<div style=""font-size:60px;"">+</div>","null","html-keyboard-response","344","326809","0.0-6.0-0.169","HEFI","2","f","rechts","55","","fixation","","","",""
"1461","img/90_300.png","74","image-keyboard-response","345","328270","0.0-6.0-1.169","HEFI","2","f","rechts","55","","","object","j","90","true"
"null","<div style=""font-size:60px;"">+</div>","null","html-keyboard-response","346","328622","0.0-6.0-0.170","HEFI","2","f","rechts","55","","fixation","","","",""
"895","img/0_90.png","74","image-keyboard-response","347","329517","0.0-6.0-1.170","HEFI","2","f","rechts","55","","","object","j","0","true"
"null","<div style=""font-size:60px;"">+</div>","null","html-keyboard-response","348","329869","0.0-6.0-0.171","HEFI","2","f","rechts","55","","fixation","","","",""
"2068","img/90_30.png","70","image-keyboard-response","349","331937","0.0-6.0-1.171","HEFI","2","f","rechts","55","","","object","f","90","true"
"null","<div style=""font-size:60px;"">+</div>","null","html-keyboard-response","350","332389","0.0-6.0-0.172","HEFI","2","f","rechts","55","","fixation","","","",""
"1063","img/90_60.png","70","image-keyboard-response","351","333452","0.0-6.0-1.172","HEFI","2","f","rechts","55","","","object","f","90","true"
"null","<div style=""font-size:60px;"">+</div>","null","html-keyboard-response","352","333804","0.0-6.0-0.173","HEFI","2","f","rechts","55","","fixation","","","",""
"1474","img/60_150.png","74","image-keyboard-response","353","335278","0.0-6.0-1.173","HEFI","2","f","rechts","55","","","object","j","60","true"
"null","<div style=""font-size:60px;"">+</div>","null","html-keyboard-response","354","335630","0.0-6.0-0.174","HEFI","2","f","rechts","55","","fixation","","","",""
"1844","img/90_180.png","74","image-keyboard-response","355","337475","0.0-6.0-1.174","HEFI","2","f","rechts","55","","","object","f","90","false"
"null","<div style=""font-size:60px;"">+</div>","null","html-keyboard-response","356","337927","0.0-6.0-0.175","HEFI","2","f","rechts","55","","fixation","","","",""
"2292","img/0_120.png","70","image-keyboard-response","357","340219","0.0-6.0-1.175","HEFI","2","f","rechts","55","","","object","j","0","false"
"null","<div style=""font-size:60px;"">+</div>","null","html-keyboard-response","358","340521","0.0-6.0-0.176","HEFI","2","f","rechts","55","","fixation","","","",""
"1957","img/0_330.png","70","image-keyboard-response","359","342478","0.0-6.0-1.176","HEFI","2","f","rechts","55","","","object","f","0","true"
"null","<div style=""font-size:60px;"">+</div>","null","html-keyboard-response","360","342779","0.0-6.0-0.177","HEFI","2","f","rechts","55","","fixation","","","",""
"1223","img/150_90.png","74","image-keyboard-response","361","344003","0.0-6.0-1.177","HEFI","2","f","rechts","55","","","object","f","150","false"
"null","<div style=""font-size:60px;"">+</div>","null","html-keyboard-response","362","344404","0.0-6.0-0.178","HEFI","2","f","rechts","55","","fixation","","","",""
"1475","img/150_180.png","74","image-keyboard-response","363","345880","0.0-6.0-1.178","HEFI","2","f","rechts","55","","","object","f","150","false"
"null","<div style=""font-size:60px;"">+</div>","null","html-keyboard-response","364","346182","0.0-6.0-0.179","HEFI","2","f","rechts","55","","fixation","","","",""
"1182","img/120_150.png","70","image-keyboard-response","365","347365","0.0-6.0-1.179","HEFI","2","f","rechts","55","","","object","j","120","false"
"null","<div style=""font-size:60px;"">+</div>","null","html-keyboard-response","366","347867","0.0-6.0-0.180","HEFI","2","f","rechts","55","","fixation","","","",""
"1345","img/L120_180.png","70","image-keyboard-response","367","349213","0.0-6.0-1.180","HEFI","2","f","rechts","55","","","object","j","120","false"
"null","<div style=""font-size:60px;"">+</div>","null","html-keyboard-response","368","349614","0.0-6.0-0.181","HEFI","2","f","rechts","55","","fixation","","","",""
"1339","img/120_330.png","74","image-keyboard-response","369","350954","0.0-6.0-1.181","HEFI","2","f","rechts","55","","","object","j","120","true"
"null","<div style=""font-size:60px;"">+</div>","null","html-keyboard-response","370","351455","0.0-6.0-0.182","HEFI","2","f","rechts","55","","fixation","","","",""
"1473","img/L30_180.png","74","image-keyboard-response","371","352930","0.0-6.0-1.182","HEFI","2","f","rechts","55","","","object","j","30","true"
"null","<div style=""font-size:60px;"">+</div>","null","html-keyboard-response","372","353281","0.0-6.0-0.183","HEFI","2","f","rechts","55","","fixation","","","",""
"2181","img/120_180.png","70","image-keyboard-response","373","355464","0.0-6.0-1.183","HEFI","2","f","rechts","55","","","object","f","120","true"
"null","<div style=""font-size:60px;"">+</div>","null","html-keyboard-response","374","355915","0.0-6.0-0.184","HEFI","2","f","rechts","55","","fixation","","","",""
"1337","img/120_90.png","74","image-keyboard-response","375","357254","0.0-6.0-1.184","HEFI","2","f","rechts","55","","","object","f","120","false"
"null","<div style=""font-size:60px;"">+</div>","null","html-keyboard-response","376","357705","0.0-6.0-0.185","HEFI","2","f","rechts","55","","fixation","","","",""
"1449","img/150_300.png","74","image-keyboard-response","377","359155","0.0-6.0-1.185","HEFI","2","f","rechts","55","","","object","j","150","true"
"null","<div style=""font-size:60px;"">+</div>","null","html-keyboard-response","378","359456","0.0-6.0-0.186","HEFI","2","f","rechts","55","","fixation","","","",""
"2548","img/L90_180.png","74","image-keyboard-response","379","362005","0.0-6.0-1.186","HEFI","2","f","rechts","55","","","object","j","90","true"
"null","<div style=""font-size:60px;"">+</div>","null","html-keyboard-response","380","362306","0.0-6.0-0.187","HEFI","2","f","rechts","55","","fixation","","","",""
"799","img/0_30.png","74","image-keyboard-response","381","363107","0.0-6.0-1.187","HEFI","2","f","rechts","55","","","object","j","0","true"
"null","<div style=""font-size:60px;"">+</div>","null","html-keyboard-response","382","363408","0.0-6.0-0.188","HEFI","2","f","rechts","55","","fixation","","","",""
"1144","img/150_60.png","70","image-keyboard-response","383","364553","0.0-6.0-1.188","HEFI","2","f","rechts","55","","","object","f","150","true"
"null","<div style=""font-size:60px;"">+</div>","null","html-keyboard-response","384","364905","0.0-6.0-0.189","HEFI","2","f","rechts","55","","fixation","","","",""
"1174","img/L150_180.png","70","image-keyboard-response","385","366079","0.0-6.0-1.189","HEFI","2","f","rechts","55","","","object","j","150","false"
"null","<div style=""font-size:60px;"">+</div>","null","html-keyboard-response","386","366431","0.0-6.0-0.190","HEFI","2","f","rechts","55","","fixation","","","",""
"2257","img/30_180.png","70","image-keyboard-response","387","368689","0.0-6.0-1.190","HEFI","2","f","rechts","55","","","object","f","30","true"
"null","<div style=""font-size:60px;"">+</div>","null","html-keyboard-response","388","369191","0.0-6.0-0.191","HEFI","2","f","rechts","55","","fixation","","","",""
"1306","img/30_60.png","74","image-keyboard-response","389","370498","0.0-6.0-1.191","HEFI","2","f","rechts","55","","","object","j","30","true"
"null","<div style=""font-size:60px;"">+</div>","null","html-keyboard-response","390","371000","0.0-6.0-0.192","HEFI","2","f","rechts","55","","fixation","","","",""
"1204","img/120_270.png","74","image-keyboard-response","391","372205","0.0-6.0-1.192","HEFI","2","f","rechts","55","","","object","j","120","true"
"null","<div style=""font-size:60px;"">+</div>","null","html-keyboard-response","392","372707","0.0-6.0-0.193","HEFI","2","f","rechts","55","","fixation","","","",""
"1383","img/L60_180.png","74","image-keyboard-response","393","374090","0.0-6.0-1.193","HEFI","2","f","rechts","55","","","object","j","60","true"
"null","<div style=""font-size:60px;"">+</div>","null","html-keyboard-response","394","374391","0.0-6.0-0.194","HEFI","2","f","rechts","55","","fixation","","","",""
"1192","img/60_330.png","70","image-keyboard-response","395","375584","0.0-6.0-1.194","HEFI","2","f","rechts","55","","","object","j","60","false"
"null","<div style=""font-size:60px;"">+</div>","null","html-keyboard-response","396","376036","0.0-6.0-0.195","HEFI","2","f","rechts","55","","fixation","","","",""
"1506","img/150_270.png","74","image-keyboard-response","397","377543","0.0-6.0-1.195","HEFI","2","f","rechts","55","","","object","j","150","true"
"null","<div style=""font-size:60px;"">+</div>","null","html-keyboard-response","398","378044","0.0-6.0-0.196","HEFI","2","f","rechts","55","","fixation","","","",""
"1368","img/30_300.png","70","image-keyboard-response","399","379413","0.0-6.0-1.196","HEFI","2","f","rechts","55","","","object","f","30","true"
"null","<div style=""font-size:60px;"">+</div>","null","html-keyboard-response","400","379815","0.0-6.0-0.197","HEFI","2","f","rechts","55","","fixation","","","",""
"1542","img/90_240.png","74","image-keyboard-response","401","381358","0.0-6.0-1.197","HEFI","2","f","rechts","55","","","object","f","90","false"
"null","<div style=""font-size:60px;"">+</div>","null","html-keyboard-response","402","381810","0.0-6.0-0.198","HEFI","2","f","rechts","55","","fixation","","","",""
"914","img/0_60.png","74","image-keyboard-response","403","382725","0.0-6.0-1.198","HEFI","2","f","rechts","55","","","object","j","0","true"
"null","<div style=""font-size:60px;"">+</div>","null","html-keyboard-response","404","383176","0.0-6.0-0.199","HEFI","2","f","rechts","55","","fixation","","","",""
"1065","img/30_240.png","74","image-keyboard-response","405","384242","0.0-6.0-1.199","HEFI","2","f","rechts","55","","","object","f","30","false"
"null","<div style=""font-size:60px;"">+</div>","null","html-keyboard-response","406","384594","0.0-6.0-0.200","HEFI","2","f","rechts","55","","fixation","","","",""
"892","img/60_210.png","74","image-keyboard-response","407","385487","0.0-6.0-1.200","HEFI","2","f","rechts","55","","","object","f","60","false"
"null","<div style=""font-size:60px;"">+</div>","null","html-keyboard-response","408","385789","0.0-6.0-0.201","HEFI","2","f","rechts","55","","fixation","","","",""
"1754","img/60_180.png","74","image-keyboard-response","409","387543","0.0-6.0-1.201","HEFI","2","f","rechts","55","","","object","f","60","false"
"null","<div style=""font-size:60px;"">+</div>","null","html-keyboard-response","410","387893","0.0-6.0-0.202","HEFI","2","f","rechts","55","","fixation","","","",""
"1254","img/150_240.png","74","image-keyboard-response","411","389148","0.0-6.0-1.202","HEFI","2","f","rechts","55","","","object","j","150","true"
"null","<div style=""font-size:60px;"">+</div>","null","html-keyboard-response","412","389450","0.0-6.0-0.203","HEFI","2","f","rechts","55","","fixation","","","",""
"1840","img/150_120.png","70","image-keyboard-response","413","391291","0.0-6.0-1.203","HEFI","2","f","rechts","55","","","object","f","150","true"
"null","<div style=""font-size:60px;"">+</div>","null","html-keyboard-response","414","391593","0.0-6.0-0.204","HEFI","2","f","rechts","55","","fixation","","","",""
"1417","img/60_30.png","70","image-keyboard-response","415","393011","0.0-6.0-1.204","HEFI","2","f","rechts","55","","","object","f","60","true"
"null","<div style=""font-size:60px;"">+</div>","null","html-keyboard-response","416","393413","0.0-6.0-0.205","HEFI","2","f","rechts","55","","fixation","","","",""
"1586","img/30_120.png","74","image-keyboard-response","417","394999","0.0-6.0-1.205","HEFI","2","f","rechts","55","","","object","j","30","true"
"null","<div style=""font-size:60px;"">+</div>","null","html-keyboard-response","418","395501","0.0-6.0-0.206","HEFI","2","f","rechts","55","","fixation","","","",""
"1217","img/60_90.png","74","image-keyboard-response","419","396719","0.0-6.0-1.206","HEFI","2","f","rechts","55","","","object","j","60","true"
"null","<div style=""font-size:60px;"">+</div>","null","html-keyboard-response","420","397220","0.0-6.0-0.207","HEFI","2","f","rechts","55","","fixation","","","",""
"1563","img/60_270.png","70","image-keyboard-response","421","398784","0.0-6.0-1.207","HEFI","2","f","rechts","55","","","object","f","60","true"
"15106","<p>Du hast in 69% der Versuche korrekt entschieden.</p><p>Deine durchschnittliche Reaktionszeit war  1414ms.</p><p>Dr&uuml;cke eine beliebige Taste, um die Session zu beenden. Vielen Dank!</p>","71","html-keyboard-response","422","413893","0.0-7.0","HEFI","2","f","rechts","55","","","","","",""
