"rt","stimulus","key_press","trial_type","trial_index","time_elapsed","internal_node_id","subject","session","sex","handedness","age","responses","test_part","condition","correct_response","angle","correct"
"1141","<p>Mental Rotation Experiment.</p> <p>Dr&uuml;cke eine beliebige Taste, um anzufangen.</p>","72","html-keyboard-response","0","1144","0.0-0.0","HEFI","2","f","rechts","55","","","","","",""
"3616","","","survey-text","1","4761","0.0-1.0","HEFI","2","f","rechts","55","{""Q0"":""HEFI""}","","","","",""
"7372","","","survey-text","2","12135","0.0-2.0","HEFI","2","f","rechts","55","{""Q0"":""2""}","","","","",""
"11189","","","survey-multi-choice","3","23326","0.0-3.0","HEFI","2","f","rechts","55","{""Q0"":""f"",""Q1"":""rechts""}","","","","",""
"4632","","","survey-text","4","27960","0.0-4.0","HEFI","2","f","rechts","55","{""Q0"":""55""}","","","","",""
"327389","<p> Stell dir vor, dass du vor einem runden Tisch stehst, auf dem sich ein blauer Ball am Tischrand befindet. Entlang des Tischrands ist jeweils ein verschieden langer Pfeil. Nun bewegst du dich entlang dieses Pfeils bis an seine Spitze. Wenn du am Ende des Pfeils angekommen bist, schau zur Tischmitte. </p> <img src='img/90_180.png'></img> <br> <p>Entscheide dann, ob der Ball von deiner neuen (vorgestellten) Position links oder rechts von dir liegt.</p> <p>Dr&uuml;cke die <strong>'f'</strong>-Taste f&uuml;r links, die <strong>'j'</strong>-Taste f&uuml;r rechts.</p> <br><p> Das Bild wird jeweils 1 Sekunde lang pr&auml;sentiert. Du hast 3 Sekunden Zeit eine Entscheidung zu treffen.</p>","16","html-keyboard-response","5","355350","0.0-5.0","HEFI","2","f","rechts","55","","","","","",""
"null","<div style=""font-size:60px;"">+</div>","null","html-keyboard-response","6","356704","0.0-6.0-0.0","HEFI","2","f","rechts","55","","fixation","","","",""
"1615","img/120_180.png","74","image-keyboard-response","7","358320","0.0-6.0-1.0","HEFI","2","f","rechts","55","","","self","j","120","true"
"null","<div style=""font-size:60px;"">+</div>","null","html-keyboard-response","8","358621","0.0-6.0-0.1","HEFI","2","f","rechts","55","","fixation","","","",""
"1006","img/0_90.png","74","image-keyboard-response","9","359628","0.0-6.0-1.1","HEFI","2","f","rechts","55","","","self","j","0","true"
"null","<div style=""font-size:60px;"">+</div>","null","html-keyboard-response","10","360080","0.0-6.0-0.2","HEFI","2","f","rechts","55","","fixation","","","",""
"1256","img/60_180.png","74","image-keyboard-response","11","361337","0.0-6.0-1.2","HEFI","2","f","rechts","55","","","self","j","60","true"
"null","<div style=""font-size:60px;"">+</div>","null","html-keyboard-response","12","361789","0.0-6.0-0.3","HEFI","2","f","rechts","55","","fixation","","","",""
"922","img/0_120.png","74","image-keyboard-response","13","362712","0.0-6.0-1.3","HEFI","2","f","rechts","55","","","self","j","0","true"
"null","<div style=""font-size:60px;"">+</div>","null","html-keyboard-response","14","363014","0.0-6.0-0.4","HEFI","2","f","rechts","55","","fixation","","","",""
"1271","img/120_150.png","70","image-keyboard-response","15","364287","0.0-6.0-1.4","HEFI","2","f","rechts","55","","","self","f","120","true"
"null","<div style=""font-size:60px;"">+</div>","null","html-keyboard-response","16","364738","0.0-6.0-0.5","HEFI","2","f","rechts","55","","fixation","","","",""
"1381","img/90_240.png","74","image-keyboard-response","17","366121","0.0-6.0-1.5","HEFI","2","f","rechts","55","","","self","j","90","true"
"null","<div style=""font-size:60px;"">+</div>","null","html-keyboard-response","18","366622","0.0-6.0-0.6","HEFI","2","f","rechts","55","","fixation","","","",""
"1126","img/0_210.png","70","image-keyboard-response","19","367750","0.0-6.0-1.6","HEFI","2","f","rechts","55","","","self","f","0","true"
"null","<div style=""font-size:60px;"">+</div>","null","html-keyboard-response","20","368101","0.0-6.0-0.7","HEFI","2","f","rechts","55","","fixation","","","",""
"1870","img/30_240.png","74","image-keyboard-response","21","369972","0.0-6.0-1.7","HEFI","2","f","rechts","55","","","self","f","30","false"
"null","<div style=""font-size:60px;"">+</div>","null","html-keyboard-response","22","370323","0.0-6.0-0.8","HEFI","2","f","rechts","55","","fixation","","","",""
"939","img/0_300.png","70","image-keyboard-response","23","371265","0.0-6.0-1.8","HEFI","2","f","rechts","55","","","self","f","0","true"
"null","<div style=""font-size:60px;"">+</div>","null","html-keyboard-response","24","371766","0.0-6.0-0.9","HEFI","2","f","rechts","55","","fixation","","","",""
"1820","img/L90_180.png","70","image-keyboard-response","25","373588","0.0-6.0-1.9","HEFI","2","f","rechts","55","","","self","f","90","true"
"null","<div style=""font-size:60px;"">+</div>","null","html-keyboard-response","26","373888","0.0-6.0-0.10","HEFI","2","f","rechts","55","","fixation","","","",""
"1867","img/60_30.png","74","image-keyboard-response","27","375757","0.0-6.0-1.10","HEFI","2","f","rechts","55","","","self","j","60","true"
"null","<div style=""font-size:60px;"">+</div>","null","html-keyboard-response","28","376208","0.0-6.0-0.11","HEFI","2","f","rechts","55","","fixation","","","",""
"1589","img/60_90.png","70","image-keyboard-response","29","377799","0.0-6.0-1.11","HEFI","2","f","rechts","55","","","self","j","60","false"
"null","<div style=""font-size:60px;"">+</div>","null","html-keyboard-response","30","378101","0.0-6.0-0.12","HEFI","2","f","rechts","55","","fixation","","","",""
"1002","img/0_150.png","74","image-keyboard-response","31","379106","0.0-6.0-1.12","HEFI","2","f","rechts","55","","","self","j","0","true"
"null","<div style=""font-size:60px;"">+</div>","null","html-keyboard-response","32","379458","0.0-6.0-0.13","HEFI","2","f","rechts","55","","fixation","","","",""
"1217","img/60_150.png","70","image-keyboard-response","33","380676","0.0-6.0-1.13","HEFI","2","f","rechts","55","","","self","f","60","true"
"null","<div style=""font-size:60px;"">+</div>","null","html-keyboard-response","34","381077","0.0-6.0-0.14","HEFI","2","f","rechts","55","","fixation","","","",""
"1068","img/90_180.png","74","image-keyboard-response","35","382146","0.0-6.0-1.14","HEFI","2","f","rechts","55","","","self","j","90","true"
"null","<div style=""font-size:60px;"">+</div>","null","html-keyboard-response","36","382596","0.0-6.0-0.15","HEFI","2","f","rechts","55","","fixation","","","",""
"1194","img/90_60.png","70","image-keyboard-response","37","383791","0.0-6.0-1.15","HEFI","2","f","rechts","55","","","self","j","90","false"
"null","<div style=""font-size:60px;"">+</div>","null","html-keyboard-response","38","384143","0.0-6.0-0.16","HEFI","2","f","rechts","55","","fixation","","","",""
"1351","img/90_150.png","70","image-keyboard-response","39","385495","0.0-6.0-1.16","HEFI","2","f","rechts","55","","","self","f","90","true"
"null","<div style=""font-size:60px;"">+</div>","null","html-keyboard-response","40","385997","0.0-6.0-0.17","HEFI","2","f","rechts","55","","fixation","","","",""
"1841","img/120_30.png","70","image-keyboard-response","41","387839","0.0-6.0-1.17","HEFI","2","f","rechts","55","","","self","j","120","false"
"null","<div style=""font-size:60px;"">+</div>","null","html-keyboard-response","42","388191","0.0-6.0-0.18","HEFI","2","f","rechts","55","","fixation","","","",""
"1067","img/120_210.png","74","image-keyboard-response","43","389260","0.0-6.0-1.18","HEFI","2","f","rechts","55","","","self","j","120","true"
"null","<div style=""font-size:60px;"">+</div>","null","html-keyboard-response","44","389761","0.0-6.0-0.19","HEFI","2","f","rechts","55","","fixation","","","",""
"1504","img/120_90.png","74","image-keyboard-response","45","391266","0.0-6.0-1.19","HEFI","2","f","rechts","55","","","self","f","120","false"
"null","<div style=""font-size:60px;"">+</div>","null","html-keyboard-response","46","391718","0.0-6.0-0.20","HEFI","2","f","rechts","55","","fixation","","","",""
"1603","img/60_330.png","70","image-keyboard-response","47","393322","0.0-6.0-1.20","HEFI","2","f","rechts","55","","","self","f","60","true"
"null","<div style=""font-size:60px;"">+</div>","null","html-keyboard-response","48","393674","0.0-6.0-0.21","HEFI","2","f","rechts","55","","fixation","","","",""
"1175","img/150_90.png","74","image-keyboard-response","49","394851","0.0-6.0-1.21","HEFI","2","f","rechts","55","","","self","f","150","false"
"null","<div style=""font-size:60px;"">+</div>","null","html-keyboard-response","50","395253","0.0-6.0-0.22","HEFI","2","f","rechts","55","","fixation","","","",""
"1804","img/150_270.png","74","image-keyboard-response","51","397058","0.0-6.0-1.22","HEFI","2","f","rechts","55","","","self","j","150","true"
"null","<div style=""font-size:60px;"">+</div>","null","html-keyboard-response","52","397410","0.0-6.0-0.23","HEFI","2","f","rechts","55","","fixation","","","",""
"927","img/0_270.png","70","image-keyboard-response","53","398338","0.0-6.0-1.23","HEFI","2","f","rechts","55","","","self","f","0","true"
"null","<div style=""font-size:60px;"">+</div>","null","html-keyboard-response","54","398690","0.0-6.0-0.24","HEFI","2","f","rechts","55","","fixation","","","",""
"843","img/0_30.png","74","image-keyboard-response","55","399534","0.0-6.0-1.24","HEFI","2","f","rechts","55","","","self","j","0","true"
"null","<div style=""font-size:60px;"">+</div>","null","html-keyboard-response","56","399886","0.0-6.0-0.25","HEFI","2","f","rechts","55","","fixation","","","",""
"1284","img/30_60.png","70","image-keyboard-response","57","401171","0.0-6.0-1.25","HEFI","2","f","rechts","55","","","self","j","30","false"
"null","<div style=""font-size:60px;"">+</div>","null","html-keyboard-response","58","401623","0.0-6.0-0.26","HEFI","2","f","rechts","55","","fixation","","","",""
"1590","img/90_300.png","70","image-keyboard-response","59","403214","0.0-6.0-1.26","HEFI","2","f","rechts","55","","","self","f","90","true"
"null","<div style=""font-size:60px;"">+</div>","null","html-keyboard-response","60","403566","0.0-6.0-0.27","HEFI","2","f","rechts","55","","fixation","","","",""
"1743","img/150_180.png","74","image-keyboard-response","61","405310","0.0-6.0-1.27","HEFI","2","f","rechts","55","","","self","j","150","true"
"null","<div style=""font-size:60px;"">+</div>","null","html-keyboard-response","62","405611","0.0-6.0-0.28","HEFI","2","f","rechts","55","","fixation","","","",""
"1835","img/30_180.png","74","image-keyboard-response","63","407447","0.0-6.0-1.28","HEFI","2","f","rechts","55","","","self","j","30","true"
"null","<div style=""font-size:60px;"">+</div>","null","html-keyboard-response","64","407749","0.0-6.0-0.29","HEFI","2","f","rechts","55","","fixation","","","",""
"1715","img/150_60.png","70","image-keyboard-response","65","409465","0.0-6.0-1.29","HEFI","2","f","rechts","55","","","self","f","150","true"
"null","<div style=""font-size:60px;"">+</div>","null","html-keyboard-response","66","409966","0.0-6.0-0.30","HEFI","2","f","rechts","55","","fixation","","","",""
"1265","img/150_120.png","74","image-keyboard-response","67","411233","0.0-6.0-1.30","HEFI","2","f","rechts","55","","","self","f","150","false"
"null","<div style=""font-size:60px;"">+</div>","null","html-keyboard-response","68","411735","0.0-6.0-0.31","HEFI","2","f","rechts","55","","fixation","","","",""
"1398","img/30_270.png","70","image-keyboard-response","69","413134","0.0-6.0-1.31","HEFI","2","f","rechts","55","","","self","f","30","true"
"null","<div style=""font-size:60px;"">+</div>","null","html-keyboard-response","70","413536","0.0-6.0-0.32","HEFI","2","f","rechts","55","","fixation","","","",""
"1040","img/120_330.png","74","image-keyboard-response","71","414578","0.0-6.0-1.32","HEFI","2","f","rechts","55","","","self","f","120","false"
"null","<div style=""font-size:60px;"">+</div>","null","html-keyboard-response","72","415079","0.0-6.0-0.33","HEFI","2","f","rechts","55","","fixation","","","",""
"1768","img/60_210.png","74","image-keyboard-response","73","416849","0.0-6.0-1.33","HEFI","2","f","rechts","55","","","self","j","60","true"
"null","<div style=""font-size:60px;"">+</div>","null","html-keyboard-response","74","417150","0.0-6.0-0.34","HEFI","2","f","rechts","55","","fixation","","","",""
"1134","img/L60_180.png","70","image-keyboard-response","75","418285","0.0-6.0-1.34","HEFI","2","f","rechts","55","","","self","f","60","true"
"null","<div style=""font-size:60px;"">+</div>","null","html-keyboard-response","76","418737","0.0-6.0-0.35","HEFI","2","f","rechts","55","","fixation","","","",""
"1096","img/60_270.png","74","image-keyboard-response","77","419835","0.0-6.0-1.35","HEFI","2","f","rechts","55","","","self","f","60","false"
"null","<div style=""font-size:60px;"">+</div>","null","html-keyboard-response","78","420186","0.0-6.0-0.36","HEFI","2","f","rechts","55","","fixation","","","",""
"1718","img/150_300.png","74","image-keyboard-response","79","421906","0.0-6.0-1.36","HEFI","2","f","rechts","55","","","self","j","150","true"
"null","<div style=""font-size:60px;"">+</div>","null","html-keyboard-response","80","422407","0.0-6.0-0.37","HEFI","2","f","rechts","55","","fixation","","","",""
"1563","img/30_120.png","74","image-keyboard-response","81","423972","0.0-6.0-1.37","HEFI","2","f","rechts","55","","","self","j","30","true"
"null","<div style=""font-size:60px;"">+</div>","null","html-keyboard-response","82","424473","0.0-6.0-0.38","HEFI","2","f","rechts","55","","fixation","","","",""
"1537","img/90_330.png","70","image-keyboard-response","83","426013","0.0-6.0-1.38","HEFI","2","f","rechts","55","","","self","f","90","true"
"null","<div style=""font-size:60px;"">+</div>","null","html-keyboard-response","84","426314","0.0-6.0-0.39","HEFI","2","f","rechts","55","","fixation","","","",""
"1549","img/90_30.png","70","image-keyboard-response","85","427864","0.0-6.0-1.39","HEFI","2","f","rechts","55","","","self","j","90","false"
"null","<div style=""font-size:60px;"">+</div>","null","html-keyboard-response","86","428216","0.0-6.0-0.40","HEFI","2","f","rechts","55","","fixation","","","",""
"1430","img/L120_180.png","74","image-keyboard-response","87","429647","0.0-6.0-1.40","HEFI","2","f","rechts","55","","","self","f","120","false"
"null","<div style=""font-size:60px;"">+</div>","null","html-keyboard-response","88","430099","0.0-6.0-0.41","HEFI","2","f","rechts","55","","fixation","","","",""
"1227","img/150_240.png","70","image-keyboard-response","89","431327","0.0-6.0-1.41","HEFI","2","f","rechts","55","","","self","j","150","false"
"null","<div style=""font-size:60px;"">+</div>","null","html-keyboard-response","90","431828","0.0-6.0-0.42","HEFI","2","f","rechts","55","","fixation","","","",""
"943","img/0_240.png","70","image-keyboard-response","91","432772","0.0-6.0-1.42","HEFI","2","f","rechts","55","","","self","f","0","true"
"null","<div style=""font-size:60px;"">+</div>","null","html-keyboard-response","92","433074","0.0-6.0-0.43","HEFI","2","f","rechts","55","","fixation","","","",""
"1193","img/30_300.png","74","image-keyboard-response","93","434268","0.0-6.0-1.43","HEFI","2","f","rechts","55","","","self","f","30","false"
"null","<div style=""font-size:60px;"">+</div>","null","html-keyboard-response","94","434620","0.0-6.0-0.44","HEFI","2","f","rechts","55","","fixation","","","",""
"899","img/0_60.png","74","image-keyboard-response","95","435520","0.0-6.0-1.44","HEFI","2","f","rechts","55","","","self","j","0","true"
"null","<div style=""font-size:60px;"">+</div>","null","html-keyboard-response","96","435972","0.0-6.0-0.45","HEFI","2","f","rechts","55","","fixation","","","",""
"1049","img/90_210.png","74","image-keyboard-response","97","437022","0.0-6.0-1.45","HEFI","2","f","rechts","55","","","self","j","90","true"
"null","<div style=""font-size:60px;"">+</div>","null","html-keyboard-response","98","437324","0.0-6.0-0.46","HEFI","2","f","rechts","55","","fixation","","","",""
"1621","img/30_90.png","70","image-keyboard-response","99","438946","0.0-6.0-1.46","HEFI","2","f","rechts","55","","","self","j","30","false"
"null","<div style=""font-size:60px;"">+</div>","null","html-keyboard-response","100","439348","0.0-6.0-0.47","HEFI","2","f","rechts","55","","fixation","","","",""
"952","img/120_270.png","74","image-keyboard-response","101","440301","0.0-6.0-1.47","HEFI","2","f","rechts","55","","","self","j","120","true"
"null","<div style=""font-size:60px;"">+</div>","null","html-keyboard-response","102","440703","0.0-6.0-0.48","HEFI","2","f","rechts","55","","fixation","","","",""
"792","img/0_330.png","70","image-keyboard-response","103","441496","0.0-6.0-1.48","HEFI","2","f","rechts","55","","","self","f","0","true"
"null","<div style=""font-size:60px;"">+</div>","null","html-keyboard-response","104","441898","0.0-6.0-0.49","HEFI","2","f","rechts","55","","fixation","","","",""
"888","img/L150_180.png","74","image-keyboard-response","105","442787","0.0-6.0-1.49","HEFI","2","f","rechts","55","","","self","f","150","false"
"null","<div style=""font-size:60px;"">+</div>","null","html-keyboard-response","106","443288","0.0-6.0-0.50","HEFI","2","f","rechts","55","","fixation","","","",""
"1143","img/L30_180.png","70","image-keyboard-response","107","444431","0.0-6.0-1.50","HEFI","2","f","rechts","55","","","self","f","30","true"
"null","<div style=""font-size:60px;"">+</div>","null","html-keyboard-response","108","444733","0.0-6.0-0.51","HEFI","2","f","rechts","55","","fixation","","","",""
"1339","img/90_120.png","74","image-keyboard-response","109","446073","0.0-6.0-1.51","HEFI","2","f","rechts","55","","","self","f","90","false"
"null","<div style=""font-size:60px;"">+</div>","null","html-keyboard-response","110","446425","0.0-6.0-0.52","HEFI","2","f","rechts","55","","fixation","","","",""
"1073","img/90_180.png","70","image-keyboard-response","111","447499","0.0-6.0-1.52","HEFI","2","f","rechts","55","","","self","j","90","false"
"null","<div style=""font-size:60px;"">+</div>","null","html-keyboard-response","112","447801","0.0-6.0-0.53","HEFI","2","f","rechts","55","","fixation","","","",""
"1162","img/30_180.png","74","image-keyboard-response","113","448963","0.0-6.0-1.53","HEFI","2","f","rechts","55","","","self","j","30","true"
"null","<div style=""font-size:60px;"">+</div>","null","html-keyboard-response","114","449265","0.0-6.0-0.54","HEFI","2","f","rechts","55","","fixation","","","",""
"1383","img/L150_180.png","70","image-keyboard-response","115","450649","0.0-6.0-1.54","HEFI","2","f","rechts","55","","","self","f","150","true"
"null","<div style=""font-size:60px;"">+</div>","null","html-keyboard-response","116","451051","0.0-6.0-0.55","HEFI","2","f","rechts","55","","fixation","","","",""
"1074","img/150_60.png","74","image-keyboard-response","117","452125","0.0-6.0-1.55","HEFI","2","f","rechts","55","","","self","f","150","false"
"null","<div style=""font-size:60px;"">+</div>","null","html-keyboard-response","118","452577","0.0-6.0-0.56","HEFI","2","f","rechts","55","","fixation","","","",""
"880","img/0_270.png","70","image-keyboard-response","119","453458","0.0-6.0-1.56","HEFI","2","f","rechts","55","","","self","f","0","true"
"null","<div style=""font-size:60px;"">+</div>","null","html-keyboard-response","120","453910","0.0-6.0-0.57","HEFI","2","f","rechts","55","","fixation","","","",""
"1230","img/60_150.png","74","image-keyboard-response","121","455140","0.0-6.0-1.57","HEFI","2","f","rechts","55","","","self","f","60","false"
"null","<div style=""font-size:60px;"">+</div>","null","html-keyboard-response","122","455542","0.0-6.0-0.58","HEFI","2","f","rechts","55","","fixation","","","",""
"917","img/0_120.png","74","image-keyboard-response","123","456459","0.0-6.0-1.58","HEFI","2","f","rechts","55","","","self","j","0","true"
"null","<div style=""font-size:60px;"">+</div>","null","html-keyboard-response","124","456861","0.0-6.0-0.59","HEFI","2","f","rechts","55","","fixation","","","",""
"1312","img/60_180.png","74","image-keyboard-response","125","458173","0.0-6.0-1.59","HEFI","2","f","rechts","55","","","self","j","60","true"
"null","<div style=""font-size:60px;"">+</div>","null","html-keyboard-response","126","458475","0.0-6.0-0.60","HEFI","2","f","rechts","55","","fixation","","","",""
"1201","img/90_120.png","70","image-keyboard-response","127","459676","0.0-6.0-1.60","HEFI","2","f","rechts","55","","","self","f","90","true"
"null","<div style=""font-size:60px;"">+</div>","null","html-keyboard-response","128","460178","0.0-6.0-0.61","HEFI","2","f","rechts","55","","fixation","","","",""
"1287","img/30_120.png","74","image-keyboard-response","129","461466","0.0-6.0-1.61","HEFI","2","f","rechts","55","","","self","j","30","true"
"null","<div style=""font-size:60px;"">+</div>","null","html-keyboard-response","130","461817","0.0-6.0-0.62","HEFI","2","f","rechts","55","","fixation","","","",""
"883","img/0_90.png","74","image-keyboard-response","131","462700","0.0-6.0-1.62","HEFI","2","f","rechts","55","","","self","j","0","true"
"null","<div style=""font-size:60px;"">+</div>","null","html-keyboard-response","132","463052","0.0-6.0-0.63","HEFI","2","f","rechts","55","","fixation","","","",""
"873","img/0_330.png","70","image-keyboard-response","133","463925","0.0-6.0-1.63","HEFI","2","f","rechts","55","","","self","f","0","true"
"null","<div style=""font-size:60px;"">+</div>","null","html-keyboard-response","134","464226","0.0-6.0-0.64","HEFI","2","f","rechts","55","","fixation","","","",""
"971","img/120_270.png","74","image-keyboard-response","135","465198","0.0-6.0-1.64","HEFI","2","f","rechts","55","","","self","j","120","true"
"null","<div style=""font-size:60px;"">+</div>","null","html-keyboard-response","136","465650","0.0-6.0-0.65","HEFI","2","f","rechts","55","","fixation","","","",""
"992","img/L120_180.png","70","image-keyboard-response","137","466643","0.0-6.0-1.65","HEFI","2","f","rechts","55","","","self","f","120","true"
"null","<div style=""font-size:60px;"">+</div>","null","html-keyboard-response","138","467144","0.0-6.0-0.66","HEFI","2","f","rechts","55","","fixation","","","",""
"1273","img/30_300.png","70","image-keyboard-response","139","468419","0.0-6.0-1.66","HEFI","2","f","rechts","55","","","self","f","30","true"
"null","<div style=""font-size:60px;"">+</div>","null","html-keyboard-response","140","468719","0.0-6.0-0.67","HEFI","2","f","rechts","55","","fixation","","","",""
"1101","img/90_300.png","74","image-keyboard-response","141","469821","0.0-6.0-1.67","HEFI","2","f","rechts","55","","","self","f","90","false"
"null","<div style=""font-size:60px;"">+</div>","null","html-keyboard-response","142","470272","0.0-6.0-0.68","HEFI","2","f","rechts","55","","fixation","","","",""
"883","img/120_180.png","74","image-keyboard-response","143","471156","0.0-6.0-1.68","HEFI","2","f","rechts","55","","","self","j","120","true"
"null","<div style=""font-size:60px;"">+</div>","null","html-keyboard-response","144","471458","0.0-6.0-0.69","HEFI","2","f","rechts","55","","fixation","","","",""
"1091","img/120_30.png","70","image-keyboard-response","145","472549","0.0-6.0-1.69","HEFI","2","f","rechts","55","","","self","j","120","false"
"null","<div style=""font-size:60px;"">+</div>","null","html-keyboard-response","146","472901","0.0-6.0-0.70","HEFI","2","f","rechts","55","","fixation","","","",""
"1163","img/60_30.png","70","image-keyboard-response","147","474064","0.0-6.0-1.70","HEFI","2","f","rechts","55","","","self","j","60","false"
"null","<div style=""font-size:60px;"">+</div>","null","html-keyboard-response","148","474566","0.0-6.0-0.71","HEFI","2","f","rechts","55","","fixation","","","",""
"1429","img/120_330.png","74","image-keyboard-response","149","475996","0.0-6.0-1.71","HEFI","2","f","rechts","55","","","self","f","120","false"
"null","<div style=""font-size:60px;"">+</div>","null","html-keyboard-response","150","476449","0.0-6.0-0.72","HEFI","2","f","rechts","55","","fixation","","","",""
"1066","img/150_300.png","74","image-keyboard-response","151","477515","0.0-6.0-1.72","HEFI","2","f","rechts","55","","","self","j","150","true"
"null","<div style=""font-size:60px;"">+</div>","null","html-keyboard-response","152","478017","0.0-6.0-0.73","HEFI","2","f","rechts","55","","fixation","","","",""
"972","img/150_240.png","70","image-keyboard-response","153","478989","0.0-6.0-1.73","HEFI","2","f","rechts","55","","","self","j","150","false"
"null","<div style=""font-size:60px;"">+</div>","null","html-keyboard-response","154","479441","0.0-6.0-0.74","HEFI","2","f","rechts","55","","fixation","","","",""
"1411","img/60_210.png","74","image-keyboard-response","155","480853","0.0-6.0-1.74","HEFI","2","f","rechts","55","","","self","j","60","true"
"null","<div style=""font-size:60px;"">+</div>","null","html-keyboard-response","156","481255","0.0-6.0-0.75","HEFI","2","f","rechts","55","","fixation","","","",""
"1608","img/60_270.png","70","image-keyboard-response","157","482864","0.0-6.0-1.75","HEFI","2","f","rechts","55","","","self","f","60","true"
"null","<div style=""font-size:60px;"">+</div>","null","html-keyboard-response","158","483166","0.0-6.0-0.76","HEFI","2","f","rechts","55","","fixation","","","",""
"1529","img/90_330.png","70","image-keyboard-response","159","484696","0.0-6.0-1.76","HEFI","2","f","rechts","55","","","self","f","90","true"
"null","<div style=""font-size:60px;"">+</div>","null","html-keyboard-response","160","484997","0.0-6.0-0.77","HEFI","2","f","rechts","55","","fixation","","","",""
"1224","img/120_90.png","74","image-keyboard-response","161","486222","0.0-6.0-1.77","HEFI","2","f","rechts","55","","","self","f","120","false"
"null","<div style=""font-size:60px;"">+</div>","null","html-keyboard-response","162","486574","0.0-6.0-0.78","HEFI","2","f","rechts","55","","fixation","","","",""
"1174","img/30_90.png","70","image-keyboard-response","163","487749","0.0-6.0-1.78","HEFI","2","f","rechts","55","","","self","j","30","false"
"null","<div style=""font-size:60px;"">+</div>","null","html-keyboard-response","164","488151","0.0-6.0-0.79","HEFI","2","f","rechts","55","","fixation","","","",""
"782","img/0_300.png","70","image-keyboard-response","165","488933","0.0-6.0-1.79","HEFI","2","f","rechts","55","","","self","f","0","true"
"null","<div style=""font-size:60px;"">+</div>","null","html-keyboard-response","166","489235","0.0-6.0-0.80","HEFI","2","f","rechts","55","","fixation","","","",""
"1126","img/90_150.png","74","image-keyboard-response","167","490361","0.0-6.0-1.80","HEFI","2","f","rechts","55","","","self","f","90","false"
"null","<div style=""font-size:60px;"">+</div>","null","html-keyboard-response","168","490713","0.0-6.0-0.81","HEFI","2","f","rechts","55","","fixation","","","",""
"889","img/90_60.png","70","image-keyboard-response","169","491603","0.0-6.0-1.81","HEFI","2","f","rechts","55","","","self","j","90","false"
"null","<div style=""font-size:60px;"">+</div>","null","html-keyboard-response","170","492005","0.0-6.0-0.82","HEFI","2","f","rechts","55","","fixation","","","",""
"738","img/90_210.png","74","image-keyboard-response","171","492743","0.0-6.0-1.82","HEFI","2","f","rechts","55","","","self","j","90","true"
"null","<div style=""font-size:60px;"">+</div>","null","html-keyboard-response","172","493144","0.0-6.0-0.83","HEFI","2","f","rechts","55","","fixation","","","",""
"708","img/0_210.png","70","image-keyboard-response","173","493852","0.0-6.0-1.83","HEFI","2","f","rechts","55","","","self","f","0","true"
"null","<div style=""font-size:60px;"">+</div>","null","html-keyboard-response","174","494303","0.0-6.0-0.84","HEFI","2","f","rechts","55","","fixation","","","",""
"733","img/150_270.png","74","image-keyboard-response","175","495037","0.0-6.0-1.84","HEFI","2","f","rechts","55","","","self","j","150","true"
"null","<div style=""font-size:60px;"">+</div>","null","html-keyboard-response","176","495339","0.0-6.0-0.85","HEFI","2","f","rechts","55","","fixation","","","",""
"902","img/0_60.png","74","image-keyboard-response","177","496242","0.0-6.0-1.85","HEFI","2","f","rechts","55","","","self","j","0","true"
"null","<div style=""font-size:60px;"">+</div>","null","html-keyboard-response","178","496694","0.0-6.0-0.86","HEFI","2","f","rechts","55","","fixation","","","",""
"672","img/0_30.png","74","image-keyboard-response","179","497367","0.0-6.0-1.86","HEFI","2","f","rechts","55","","","self","j","0","true"
"null","<div style=""font-size:60px;"">+</div>","null","html-keyboard-response","180","497869","0.0-6.0-0.87","HEFI","2","f","rechts","55","","fixation","","","",""
"889","img/60_90.png","70","image-keyboard-response","181","498759","0.0-6.0-1.87","HEFI","2","f","rechts","55","","","self","j","60","false"
"null","<div style=""font-size:60px;"">+</div>","null","html-keyboard-response","182","499061","0.0-6.0-0.88","HEFI","2","f","rechts","55","","fixation","","","",""
"1088","img/150_90.png","74","image-keyboard-response","183","500149","0.0-6.0-1.88","HEFI","2","f","rechts","55","","","self","f","150","false"
"null","<div style=""font-size:60px;"">+</div>","null","html-keyboard-response","184","500551","0.0-6.0-0.89","HEFI","2","f","rechts","55","","fixation","","","",""
"928","img/120_150.png","74","image-keyboard-response","185","501479","0.0-6.0-1.89","HEFI","2","f","rechts","55","","","self","f","120","false"
"null","<div style=""font-size:60px;"">+</div>","null","html-keyboard-response","186","501781","0.0-6.0-0.90","HEFI","2","f","rechts","55","","fixation","","","",""
"1614","img/30_60.png","70","image-keyboard-response","187","503395","0.0-6.0-1.90","HEFI","2","f","rechts","55","","","self","j","30","false"
"null","<div style=""font-size:60px;"">+</div>","null","html-keyboard-response","188","503747","0.0-6.0-0.91","HEFI","2","f","rechts","55","","fixation","","","",""
"1040","img/90_240.png","74","image-keyboard-response","189","504787","0.0-6.0-1.91","HEFI","2","f","rechts","55","","","self","j","90","true"
"null","<div style=""font-size:60px;"">+</div>","null","html-keyboard-response","190","505289","0.0-6.0-0.92","HEFI","2","f","rechts","55","","fixation","","","",""
"1074","img/L60_180.png","70","image-keyboard-response","191","506364","0.0-6.0-1.92","HEFI","2","f","rechts","55","","","self","f","60","true"
"null","<div style=""font-size:60px;"">+</div>","null","html-keyboard-response","192","506866","0.0-6.0-0.93","HEFI","2","f","rechts","55","","fixation","","","",""
"1011","img/30_270.png","70","image-keyboard-response","193","507878","0.0-6.0-1.93","HEFI","2","f","rechts","55","","","self","f","30","true"
"null","<div style=""font-size:60px;"">+</div>","null","html-keyboard-response","194","508380","0.0-6.0-0.94","HEFI","2","f","rechts","55","","fixation","","","",""
"643","img/0_150.png","74","image-keyboard-response","195","509023","0.0-6.0-1.94","HEFI","2","f","rechts","55","","","self","j","0","true"
"null","<div style=""font-size:60px;"">+</div>","null","html-keyboard-response","196","509374","0.0-6.0-0.95","HEFI","2","f","rechts","55","","fixation","","","",""
"738","img/90_30.png","70","image-keyboard-response","197","510112","0.0-6.0-1.95","HEFI","2","f","rechts","55","","","self","j","90","false"
"null","<div style=""font-size:60px;"">+</div>","null","html-keyboard-response","198","510514","0.0-6.0-0.96","HEFI","2","f","rechts","55","","fixation","","","",""
"897","img/150_120.png","74","image-keyboard-response","199","511412","0.0-6.0-1.96","HEFI","2","f","rechts","55","","","self","f","150","false"
"null","<div style=""font-size:60px;"">+</div>","null","html-keyboard-response","200","511714","0.0-6.0-0.97","HEFI","2","f","rechts","55","","fixation","","","",""
"786","img/0_240.png","70","image-keyboard-response","201","512500","0.0-6.0-1.97","HEFI","2","f","rechts","55","","","self","f","0","true"
"null","<div style=""font-size:60px;"">+</div>","null","html-keyboard-response","202","513001","0.0-6.0-0.98","HEFI","2","f","rechts","55","","fixation","","","",""
"856","img/120_210.png","74","image-keyboard-response","203","513857","0.0-6.0-1.98","HEFI","2","f","rechts","55","","","self","j","120","true"
"null","<div style=""font-size:60px;"">+</div>","null","html-keyboard-response","204","514358","0.0-6.0-0.99","HEFI","2","f","rechts","55","","fixation","","","",""
"986","img/30_240.png","70","image-keyboard-response","205","515344","0.0-6.0-1.99","HEFI","2","f","rechts","55","","","self","f","30","true"
"null","<div style=""font-size:60px;"">+</div>","null","html-keyboard-response","206","515846","0.0-6.0-0.100","HEFI","2","f","rechts","55","","fixation","","","",""
"972","img/L90_180.png","74","image-keyboard-response","207","516820","0.0-6.0-1.100","HEFI","2","f","rechts","55","","","self","f","90","false"
"null","<div style=""font-size:60px;"">+</div>","null","html-keyboard-response","208","517271","0.0-6.0-0.101","HEFI","2","f","rechts","55","","fixation","","","",""
"870","img/L30_180.png","70","image-keyboard-response","209","518142","0.0-6.0-1.101","HEFI","2","f","rechts","55","","","self","f","30","true"
"null","<div style=""font-size:60px;"">+</div>","null","html-keyboard-response","210","518443","0.0-6.0-0.102","HEFI","2","f","rechts","55","","fixation","","","",""
"804","img/150_180.png","74","image-keyboard-response","211","519249","0.0-6.0-1.102","HEFI","2","f","rechts","55","","","self","j","150","true"
"null","<div style=""font-size:60px;"">+</div>","null","html-keyboard-response","212","519750","0.0-6.0-0.103","HEFI","2","f","rechts","55","","fixation","","","",""
"978","img/60_330.png","70","image-keyboard-response","213","520730","0.0-6.0-1.103","HEFI","2","f","rechts","55","","","self","f","60","true"
"null","<div style=""font-size:60px;"">+</div>","null","html-keyboard-response","214","521132","0.0-6.0-0.104","HEFI","2","f","rechts","55","","fixation","","","",""
"914","img/120_270.png","74","image-keyboard-response","215","522047","0.0-6.0-1.104","HEFI","2","f","rechts","55","","","self","j","120","true"
"null","<div style=""font-size:60px;"">+</div>","null","html-keyboard-response","216","522498","0.0-6.0-0.105","HEFI","2","f","rechts","55","","fixation","","","",""
"1120","img/120_90.png","74","image-keyboard-response","217","523619","0.0-6.0-1.105","HEFI","2","f","rechts","55","","","self","f","120","false"
"null","<div style=""font-size:60px;"">+</div>","null","html-keyboard-response","218","523971","0.0-6.0-0.106","HEFI","2","f","rechts","55","","fixation","","","",""
"1081","img/60_270.png","70","image-keyboard-response","219","525052","0.0-6.0-1.106","HEFI","2","f","rechts","55","","","self","f","60","true"
"null","<div style=""font-size:60px;"">+</div>","null","html-keyboard-response","220","525453","0.0-6.0-0.107","HEFI","2","f","rechts","55","","fixation","","","",""
"1341","img/60_330.png","70","image-keyboard-response","221","526795","0.0-6.0-1.107","HEFI","2","f","rechts","55","","","self","f","60","true"
"null","<div style=""font-size:60px;"">+</div>","null","html-keyboard-response","222","527146","0.0-6.0-0.108","HEFI","2","f","rechts","55","","fixation","","","",""
"1274","img/30_60.png","74","image-keyboard-response","223","528421","0.0-6.0-1.108","HEFI","2","f","rechts","55","","","self","j","30","true"
"null","<div style=""font-size:60px;"">+</div>","null","html-keyboard-response","224","528823","0.0-6.0-0.109","HEFI","2","f","rechts","55","","fixation","","","",""
"1194","img/150_120.png","74","image-keyboard-response","225","530018","0.0-6.0-1.109","HEFI","2","f","rechts","55","","","self","f","150","false"
"null","<div style=""font-size:60px;"">+</div>","null","html-keyboard-response","226","530420","0.0-6.0-0.110","HEFI","2","f","rechts","55","","fixation","","","",""
"1207","img/150_60.png","74","image-keyboard-response","227","531628","0.0-6.0-1.110","HEFI","2","f","rechts","55","","","self","f","150","false"
"null","<div style=""font-size:60px;"">+</div>","null","html-keyboard-response","228","532079","0.0-6.0-0.111","HEFI","2","f","rechts","55","","fixation","","","",""
"1077","img/120_150.png","74","image-keyboard-response","229","533157","0.0-6.0-1.111","HEFI","2","f","rechts","55","","","self","f","120","false"
"null","<div style=""font-size:60px;"">+</div>","null","html-keyboard-response","230","533508","0.0-6.0-0.112","HEFI","2","f","rechts","55","","fixation","","","",""
"1203","img/90_150.png","74","image-keyboard-response","231","534711","0.0-6.0-1.112","HEFI","2","f","rechts","55","","","self","f","90","false"
"null","<div style=""font-size:60px;"">+</div>","null","html-keyboard-response","232","535113","0.0-6.0-0.113","HEFI","2","f","rechts","55","","fixation","","","",""
"1075","img/60_30.png","70","image-keyboard-response","233","536190","0.0-6.0-1.113","HEFI","2","f","rechts","55","","","self","j","60","false"
"null","<div style=""font-size:60px;"">+</div>","null","html-keyboard-response","234","536691","0.0-6.0-0.114","HEFI","2","f","rechts","55","","fixation","","","",""
"1084","img/90_60.png","74","image-keyboard-response","235","537776","0.0-6.0-1.114","HEFI","2","f","rechts","55","","","self","j","90","true"
"null","<div style=""font-size:60px;"">+</div>","null","html-keyboard-response","236","538178","0.0-6.0-0.115","HEFI","2","f","rechts","55","","fixation","","","",""
"1044","img/0_300.png","70","image-keyboard-response","237","539223","0.0-6.0-1.115","HEFI","2","f","rechts","55","","","self","f","0","true"
"null","<div style=""font-size:60px;"">+</div>","null","html-keyboard-response","238","539625","0.0-6.0-0.116","HEFI","2","f","rechts","55","","fixation","","","",""
"837","img/60_210.png","74","image-keyboard-response","239","540462","0.0-6.0-1.116","HEFI","2","f","rechts","55","","","self","j","60","true"
"null","<div style=""font-size:60px;"">+</div>","null","html-keyboard-response","240","540964","0.0-6.0-0.117","HEFI","2","f","rechts","55","","fixation","","","",""
"1095","img/150_90.png","74","image-keyboard-response","241","542060","0.0-6.0-1.117","HEFI","2","f","rechts","55","","","self","f","150","false"
"null","<div style=""font-size:60px;"">+</div>","null","html-keyboard-response","242","542462","0.0-6.0-0.118","HEFI","2","f","rechts","55","","fixation","","","",""
"913","img/0_120.png","74","image-keyboard-response","243","543377","0.0-6.0-1.118","HEFI","2","f","rechts","55","","","self","j","0","true"
"null","<div style=""font-size:60px;"">+</div>","null","html-keyboard-response","244","543678","0.0-6.0-0.119","HEFI","2","f","rechts","55","","fixation","","","",""
"710","img/0_60.png","74","image-keyboard-response","245","544389","0.0-6.0-1.119","HEFI","2","f","rechts","55","","","self","j","0","true"
"null","<div style=""font-size:60px;"">+</div>","null","html-keyboard-response","246","544891","0.0-6.0-0.120","HEFI","2","f","rechts","55","","fixation","","","",""
"1323","img/30_240.png","70","image-keyboard-response","247","546214","0.0-6.0-1.120","HEFI","2","f","rechts","55","","","self","f","30","true"
"null","<div style=""font-size:60px;"">+</div>","null","html-keyboard-response","248","546516","0.0-6.0-0.121","HEFI","2","f","rechts","55","","fixation","","","",""
"696","img/0_90.png","74","image-keyboard-response","249","547212","0.0-6.0-1.121","HEFI","2","f","rechts","55","","","self","j","0","true"
"null","<div style=""font-size:60px;"">+</div>","null","html-keyboard-response","250","547664","0.0-6.0-0.122","HEFI","2","f","rechts","55","","fixation","","","",""
"877","img/120_180.png","74","image-keyboard-response","251","548541","0.0-6.0-1.122","HEFI","2","f","rechts","55","","","self","j","120","true"
"null","<div style=""font-size:60px;"">+</div>","null","html-keyboard-response","252","548992","0.0-6.0-0.123","HEFI","2","f","rechts","55","","fixation","","","",""
"943","img/150_300.png","74","image-keyboard-response","253","549935","0.0-6.0-1.123","HEFI","2","f","rechts","55","","","self","j","150","true"
"null","<div style=""font-size:60px;"">+</div>","null","html-keyboard-response","254","550286","0.0-6.0-0.124","HEFI","2","f","rechts","55","","fixation","","","",""
"922","img/30_300.png","70","image-keyboard-response","255","551208","0.0-6.0-1.124","HEFI","2","f","rechts","55","","","self","f","30","true"
"null","<div style=""font-size:60px;"">+</div>","null","html-keyboard-response","256","551709","0.0-6.0-0.125","HEFI","2","f","rechts","55","","fixation","","","",""
"781","img/L30_180.png","74","image-keyboard-response","257","552490","0.0-6.0-1.125","HEFI","2","f","rechts","55","","","self","f","30","false"
"null","<div style=""font-size:60px;"">+</div>","null","html-keyboard-response","258","552891","0.0-6.0-0.126","HEFI","2","f","rechts","55","","fixation","","","",""
"857","img/120_30.png","70","image-keyboard-response","259","553748","0.0-6.0-1.126","HEFI","2","f","rechts","55","","","self","j","120","false"
"null","<div style=""font-size:60px;"">+</div>","null","html-keyboard-response","260","554050","0.0-6.0-0.127","HEFI","2","f","rechts","55","","fixation","","","",""
"852","img/0_210.png","70","image-keyboard-response","261","554902","0.0-6.0-1.127","HEFI","2","f","rechts","55","","","self","f","0","true"
"null","<div style=""font-size:60px;"">+</div>","null","html-keyboard-response","262","555404","0.0-6.0-0.128","HEFI","2","f","rechts","55","","fixation","","","",""
"559","img/30_270.png","74","image-keyboard-response","263","555964","0.0-6.0-1.128","HEFI","2","f","rechts","55","","","self","f","30","false"
"null","<div style=""font-size:60px;"">+</div>","null","html-keyboard-response","264","556465","0.0-6.0-0.129","HEFI","2","f","rechts","55","","fixation","","","",""
"753","img/90_210.png","74","image-keyboard-response","265","557219","0.0-6.0-1.129","HEFI","2","f","rechts","55","","","self","j","90","true"
"null","<div style=""font-size:60px;"">+</div>","null","html-keyboard-response","266","557621","0.0-6.0-0.130","HEFI","2","f","rechts","55","","fixation","","","",""
"907","img/30_180.png","74","image-keyboard-response","267","558529","0.0-6.0-1.130","HEFI","2","f","rechts","55","","","self","j","30","true"
"null","<div style=""font-size:60px;"">+</div>","null","html-keyboard-response","268","558981","0.0-6.0-0.131","HEFI","2","f","rechts","55","","fixation","","","",""
"716","img/0_150.png","74","image-keyboard-response","269","559698","0.0-6.0-1.131","HEFI","2","f","rechts","55","","","self","j","0","true"
"null","<div style=""font-size:60px;"">+</div>","null","html-keyboard-response","270","560000","0.0-6.0-0.132","HEFI","2","f","rechts","55","","fixation","","","",""
"688","img/0_30.png","74","image-keyboard-response","271","560688","0.0-6.0-1.132","HEFI","2","f","rechts","55","","","self","j","0","true"
"null","<div style=""font-size:60px;"">+</div>","null","html-keyboard-response","272","561090","0.0-6.0-0.133","HEFI","2","f","rechts","55","","fixation","","","",""
"844","img/150_240.png","74","image-keyboard-response","273","561935","0.0-6.0-1.133","HEFI","2","f","rechts","55","","","self","j","150","true"
"null","<div style=""font-size:60px;"">+</div>","null","html-keyboard-response","274","562437","0.0-6.0-0.134","HEFI","2","f","rechts","55","","fixation","","","",""
"1056","img/60_90.png","74","image-keyboard-response","275","563494","0.0-6.0-1.134","HEFI","2","f","rechts","55","","","self","j","60","true"
"null","<div style=""font-size:60px;"">+</div>","null","html-keyboard-response","276","563994","0.0-6.0-0.135","HEFI","2","f","rechts","55","","fixation","","","",""
"918","img/90_30.png","74","image-keyboard-response","277","564913","0.0-6.0-1.135","HEFI","2","f","rechts","55","","","self","j","90","true"
"null","<div style=""font-size:60px;"">+</div>","null","html-keyboard-response","278","565315","0.0-6.0-0.136","HEFI","2","f","rechts","55","","fixation","","","",""
"866","img/60_180.png","74","image-keyboard-response","279","566182","0.0-6.0-1.136","HEFI","2","f","rechts","55","","","self","j","60","true"
"null","<div style=""font-size:60px;"">+</div>","null","html-keyboard-response","280","566484","0.0-6.0-0.137","HEFI","2","f","rechts","55","","fixation","","","",""
"811","img/120_210.png","74","image-keyboard-response","281","567295","0.0-6.0-1.137","HEFI","2","f","rechts","55","","","self","j","120","true"
"null","<div style=""font-size:60px;"">+</div>","null","html-keyboard-response","282","567696","0.0-6.0-0.138","HEFI","2","f","rechts","55","","fixation","","","",""
"990","img/L60_180.png","74","image-keyboard-response","283","568687","0.0-6.0-1.138","HEFI","2","f","rechts","55","","","self","f","60","false"
"null","<div style=""font-size:60px;"">+</div>","null","html-keyboard-response","284","569138","0.0-6.0-0.139","HEFI","2","f","rechts","55","","fixation","","","",""
"794","img/L90_180.png","74","image-keyboard-response","285","569933","0.0-6.0-1.139","HEFI","2","f","rechts","55","","","self","f","90","false"
"null","<div style=""font-size:60px;"">+</div>","null","html-keyboard-response","286","570385","0.0-6.0-0.140","HEFI","2","f","rechts","55","","fixation","","","",""
"760","img/0_270.png","70","image-keyboard-response","287","571145","0.0-6.0-1.140","HEFI","2","f","rechts","55","","","self","f","0","true"
"null","<div style=""font-size:60px;"">+</div>","null","html-keyboard-response","288","571546","0.0-6.0-0.141","HEFI","2","f","rechts","55","","fixation","","","",""
"714","img/90_300.png","74","image-keyboard-response","289","572262","0.0-6.0-1.141","HEFI","2","f","rechts","55","","","self","f","90","false"
"null","<div style=""font-size:60px;"">+</div>","null","html-keyboard-response","290","572663","0.0-6.0-0.142","HEFI","2","f","rechts","55","","fixation","","","",""
"623","img/0_240.png","70","image-keyboard-response","291","573287","0.0-6.0-1.142","HEFI","2","f","rechts","55","","","self","f","0","true"
"null","<div style=""font-size:60px;"">+</div>","null","html-keyboard-response","292","573789","0.0-6.0-0.143","HEFI","2","f","rechts","55","","fixation","","","",""
"619","img/150_180.png","74","image-keyboard-response","293","574408","0.0-6.0-1.143","HEFI","2","f","rechts","55","","","self","j","150","true"
"null","<div style=""font-size:60px;"">+</div>","null","html-keyboard-response","294","574810","0.0-6.0-0.144","HEFI","2","f","rechts","55","","fixation","","","",""
"572","img/L150_180.png","70","image-keyboard-response","295","575384","0.0-6.0-1.144","HEFI","2","f","rechts","55","","","self","f","150","true"
"null","<div style=""font-size:60px;"">+</div>","null","html-keyboard-response","296","575735","0.0-6.0-0.145","HEFI","2","f","rechts","55","","fixation","","","",""
"694","img/0_330.png","70","image-keyboard-response","297","576429","0.0-6.0-1.145","HEFI","2","f","rechts","55","","","self","f","0","true"
"null","<div style=""font-size:60px;"">+</div>","null","html-keyboard-response","298","576731","0.0-6.0-0.146","HEFI","2","f","rechts","55","","fixation","","","",""
"808","img/60_150.png","74","image-keyboard-response","299","577540","0.0-6.0-1.146","HEFI","2","f","rechts","55","","","self","f","60","false"
"null","<div style=""font-size:60px;"">+</div>","null","html-keyboard-response","300","577942","0.0-6.0-0.147","HEFI","2","f","rechts","55","","fixation","","","",""
"775","img/120_330.png","74","image-keyboard-response","301","578718","0.0-6.0-1.147","HEFI","2","f","rechts","55","","","self","f","120","false"
"null","<div style=""font-size:60px;"">+</div>","null","html-keyboard-response","302","579070","0.0-6.0-0.148","HEFI","2","f","rechts","55","","fixation","","","",""
"806","img/90_330.png","70","image-keyboard-response","303","579878","0.0-6.0-1.148","HEFI","2","f","rechts","55","","","self","f","90","true"
"null","<div style=""font-size:60px;"">+</div>","null","html-keyboard-response","304","580279","0.0-6.0-0.149","HEFI","2","f","rechts","55","","fixation","","","",""
"806","img/L120_180.png","74","image-keyboard-response","305","581086","0.0-6.0-1.149","HEFI","2","f","rechts","55","","","self","f","120","false"
"null","<div style=""font-size:60px;"">+</div>","null","html-keyboard-response","306","581438","0.0-6.0-0.150","HEFI","2","f","rechts","55","","fixation","","","",""
"554","img/30_90.png","70","image-keyboard-response","307","581993","0.0-6.0-1.150","HEFI","2","f","rechts","55","","","self","j","30","false"
"null","<div style=""font-size:60px;"">+</div>","null","html-keyboard-response","308","582295","0.0-6.0-0.151","HEFI","2","f","rechts","55","","fixation","","","",""
"999","img/150_270.png","74","image-keyboard-response","309","583294","0.0-6.0-1.151","HEFI","2","f","rechts","55","","","self","j","150","true"
"null","<div style=""font-size:60px;"">+</div>","null","html-keyboard-response","310","583645","0.0-6.0-0.152","HEFI","2","f","rechts","55","","fixation","","","",""
"839","img/90_120.png","70","image-keyboard-response","311","584485","0.0-6.0-1.152","HEFI","2","f","rechts","55","","","self","f","90","true"
"null","<div style=""font-size:60px;"">+</div>","null","html-keyboard-response","312","584936","0.0-6.0-0.153","HEFI","2","f","rechts","55","","fixation","","","",""
"971","img/30_120.png","70","image-keyboard-response","313","585907","0.0-6.0-1.153","HEFI","2","f","rechts","55","","","self","j","30","false"
"null","<div style=""font-size:60px;"">+</div>","null","html-keyboard-response","314","586409","0.0-6.0-0.154","HEFI","2","f","rechts","55","","fixation","","","",""
"669","img/90_180.png","74","image-keyboard-response","315","587079","0.0-6.0-1.154","HEFI","2","f","rechts","55","","","self","j","90","true"
"null","<div style=""font-size:60px;"">+</div>","null","html-keyboard-response","316","587381","0.0-6.0-0.155","HEFI","2","f","rechts","55","","fixation","","","",""
"895","img/90_240.png","74","image-keyboard-response","317","588277","0.0-6.0-1.155","HEFI","2","f","rechts","55","","","self","j","90","true"
"null","<div style=""font-size:60px;"">+</div>","null","html-keyboard-response","318","588728","0.0-6.0-0.156","HEFI","2","f","rechts","55","","fixation","","","",""
"1203","img/120_30.png","70","image-keyboard-response","319","589932","0.0-6.0-1.156","HEFI","2","f","rechts","55","","","self","j","120","false"
"null","<div style=""font-size:60px;"">+</div>","null","html-keyboard-response","320","590434","0.0-6.0-0.157","HEFI","2","f","rechts","55","","fixation","","","",""
"754","img/90_210.png","74","image-keyboard-response","321","591189","0.0-6.0-1.157","HEFI","2","f","rechts","55","","","self","j","90","true"
"null","<div style=""font-size:60px;"">+</div>","null","html-keyboard-response","322","591491","0.0-6.0-0.158","HEFI","2","f","rechts","55","","fixation","","","",""
"600","img/0_240.png","70","image-keyboard-response","323","592091","0.0-6.0-1.158","HEFI","2","f","rechts","55","","","self","f","0","true"
"null","<div style=""font-size:60px;"">+</div>","null","html-keyboard-response","324","592592","0.0-6.0-0.159","HEFI","2","f","rechts","55","","fixation","","","",""
"811","img/L120_180.png","74","image-keyboard-response","325","593403","0.0-6.0-1.159","HEFI","2","f","rechts","55","","","self","f","120","false"
"null","<div style=""font-size:60px;"">+</div>","null","html-keyboard-response","326","593855","0.0-6.0-0.160","HEFI","2","f","rechts","55","","fixation","","","",""
"807","img/150_180.png","74","image-keyboard-response","327","594662","0.0-6.0-1.160","HEFI","2","f","rechts","55","","","self","j","150","true"
"null","<div style=""font-size:60px;"">+</div>","null","html-keyboard-response","328","595064","0.0-6.0-0.161","HEFI","2","f","rechts","55","","fixation","","","",""
"900","img/60_210.png","74","image-keyboard-response","329","595965","0.0-6.0-1.161","HEFI","2","f","rechts","55","","","self","j","60","true"
"null","<div style=""font-size:60px;"">+</div>","null","html-keyboard-response","330","596467","0.0-6.0-0.162","HEFI","2","f","rechts","55","","fixation","","","",""
"974","img/30_90.png","70","image-keyboard-response","331","597442","0.0-6.0-1.162","HEFI","2","f","rechts","55","","","self","j","30","false"
"null","<div style=""font-size:60px;"">+</div>","null","html-keyboard-response","332","597844","0.0-6.0-0.163","HEFI","2","f","rechts","55","","fixation","","","",""
"952","img/90_300.png","74","image-keyboard-response","333","598796","0.0-6.0-1.163","HEFI","2","f","rechts","55","","","self","f","90","false"
"null","<div style=""font-size:60px;"">+</div>","null","html-keyboard-response","334","599098","0.0-6.0-0.164","HEFI","2","f","rechts","55","","fixation","","","",""
"1167","img/30_180.png","74","image-keyboard-response","335","600266","0.0-6.0-1.164","HEFI","2","f","rechts","55","","","self","j","30","true"
"null","<div style=""font-size:60px;"">+</div>","null","html-keyboard-response","336","600668","0.0-6.0-0.165","HEFI","2","f","rechts","55","","fixation","","","",""
"902","img/150_90.png","70","image-keyboard-response","337","601570","0.0-6.0-1.165","HEFI","2","f","rechts","55","","","self","f","150","true"
"null","<div style=""font-size:60px;"">+</div>","null","html-keyboard-response","338","601922","0.0-6.0-0.166","HEFI","2","f","rechts","55","","fixation","","","",""
"1163","img/L30_180.png","74","image-keyboard-response","339","603085","0.0-6.0-1.166","HEFI","2","f","rechts","55","","","self","f","30","false"
"null","<div style=""font-size:60px;"">+</div>","null","html-keyboard-response","340","603437","0.0-6.0-0.167","HEFI","2","f","rechts","55","","fixation","","","",""
"1240","img/60_270.png","70","image-keyboard-response","341","604678","0.0-6.0-1.167","HEFI","2","f","rechts","55","","","self","f","60","true"
"null","<div style=""font-size:60px;"">+</div>","null","html-keyboard-response","342","604979","0.0-6.0-0.168","HEFI","2","f","rechts","55","","fixation","","","",""
"832","img/90_240.png","74","image-keyboard-response","343","605812","0.0-6.0-1.168","HEFI","2","f","rechts","55","","","self","j","90","true"
"null","<div style=""font-size:60px;"">+</div>","null","html-keyboard-response","344","606114","0.0-6.0-0.169","HEFI","2","f","rechts","55","","fixation","","","",""
"933","img/120_90.png","74","image-keyboard-response","345","607047","0.0-6.0-1.169","HEFI","2","f","rechts","55","","","self","f","120","false"
"null","<div style=""font-size:60px;"">+</div>","null","html-keyboard-response","346","607549","0.0-6.0-0.170","HEFI","2","f","rechts","55","","fixation","","","",""
"779","img/0_30.png","74","image-keyboard-response","347","608328","0.0-6.0-1.170","HEFI","2","f","rechts","55","","","self","j","0","true"
"null","<div style=""font-size:60px;"">+</div>","null","html-keyboard-response","348","608780","0.0-6.0-0.171","HEFI","2","f","rechts","55","","fixation","","","",""
"933","img/90_180.png","74","image-keyboard-response","349","609714","0.0-6.0-1.171","HEFI","2","f","rechts","55","","","self","j","90","true"
"null","<div style=""font-size:60px;"">+</div>","null","html-keyboard-response","350","610116","0.0-6.0-0.172","HEFI","2","f","rechts","55","","fixation","","","",""
"831","img/60_150.png","70","image-keyboard-response","351","610948","0.0-6.0-1.172","HEFI","2","f","rechts","55","","","self","f","60","true"
"null","<div style=""font-size:60px;"">+</div>","null","html-keyboard-response","352","611449","0.0-6.0-0.173","HEFI","2","f","rechts","55","","fixation","","","",""
"889","img/120_150.png","70","image-keyboard-response","353","612339","0.0-6.0-1.173","HEFI","2","f","rechts","55","","","self","f","120","true"
"null","<div style=""font-size:60px;"">+</div>","null","html-keyboard-response","354","612840","0.0-6.0-0.174","HEFI","2","f","rechts","55","","fixation","","","",""
"680","img/120_210.png","74","image-keyboard-response","355","613520","0.0-6.0-1.174","HEFI","2","f","rechts","55","","","self","j","120","true"
"null","<div style=""font-size:60px;"">+</div>","null","html-keyboard-response","356","613822","0.0-6.0-0.175","HEFI","2","f","rechts","55","","fixation","","","",""
"637","img/0_210.png","70","image-keyboard-response","357","614460","0.0-6.0-1.175","HEFI","2","f","rechts","55","","","self","f","0","true"
"null","<div style=""font-size:60px;"">+</div>","null","html-keyboard-response","358","614961","0.0-6.0-0.176","HEFI","2","f","rechts","55","","fixation","","","",""
"718","img/L150_180.png","74","image-keyboard-response","359","615680","0.0-6.0-1.176","HEFI","2","f","rechts","55","","","self","f","150","false"
"null","<div style=""font-size:60px;"">+</div>","null","html-keyboard-response","360","616131","0.0-6.0-0.177","HEFI","2","f","rechts","55","","fixation","","","",""
"1069","img/30_60.png","70","image-keyboard-response","361","617200","0.0-6.0-1.177","HEFI","2","f","rechts","55","","","self","j","30","false"
"null","<div style=""font-size:60px;"">+</div>","null","html-keyboard-response","362","617602","0.0-6.0-0.178","HEFI","2","f","rechts","55","","fixation","","","",""
"702","img/120_270.png","74","image-keyboard-response","363","618304","0.0-6.0-1.178","HEFI","2","f","rechts","55","","","self","j","120","true"
"null","<div style=""font-size:60px;"">+</div>","null","html-keyboard-response","364","618606","0.0-6.0-0.179","HEFI","2","f","rechts","55","","fixation","","","",""
"756","img/150_270.png","74","image-keyboard-response","365","619364","0.0-6.0-1.179","HEFI","2","f","rechts","55","","","self","j","150","true"
"null","<div style=""font-size:60px;"">+</div>","null","html-keyboard-response","366","619665","0.0-6.0-0.180","HEFI","2","f","rechts","55","","fixation","","","",""
"744","img/0_270.png","70","image-keyboard-response","367","620411","0.0-6.0-1.180","HEFI","2","f","rechts","55","","","self","f","0","true"
"null","<div style=""font-size:60px;"">+</div>","null","html-keyboard-response","368","620762","0.0-6.0-0.181","HEFI","2","f","rechts","55","","fixation","","","",""
"700","img/60_180.png","74","image-keyboard-response","369","621462","0.0-6.0-1.181","HEFI","2","f","rechts","55","","","self","j","60","true"
"null","<div style=""font-size:60px;"">+</div>","null","html-keyboard-response","370","621864","0.0-6.0-0.182","HEFI","2","f","rechts","55","","fixation","","","",""
"794","img/0_90.png","74","image-keyboard-response","371","622660","0.0-6.0-1.182","HEFI","2","f","rechts","55","","","self","j","0","true"
"null","<div style=""font-size:60px;"">+</div>","null","html-keyboard-response","372","623112","0.0-6.0-0.183","HEFI","2","f","rechts","55","","fixation","","","",""
"652","img/0_150.png","74","image-keyboard-response","373","623764","0.0-6.0-1.183","HEFI","2","f","rechts","55","","","self","j","0","true"
"null","<div style=""font-size:60px;"">+</div>","null","html-keyboard-response","374","624165","0.0-6.0-0.184","HEFI","2","f","rechts","55","","fixation","","","",""
"881","img/90_150.png","70","image-keyboard-response","375","625048","0.0-6.0-1.184","HEFI","2","f","rechts","55","","","self","f","90","true"
"null","<div style=""font-size:60px;"">+</div>","null","html-keyboard-response","376","625549","0.0-6.0-0.185","HEFI","2","f","rechts","55","","fixation","","","",""
"1094","img/60_90.png","74","image-keyboard-response","377","626644","0.0-6.0-1.185","HEFI","2","f","rechts","55","","","self","j","60","true"
"null","<div style=""font-size:60px;"">+</div>","null","html-keyboard-response","378","626946","0.0-6.0-0.186","HEFI","2","f","rechts","55","","fixation","","","",""
"766","img/0_330.png","70","image-keyboard-response","379","627714","0.0-6.0-1.186","HEFI","2","f","rechts","55","","","self","f","0","true"
"null","<div style=""font-size:60px;"">+</div>","null","html-keyboard-response","380","628016","0.0-6.0-0.187","HEFI","2","f","rechts","55","","fixation","","","",""
"1122","img/L60_180.png","74","image-keyboard-response","381","629139","0.0-6.0-1.187","HEFI","2","f","rechts","55","","","self","f","60","false"
"null","<div style=""font-size:60px;"">+</div>","null","html-keyboard-response","382","629640","0.0-6.0-0.188","HEFI","2","f","rechts","55","","fixation","","","",""
"1176","img/30_240.png","70","image-keyboard-response","383","630816","0.0-6.0-1.188","HEFI","2","f","rechts","55","","","self","f","30","true"
"null","<div style=""font-size:60px;"">+</div>","null","html-keyboard-response","384","631268","0.0-6.0-0.189","HEFI","2","f","rechts","55","","fixation","","","",""
"840","img/90_60.png","74","image-keyboard-response","385","632109","0.0-6.0-1.189","HEFI","2","f","rechts","55","","","self","j","90","true"
"null","<div style=""font-size:60px;"">+</div>","null","html-keyboard-response","386","632411","0.0-6.0-0.190","HEFI","2","f","rechts","55","","fixation","","","",""
"1327","img/30_300.png","70","image-keyboard-response","387","633739","0.0-6.0-1.190","HEFI","2","f","rechts","55","","","self","f","30","true"
"null","<div style=""font-size:60px;"">+</div>","null","html-keyboard-response","388","634141","0.0-6.0-0.191","HEFI","2","f","rechts","55","","fixation","","","",""
"840","img/150_120.png","74","image-keyboard-response","389","634982","0.0-6.0-1.191","HEFI","2","f","rechts","55","","","self","f","150","false"
"null","<div style=""font-size:60px;"">+</div>","null","html-keyboard-response","390","635284","0.0-6.0-0.192","HEFI","2","f","rechts","55","","fixation","","","",""
"845","img/L90_180.png","70","image-keyboard-response","391","636130","0.0-6.0-1.192","HEFI","2","f","rechts","55","","","self","f","90","true"
"null","<div style=""font-size:60px;"">+</div>","null","html-keyboard-response","392","636631","0.0-6.0-0.193","HEFI","2","f","rechts","55","","fixation","","","",""
"649","img/0_300.png","70","image-keyboard-response","393","637282","0.0-6.0-1.193","HEFI","2","f","rechts","55","","","self","f","0","true"
"null","<div style=""font-size:60px;"">+</div>","null","html-keyboard-response","394","637734","0.0-6.0-0.194","HEFI","2","f","rechts","55","","fixation","","","",""
"967","img/60_30.png","70","image-keyboard-response","395","638702","0.0-6.0-1.194","HEFI","2","f","rechts","55","","","self","j","60","false"
"null","<div style=""font-size:60px;"">+</div>","null","html-keyboard-response","396","639154","0.0-6.0-0.195","HEFI","2","f","rechts","55","","fixation","","","",""
"901","img/150_300.png","74","image-keyboard-response","397","640056","0.0-6.0-1.195","HEFI","2","f","rechts","55","","","self","j","150","true"
"null","<div style=""font-size:60px;"">+</div>","null","html-keyboard-response","398","640358","0.0-6.0-0.196","HEFI","2","f","rechts","55","","fixation","","","",""
"1004","img/150_60.png","70","image-keyboard-response","399","641363","0.0-6.0-1.196","HEFI","2","f","rechts","55","","","self","f","150","true"
"null","<div style=""font-size:60px;"">+</div>","null","html-keyboard-response","400","641765","0.0-6.0-0.197","HEFI","2","f","rechts","55","","fixation","","","",""
"836","img/120_330.png","74","image-keyboard-response","401","642601","0.0-6.0-1.197","HEFI","2","f","rechts","55","","","self","f","120","false"
"null","<div style=""font-size:60px;"">+</div>","null","html-keyboard-response","402","642903","0.0-6.0-0.198","HEFI","2","f","rechts","55","","fixation","","","",""
"884","img/90_330.png","70","image-keyboard-response","403","643787","0.0-6.0-1.198","HEFI","2","f","rechts","55","","","self","f","90","true"
"null","<div style=""font-size:60px;"">+</div>","null","html-keyboard-response","404","644088","0.0-6.0-0.199","HEFI","2","f","rechts","55","","fixation","","","",""
"1541","img/30_120.png","70","image-keyboard-response","405","645630","0.0-6.0-1.199","HEFI","2","f","rechts","55","","","self","j","30","false"
"null","<div style=""font-size:60px;"">+</div>","null","html-keyboard-response","406","646132","0.0-6.0-0.200","HEFI","2","f","rechts","55","","fixation","","","",""
"879","img/30_270.png","70","image-keyboard-response","407","647012","0.0-6.0-1.200","HEFI","2","f","rechts","55","","","self","f","30","true"
"null","<div style=""font-size:60px;"">+</div>","null","html-keyboard-response","408","647513","0.0-6.0-0.201","HEFI","2","f","rechts","55","","fixation","","","",""
"1011","img/90_120.png","70","image-keyboard-response","409","648525","0.0-6.0-1.201","HEFI","2","f","rechts","55","","","self","f","90","true"
"null","<div style=""font-size:60px;"">+</div>","null","html-keyboard-response","410","648877","0.0-6.0-0.202","HEFI","2","f","rechts","55","","fixation","","","",""
"775","img/0_60.png","74","image-keyboard-response","411","649652","0.0-6.0-1.202","HEFI","2","f","rechts","55","","","self","j","0","true"
"null","<div style=""font-size:60px;"">+</div>","null","html-keyboard-response","412","650154","0.0-6.0-0.203","HEFI","2","f","rechts","55","","fixation","","","",""
"1087","img/60_330.png","70","image-keyboard-response","413","651241","0.0-6.0-1.203","HEFI","2","f","rechts","55","","","self","f","60","true"
"null","<div style=""font-size:60px;"">+</div>","null","html-keyboard-response","414","651593","0.0-6.0-0.204","HEFI","2","f","rechts","55","","fixation","","","",""
"933","img/90_30.png","70","image-keyboard-response","415","652527","0.0-6.0-1.204","HEFI","2","f","rechts","55","","","self","j","90","false"
"null","<div style=""font-size:60px;"">+</div>","null","html-keyboard-response","416","652929","0.0-6.0-0.205","HEFI","2","f","rechts","55","","fixation","","","",""
"693","img/150_240.png","74","image-keyboard-response","417","653623","0.0-6.0-1.205","HEFI","2","f","rechts","55","","","self","j","150","true"
"null","<div style=""font-size:60px;"">+</div>","null","html-keyboard-response","418","654074","0.0-6.0-0.206","HEFI","2","f","rechts","55","","fixation","","","",""
"780","img/120_180.png","74","image-keyboard-response","419","654855","0.0-6.0-1.206","HEFI","2","f","rechts","55","","","self","j","120","true"
"null","<div style=""font-size:60px;"">+</div>","null","html-keyboard-response","420","655257","0.0-6.0-0.207","HEFI","2","f","rechts","55","","fixation","","","",""
"853","img/0_120.png","74","image-keyboard-response","421","656111","0.0-6.0-1.207","HEFI","2","f","rechts","55","","","self","j","0","true"
"16668","<p>Du hast in 65% der Versuche korrekt entschieden.</p><p>Deine durchschnittliche Reaktionszeit war  1012ms.</p><p>Dr&uuml;cke eine beliebige Taste, um die Session zu beenden. Vielen Dank!</p>","74","html-keyboard-response","422","672780","0.0-7.0","HEFI","2","f","rechts","55","","","","","",""
