"rt","stimulus","key_press","trial_type","trial_index","time_elapsed","internal_node_id","subject","session","sex","handedness","age","responses","test_part","condition","correct_response","angle","correct"
"1414","<p>Mental Rotation Experiment.</p> <p>Dr&uuml;cke eine beliebige Taste, um anzufangen.</p>","71","html-keyboard-response","0","1415","0.0-0.0","HEFI","3","f","rechts","55","","","","","",""
"4395","","","survey-text","1","5810","0.0-1.0","HEFI","3","f","rechts","55","{""Q0"":""HEFI""}","","","","",""
"2149","","","survey-text","2","7960","0.0-2.0","HEFI","3","f","rechts","55","{""Q0"":""3""}","","","","",""
"3002","","","survey-multi-choice","3","10965","0.0-3.0","HEFI","3","f","rechts","55","{""Q0"":""f"",""Q1"":""rechts""}","","","","",""
"2649","","","survey-text","4","13615","0.0-4.0","HEFI","3","f","rechts","55","{""Q0"":""55""}","","","","",""
"67696","<p> Stell dir vor, dass du vor einem runden Tisch stehst, auf dem sich ein blauer Ball am Tischrand befindet. Entlang des Tischrands ist jeweils ein verschieden langer Pfeil. Nun bewegst du dich entlang dieses Pfeils bis an seine Spitze. Wenn du am Ende des Pfeils angekommen bist, schau zur Tischmitte. </p> <img src='img/90_180.png'></img> <br> <p>Entscheide dann, ob der Ball von deiner neuen (vorgestellten) Position links oder rechts von dir liegt.</p> <p>Dr&uuml;cke die <strong>'f'</strong>-Taste f&uuml;r links, die <strong>'j'</strong>-Taste f&uuml;r rechts.</p> <br><p> Das Bild wird jeweils 1 Sekunde lang pr&auml;sentiert. Du hast 3 Sekunden Zeit eine Entscheidung zu treffen.</p>","16","html-keyboard-response","5","81312","0.0-5.0","HEFI","3","f","rechts","55","","","","","",""
"null","<div style=""font-size:60px;"">+</div>","null","html-keyboard-response","6","82717","0.0-6.0-0.0","HEFI","3","f","rechts","55","","fixation","","","",""
"123","img/0_240.png","74","image-keyboard-response","7","82843","0.0-6.0-1.0","HEFI","3","f","rechts","55","","","self","f","0","false"
"null","<div style=""font-size:60px;"">+</div>","null","html-keyboard-response","8","83144","0.0-6.0-0.1","HEFI","3","f","rechts","55","","fixation","","","",""
"911","img/L60_180.png","70","image-keyboard-response","9","84057","0.0-6.0-1.1","HEFI","3","f","rechts","55","","","self","f","60","true"
"null","<div style=""font-size:60px;"">+</div>","null","html-keyboard-response","10","84358","0.0-6.0-0.2","HEFI","3","f","rechts","55","","fixation","","","",""
"838","img/60_210.png","74","image-keyboard-response","11","85198","0.0-6.0-1.2","HEFI","3","f","rechts","55","","","self","j","60","true"
"null","<div style=""font-size:60px;"">+</div>","null","html-keyboard-response","12","85698","0.0-6.0-0.3","HEFI","3","f","rechts","55","","fixation","","","",""
"1276","img/60_150.png","70","image-keyboard-response","13","86975","0.0-6.0-1.3","HEFI","3","f","rechts","55","","","self","f","60","true"
"null","<div style=""font-size:60px;"">+</div>","null","html-keyboard-response","14","87427","0.0-6.0-0.4","HEFI","3","f","rechts","55","","fixation","","","",""
"769","img/0_210.png","70","image-keyboard-response","15","88197","0.0-6.0-1.4","HEFI","3","f","rechts","55","","","self","f","0","true"
"null","<div style=""font-size:60px;"">+</div>","null","html-keyboard-response","16","88549","0.0-6.0-0.5","HEFI","3","f","rechts","55","","fixation","","","",""
"1066","img/L120_180.png","74","image-keyboard-response","17","89616","0.0-6.0-1.5","HEFI","3","f","rechts","55","","","self","f","120","false"
"null","<div style=""font-size:60px;"">+</div>","null","html-keyboard-response","18","90117","0.0-6.0-0.6","HEFI","3","f","rechts","55","","fixation","","","",""
"1306","img/150_180.png","74","image-keyboard-response","19","91425","0.0-6.0-1.6","HEFI","3","f","rechts","55","","","self","j","150","true"
"null","<div style=""font-size:60px;"">+</div>","null","html-keyboard-response","20","91926","0.0-6.0-0.7","HEFI","3","f","rechts","55","","fixation","","","",""
"817","img/0_300.png","70","image-keyboard-response","21","92744","0.0-6.0-1.7","HEFI","3","f","rechts","55","","","self","f","0","true"
"null","<div style=""font-size:60px;"">+</div>","null","html-keyboard-response","22","93246","0.0-6.0-0.8","HEFI","3","f","rechts","55","","fixation","","","",""
"799","img/60_180.png","74","image-keyboard-response","23","94045","0.0-6.0-1.8","HEFI","3","f","rechts","55","","","self","j","60","true"
"null","<div style=""font-size:60px;"">+</div>","null","html-keyboard-response","24","94347","0.0-6.0-0.9","HEFI","3","f","rechts","55","","fixation","","","",""
"755","img/150_120.png","70","image-keyboard-response","25","95103","0.0-6.0-1.9","HEFI","3","f","rechts","55","","","self","f","150","true"
"null","<div style=""font-size:60px;"">+</div>","null","html-keyboard-response","26","95554","0.0-6.0-0.10","HEFI","3","f","rechts","55","","fixation","","","",""
"990","img/120_90.png","70","image-keyboard-response","27","96546","0.0-6.0-1.10","HEFI","3","f","rechts","55","","","self","f","120","true"
"null","<div style=""font-size:60px;"">+</div>","null","html-keyboard-response","28","96897","0.0-6.0-0.11","HEFI","3","f","rechts","55","","fixation","","","",""
"1206","img/120_270.png","74","image-keyboard-response","29","98104","0.0-6.0-1.11","HEFI","3","f","rechts","55","","","self","j","120","true"
"null","<div style=""font-size:60px;"">+</div>","null","html-keyboard-response","30","98456","0.0-6.0-0.12","HEFI","3","f","rechts","55","","fixation","","","",""
"1166","img/90_30.png","70","image-keyboard-response","31","99624","0.0-6.0-1.12","HEFI","3","f","rechts","55","","","self","j","90","false"
"null","<div style=""font-size:60px;"">+</div>","null","html-keyboard-response","32","100025","0.0-6.0-0.13","HEFI","3","f","rechts","55","","fixation","","","",""
"1071","img/90_150.png","70","image-keyboard-response","33","101097","0.0-6.0-1.13","HEFI","3","f","rechts","55","","","self","f","90","true"
"null","<div style=""font-size:60px;"">+</div>","null","html-keyboard-response","34","101599","0.0-6.0-0.14","HEFI","3","f","rechts","55","","fixation","","","",""
"876","img/90_180.png","74","image-keyboard-response","35","102476","0.0-6.0-1.14","HEFI","3","f","rechts","55","","","self","j","90","true"
"null","<div style=""font-size:60px;"">+</div>","null","html-keyboard-response","36","102928","0.0-6.0-0.15","HEFI","3","f","rechts","55","","fixation","","","",""
"1604","img/90_300.png","70","image-keyboard-response","37","104532","0.0-6.0-1.15","HEFI","3","f","rechts","55","","","self","f","90","true"
"null","<div style=""font-size:60px;"">+</div>","null","html-keyboard-response","38","104984","0.0-6.0-0.16","HEFI","3","f","rechts","55","","fixation","","","",""
"777","img/120_180.png","74","image-keyboard-response","39","105762","0.0-6.0-1.16","HEFI","3","f","rechts","55","","","self","j","120","true"
"null","<div style=""font-size:60px;"">+</div>","null","html-keyboard-response","40","106114","0.0-6.0-0.17","HEFI","3","f","rechts","55","","fixation","","","",""
"788","img/0_120.png","74","image-keyboard-response","41","106903","0.0-6.0-1.17","HEFI","3","f","rechts","55","","","self","j","0","true"
"null","<div style=""font-size:60px;"">+</div>","null","html-keyboard-response","42","107405","0.0-6.0-0.18","HEFI","3","f","rechts","55","","fixation","","","",""
"916","img/90_60.png","70","image-keyboard-response","43","108322","0.0-6.0-1.18","HEFI","3","f","rechts","55","","","self","j","90","false"
"null","<div style=""font-size:60px;"">+</div>","null","html-keyboard-response","44","108824","0.0-6.0-0.19","HEFI","3","f","rechts","55","","fixation","","","",""
"992","img/30_300.png","74","image-keyboard-response","45","109818","0.0-6.0-1.19","HEFI","3","f","rechts","55","","","self","f","30","false"
"null","<div style=""font-size:60px;"">+</div>","null","html-keyboard-response","46","110219","0.0-6.0-0.20","HEFI","3","f","rechts","55","","fixation","","","",""
"1078","img/60_270.png","70","image-keyboard-response","47","111298","0.0-6.0-1.20","HEFI","3","f","rechts","55","","","self","f","60","true"
"null","<div style=""font-size:60px;"">+</div>","null","html-keyboard-response","48","111600","0.0-6.0-0.21","HEFI","3","f","rechts","55","","fixation","","","",""
"941","img/120_150.png","74","image-keyboard-response","49","112542","0.0-6.0-1.21","HEFI","3","f","rechts","55","","","self","f","120","false"
"null","<div style=""font-size:60px;"">+</div>","null","html-keyboard-response","50","112843","0.0-6.0-0.22","HEFI","3","f","rechts","55","","fixation","","","",""
"957","img/120_330.png","70","image-keyboard-response","51","113801","0.0-6.0-1.22","HEFI","3","f","rechts","55","","","self","f","120","true"
"null","<div style=""font-size:60px;"">+</div>","null","html-keyboard-response","52","114102","0.0-6.0-0.23","HEFI","3","f","rechts","55","","fixation","","","",""
"1069","img/120_30.png","70","image-keyboard-response","53","115171","0.0-6.0-1.23","HEFI","3","f","rechts","55","","","self","j","120","false"
"null","<div style=""font-size:60px;"">+</div>","null","html-keyboard-response","54","115473","0.0-6.0-0.24","HEFI","3","f","rechts","55","","fixation","","","",""
"1359","img/L90_180.png","74","image-keyboard-response","55","116833","0.0-6.0-1.24","HEFI","3","f","rechts","55","","","self","f","90","false"
"null","<div style=""font-size:60px;"">+</div>","null","html-keyboard-response","56","117185","0.0-6.0-0.25","HEFI","3","f","rechts","55","","fixation","","","",""
"941","img/90_120.png","74","image-keyboard-response","57","118127","0.0-6.0-1.25","HEFI","3","f","rechts","55","","","self","f","90","false"
"null","<div style=""font-size:60px;"">+</div>","null","html-keyboard-response","58","118579","0.0-6.0-0.26","HEFI","3","f","rechts","55","","fixation","","","",""
"849","img/120_210.png","74","image-keyboard-response","59","119429","0.0-6.0-1.26","HEFI","3","f","rechts","55","","","self","j","120","true"
"null","<div style=""font-size:60px;"">+</div>","null","html-keyboard-response","60","119831","0.0-6.0-0.27","HEFI","3","f","rechts","55","","fixation","","","",""
"927","img/L30_180.png","70","image-keyboard-response","61","120759","0.0-6.0-1.27","HEFI","3","f","rechts","55","","","self","f","30","true"
"null","<div style=""font-size:60px;"">+</div>","null","html-keyboard-response","62","121160","0.0-6.0-0.28","HEFI","3","f","rechts","55","","fixation","","","",""
"704","img/0_150.png","74","image-keyboard-response","63","121865","0.0-6.0-1.28","HEFI","3","f","rechts","55","","","self","j","0","true"
"null","<div style=""font-size:60px;"">+</div>","null","html-keyboard-response","64","122367","0.0-6.0-0.29","HEFI","3","f","rechts","55","","fixation","","","",""
"825","img/90_330.png","70","image-keyboard-response","65","123193","0.0-6.0-1.29","HEFI","3","f","rechts","55","","","self","f","90","true"
"null","<div style=""font-size:60px;"">+</div>","null","html-keyboard-response","66","123644","0.0-6.0-0.30","HEFI","3","f","rechts","55","","fixation","","","",""
"932","img/30_180.png","74","image-keyboard-response","67","124577","0.0-6.0-1.30","HEFI","3","f","rechts","55","","","self","j","30","true"
"null","<div style=""font-size:60px;"">+</div>","null","html-keyboard-response","68","124877","0.0-6.0-0.31","HEFI","3","f","rechts","55","","fixation","","","",""
"967","img/0_90.png","74","image-keyboard-response","69","125845","0.0-6.0-1.31","HEFI","3","f","rechts","55","","","self","j","0","true"
"null","<div style=""font-size:60px;"">+</div>","null","html-keyboard-response","70","126247","0.0-6.0-0.32","HEFI","3","f","rechts","55","","fixation","","","",""
"739","img/150_60.png","70","image-keyboard-response","71","126986","0.0-6.0-1.32","HEFI","3","f","rechts","55","","","self","f","150","true"
"null","<div style=""font-size:60px;"">+</div>","null","html-keyboard-response","72","127488","0.0-6.0-0.33","HEFI","3","f","rechts","55","","fixation","","","",""
"892","img/150_270.png","74","image-keyboard-response","73","128381","0.0-6.0-1.33","HEFI","3","f","rechts","55","","","self","j","150","true"
"null","<div style=""font-size:60px;"">+</div>","null","html-keyboard-response","74","128782","0.0-6.0-0.34","HEFI","3","f","rechts","55","","fixation","","","",""
"878","img/0_270.png","70","image-keyboard-response","75","129661","0.0-6.0-1.34","HEFI","3","f","rechts","55","","","self","f","0","true"
"null","<div style=""font-size:60px;"">+</div>","null","html-keyboard-response","76","130012","0.0-6.0-0.35","HEFI","3","f","rechts","55","","fixation","","","",""
"797","img/150_300.png","74","image-keyboard-response","77","130810","0.0-6.0-1.35","HEFI","3","f","rechts","55","","","self","j","150","true"
"null","<div style=""font-size:60px;"">+</div>","null","html-keyboard-response","78","131112","0.0-6.0-0.36","HEFI","3","f","rechts","55","","fixation","","","",""
"1249","img/90_240.png","74","image-keyboard-response","79","132361","0.0-6.0-1.36","HEFI","3","f","rechts","55","","","self","j","90","true"
"null","<div style=""font-size:60px;"">+</div>","null","html-keyboard-response","80","132812","0.0-6.0-0.37","HEFI","3","f","rechts","55","","fixation","","","",""
"1344","img/60_90.png","70","image-keyboard-response","81","134157","0.0-6.0-1.37","HEFI","3","f","rechts","55","","","self","j","60","false"
"null","<div style=""font-size:60px;"">+</div>","null","html-keyboard-response","82","134608","0.0-6.0-0.38","HEFI","3","f","rechts","55","","fixation","","","",""
"702","img/0_30.png","74","image-keyboard-response","83","135311","0.0-6.0-1.38","HEFI","3","f","rechts","55","","","self","j","0","true"
"null","<div style=""font-size:60px;"">+</div>","null","html-keyboard-response","84","135712","0.0-6.0-0.39","HEFI","3","f","rechts","55","","fixation","","","",""
"951","img/90_210.png","70","image-keyboard-response","85","136664","0.0-6.0-1.39","HEFI","3","f","rechts","55","","","self","j","90","false"
"null","<div style=""font-size:60px;"">+</div>","null","html-keyboard-response","86","137115","0.0-6.0-0.40","HEFI","3","f","rechts","55","","fixation","","","",""
"747","img/L150_180.png","74","image-keyboard-response","87","137862","0.0-6.0-1.40","HEFI","3","f","rechts","55","","","self","f","150","false"
"null","<div style=""font-size:60px;"">+</div>","null","html-keyboard-response","88","138163","0.0-6.0-0.41","HEFI","3","f","rechts","55","","fixation","","","",""
"630","img/0_330.png","70","image-keyboard-response","89","138794","0.0-6.0-1.41","HEFI","3","f","rechts","55","","","self","f","0","true"
"null","<div style=""font-size:60px;"">+</div>","null","html-keyboard-response","90","139145","0.0-6.0-0.42","HEFI","3","f","rechts","55","","fixation","","","",""
"975","img/30_60.png","70","image-keyboard-response","91","140120","0.0-6.0-1.42","HEFI","3","f","rechts","55","","","self","j","30","false"
"null","<div style=""font-size:60px;"">+</div>","null","html-keyboard-response","92","140572","0.0-6.0-0.43","HEFI","3","f","rechts","55","","fixation","","","",""
"543","img/0_60.png","74","image-keyboard-response","93","141117","0.0-6.0-1.43","HEFI","3","f","rechts","55","","","self","j","0","true"
"null","<div style=""font-size:60px;"">+</div>","null","html-keyboard-response","94","141568","0.0-6.0-0.44","HEFI","3","f","rechts","55","","fixation","","","",""
"577","img/60_330.png","70","image-keyboard-response","95","142148","0.0-6.0-1.44","HEFI","3","f","rechts","55","","","self","f","60","true"
"null","<div style=""font-size:60px;"">+</div>","null","html-keyboard-response","96","142499","0.0-6.0-0.45","HEFI","3","f","rechts","55","","fixation","","","",""
"687","img/60_30.png","74","image-keyboard-response","97","143188","0.0-6.0-1.45","HEFI","3","f","rechts","55","","","self","j","60","true"
"null","<div style=""font-size:60px;"">+</div>","null","html-keyboard-response","98","143639","0.0-6.0-0.46","HEFI","3","f","rechts","55","","fixation","","","",""
"985","img/30_120.png","70","image-keyboard-response","99","144626","0.0-6.0-1.46","HEFI","3","f","rechts","55","","","self","j","30","false"
"null","<div style=""font-size:60px;"">+</div>","null","html-keyboard-response","100","145127","0.0-6.0-0.47","HEFI","3","f","rechts","55","","fixation","","","",""
"848","img/150_240.png","74","image-keyboard-response","101","145976","0.0-6.0-1.47","HEFI","3","f","rechts","55","","","self","j","150","true"
"null","<div style=""font-size:60px;"">+</div>","null","html-keyboard-response","102","146277","0.0-6.0-0.48","HEFI","3","f","rechts","55","","fixation","","","",""
"726","img/150_90.png","70","image-keyboard-response","103","147004","0.0-6.0-1.48","HEFI","3","f","rechts","55","","","self","f","150","true"
"null","<div style=""font-size:60px;"">+</div>","null","html-keyboard-response","104","147506","0.0-6.0-0.49","HEFI","3","f","rechts","55","","fixation","","","",""
"831","img/30_90.png","70","image-keyboard-response","105","148338","0.0-6.0-1.49","HEFI","3","f","rechts","55","","","self","j","30","false"
"null","<div style=""font-size:60px;"">+</div>","null","html-keyboard-response","106","148690","0.0-6.0-0.50","HEFI","3","f","rechts","55","","fixation","","","",""
"800","img/30_240.png","74","image-keyboard-response","107","149491","0.0-6.0-1.50","HEFI","3","f","rechts","55","","","self","f","30","false"
"null","<div style=""font-size:60px;"">+</div>","null","html-keyboard-response","108","149942","0.0-6.0-0.51","HEFI","3","f","rechts","55","","fixation","","","",""
"1090","img/30_270.png","70","image-keyboard-response","109","151033","0.0-6.0-1.51","HEFI","3","f","rechts","55","","","self","f","30","true"
"null","<div style=""font-size:60px;"">+</div>","null","html-keyboard-response","110","151484","0.0-6.0-0.52","HEFI","3","f","rechts","55","","fixation","","","",""
"690","img/120_180.png","74","image-keyboard-response","111","152175","0.0-6.0-1.52","HEFI","3","f","rechts","55","","","self","j","120","true"
"null","<div style=""font-size:60px;"">+</div>","null","html-keyboard-response","112","152477","0.0-6.0-0.53","HEFI","3","f","rechts","55","","fixation","","","",""
"671","img/L90_180.png","70","image-keyboard-response","113","153148","0.0-6.0-1.53","HEFI","3","f","rechts","55","","","self","f","90","true"
"null","<div style=""font-size:60px;"">+</div>","null","html-keyboard-response","114","153650","0.0-6.0-0.54","HEFI","3","f","rechts","55","","fixation","","","",""
"650","img/0_90.png","74","image-keyboard-response","115","154301","0.0-6.0-1.54","HEFI","3","f","rechts","55","","","self","j","0","true"
"null","<div style=""font-size:60px;"">+</div>","null","html-keyboard-response","116","154603","0.0-6.0-0.55","HEFI","3","f","rechts","55","","fixation","","","",""
"594","img/90_30.png","70","image-keyboard-response","117","155197","0.0-6.0-1.55","HEFI","3","f","rechts","55","","","self","j","90","false"
"null","<div style=""font-size:60px;"">+</div>","null","html-keyboard-response","118","155549","0.0-6.0-0.56","HEFI","3","f","rechts","55","","fixation","","","",""
"502","img/0_150.png","74","image-keyboard-response","119","156052","0.0-6.0-1.56","HEFI","3","f","rechts","55","","","self","j","0","true"
"null","<div style=""font-size:60px;"">+</div>","null","html-keyboard-response","120","156553","0.0-6.0-0.57","HEFI","3","f","rechts","55","","fixation","","","",""
"518","img/L120_180.png","70","image-keyboard-response","121","157072","0.0-6.0-1.57","HEFI","3","f","rechts","55","","","self","f","120","true"
"null","<div style=""font-size:60px;"">+</div>","null","html-keyboard-response","122","157373","0.0-6.0-0.58","HEFI","3","f","rechts","55","","fixation","","","",""
"605","img/150_300.png","74","image-keyboard-response","123","157980","0.0-6.0-1.58","HEFI","3","f","rechts","55","","","self","j","150","true"
"null","<div style=""font-size:60px;"">+</div>","null","html-keyboard-response","124","158431","0.0-6.0-0.59","HEFI","3","f","rechts","55","","fixation","","","",""
"755","img/0_240.png","70","image-keyboard-response","125","159187","0.0-6.0-1.59","HEFI","3","f","rechts","55","","","self","f","0","true"
"null","<div style=""font-size:60px;"">+</div>","null","html-keyboard-response","126","159639","0.0-6.0-0.60","HEFI","3","f","rechts","55","","fixation","","","",""
"557","img/60_330.png","74","image-keyboard-response","127","160196","0.0-6.0-1.60","HEFI","3","f","rechts","55","","","self","f","60","false"
"null","<div style=""font-size:60px;"">+</div>","null","html-keyboard-response","128","160648","0.0-6.0-0.61","HEFI","3","f","rechts","55","","fixation","","","",""
"1001","img/90_180.png","70","image-keyboard-response","129","161649","0.0-6.0-1.61","HEFI","3","f","rechts","55","","","self","j","90","false"
"null","<div style=""font-size:60px;"">+</div>","null","html-keyboard-response","130","162101","0.0-6.0-0.62","HEFI","3","f","rechts","55","","fixation","","","",""
"624","img/90_150.png","74","image-keyboard-response","131","162726","0.0-6.0-1.62","HEFI","3","f","rechts","55","","","self","f","90","false"
"null","<div style=""font-size:60px;"">+</div>","null","html-keyboard-response","132","163178","0.0-6.0-0.63","HEFI","3","f","rechts","55","","fixation","","","",""
"833","img/30_90.png","70","image-keyboard-response","133","164012","0.0-6.0-1.63","HEFI","3","f","rechts","55","","","self","j","30","false"
"null","<div style=""font-size:60px;"">+</div>","null","html-keyboard-response","134","164414","0.0-6.0-0.64","HEFI","3","f","rechts","55","","fixation","","","",""
"774","img/90_120.png","70","image-keyboard-response","135","165190","0.0-6.0-1.64","HEFI","3","f","rechts","55","","","self","f","90","true"
"null","<div style=""font-size:60px;"">+</div>","null","html-keyboard-response","136","165591","0.0-6.0-0.65","HEFI","3","f","rechts","55","","fixation","","","",""
"790","img/30_180.png","74","image-keyboard-response","137","166382","0.0-6.0-1.65","HEFI","3","f","rechts","55","","","self","j","30","true"
"null","<div style=""font-size:60px;"">+</div>","null","html-keyboard-response","138","166834","0.0-6.0-0.66","HEFI","3","f","rechts","55","","fixation","","","",""
"912","img/120_30.png","70","image-keyboard-response","139","167747","0.0-6.0-1.66","HEFI","3","f","rechts","55","","","self","j","120","false"
"null","<div style=""font-size:60px;"">+</div>","null","html-keyboard-response","140","168099","0.0-6.0-0.67","HEFI","3","f","rechts","55","","fixation","","","",""
"957","img/30_300.png","70","image-keyboard-response","141","169057","0.0-6.0-1.67","HEFI","3","f","rechts","55","","","self","f","30","true"
"null","<div style=""font-size:60px;"">+</div>","null","html-keyboard-response","142","169409","0.0-6.0-0.68","HEFI","3","f","rechts","55","","fixation","","","",""
"684","img/0_120.png","74","image-keyboard-response","143","170093","0.0-6.0-1.68","HEFI","3","f","rechts","55","","","self","j","0","true"
"null","<div style=""font-size:60px;"">+</div>","null","html-keyboard-response","144","170595","0.0-6.0-0.69","HEFI","3","f","rechts","55","","fixation","","","",""
"623","img/60_150.png","70","image-keyboard-response","145","171218","0.0-6.0-1.69","HEFI","3","f","rechts","55","","","self","f","60","true"
"null","<div style=""font-size:60px;"">+</div>","null","html-keyboard-response","146","171670","0.0-6.0-0.70","HEFI","3","f","rechts","55","","fixation","","","",""
"563","img/120_210.png","74","image-keyboard-response","147","172233","0.0-6.0-1.70","HEFI","3","f","rechts","55","","","self","j","120","true"
"null","<div style=""font-size:60px;"">+</div>","null","html-keyboard-response","148","172634","0.0-6.0-0.71","HEFI","3","f","rechts","55","","fixation","","","",""
"663","img/90_300.png","70","image-keyboard-response","149","173298","0.0-6.0-1.71","HEFI","3","f","rechts","55","","","self","f","90","true"
"null","<div style=""font-size:60px;"">+</div>","null","html-keyboard-response","150","173700","0.0-6.0-0.72","HEFI","3","f","rechts","55","","fixation","","","",""
"564","img/90_240.png","74","image-keyboard-response","151","174264","0.0-6.0-1.72","HEFI","3","f","rechts","55","","","self","j","90","true"
"null","<div style=""font-size:60px;"">+</div>","null","html-keyboard-response","152","174716","0.0-6.0-0.73","HEFI","3","f","rechts","55","","fixation","","","",""
"585","img/90_210.png","74","image-keyboard-response","153","175302","0.0-6.0-1.73","HEFI","3","f","rechts","55","","","self","j","90","true"
"null","<div style=""font-size:60px;"">+</div>","null","html-keyboard-response","154","175604","0.0-6.0-0.74","HEFI","3","f","rechts","55","","fixation","","","",""
"658","img/0_270.png","70","image-keyboard-response","155","176262","0.0-6.0-1.74","HEFI","3","f","rechts","55","","","self","f","0","true"
"null","<div style=""font-size:60px;"">+</div>","null","html-keyboard-response","156","176614","0.0-6.0-0.75","HEFI","3","f","rechts","55","","fixation","","","",""
"755","img/30_270.png","70","image-keyboard-response","157","177369","0.0-6.0-1.75","HEFI","3","f","rechts","55","","","self","f","30","true"
"null","<div style=""font-size:60px;"">+</div>","null","html-keyboard-response","158","177871","0.0-6.0-0.76","HEFI","3","f","rechts","55","","fixation","","","",""
"563","img/L150_180.png","74","image-keyboard-response","159","178434","0.0-6.0-1.76","HEFI","3","f","rechts","55","","","self","f","150","false"
"null","<div style=""font-size:60px;"">+</div>","null","html-keyboard-response","160","178836","0.0-6.0-0.77","HEFI","3","f","rechts","55","","fixation","","","",""
"938","img/150_240.png","74","image-keyboard-response","161","179774","0.0-6.0-1.77","HEFI","3","f","rechts","55","","","self","j","150","true"
"null","<div style=""font-size:60px;"">+</div>","null","html-keyboard-response","162","180226","0.0-6.0-0.78","HEFI","3","f","rechts","55","","fixation","","","",""
"807","img/150_60.png","74","image-keyboard-response","163","181033","0.0-6.0-1.78","HEFI","3","f","rechts","55","","","self","f","150","false"
"null","<div style=""font-size:60px;"">+</div>","null","html-keyboard-response","164","181334","0.0-6.0-0.79","HEFI","3","f","rechts","55","","fixation","","","",""
"851","img/150_180.png","70","image-keyboard-response","165","182186","0.0-6.0-1.79","HEFI","3","f","rechts","55","","","self","j","150","false"
"null","<div style=""font-size:60px;"">+</div>","null","html-keyboard-response","166","182587","0.0-6.0-0.80","HEFI","3","f","rechts","55","","fixation","","","",""
"512","img/0_30.png","74","image-keyboard-response","167","183100","0.0-6.0-1.80","HEFI","3","f","rechts","55","","","self","j","0","true"
"null","<div style=""font-size:60px;"">+</div>","null","html-keyboard-response","168","183601","0.0-6.0-0.81","HEFI","3","f","rechts","55","","fixation","","","",""
"714","img/120_270.png","70","image-keyboard-response","169","184316","0.0-6.0-1.81","HEFI","3","f","rechts","55","","","self","j","120","false"
"null","<div style=""font-size:60px;"">+</div>","null","html-keyboard-response","170","184617","0.0-6.0-0.82","HEFI","3","f","rechts","55","","fixation","","","",""
"575","img/150_270.png","74","image-keyboard-response","171","185193","0.0-6.0-1.82","HEFI","3","f","rechts","55","","","self","j","150","true"
"null","<div style=""font-size:60px;"">+</div>","null","html-keyboard-response","172","185594","0.0-6.0-0.83","HEFI","3","f","rechts","55","","fixation","","","",""
"564","img/60_270.png","74","image-keyboard-response","173","186158","0.0-6.0-1.83","HEFI","3","f","rechts","55","","","self","f","60","false"
"null","<div style=""font-size:60px;"">+</div>","null","html-keyboard-response","174","186560","0.0-6.0-0.84","HEFI","3","f","rechts","55","","fixation","","","",""
"556","img/60_90.png","70","image-keyboard-response","175","187117","0.0-6.0-1.84","HEFI","3","f","rechts","55","","","self","j","60","false"
"null","<div style=""font-size:60px;"">+</div>","null","html-keyboard-response","176","187518","0.0-6.0-0.85","HEFI","3","f","rechts","55","","fixation","","","",""
"520","img/0_300.png","74","image-keyboard-response","177","188039","0.0-6.0-1.85","HEFI","3","f","rechts","55","","","self","f","0","false"
"null","<div style=""font-size:60px;"">+</div>","null","html-keyboard-response","178","188490","0.0-6.0-0.86","HEFI","3","f","rechts","55","","fixation","","","",""
"470","img/120_150.png","70","image-keyboard-response","179","188962","0.0-6.0-1.86","HEFI","3","f","rechts","55","","","self","f","120","true"
"null","<div style=""font-size:60px;"">+</div>","null","html-keyboard-response","180","189462","0.0-6.0-0.87","HEFI","3","f","rechts","55","","fixation","","","",""
"494","img/60_30.png","74","image-keyboard-response","181","189958","0.0-6.0-1.87","HEFI","3","f","rechts","55","","","self","j","60","true"
"null","<div style=""font-size:60px;"">+</div>","null","html-keyboard-response","182","190309","0.0-6.0-0.88","HEFI","3","f","rechts","55","","fixation","","","",""
"758","img/60_180.png","74","image-keyboard-response","183","191068","0.0-6.0-1.88","HEFI","3","f","rechts","55","","","self","j","60","true"
"null","<div style=""font-size:60px;"">+</div>","null","html-keyboard-response","184","191519","0.0-6.0-0.89","HEFI","3","f","rechts","55","","fixation","","","",""
"659","img/L60_180.png","70","image-keyboard-response","185","192179","0.0-6.0-1.89","HEFI","3","f","rechts","55","","","self","f","60","true"
"null","<div style=""font-size:60px;"">+</div>","null","html-keyboard-response","186","192631","0.0-6.0-0.90","HEFI","3","f","rechts","55","","fixation","","","",""
"504","img/150_90.png","74","image-keyboard-response","187","193136","0.0-6.0-1.90","HEFI","3","f","rechts","55","","","self","f","150","false"
"null","<div style=""font-size:60px;"">+</div>","null","html-keyboard-response","188","193437","0.0-6.0-0.91","HEFI","3","f","rechts","55","","fixation","","","",""
"563","img/90_60.png","70","image-keyboard-response","189","194001","0.0-6.0-1.91","HEFI","3","f","rechts","55","","","self","j","90","false"
"null","<div style=""font-size:60px;"">+</div>","null","html-keyboard-response","190","194453","0.0-6.0-0.92","HEFI","3","f","rechts","55","","fixation","","","",""
"634","img/60_210.png","74","image-keyboard-response","191","195087","0.0-6.0-1.92","HEFI","3","f","rechts","55","","","self","j","60","true"
"null","<div style=""font-size:60px;"">+</div>","null","html-keyboard-response","192","195589","0.0-6.0-0.93","HEFI","3","f","rechts","55","","fixation","","","",""
"638","img/30_60.png","70","image-keyboard-response","193","196229","0.0-6.0-1.93","HEFI","3","f","rechts","55","","","self","j","30","false"
"null","<div style=""font-size:60px;"">+</div>","null","html-keyboard-response","194","196580","0.0-6.0-0.94","HEFI","3","f","rechts","55","","fixation","","","",""
"648","img/L30_180.png","74","image-keyboard-response","195","197229","0.0-6.0-1.94","HEFI","3","f","rechts","55","","","self","f","30","false"
"null","<div style=""font-size:60px;"">+</div>","null","html-keyboard-response","196","197730","0.0-6.0-0.95","HEFI","3","f","rechts","55","","fixation","","","",""
"650","img/0_330.png","70","image-keyboard-response","197","198381","0.0-6.0-1.95","HEFI","3","f","rechts","55","","","self","f","0","true"
"null","<div style=""font-size:60px;"">+</div>","null","html-keyboard-response","198","198733","0.0-6.0-0.96","HEFI","3","f","rechts","55","","fixation","","","",""
"644","img/0_60.png","74","image-keyboard-response","199","199378","0.0-6.0-1.96","HEFI","3","f","rechts","55","","","self","j","0","true"
"null","<div style=""font-size:60px;"">+</div>","null","html-keyboard-response","200","199878","0.0-6.0-0.97","HEFI","3","f","rechts","55","","fixation","","","",""
"524","img/90_330.png","70","image-keyboard-response","201","200403","0.0-6.0-1.97","HEFI","3","f","rechts","55","","","self","f","90","true"
"null","<div style=""font-size:60px;"">+</div>","null","html-keyboard-response","202","200905","0.0-6.0-0.98","HEFI","3","f","rechts","55","","fixation","","","",""
"1029","img/120_330.png","70","image-keyboard-response","203","201934","0.0-6.0-1.98","HEFI","3","f","rechts","55","","","self","f","120","true"
"null","<div style=""font-size:60px;"">+</div>","null","html-keyboard-response","204","202336","0.0-6.0-0.99","HEFI","3","f","rechts","55","","fixation","","","",""
"755","img/30_240.png","74","image-keyboard-response","205","203093","0.0-6.0-1.99","HEFI","3","f","rechts","55","","","self","f","30","false"
"null","<div style=""font-size:60px;"">+</div>","null","html-keyboard-response","206","203394","0.0-6.0-0.100","HEFI","3","f","rechts","55","","fixation","","","",""
"693","img/150_120.png","70","image-keyboard-response","207","204088","0.0-6.0-1.100","HEFI","3","f","rechts","55","","","self","f","150","true"
"null","<div style=""font-size:60px;"">+</div>","null","html-keyboard-response","208","204439","0.0-6.0-0.101","HEFI","3","f","rechts","55","","fixation","","","",""
"1189","img/30_120.png","74","image-keyboard-response","209","205629","0.0-6.0-1.101","HEFI","3","f","rechts","55","","","self","j","30","true"
"null","<div style=""font-size:60px;"">+</div>","null","html-keyboard-response","210","205981","0.0-6.0-0.102","HEFI","3","f","rechts","55","","fixation","","","",""
"925","img/120_90.png","70","image-keyboard-response","211","206906","0.0-6.0-1.102","HEFI","3","f","rechts","55","","","self","f","120","true"
"null","<div style=""font-size:60px;"">+</div>","null","html-keyboard-response","212","207407","0.0-6.0-0.103","HEFI","3","f","rechts","55","","fixation","","","",""
"688","img/0_210.png","70","image-keyboard-response","213","208096","0.0-6.0-1.103","HEFI","3","f","rechts","55","","","self","f","0","true"
"null","<div style=""font-size:60px;"">+</div>","null","html-keyboard-response","214","208547","0.0-6.0-0.104","HEFI","3","f","rechts","55","","fixation","","","",""
"544","img/0_330.png","70","image-keyboard-response","215","209092","0.0-6.0-1.104","HEFI","3","f","rechts","55","","","self","f","0","true"
"null","<div style=""font-size:60px;"">+</div>","null","html-keyboard-response","216","209493","0.0-6.0-0.105","HEFI","3","f","rechts","55","","fixation","","","",""
"647","img/60_330.png","74","image-keyboard-response","217","210141","0.0-6.0-1.105","HEFI","3","f","rechts","55","","","self","f","60","false"
"null","<div style=""font-size:60px;"">+</div>","null","html-keyboard-response","218","210643","0.0-6.0-0.106","HEFI","3","f","rechts","55","","fixation","","","",""
"426","img/0_240.png","70","image-keyboard-response","219","211070","0.0-6.0-1.106","HEFI","3","f","rechts","55","","","self","f","0","true"
"null","<div style=""font-size:60px;"">+</div>","null","html-keyboard-response","220","211422","0.0-6.0-0.107","HEFI","3","f","rechts","55","","fixation","","","",""
"652","img/90_150.png","74","image-keyboard-response","221","212074","0.0-6.0-1.107","HEFI","3","f","rechts","55","","","self","f","90","false"
"null","<div style=""font-size:60px;"">+</div>","null","html-keyboard-response","222","212525","0.0-6.0-0.108","HEFI","3","f","rechts","55","","fixation","","","",""
"551","img/60_150.png","70","image-keyboard-response","223","213076","0.0-6.0-1.108","HEFI","3","f","rechts","55","","","self","f","60","true"
"null","<div style=""font-size:60px;"">+</div>","null","html-keyboard-response","224","213528","0.0-6.0-0.109","HEFI","3","f","rechts","55","","fixation","","","",""
"602","img/120_90.png","70","image-keyboard-response","225","214131","0.0-6.0-1.109","HEFI","3","f","rechts","55","","","self","f","120","true"
"null","<div style=""font-size:60px;"">+</div>","null","html-keyboard-response","226","214633","0.0-6.0-0.110","HEFI","3","f","rechts","55","","fixation","","","",""
"463","img/150_180.png","74","image-keyboard-response","227","215096","0.0-6.0-1.110","HEFI","3","f","rechts","55","","","self","j","150","true"
"null","<div style=""font-size:60px;"">+</div>","null","html-keyboard-response","228","215598","0.0-6.0-0.111","HEFI","3","f","rechts","55","","fixation","","","",""
"934","img/150_300.png","70","image-keyboard-response","229","216533","0.0-6.0-1.111","HEFI","3","f","rechts","55","","","self","j","150","false"
"null","<div style=""font-size:60px;"">+</div>","null","html-keyboard-response","230","216934","0.0-6.0-0.112","HEFI","3","f","rechts","55","","fixation","","","",""
"953","img/150_120.png","74","image-keyboard-response","231","217888","0.0-6.0-1.112","HEFI","3","f","rechts","55","","","self","f","150","false"
"null","<div style=""font-size:60px;"">+</div>","null","html-keyboard-response","232","218339","0.0-6.0-0.113","HEFI","3","f","rechts","55","","fixation","","","",""
"1234","img/120_30.png","74","image-keyboard-response","233","219574","0.0-6.0-1.113","HEFI","3","f","rechts","55","","","self","j","120","true"
"null","<div style=""font-size:60px;"">+</div>","null","html-keyboard-response","234","219976","0.0-6.0-0.114","HEFI","3","f","rechts","55","","fixation","","","",""
"776","img/0_30.png","74","image-keyboard-response","235","220752","0.0-6.0-1.114","HEFI","3","f","rechts","55","","","self","j","0","true"
"null","<div style=""font-size:60px;"">+</div>","null","html-keyboard-response","236","221053","0.0-6.0-0.115","HEFI","3","f","rechts","55","","fixation","","","",""
"1006","img/60_180.png","74","image-keyboard-response","237","222060","0.0-6.0-1.115","HEFI","3","f","rechts","55","","","self","j","60","true"
"null","<div style=""font-size:60px;"">+</div>","null","html-keyboard-response","238","222362","0.0-6.0-0.116","HEFI","3","f","rechts","55","","fixation","","","",""
"850","img/90_300.png","70","image-keyboard-response","239","223212","0.0-6.0-1.116","HEFI","3","f","rechts","55","","","self","f","90","true"
"null","<div style=""font-size:60px;"">+</div>","null","html-keyboard-response","240","223514","0.0-6.0-0.117","HEFI","3","f","rechts","55","","fixation","","","",""
"852","img/30_300.png","70","image-keyboard-response","241","224366","0.0-6.0-1.117","HEFI","3","f","rechts","55","","","self","f","30","true"
"null","<div style=""font-size:60px;"">+</div>","null","html-keyboard-response","242","224768","0.0-6.0-0.118","HEFI","3","f","rechts","55","","fixation","","","",""
"694","img/120_270.png","74","image-keyboard-response","243","225462","0.0-6.0-1.118","HEFI","3","f","rechts","55","","","self","j","120","true"
"null","<div style=""font-size:60px;"">+</div>","null","html-keyboard-response","244","225764","0.0-6.0-0.119","HEFI","3","f","rechts","55","","fixation","","","",""
"611","img/0_300.png","70","image-keyboard-response","245","226375","0.0-6.0-1.119","HEFI","3","f","rechts","55","","","self","f","0","true"
"null","<div style=""font-size:60px;"">+</div>","null","html-keyboard-response","246","226876","0.0-6.0-0.120","HEFI","3","f","rechts","55","","fixation","","","",""
"613","img/90_120.png","74","image-keyboard-response","247","227490","0.0-6.0-1.120","HEFI","3","f","rechts","55","","","self","f","90","false"
"null","<div style=""font-size:60px;"">+</div>","null","html-keyboard-response","248","227842","0.0-6.0-0.121","HEFI","3","f","rechts","55","","fixation","","","",""
"702","img/90_240.png","70","image-keyboard-response","249","228544","0.0-6.0-1.121","HEFI","3","f","rechts","55","","","self","j","90","false"
"null","<div style=""font-size:60px;"">+</div>","null","html-keyboard-response","250","228996","0.0-6.0-0.122","HEFI","3","f","rechts","55","","fixation","","","",""
"698","img/60_90.png","74","image-keyboard-response","251","229694","0.0-6.0-1.122","HEFI","3","f","rechts","55","","","self","j","60","true"
"null","<div style=""font-size:60px;"">+</div>","null","html-keyboard-response","252","230046","0.0-6.0-0.123","HEFI","3","f","rechts","55","","fixation","","","",""
"1089","img/60_210.png","74","image-keyboard-response","253","231135","0.0-6.0-1.123","HEFI","3","f","rechts","55","","","self","j","60","true"
"null","<div style=""font-size:60px;"">+</div>","null","html-keyboard-response","254","231537","0.0-6.0-0.124","HEFI","3","f","rechts","55","","fixation","","","",""
"925","img/L90_180.png","70","image-keyboard-response","255","232462","0.0-6.0-1.124","HEFI","3","f","rechts","55","","","self","f","90","true"
"null","<div style=""font-size:60px;"">+</div>","null","html-keyboard-response","256","232864","0.0-6.0-0.125","HEFI","3","f","rechts","55","","fixation","","","",""
"889","img/90_30.png","70","image-keyboard-response","257","233753","0.0-6.0-1.125","HEFI","3","f","rechts","55","","","self","j","90","false"
"null","<div style=""font-size:60px;"">+</div>","null","html-keyboard-response","258","234055","0.0-6.0-0.126","HEFI","3","f","rechts","55","","fixation","","","",""
"1017","img/150_90.png","70","image-keyboard-response","259","235073","0.0-6.0-1.126","HEFI","3","f","rechts","55","","","self","f","150","true"
"null","<div style=""font-size:60px;"">+</div>","null","html-keyboard-response","260","235374","0.0-6.0-0.127","HEFI","3","f","rechts","55","","fixation","","","",""
"1233","img/L150_180.png","74","image-keyboard-response","261","236608","0.0-6.0-1.127","HEFI","3","f","rechts","55","","","self","f","150","false"
"null","<div style=""font-size:60px;"">+</div>","null","html-keyboard-response","262","237009","0.0-6.0-0.128","HEFI","3","f","rechts","55","","fixation","","","",""
"2022","img/90_60.png","74","image-keyboard-response","263","239032","0.0-6.0-1.128","HEFI","3","f","rechts","55","","","self","j","90","true"
"null","<div style=""font-size:60px;"">+</div>","null","html-keyboard-response","264","239533","0.0-6.0-0.129","HEFI","3","f","rechts","55","","fixation","","","",""
"834","img/L30_180.png","70","image-keyboard-response","265","240368","0.0-6.0-1.129","HEFI","3","f","rechts","55","","","self","f","30","true"
"null","<div style=""font-size:60px;"">+</div>","null","html-keyboard-response","266","240668","0.0-6.0-0.130","HEFI","3","f","rechts","55","","fixation","","","",""
"767","img/0_120.png","74","image-keyboard-response","267","241436","0.0-6.0-1.130","HEFI","3","f","rechts","55","","","self","j","0","true"
"null","<div style=""font-size:60px;"">+</div>","null","html-keyboard-response","268","241738","0.0-6.0-0.131","HEFI","3","f","rechts","55","","fixation","","","",""
"666","img/0_60.png","74","image-keyboard-response","269","242405","0.0-6.0-1.131","HEFI","3","f","rechts","55","","","self","j","0","true"
"null","<div style=""font-size:60px;"">+</div>","null","html-keyboard-response","270","242756","0.0-6.0-0.132","HEFI","3","f","rechts","55","","fixation","","","",""
"1518","img/120_180.png","74","image-keyboard-response","271","244275","0.0-6.0-1.132","HEFI","3","f","rechts","55","","","self","j","120","true"
"null","<div style=""font-size:60px;"">+</div>","null","html-keyboard-response","272","244627","0.0-6.0-0.133","HEFI","3","f","rechts","55","","fixation","","","",""
"1406","img/90_210.png","74","image-keyboard-response","273","246034","0.0-6.0-1.133","HEFI","3","f","rechts","55","","","self","j","90","true"
"null","<div style=""font-size:60px;"">+</div>","null","html-keyboard-response","274","246536","0.0-6.0-0.134","HEFI","3","f","rechts","55","","fixation","","","",""
"770","img/30_120.png","70","image-keyboard-response","275","247306","0.0-6.0-1.134","HEFI","3","f","rechts","55","","","self","j","30","false"
"null","<div style=""font-size:60px;"">+</div>","null","html-keyboard-response","276","247658","0.0-6.0-0.135","HEFI","3","f","rechts","55","","fixation","","","",""
"1064","img/L60_180.png","70","image-keyboard-response","277","248722","0.0-6.0-1.135","HEFI","3","f","rechts","55","","","self","f","60","true"
"null","<div style=""font-size:60px;"">+</div>","null","html-keyboard-response","278","249024","0.0-6.0-0.136","HEFI","3","f","rechts","55","","fixation","","","",""
"874","img/60_270.png","74","image-keyboard-response","279","249898","0.0-6.0-1.136","HEFI","3","f","rechts","55","","","self","f","60","false"
"null","<div style=""font-size:60px;"">+</div>","null","html-keyboard-response","280","250349","0.0-6.0-0.137","HEFI","3","f","rechts","55","","fixation","","","",""
"698","img/120_210.png","74","image-keyboard-response","281","251049","0.0-6.0-1.137","HEFI","3","f","rechts","55","","","self","j","120","true"
"null","<div style=""font-size:60px;"">+</div>","null","html-keyboard-response","282","251399","0.0-6.0-0.138","HEFI","3","f","rechts","55","","fixation","","","",""
"704","img/90_180.png","74","image-keyboard-response","283","252105","0.0-6.0-1.138","HEFI","3","f","rechts","55","","","self","j","90","true"
"null","<div style=""font-size:60px;"">+</div>","null","html-keyboard-response","284","252556","0.0-6.0-0.139","HEFI","3","f","rechts","55","","fixation","","","",""
"966","img/30_270.png","70","image-keyboard-response","285","253524","0.0-6.0-1.139","HEFI","3","f","rechts","55","","","self","f","30","true"
"null","<div style=""font-size:60px;"">+</div>","null","html-keyboard-response","286","253875","0.0-6.0-0.140","HEFI","3","f","rechts","55","","fixation","","","",""
"815","img/0_150.png","74","image-keyboard-response","287","254691","0.0-6.0-1.140","HEFI","3","f","rechts","55","","","self","j","0","true"
"null","<div style=""font-size:60px;"">+</div>","null","html-keyboard-response","288","255043","0.0-6.0-0.141","HEFI","3","f","rechts","55","","fixation","","","",""
"734","img/150_60.png","70","image-keyboard-response","289","255779","0.0-6.0-1.141","HEFI","3","f","rechts","55","","","self","f","150","true"
"null","<div style=""font-size:60px;"">+</div>","null","html-keyboard-response","290","256229","0.0-6.0-0.142","HEFI","3","f","rechts","55","","fixation","","","",""
"551","img/0_90.png","74","image-keyboard-response","291","256781","0.0-6.0-1.142","HEFI","3","f","rechts","55","","","self","j","0","true"
"null","<div style=""font-size:60px;"">+</div>","null","html-keyboard-response","292","257133","0.0-6.0-0.143","HEFI","3","f","rechts","55","","fixation","","","",""
"646","img/90_330.png","70","image-keyboard-response","293","257780","0.0-6.0-1.143","HEFI","3","f","rechts","55","","","self","f","90","true"
"null","<div style=""font-size:60px;"">+</div>","null","html-keyboard-response","294","258131","0.0-6.0-0.144","HEFI","3","f","rechts","55","","fixation","","","",""
"911","img/60_30.png","70","image-keyboard-response","295","259043","0.0-6.0-1.144","HEFI","3","f","rechts","55","","","self","j","60","false"
"null","<div style=""font-size:60px;"">+</div>","null","html-keyboard-response","296","259345","0.0-6.0-0.145","HEFI","3","f","rechts","55","","fixation","","","",""
"587","img/150_240.png","74","image-keyboard-response","297","259932","0.0-6.0-1.145","HEFI","3","f","rechts","55","","","self","j","150","true"
"null","<div style=""font-size:60px;"">+</div>","null","html-keyboard-response","298","260434","0.0-6.0-0.146","HEFI","3","f","rechts","55","","fixation","","","",""
"591","img/0_210.png","70","image-keyboard-response","299","261026","0.0-6.0-1.146","HEFI","3","f","rechts","55","","","self","f","0","true"
"null","<div style=""font-size:60px;"">+</div>","null","html-keyboard-response","300","261327","0.0-6.0-0.147","HEFI","3","f","rechts","55","","fixation","","","",""
"872","img/30_90.png","70","image-keyboard-response","301","262200","0.0-6.0-1.147","HEFI","3","f","rechts","55","","","self","j","30","false"
"null","<div style=""font-size:60px;"">+</div>","null","html-keyboard-response","302","262651","0.0-6.0-0.148","HEFI","3","f","rechts","55","","fixation","","","",""
"606","img/0_270.png","74","image-keyboard-response","303","263258","0.0-6.0-1.148","HEFI","3","f","rechts","55","","","self","f","0","false"
"null","<div style=""font-size:60px;"">+</div>","null","html-keyboard-response","304","263559","0.0-6.0-0.149","HEFI","3","f","rechts","55","","fixation","","","",""
"1317","img/30_240.png","74","image-keyboard-response","305","264876","0.0-6.0-1.149","HEFI","3","f","rechts","55","","","self","f","30","false"
"null","<div style=""font-size:60px;"">+</div>","null","html-keyboard-response","306","265278","0.0-6.0-0.150","HEFI","3","f","rechts","55","","fixation","","","",""
"1690","img/L120_180.png","70","image-keyboard-response","307","266969","0.0-6.0-1.150","HEFI","3","f","rechts","55","","","self","f","120","true"
"null","<div style=""font-size:60px;"">+</div>","null","html-keyboard-response","308","267471","0.0-6.0-0.151","HEFI","3","f","rechts","55","","fixation","","","",""
"1076","img/150_270.png","74","image-keyboard-response","309","268549","0.0-6.0-1.151","HEFI","3","f","rechts","55","","","self","j","150","true"
"null","<div style=""font-size:60px;"">+</div>","null","html-keyboard-response","310","268899","0.0-6.0-0.152","HEFI","3","f","rechts","55","","fixation","","","",""
"1172","img/30_180.png","74","image-keyboard-response","311","270072","0.0-6.0-1.152","HEFI","3","f","rechts","55","","","self","j","30","true"
"null","<div style=""font-size:60px;"">+</div>","null","html-keyboard-response","312","270423","0.0-6.0-0.153","HEFI","3","f","rechts","55","","fixation","","","",""
"2064","img/120_150.png","70","image-keyboard-response","313","272487","0.0-6.0-1.153","HEFI","3","f","rechts","55","","","self","f","120","true"
"null","<div style=""font-size:60px;"">+</div>","null","html-keyboard-response","314","272939","0.0-6.0-0.154","HEFI","3","f","rechts","55","","fixation","","","",""
"1005","img/30_60.png","74","image-keyboard-response","315","273945","0.0-6.0-1.154","HEFI","3","f","rechts","55","","","self","j","30","true"
"null","<div style=""font-size:60px;"">+</div>","null","html-keyboard-response","316","274395","0.0-6.0-0.155","HEFI","3","f","rechts","55","","fixation","","","",""
"619","img/120_330.png","74","image-keyboard-response","317","275015","0.0-6.0-1.155","HEFI","3","f","rechts","55","","","self","f","120","false"
"null","<div style=""font-size:60px;"">+</div>","null","html-keyboard-response","318","275366","0.0-6.0-0.156","HEFI","3","f","rechts","55","","fixation","","","",""
"716","img/30_240.png","70","image-keyboard-response","319","276082","0.0-6.0-1.156","HEFI","3","f","rechts","55","","","self","f","30","true"
"null","<div style=""font-size:60px;"">+</div>","null","html-keyboard-response","320","276384","0.0-6.0-0.157","HEFI","3","f","rechts","55","","fixation","","","",""
"768","img/120_150.png","74","image-keyboard-response","321","277153","0.0-6.0-1.157","HEFI","3","f","rechts","55","","","self","f","120","false"
"null","<div style=""font-size:60px;"">+</div>","null","html-keyboard-response","322","277555","0.0-6.0-0.158","HEFI","3","f","rechts","55","","fixation","","","",""
"603","img/0_270.png","70","image-keyboard-response","323","278158","0.0-6.0-1.158","HEFI","3","f","rechts","55","","","self","f","0","true"
"null","<div style=""font-size:60px;"">+</div>","null","html-keyboard-response","324","278609","0.0-6.0-0.159","HEFI","3","f","rechts","55","","fixation","","","",""
"525","img/60_180.png","74","image-keyboard-response","325","279135","0.0-6.0-1.159","HEFI","3","f","rechts","55","","","self","j","60","true"
"null","<div style=""font-size:60px;"">+</div>","null","html-keyboard-response","326","279536","0.0-6.0-0.160","HEFI","3","f","rechts","55","","fixation","","","",""
"548","img/L60_180.png","70","image-keyboard-response","327","280085","0.0-6.0-1.160","HEFI","3","f","rechts","55","","","self","f","60","true"
"null","<div style=""font-size:60px;"">+</div>","null","html-keyboard-response","328","280537","0.0-6.0-0.161","HEFI","3","f","rechts","55","","fixation","","","",""
"597","img/120_90.png","74","image-keyboard-response","329","281135","0.0-6.0-1.161","HEFI","3","f","rechts","55","","","self","f","120","false"
"null","<div style=""font-size:60px;"">+</div>","null","html-keyboard-response","330","281487","0.0-6.0-0.162","HEFI","3","f","rechts","55","","fixation","","","",""
"798","img/90_300.png","70","image-keyboard-response","331","282285","0.0-6.0-1.162","HEFI","3","f","rechts","55","","","self","f","90","true"
"null","<div style=""font-size:60px;"">+</div>","null","html-keyboard-response","332","282586","0.0-6.0-0.163","HEFI","3","f","rechts","55","","fixation","","","",""
"578","img/30_60.png","74","image-keyboard-response","333","283166","0.0-6.0-1.163","HEFI","3","f","rechts","55","","","self","j","30","true"
"null","<div style=""font-size:60px;"">+</div>","null","html-keyboard-response","334","283667","0.0-6.0-0.164","HEFI","3","f","rechts","55","","fixation","","","",""
"681","img/60_90.png","70","image-keyboard-response","335","284348","0.0-6.0-1.164","HEFI","3","f","rechts","55","","","self","j","60","false"
"null","<div style=""font-size:60px;"">+</div>","null","html-keyboard-response","336","284699","0.0-6.0-0.165","HEFI","3","f","rechts","55","","fixation","","","",""
"706","img/90_210.png","74","image-keyboard-response","337","285407","0.0-6.0-1.165","HEFI","3","f","rechts","55","","","self","j","90","true"
"null","<div style=""font-size:60px;"">+</div>","null","html-keyboard-response","338","285708","0.0-6.0-0.166","HEFI","3","f","rechts","55","","fixation","","","",""
"672","img/120_180.png","74","image-keyboard-response","339","286381","0.0-6.0-1.166","HEFI","3","f","rechts","55","","","self","j","120","true"
"null","<div style=""font-size:60px;"">+</div>","null","html-keyboard-response","340","286782","0.0-6.0-0.167","HEFI","3","f","rechts","55","","fixation","","","",""
"790","img/60_210.png","74","image-keyboard-response","341","287573","0.0-6.0-1.167","HEFI","3","f","rechts","55","","","self","j","60","true"
"null","<div style=""font-size:60px;"">+</div>","null","html-keyboard-response","342","288075","0.0-6.0-0.168","HEFI","3","f","rechts","55","","fixation","","","",""
"553","img/0_90.png","74","image-keyboard-response","343","288629","0.0-6.0-1.168","HEFI","3","f","rechts","55","","","self","j","0","true"
"null","<div style=""font-size:60px;"">+</div>","null","html-keyboard-response","344","289030","0.0-6.0-0.169","HEFI","3","f","rechts","55","","fixation","","","",""
"734","img/60_30.png","70","image-keyboard-response","345","289766","0.0-6.0-1.169","HEFI","3","f","rechts","55","","","self","j","60","false"
"null","<div style=""font-size:60px;"">+</div>","null","html-keyboard-response","346","290267","0.0-6.0-0.170","HEFI","3","f","rechts","55","","fixation","","","",""
"671","img/150_60.png","74","image-keyboard-response","347","290940","0.0-6.0-1.170","HEFI","3","f","rechts","55","","","self","f","150","false"
"null","<div style=""font-size:60px;"">+</div>","null","html-keyboard-response","348","291291","0.0-6.0-0.171","HEFI","3","f","rechts","55","","fixation","","","",""
"758","img/150_240.png","74","image-keyboard-response","349","292050","0.0-6.0-1.171","HEFI","3","f","rechts","55","","","self","j","150","true"
"null","<div style=""font-size:60px;"">+</div>","null","html-keyboard-response","350","292552","0.0-6.0-0.172","HEFI","3","f","rechts","55","","fixation","","","",""
"608","img/0_300.png","70","image-keyboard-response","351","293162","0.0-6.0-1.172","HEFI","3","f","rechts","55","","","self","f","0","true"
"null","<div style=""font-size:60px;"">+</div>","null","html-keyboard-response","352","293662","0.0-6.0-0.173","HEFI","3","f","rechts","55","","fixation","","","",""
"711","img/0_210.png","70","image-keyboard-response","353","294374","0.0-6.0-1.173","HEFI","3","f","rechts","55","","","self","f","0","true"
"null","<div style=""font-size:60px;"">+</div>","null","html-keyboard-response","354","294825","0.0-6.0-0.174","HEFI","3","f","rechts","55","","fixation","","","",""
"637","img/90_120.png","74","image-keyboard-response","355","295463","0.0-6.0-1.174","HEFI","3","f","rechts","55","","","self","f","90","false"
"null","<div style=""font-size:60px;"">+</div>","null","html-keyboard-response","356","295964","0.0-6.0-0.175","HEFI","3","f","rechts","55","","fixation","","","",""
"803","img/30_270.png","70","image-keyboard-response","357","296769","0.0-6.0-1.175","HEFI","3","f","rechts","55","","","self","f","30","true"
"null","<div style=""font-size:60px;"">+</div>","null","html-keyboard-response","358","297170","0.0-6.0-0.176","HEFI","3","f","rechts","55","","fixation","","","",""
"589","img/30_90.png","74","image-keyboard-response","359","297761","0.0-6.0-1.176","HEFI","3","f","rechts","55","","","self","j","30","true"
"null","<div style=""font-size:60px;"">+</div>","null","html-keyboard-response","360","298212","0.0-6.0-0.177","HEFI","3","f","rechts","55","","fixation","","","",""
"613","img/150_90.png","70","image-keyboard-response","361","298827","0.0-6.0-1.177","HEFI","3","f","rechts","55","","","self","f","150","true"
"null","<div style=""font-size:60px;"">+</div>","null","html-keyboard-response","362","299178","0.0-6.0-0.178","HEFI","3","f","rechts","55","","fixation","","","",""
"697","img/0_330.png","70","image-keyboard-response","363","299875","0.0-6.0-1.178","HEFI","3","f","rechts","55","","","self","f","0","true"
"null","<div style=""font-size:60px;"">+</div>","null","html-keyboard-response","364","300327","0.0-6.0-0.179","HEFI","3","f","rechts","55","","fixation","","","",""
"509","img/L90_180.png","74","image-keyboard-response","365","300837","0.0-6.0-1.179","HEFI","3","f","rechts","55","","","self","f","90","false"
"null","<div style=""font-size:60px;"">+</div>","null","html-keyboard-response","366","301188","0.0-6.0-0.180","HEFI","3","f","rechts","55","","fixation","","","",""
"511","img/0_30.png","70","image-keyboard-response","367","301700","0.0-6.0-1.180","HEFI","3","f","rechts","55","","","self","j","0","false"
"null","<div style=""font-size:60px;"">+</div>","null","html-keyboard-response","368","302051","0.0-6.0-0.181","HEFI","3","f","rechts","55","","fixation","","","",""
"610","img/150_180.png","74","image-keyboard-response","369","302662","0.0-6.0-1.181","HEFI","3","f","rechts","55","","","self","j","150","true"
"null","<div style=""font-size:60px;"">+</div>","null","html-keyboard-response","370","303113","0.0-6.0-0.182","HEFI","3","f","rechts","55","","fixation","","","",""
"755","img/150_300.png","74","image-keyboard-response","371","303869","0.0-6.0-1.182","HEFI","3","f","rechts","55","","","self","j","150","true"
"null","<div style=""font-size:60px;"">+</div>","null","html-keyboard-response","372","304171","0.0-6.0-0.183","HEFI","3","f","rechts","55","","fixation","","","",""
"598","img/60_270.png","70","image-keyboard-response","373","304770","0.0-6.0-1.183","HEFI","3","f","rechts","55","","","self","f","60","true"
"null","<div style=""font-size:60px;"">+</div>","null","html-keyboard-response","374","305272","0.0-6.0-0.184","HEFI","3","f","rechts","55","","fixation","","","",""
"885","img/L30_180.png","70","image-keyboard-response","375","306158","0.0-6.0-1.184","HEFI","3","f","rechts","55","","","self","f","30","true"
"null","<div style=""font-size:60px;"">+</div>","null","html-keyboard-response","376","306560","0.0-6.0-0.185","HEFI","3","f","rechts","55","","fixation","","","",""
"621","img/150_270.png","74","image-keyboard-response","377","307182","0.0-6.0-1.185","HEFI","3","f","rechts","55","","","self","j","150","true"
"null","<div style=""font-size:60px;"">+</div>","null","html-keyboard-response","378","307634","0.0-6.0-0.186","HEFI","3","f","rechts","55","","fixation","","","",""
"1106","img/30_300.png","70","image-keyboard-response","379","308742","0.0-6.0-1.186","HEFI","3","f","rechts","55","","","self","f","30","true"
"null","<div style=""font-size:60px;"">+</div>","null","html-keyboard-response","380","309243","0.0-6.0-0.187","HEFI","3","f","rechts","55","","fixation","","","",""
"858","img/120_210.png","74","image-keyboard-response","381","310102","0.0-6.0-1.187","HEFI","3","f","rechts","55","","","self","j","120","true"
"null","<div style=""font-size:60px;"">+</div>","null","html-keyboard-response","382","310554","0.0-6.0-0.188","HEFI","3","f","rechts","55","","fixation","","","",""
"751","img/0_60.png","74","image-keyboard-response","383","311306","0.0-6.0-1.188","HEFI","3","f","rechts","55","","","self","j","0","true"
"null","<div style=""font-size:60px;"">+</div>","null","html-keyboard-response","384","311608","0.0-6.0-0.189","HEFI","3","f","rechts","55","","fixation","","","",""
"669","img/120_270.png","70","image-keyboard-response","385","312278","0.0-6.0-1.189","HEFI","3","f","rechts","55","","","self","j","120","false"
"null","<div style=""font-size:60px;"">+</div>","null","html-keyboard-response","386","312730","0.0-6.0-0.190","HEFI","3","f","rechts","55","","fixation","","","",""
"743","img/90_330.png","74","image-keyboard-response","387","313474","0.0-6.0-1.190","HEFI","3","f","rechts","55","","","self","f","90","false"
"null","<div style=""font-size:60px;"">+</div>","null","html-keyboard-response","388","313926","0.0-6.0-0.191","HEFI","3","f","rechts","55","","fixation","","","",""
"802","img/60_150.png","70","image-keyboard-response","389","314729","0.0-6.0-1.191","HEFI","3","f","rechts","55","","","self","f","60","true"
"null","<div style=""font-size:60px;"">+</div>","null","html-keyboard-response","390","315131","0.0-6.0-0.192","HEFI","3","f","rechts","55","","fixation","","","",""
"757","img/L150_180.png","74","image-keyboard-response","391","315888","0.0-6.0-1.192","HEFI","3","f","rechts","55","","","self","f","150","false"
"null","<div style=""font-size:60px;"">+</div>","null","html-keyboard-response","392","316390","0.0-6.0-0.193","HEFI","3","f","rechts","55","","fixation","","","",""
"579","img/90_30.png","70","image-keyboard-response","393","316971","0.0-6.0-1.193","HEFI","3","f","rechts","55","","","self","j","90","false"
"null","<div style=""font-size:60px;"">+</div>","null","html-keyboard-response","394","317472","0.0-6.0-0.194","HEFI","3","f","rechts","55","","fixation","","","",""
"941","img/30_120.png","70","image-keyboard-response","395","318414","0.0-6.0-1.194","HEFI","3","f","rechts","55","","","self","j","30","false"
"null","<div style=""font-size:60px;"">+</div>","null","html-keyboard-response","396","318916","0.0-6.0-0.195","HEFI","3","f","rechts","55","","fixation","","","",""
"1117","img/90_180.png","74","image-keyboard-response","397","320034","0.0-6.0-1.195","HEFI","3","f","rechts","55","","","self","j","90","true"
"null","<div style=""font-size:60px;"">+</div>","null","html-keyboard-response","398","320485","0.0-6.0-0.196","HEFI","3","f","rechts","55","","fixation","","","",""
"645","img/0_240.png","70","image-keyboard-response","399","321131","0.0-6.0-1.196","HEFI","3","f","rechts","55","","","self","f","0","true"
"null","<div style=""font-size:60px;"">+</div>","null","html-keyboard-response","400","321482","0.0-6.0-0.197","HEFI","3","f","rechts","55","","fixation","","","",""
"559","img/30_180.png","74","image-keyboard-response","401","322042","0.0-6.0-1.197","HEFI","3","f","rechts","55","","","self","j","30","true"
"null","<div style=""font-size:60px;"">+</div>","null","html-keyboard-response","402","322493","0.0-6.0-0.198","HEFI","3","f","rechts","55","","fixation","","","",""
"847","img/60_330.png","70","image-keyboard-response","403","323340","0.0-6.0-1.198","HEFI","3","f","rechts","55","","","self","f","60","true"
"null","<div style=""font-size:60px;"">+</div>","null","html-keyboard-response","404","323691","0.0-6.0-0.199","HEFI","3","f","rechts","55","","fixation","","","",""
"881","img/L120_180.png","74","image-keyboard-response","405","324573","0.0-6.0-1.199","HEFI","3","f","rechts","55","","","self","f","120","false"
"null","<div style=""font-size:60px;"">+</div>","null","html-keyboard-response","406","324925","0.0-6.0-0.200","HEFI","3","f","rechts","55","","fixation","","","",""
"654","img/0_150.png","70","image-keyboard-response","407","325579","0.0-6.0-1.200","HEFI","3","f","rechts","55","","","self","j","0","false"
"null","<div style=""font-size:60px;"">+</div>","null","html-keyboard-response","408","326031","0.0-6.0-0.201","HEFI","3","f","rechts","55","","fixation","","","",""
"475","img/0_120.png","74","image-keyboard-response","409","326507","0.0-6.0-1.201","HEFI","3","f","rechts","55","","","self","j","0","true"
"null","<div style=""font-size:60px;"">+</div>","null","html-keyboard-response","410","326858","0.0-6.0-0.202","HEFI","3","f","rechts","55","","fixation","","","",""
"701","img/150_120.png","70","image-keyboard-response","411","327560","0.0-6.0-1.202","HEFI","3","f","rechts","55","","","self","f","150","true"
"null","<div style=""font-size:60px;"">+</div>","null","html-keyboard-response","412","327962","0.0-6.0-0.203","HEFI","3","f","rechts","55","","fixation","","","",""
"1086","img/120_30.png","70","image-keyboard-response","413","329049","0.0-6.0-1.203","HEFI","3","f","rechts","55","","","self","j","120","false"
"null","<div style=""font-size:60px;"">+</div>","null","html-keyboard-response","414","329349","0.0-6.0-0.204","HEFI","3","f","rechts","55","","fixation","","","",""
"682","img/90_240.png","74","image-keyboard-response","415","330032","0.0-6.0-1.204","HEFI","3","f","rechts","55","","","self","j","90","true"
"null","<div style=""font-size:60px;"">+</div>","null","html-keyboard-response","416","330333","0.0-6.0-0.205","HEFI","3","f","rechts","55","","fixation","","","",""
"867","img/90_150.png","74","image-keyboard-response","417","331201","0.0-6.0-1.205","HEFI","3","f","rechts","55","","","self","f","90","false"
"null","<div style=""font-size:60px;"">+</div>","null","html-keyboard-response","418","331553","0.0-6.0-0.206","HEFI","3","f","rechts","55","","fixation","","","",""
"695","img/90_60.png","70","image-keyboard-response","419","332248","0.0-6.0-1.206","HEFI","3","f","rechts","55","","","self","j","90","false"
"null","<div style=""font-size:60px;"">+</div>","null","html-keyboard-response","420","332700","0.0-6.0-0.207","HEFI","3","f","rechts","55","","fixation","","","",""
"611","img/120_330.png","74","image-keyboard-response","421","333311","0.0-6.0-1.207","HEFI","3","f","rechts","55","","","self","f","120","false"
"9631","<p>Du hast in 65% der Versuche korrekt entschieden.</p><p>Deine durchschnittliche Reaktionszeit war  807ms.</p><p>Dr&uuml;cke eine beliebige Taste, um die Session zu beenden. Vielen Dank!</p>","72","html-keyboard-response","422","342943","0.0-7.0","HEFI","3","f","rechts","55","","","","","",""
