"rt","stimulus","key_press","trial_type","trial_index","time_elapsed","internal_node_id","subject","session","sex","handedness","age","responses","test_part","condition","correct_response","angle","correct"
"2057","<p>Mental Rotation Experiment.</p> <p>Dr&uuml;cke eine beliebige Taste, um anzufangen.</p>","71","html-keyboard-response","0","2061","0.0-0.0","HEFI","1","f","rechts","55","","","","","",""
"5422","","","survey-text","1","7484","0.0-1.0","HEFI","1","f","rechts","55","{""Q0"":""HEFI""}","","","","",""
"2075","","","survey-text","2","9560","0.0-2.0","HEFI","1","f","rechts","55","{""Q0"":""1""}","","","","",""
"3248","","","survey-multi-choice","3","12813","0.0-3.0","HEFI","1","f","rechts","55","{""Q0"":""f"",""Q1"":""rechts""}","","","","",""
"3705","","","survey-text","4","16518","0.0-4.0","HEFI","1","f","rechts","55","{""Q0"":""55""}","","","","",""
"8930","<p> Stell dir vor, dass du vor einem runden Tisch stehst, auf dem sich ein blauer Ball am Tischrand befindet. Entlang des Tischrands ist jeweils ein verschieden langer Pfeil. Nun bewegst du dich entlang dieses Pfeils bis an seine Spitze. Wenn du am Ende des Pfeils angekommen bist, schau zur Tischmitte. </p> <img src='img/90_180.png'></img> <br> <p>Entscheide dann, ob der Ball von deiner neuen (vorgestellten) Position links oder rechts von dir liegt.</p> <p>Dr&uuml;cke die <strong>'f'</strong>-Taste f&uuml;r links, die <strong>'j'</strong>-Taste f&uuml;r rechts.</p> <br><p> Das Bild wird jeweils 1 Sekunde lang pr&auml;sentiert. Du hast 3 Sekunden Zeit eine Entscheidung zu treffen.</p>","32","html-keyboard-response","5","25449","0.0-5.0","HEFI","1","f","rechts","55","","","","","",""
"null","<div style=""font-size:60px;"">+</div>","null","html-keyboard-response","6","26803","0.0-6.0-0.0","HEFI","1","f","rechts","55","","fixation","","","",""
"740","img/90_330.png","74","image-keyboard-response","7","27546","0.0-6.0-1.0","HEFI","1","f","rechts","55","","","self","f","90","false"
"null","<div style=""font-size:60px;"">+</div>","null","html-keyboard-response","8","27848","0.0-6.0-0.1","HEFI","1","f","rechts","55","","fixation","","","",""
"null","img/120_210.png","null","image-keyboard-response","9","30850","0.0-6.0-1.1","HEFI","1","f","rechts","55","","","self","j","120","false"
"null","<div style=""font-size:60px;"">+</div>","null","html-keyboard-response","10","31202","0.0-6.0-0.2","HEFI","1","f","rechts","55","","fixation","","","",""
"1407","img/150_120.png","70","image-keyboard-response","11","32610","0.0-6.0-1.2","HEFI","1","f","rechts","55","","","self","f","150","true"
"null","<div style=""font-size:60px;"">+</div>","null","html-keyboard-response","12","32961","0.0-6.0-0.3","HEFI","1","f","rechts","55","","fixation","","","",""
"2187","img/L120_180.png","70","image-keyboard-response","13","35149","0.0-6.0-1.3","HEFI","1","f","rechts","55","","","self","f","120","true"
"null","<div style=""font-size:60px;"">+</div>","null","html-keyboard-response","14","35651","0.0-6.0-0.4","HEFI","1","f","rechts","55","","fixation","","","",""
"1761","img/150_300.png","70","image-keyboard-response","15","37413","0.0-6.0-1.4","HEFI","1","f","rechts","55","","","self","j","150","false"
"null","<div style=""font-size:60px;"">+</div>","null","html-keyboard-response","16","37865","0.0-6.0-0.5","HEFI","1","f","rechts","55","","fixation","","","",""
"1681","img/90_300.png","70","image-keyboard-response","17","39547","0.0-6.0-1.5","HEFI","1","f","rechts","55","","","self","f","90","true"
"null","<div style=""font-size:60px;"">+</div>","null","html-keyboard-response","18","39948","0.0-6.0-0.6","HEFI","1","f","rechts","55","","fixation","","","",""
"2396","img/120_180.png","74","image-keyboard-response","19","42346","0.0-6.0-1.6","HEFI","1","f","rechts","55","","","self","j","120","true"
"null","<div style=""font-size:60px;"">+</div>","null","html-keyboard-response","20","42647","0.0-6.0-0.7","HEFI","1","f","rechts","55","","fixation","","","",""
"1543","img/L60_180.png","70","image-keyboard-response","21","44191","0.0-6.0-1.7","HEFI","1","f","rechts","55","","","self","f","60","true"
"null","<div style=""font-size:60px;"">+</div>","null","html-keyboard-response","22","44642","0.0-6.0-0.8","HEFI","1","f","rechts","55","","fixation","","","",""
"2623","img/30_60.png","74","image-keyboard-response","23","47267","0.0-6.0-1.8","HEFI","1","f","rechts","55","","","self","j","30","true"
"null","<div style=""font-size:60px;"">+</div>","null","html-keyboard-response","24","47718","0.0-6.0-0.9","HEFI","1","f","rechts","55","","fixation","","","",""
"null","img/L30_180.png","null","image-keyboard-response","25","50721","0.0-6.0-1.9","HEFI","1","f","rechts","55","","","self","f","30","false"
"null","<div style=""font-size:60px;"">+</div>","null","html-keyboard-response","26","51223","0.0-6.0-0.10","HEFI","1","f","rechts","55","","fixation","","","",""
"1242","img/0_150.png","74","image-keyboard-response","27","52467","0.0-6.0-1.10","HEFI","1","f","rechts","55","","","self","j","0","true"
"null","<div style=""font-size:60px;"">+</div>","null","html-keyboard-response","28","52818","0.0-6.0-0.11","HEFI","1","f","rechts","55","","fixation","","","",""
"1165","img/0_210.png","70","image-keyboard-response","29","53984","0.0-6.0-1.11","HEFI","1","f","rechts","55","","","self","f","0","true"
"null","<div style=""font-size:60px;"">+</div>","null","html-keyboard-response","30","54386","0.0-6.0-0.12","HEFI","1","f","rechts","55","","fixation","","","",""
"848","img/0_120.png","74","image-keyboard-response","31","55236","0.0-6.0-1.12","HEFI","1","f","rechts","55","","","self","j","0","true"
"null","<div style=""font-size:60px;"">+</div>","null","html-keyboard-response","32","55587","0.0-6.0-0.13","HEFI","1","f","rechts","55","","fixation","","","",""
"1468","img/L90_180.png","70","image-keyboard-response","33","57056","0.0-6.0-1.13","HEFI","1","f","rechts","55","","","self","f","90","true"
"null","<div style=""font-size:60px;"">+</div>","null","html-keyboard-response","34","57458","0.0-6.0-0.14","HEFI","1","f","rechts","55","","fixation","","","",""
"1581","img/120_30.png","74","image-keyboard-response","35","59040","0.0-6.0-1.14","HEFI","1","f","rechts","55","","","self","j","120","true"
"null","<div style=""font-size:60px;"">+</div>","null","html-keyboard-response","36","59392","0.0-6.0-0.15","HEFI","1","f","rechts","55","","fixation","","","",""
"1655","img/30_90.png","70","image-keyboard-response","37","61048","0.0-6.0-1.15","HEFI","1","f","rechts","55","","","self","j","30","false"
"null","<div style=""font-size:60px;"">+</div>","null","html-keyboard-response","38","61350","0.0-6.0-0.16","HEFI","1","f","rechts","55","","fixation","","","",""
"1255","img/60_30.png","74","image-keyboard-response","39","62606","0.0-6.0-1.16","HEFI","1","f","rechts","55","","","self","j","60","true"
"null","<div style=""font-size:60px;"">+</div>","null","html-keyboard-response","40","63108","0.0-6.0-0.17","HEFI","1","f","rechts","55","","fixation","","","",""
"1109","img/0_30.png","74","image-keyboard-response","41","64218","0.0-6.0-1.17","HEFI","1","f","rechts","55","","","self","j","0","true"
"null","<div style=""font-size:60px;"">+</div>","null","html-keyboard-response","42","64520","0.0-6.0-0.18","HEFI","1","f","rechts","55","","fixation","","","",""
"1842","img/30_180.png","74","image-keyboard-response","43","66364","0.0-6.0-1.18","HEFI","1","f","rechts","55","","","self","j","30","true"
"null","<div style=""font-size:60px;"">+</div>","null","html-keyboard-response","44","66815","0.0-6.0-0.19","HEFI","1","f","rechts","55","","fixation","","","",""
"2441","img/120_330.png","70","image-keyboard-response","45","69257","0.0-6.0-1.19","HEFI","1","f","rechts","55","","","self","f","120","true"
"null","<div style=""font-size:60px;"">+</div>","null","html-keyboard-response","46","69608","0.0-6.0-0.20","HEFI","1","f","rechts","55","","fixation","","","",""
"2048","img/120_150.png","74","image-keyboard-response","47","71657","0.0-6.0-1.20","HEFI","1","f","rechts","55","","","self","f","120","false"
"null","<div style=""font-size:60px;"">+</div>","null","html-keyboard-response","48","72159","0.0-6.0-0.21","HEFI","1","f","rechts","55","","fixation","","","",""
"2128","img/60_270.png","74","image-keyboard-response","49","74288","0.0-6.0-1.21","HEFI","1","f","rechts","55","","","self","f","60","false"
"null","<div style=""font-size:60px;"">+</div>","null","html-keyboard-response","50","74589","0.0-6.0-0.22","HEFI","1","f","rechts","55","","fixation","","","",""
"946","img/0_330.png","70","image-keyboard-response","51","75537","0.0-6.0-1.22","HEFI","1","f","rechts","55","","","self","f","0","true"
"null","<div style=""font-size:60px;"">+</div>","null","html-keyboard-response","52","75988","0.0-6.0-0.23","HEFI","1","f","rechts","55","","fixation","","","",""
"1736","img/60_330.png","70","image-keyboard-response","53","77725","0.0-6.0-1.23","HEFI","1","f","rechts","55","","","self","f","60","true"
"null","<div style=""font-size:60px;"">+</div>","null","html-keyboard-response","54","78177","0.0-6.0-0.24","HEFI","1","f","rechts","55","","fixation","","","",""
"1864","img/60_90.png","74","image-keyboard-response","55","80042","0.0-6.0-1.24","HEFI","1","f","rechts","55","","","self","j","60","true"
"null","<div style=""font-size:60px;"">+</div>","null","html-keyboard-response","56","80394","0.0-6.0-0.25","HEFI","1","f","rechts","55","","fixation","","","",""
"2049","img/90_240.png","74","image-keyboard-response","57","82444","0.0-6.0-1.25","HEFI","1","f","rechts","55","","","self","j","90","true"
"null","<div style=""font-size:60px;"">+</div>","null","html-keyboard-response","58","82846","0.0-6.0-0.26","HEFI","1","f","rechts","55","","fixation","","","",""
"1252","img/0_90.png","74","image-keyboard-response","59","84099","0.0-6.0-1.26","HEFI","1","f","rechts","55","","","self","j","0","true"
"null","<div style=""font-size:60px;"">+</div>","null","html-keyboard-response","60","84449","0.0-6.0-0.27","HEFI","1","f","rechts","55","","fixation","","","",""
"1883","img/150_90.png","70","image-keyboard-response","61","86334","0.0-6.0-1.27","HEFI","1","f","rechts","55","","","self","f","150","true"
"null","<div style=""font-size:60px;"">+</div>","null","html-keyboard-response","62","86636","0.0-6.0-0.28","HEFI","1","f","rechts","55","","fixation","","","",""
"1393","img/30_120.png","74","image-keyboard-response","63","88030","0.0-6.0-1.28","HEFI","1","f","rechts","55","","","self","j","30","true"
"null","<div style=""font-size:60px;"">+</div>","null","html-keyboard-response","64","88332","0.0-6.0-0.29","HEFI","1","f","rechts","55","","fixation","","","",""
"904","img/0_60.png","74","image-keyboard-response","65","89237","0.0-6.0-1.29","HEFI","1","f","rechts","55","","","self","j","0","true"
"null","<div style=""font-size:60px;"">+</div>","null","html-keyboard-response","66","89739","0.0-6.0-0.30","HEFI","1","f","rechts","55","","fixation","","","",""
"1226","img/60_210.png","70","image-keyboard-response","67","90967","0.0-6.0-1.30","HEFI","1","f","rechts","55","","","self","j","60","false"
"null","<div style=""font-size:60px;"">+</div>","null","html-keyboard-response","68","91318","0.0-6.0-0.31","HEFI","1","f","rechts","55","","fixation","","","",""
"1282","img/30_240.png","74","image-keyboard-response","69","92602","0.0-6.0-1.31","HEFI","1","f","rechts","55","","","self","f","30","false"
"null","<div style=""font-size:60px;"">+</div>","null","html-keyboard-response","70","92953","0.0-6.0-0.32","HEFI","1","f","rechts","55","","fixation","","","",""
"1225","img/90_210.png","74","image-keyboard-response","71","94180","0.0-6.0-1.32","HEFI","1","f","rechts","55","","","self","j","90","true"
"null","<div style=""font-size:60px;"">+</div>","null","html-keyboard-response","72","94481","0.0-6.0-0.33","HEFI","1","f","rechts","55","","fixation","","","",""
"967","img/0_300.png","70","image-keyboard-response","73","95451","0.0-6.0-1.33","HEFI","1","f","rechts","55","","","self","f","0","true"
"null","<div style=""font-size:60px;"">+</div>","null","html-keyboard-response","74","95952","0.0-6.0-0.34","HEFI","1","f","rechts","55","","fixation","","","",""
"1254","img/120_90.png","74","image-keyboard-response","75","97208","0.0-6.0-1.34","HEFI","1","f","rechts","55","","","self","f","120","false"
"null","<div style=""font-size:60px;"">+</div>","null","html-keyboard-response","76","97510","0.0-6.0-0.35","HEFI","1","f","rechts","55","","fixation","","","",""
"1290","img/90_150.png","70","image-keyboard-response","77","98802","0.0-6.0-1.35","HEFI","1","f","rechts","55","","","self","f","90","true"
"null","<div style=""font-size:60px;"">+</div>","null","html-keyboard-response","78","99103","0.0-6.0-0.36","HEFI","1","f","rechts","55","","fixation","","","",""
"1237","img/90_180.png","74","image-keyboard-response","79","100342","0.0-6.0-1.36","HEFI","1","f","rechts","55","","","self","j","90","true"
"null","<div style=""font-size:60px;"">+</div>","null","html-keyboard-response","80","100793","0.0-6.0-0.37","HEFI","1","f","rechts","55","","fixation","","","",""
"1339","img/90_60.png","70","image-keyboard-response","81","102133","0.0-6.0-1.37","HEFI","1","f","rechts","55","","","self","j","90","false"
"null","<div style=""font-size:60px;"">+</div>","null","html-keyboard-response","82","102635","0.0-6.0-0.38","HEFI","1","f","rechts","55","","fixation","","","",""
"1808","img/60_150.png","70","image-keyboard-response","83","104445","0.0-6.0-1.38","HEFI","1","f","rechts","55","","","self","f","60","true"
"null","<div style=""font-size:60px;"">+</div>","null","html-keyboard-response","84","104846","0.0-6.0-0.39","HEFI","1","f","rechts","55","","fixation","","","",""
"1599","img/L150_180.png","74","image-keyboard-response","85","106446","0.0-6.0-1.39","HEFI","1","f","rechts","55","","","self","f","150","false"
"null","<div style=""font-size:60px;"">+</div>","null","html-keyboard-response","86","106848","0.0-6.0-0.40","HEFI","1","f","rechts","55","","fixation","","","",""
"1760","img/90_30.png","70","image-keyboard-response","87","108610","0.0-6.0-1.40","HEFI","1","f","rechts","55","","","self","j","90","false"
"null","<div style=""font-size:60px;"">+</div>","null","html-keyboard-response","88","108911","0.0-6.0-0.41","HEFI","1","f","rechts","55","","fixation","","","",""
"1804","img/60_180.png","74","image-keyboard-response","89","110717","0.0-6.0-1.41","HEFI","1","f","rechts","55","","","self","j","60","true"
"null","<div style=""font-size:60px;"">+</div>","null","html-keyboard-response","90","111018","0.0-6.0-0.42","HEFI","1","f","rechts","55","","fixation","","","",""
"1815","img/120_270.png","70","image-keyboard-response","91","112834","0.0-6.0-1.42","HEFI","1","f","rechts","55","","","self","j","120","false"
"null","<div style=""font-size:60px;"">+</div>","null","html-keyboard-response","92","113335","0.0-6.0-0.43","HEFI","1","f","rechts","55","","fixation","","","",""
"1614","img/90_120.png","70","image-keyboard-response","93","114950","0.0-6.0-1.43","HEFI","1","f","rechts","55","","","self","f","90","true"
"null","<div style=""font-size:60px;"">+</div>","null","html-keyboard-response","94","115452","0.0-6.0-0.44","HEFI","1","f","rechts","55","","fixation","","","",""
"1472","img/0_270.png","70","image-keyboard-response","95","116925","0.0-6.0-1.44","HEFI","1","f","rechts","55","","","self","f","0","true"
"null","<div style=""font-size:60px;"">+</div>","null","html-keyboard-response","96","117327","0.0-6.0-0.45","HEFI","1","f","rechts","55","","fixation","","","",""
"1071","img/0_240.png","70","image-keyboard-response","97","118399","0.0-6.0-1.45","HEFI","1","f","rechts","55","","","self","f","0","true"
"null","<div style=""font-size:60px;"">+</div>","null","html-keyboard-response","98","118901","0.0-6.0-0.46","HEFI","1","f","rechts","55","","fixation","","","",""
"1409","img/150_60.png","74","image-keyboard-response","99","120311","0.0-6.0-1.46","HEFI","1","f","rechts","55","","","self","f","150","false"
"null","<div style=""font-size:60px;"">+</div>","null","html-keyboard-response","100","120613","0.0-6.0-0.47","HEFI","1","f","rechts","55","","fixation","","","",""
"1206","img/30_300.png","70","image-keyboard-response","101","121820","0.0-6.0-1.47","HEFI","1","f","rechts","55","","","self","f","30","true"
"null","<div style=""font-size:60px;"">+</div>","null","html-keyboard-response","102","122222","0.0-6.0-0.48","HEFI","1","f","rechts","55","","fixation","","","",""
"1646","img/150_240.png","74","image-keyboard-response","103","123869","0.0-6.0-1.48","HEFI","1","f","rechts","55","","","self","j","150","true"
"null","<div style=""font-size:60px;"">+</div>","null","html-keyboard-response","104","124171","0.0-6.0-0.49","HEFI","1","f","rechts","55","","fixation","","","",""
"1598","img/150_270.png","74","image-keyboard-response","105","125770","0.0-6.0-1.49","HEFI","1","f","rechts","55","","","self","j","150","true"
"null","<div style=""font-size:60px;"">+</div>","null","html-keyboard-response","106","126272","0.0-6.0-0.50","HEFI","1","f","rechts","55","","fixation","","","",""
"1257","img/150_180.png","74","image-keyboard-response","107","127530","0.0-6.0-1.50","HEFI","1","f","rechts","55","","","self","j","150","true"
"null","<div style=""font-size:60px;"">+</div>","null","html-keyboard-response","108","127982","0.0-6.0-0.51","HEFI","1","f","rechts","55","","fixation","","","",""
"1178","img/30_270.png","70","image-keyboard-response","109","129161","0.0-6.0-1.51","HEFI","1","f","rechts","55","","","self","f","30","true"
"null","<div style=""font-size:60px;"">+</div>","null","html-keyboard-response","110","129513","0.0-6.0-0.52","HEFI","1","f","rechts","55","","fixation","","","",""
"1346","img/30_90.png","70","image-keyboard-response","111","130859","0.0-6.0-1.52","HEFI","1","f","rechts","55","","","self","j","30","false"
"null","<div style=""font-size:60px;"">+</div>","null","html-keyboard-response","112","131211","0.0-6.0-0.53","HEFI","1","f","rechts","55","","fixation","","","",""
"1170","img/120_270.png","74","image-keyboard-response","113","132381","0.0-6.0-1.53","HEFI","1","f","rechts","55","","","self","j","120","true"
"null","<div style=""font-size:60px;"">+</div>","null","html-keyboard-response","114","132833","0.0-6.0-0.54","HEFI","1","f","rechts","55","","fixation","","","",""
"1069","img/0_90.png","74","image-keyboard-response","115","133902","0.0-6.0-1.54","HEFI","1","f","rechts","55","","","self","j","0","true"
"null","<div style=""font-size:60px;"">+</div>","null","html-keyboard-response","116","134203","0.0-6.0-0.55","HEFI","1","f","rechts","55","","fixation","","","",""
"2089","img/L150_180.png","70","image-keyboard-response","117","136293","0.0-6.0-1.55","HEFI","1","f","rechts","55","","","self","f","150","true"
"null","<div style=""font-size:60px;"">+</div>","null","html-keyboard-response","118","136695","0.0-6.0-0.56","HEFI","1","f","rechts","55","","fixation","","","",""
"1762","img/90_210.png","74","image-keyboard-response","119","138458","0.0-6.0-1.56","HEFI","1","f","rechts","55","","","self","j","90","true"
"null","<div style=""font-size:60px;"">+</div>","null","html-keyboard-response","120","138810","0.0-6.0-0.57","HEFI","1","f","rechts","55","","fixation","","","",""
"1301","img/0_60.png","74","image-keyboard-response","121","140111","0.0-6.0-1.57","HEFI","1","f","rechts","55","","","self","j","0","true"
"null","<div style=""font-size:60px;"">+</div>","null","html-keyboard-response","122","140612","0.0-6.0-0.58","HEFI","1","f","rechts","55","","fixation","","","",""
"1768","img/0_270.png","70","image-keyboard-response","123","142381","0.0-6.0-1.58","HEFI","1","f","rechts","55","","","self","f","0","true"
"null","<div style=""font-size:60px;"">+</div>","null","html-keyboard-response","124","142682","0.0-6.0-0.59","HEFI","1","f","rechts","55","","fixation","","","",""
"1575","img/90_150.png","74","image-keyboard-response","125","144258","0.0-6.0-1.59","HEFI","1","f","rechts","55","","","self","f","90","false"
"null","<div style=""font-size:60px;"">+</div>","null","html-keyboard-response","126","144710","0.0-6.0-0.60","HEFI","1","f","rechts","55","","fixation","","","",""
"1770","img/90_300.png","70","image-keyboard-response","127","146481","0.0-6.0-1.60","HEFI","1","f","rechts","55","","","self","f","90","true"
"null","<div style=""font-size:60px;"">+</div>","null","html-keyboard-response","128","146833","0.0-6.0-0.61","HEFI","1","f","rechts","55","","fixation","","","",""
"2849","img/L90_180.png","70","image-keyboard-response","129","149682","0.0-6.0-1.61","HEFI","1","f","rechts","55","","","self","f","90","true"
"null","<div style=""font-size:60px;"">+</div>","null","html-keyboard-response","130","149984","0.0-6.0-0.62","HEFI","1","f","rechts","55","","fixation","","","",""
"1839","img/60_180.png","74","image-keyboard-response","131","151823","0.0-6.0-1.62","HEFI","1","f","rechts","55","","","self","j","60","true"
"null","<div style=""font-size:60px;"">+</div>","null","html-keyboard-response","132","152275","0.0-6.0-0.63","HEFI","1","f","rechts","55","","fixation","","","",""
"918","img/0_330.png","70","image-keyboard-response","133","153193","0.0-6.0-1.63","HEFI","1","f","rechts","55","","","self","f","0","true"
"null","<div style=""font-size:60px;"">+</div>","null","html-keyboard-response","134","153544","0.0-6.0-0.64","HEFI","1","f","rechts","55","","fixation","","","",""
"1777","img/120_210.png","74","image-keyboard-response","135","155322","0.0-6.0-1.64","HEFI","1","f","rechts","55","","","self","j","120","true"
"null","<div style=""font-size:60px;"">+</div>","null","html-keyboard-response","136","155724","0.0-6.0-0.65","HEFI","1","f","rechts","55","","fixation","","","",""
"1339","img/0_120.png","74","image-keyboard-response","137","157065","0.0-6.0-1.65","HEFI","1","f","rechts","55","","","self","j","0","true"
"null","<div style=""font-size:60px;"">+</div>","null","html-keyboard-response","138","157566","0.0-6.0-0.66","HEFI","1","f","rechts","55","","fixation","","","",""
"2035","img/120_30.png","70","image-keyboard-response","139","159602","0.0-6.0-1.66","HEFI","1","f","rechts","55","","","self","j","120","false"
"null","<div style=""font-size:60px;"">+</div>","null","html-keyboard-response","140","160103","0.0-6.0-0.67","HEFI","1","f","rechts","55","","fixation","","","",""
"1569","img/90_30.png","70","image-keyboard-response","141","161673","0.0-6.0-1.67","HEFI","1","f","rechts","55","","","self","j","90","false"
"null","<div style=""font-size:60px;"">+</div>","null","html-keyboard-response","142","161974","0.0-6.0-0.68","HEFI","1","f","rechts","55","","fixation","","","",""
"2425","img/L120_180.png","74","image-keyboard-response","143","164400","0.0-6.0-1.68","HEFI","1","f","rechts","55","","","self","f","120","false"
"null","<div style=""font-size:60px;"">+</div>","null","html-keyboard-response","144","164902","0.0-6.0-0.69","HEFI","1","f","rechts","55","","fixation","","","",""
"1924","img/L30_180.png","74","image-keyboard-response","145","166827","0.0-6.0-1.69","HEFI","1","f","rechts","55","","","self","f","30","false"
"null","<div style=""font-size:60px;"">+</div>","null","html-keyboard-response","146","167329","0.0-6.0-0.70","HEFI","1","f","rechts","55","","fixation","","","",""
"1569","img/90_180.png","74","image-keyboard-response","147","168900","0.0-6.0-1.70","HEFI","1","f","rechts","55","","","self","j","90","true"
"null","<div style=""font-size:60px;"">+</div>","null","html-keyboard-response","148","169401","0.0-6.0-0.71","HEFI","1","f","rechts","55","","fixation","","","",""
"2442","img/60_90.png","74","image-keyboard-response","149","171844","0.0-6.0-1.71","HEFI","1","f","rechts","55","","","self","j","60","true"
"null","<div style=""font-size:60px;"">+</div>","null","html-keyboard-response","150","172196","0.0-6.0-0.72","HEFI","1","f","rechts","55","","fixation","","","",""
"1431","img/0_240.png","70","image-keyboard-response","151","173628","0.0-6.0-1.72","HEFI","1","f","rechts","55","","","self","f","0","true"
"null","<div style=""font-size:60px;"">+</div>","null","html-keyboard-response","152","174130","0.0-6.0-0.73","HEFI","1","f","rechts","55","","fixation","","","",""
"1473","img/60_210.png","74","image-keyboard-response","153","175603","0.0-6.0-1.73","HEFI","1","f","rechts","55","","","self","j","60","true"
"null","<div style=""font-size:60px;"">+</div>","null","html-keyboard-response","154","176054","0.0-6.0-0.74","HEFI","1","f","rechts","55","","fixation","","","",""
"1090","img/0_30.png","74","image-keyboard-response","155","177144","0.0-6.0-1.74","HEFI","1","f","rechts","55","","","self","j","0","true"
"null","<div style=""font-size:60px;"">+</div>","null","html-keyboard-response","156","177446","0.0-6.0-0.75","HEFI","1","f","rechts","55","","fixation","","","",""
"1443","img/120_330.png","70","image-keyboard-response","157","178889","0.0-6.0-1.75","HEFI","1","f","rechts","55","","","self","f","120","true"
"null","<div style=""font-size:60px;"">+</div>","null","html-keyboard-response","158","179291","0.0-6.0-0.76","HEFI","1","f","rechts","55","","fixation","","","",""
"1623","img/150_300.png","74","image-keyboard-response","159","180914","0.0-6.0-1.76","HEFI","1","f","rechts","55","","","self","j","150","true"
"null","<div style=""font-size:60px;"">+</div>","null","html-keyboard-response","160","181366","0.0-6.0-0.77","HEFI","1","f","rechts","55","","fixation","","","",""
"1681","img/120_180.png","74","image-keyboard-response","161","183048","0.0-6.0-1.77","HEFI","1","f","rechts","55","","","self","j","120","true"
"null","<div style=""font-size:60px;"">+</div>","null","html-keyboard-response","162","183450","0.0-6.0-0.78","HEFI","1","f","rechts","55","","fixation","","","",""
"1865","img/60_150.png","74","image-keyboard-response","163","185315","0.0-6.0-1.78","HEFI","1","f","rechts","55","","","self","f","60","false"
"null","<div style=""font-size:60px;"">+</div>","null","html-keyboard-response","164","185767","0.0-6.0-0.79","HEFI","1","f","rechts","55","","fixation","","","",""
"1857","img/90_240.png","74","image-keyboard-response","165","187624","0.0-6.0-1.79","HEFI","1","f","rechts","55","","","self","j","90","true"
"null","<div style=""font-size:60px;"">+</div>","null","html-keyboard-response","166","188025","0.0-6.0-0.80","HEFI","1","f","rechts","55","","fixation","","","",""
"1615","img/150_60.png","70","image-keyboard-response","167","189641","0.0-6.0-1.80","HEFI","1","f","rechts","55","","","self","f","150","true"
"null","<div style=""font-size:60px;"">+</div>","null","html-keyboard-response","168","190093","0.0-6.0-0.81","HEFI","1","f","rechts","55","","fixation","","","",""
"1889","img/90_60.png","70","image-keyboard-response","169","191983","0.0-6.0-1.81","HEFI","1","f","rechts","55","","","self","j","90","false"
"null","<div style=""font-size:60px;"">+</div>","null","html-keyboard-response","170","192435","0.0-6.0-0.82","HEFI","1","f","rechts","55","","fixation","","","",""
"1622","img/150_90.png","74","image-keyboard-response","171","194057","0.0-6.0-1.82","HEFI","1","f","rechts","55","","","self","f","150","false"
"null","<div style=""font-size:60px;"">+</div>","null","html-keyboard-response","172","194559","0.0-6.0-0.83","HEFI","1","f","rechts","55","","fixation","","","",""
"1735","img/30_120.png","70","image-keyboard-response","173","196294","0.0-6.0-1.83","HEFI","1","f","rechts","55","","","self","j","30","false"
"null","<div style=""font-size:60px;"">+</div>","null","html-keyboard-response","174","196795","0.0-6.0-0.84","HEFI","1","f","rechts","55","","fixation","","","",""
"1564","img/120_90.png","74","image-keyboard-response","175","198360","0.0-6.0-1.84","HEFI","1","f","rechts","55","","","self","f","120","false"
"null","<div style=""font-size:60px;"">+</div>","null","html-keyboard-response","176","198861","0.0-6.0-0.85","HEFI","1","f","rechts","55","","fixation","","","",""
"1506","img/150_120.png","70","image-keyboard-response","177","200369","0.0-6.0-1.85","HEFI","1","f","rechts","55","","","self","f","150","true"
"null","<div style=""font-size:60px;"">+</div>","null","html-keyboard-response","178","200869","0.0-6.0-0.86","HEFI","1","f","rechts","55","","fixation","","","",""
"1835","img/150_240.png","74","image-keyboard-response","179","202706","0.0-6.0-1.86","HEFI","1","f","rechts","55","","","self","j","150","true"
"null","<div style=""font-size:60px;"">+</div>","null","html-keyboard-response","180","203057","0.0-6.0-0.87","HEFI","1","f","rechts","55","","fixation","","","",""
"1379","img/30_270.png","70","image-keyboard-response","181","204438","0.0-6.0-1.87","HEFI","1","f","rechts","55","","","self","f","30","true"
"null","<div style=""font-size:60px;"">+</div>","null","html-keyboard-response","182","204739","0.0-6.0-0.88","HEFI","1","f","rechts","55","","fixation","","","",""
"1158","img/0_300.png","70","image-keyboard-response","183","205899","0.0-6.0-1.88","HEFI","1","f","rechts","55","","","self","f","0","true"
"null","<div style=""font-size:60px;"">+</div>","null","html-keyboard-response","184","206350","0.0-6.0-0.89","HEFI","1","f","rechts","55","","fixation","","","",""
"1287","img/150_180.png","74","image-keyboard-response","185","207639","0.0-6.0-1.89","HEFI","1","f","rechts","55","","","self","j","150","true"
"null","<div style=""font-size:60px;"">+</div>","null","html-keyboard-response","186","208090","0.0-6.0-0.90","HEFI","1","f","rechts","55","","fixation","","","",""
"1150","img/30_60.png","70","image-keyboard-response","187","209241","0.0-6.0-1.90","HEFI","1","f","rechts","55","","","self","j","30","false"
"null","<div style=""font-size:60px;"">+</div>","null","html-keyboard-response","188","209743","0.0-6.0-0.91","HEFI","1","f","rechts","55","","fixation","","","",""
"1648","img/60_30.png","70","image-keyboard-response","189","211393","0.0-6.0-1.91","HEFI","1","f","rechts","55","","","self","j","60","false"
"null","<div style=""font-size:60px;"">+</div>","null","html-keyboard-response","190","211894","0.0-6.0-0.92","HEFI","1","f","rechts","55","","fixation","","","",""
"1710","img/30_240.png","74","image-keyboard-response","191","213605","0.0-6.0-1.92","HEFI","1","f","rechts","55","","","self","f","30","false"
"null","<div style=""font-size:60px;"">+</div>","null","html-keyboard-response","192","214006","0.0-6.0-0.93","HEFI","1","f","rechts","55","","fixation","","","",""
"1901","img/60_270.png","70","image-keyboard-response","193","215908","0.0-6.0-1.93","HEFI","1","f","rechts","55","","","self","f","60","true"
"null","<div style=""font-size:60px;"">+</div>","null","html-keyboard-response","194","216209","0.0-6.0-0.94","HEFI","1","f","rechts","55","","fixation","","","",""
"1459","img/90_330.png","74","image-keyboard-response","195","217669","0.0-6.0-1.94","HEFI","1","f","rechts","55","","","self","f","90","false"
"null","<div style=""font-size:60px;"">+</div>","null","html-keyboard-response","196","218071","0.0-6.0-0.95","HEFI","1","f","rechts","55","","fixation","","","",""
"1683","img/60_330.png","70","image-keyboard-response","197","219755","0.0-6.0-1.95","HEFI","1","f","rechts","55","","","self","f","60","true"
"null","<div style=""font-size:60px;"">+</div>","null","html-keyboard-response","198","220257","0.0-6.0-0.96","HEFI","1","f","rechts","55","","fixation","","","",""
"1459","img/150_270.png","74","image-keyboard-response","199","221717","0.0-6.0-1.96","HEFI","1","f","rechts","55","","","self","j","150","true"
"null","<div style=""font-size:60px;"">+</div>","null","html-keyboard-response","200","222118","0.0-6.0-0.97","HEFI","1","f","rechts","55","","fixation","","","",""
"1386","img/120_150.png","70","image-keyboard-response","201","223505","0.0-6.0-1.97","HEFI","1","f","rechts","55","","","self","f","120","true"
"null","<div style=""font-size:60px;"">+</div>","null","html-keyboard-response","202","224007","0.0-6.0-0.98","HEFI","1","f","rechts","55","","fixation","","","",""
"953","img/0_210.png","70","image-keyboard-response","203","224961","0.0-6.0-1.98","HEFI","1","f","rechts","55","","","self","f","0","true"
"null","<div style=""font-size:60px;"">+</div>","null","html-keyboard-response","204","225363","0.0-6.0-0.99","HEFI","1","f","rechts","55","","fixation","","","",""
"1925","img/90_120.png","70","image-keyboard-response","205","227289","0.0-6.0-1.99","HEFI","1","f","rechts","55","","","self","f","90","true"
"null","<div style=""font-size:60px;"">+</div>","null","html-keyboard-response","206","227591","0.0-6.0-0.100","HEFI","1","f","rechts","55","","fixation","","","",""
"1598","img/30_180.png","74","image-keyboard-response","207","229190","0.0-6.0-1.100","HEFI","1","f","rechts","55","","","self","j","30","true"
"null","<div style=""font-size:60px;"">+</div>","null","html-keyboard-response","208","229592","0.0-6.0-0.101","HEFI","1","f","rechts","55","","fixation","","","",""
"1515","img/L60_180.png","70","image-keyboard-response","209","231107","0.0-6.0-1.101","HEFI","1","f","rechts","55","","","self","f","60","true"
"null","<div style=""font-size:60px;"">+</div>","null","html-keyboard-response","210","231458","0.0-6.0-0.102","HEFI","1","f","rechts","55","","fixation","","","",""
"1942","img/30_300.png","70","image-keyboard-response","211","233401","0.0-6.0-1.102","HEFI","1","f","rechts","55","","","self","f","30","true"
"null","<div style=""font-size:60px;"">+</div>","null","html-keyboard-response","212","233902","0.0-6.0-0.103","HEFI","1","f","rechts","55","","fixation","","","",""
"769","img/0_150.png","74","image-keyboard-response","213","234671","0.0-6.0-1.103","HEFI","1","f","rechts","55","","","self","j","0","true"
"null","<div style=""font-size:60px;"">+</div>","null","html-keyboard-response","214","235073","0.0-6.0-0.104","HEFI","1","f","rechts","55","","fixation","","","",""
"1393","img/120_180.png","70","image-keyboard-response","215","236467","0.0-6.0-1.104","HEFI","1","f","rechts","55","","","self","j","120","false"
"null","<div style=""font-size:60px;"">+</div>","null","html-keyboard-response","216","236819","0.0-6.0-0.105","HEFI","1","f","rechts","55","","fixation","","","",""
"1428","img/60_30.png","70","image-keyboard-response","217","238247","0.0-6.0-1.105","HEFI","1","f","rechts","55","","","self","j","60","false"
"null","<div style=""font-size:60px;"">+</div>","null","html-keyboard-response","218","238649","0.0-6.0-0.106","HEFI","1","f","rechts","55","","fixation","","","",""
"1299","img/30_270.png","74","image-keyboard-response","219","239948","0.0-6.0-1.106","HEFI","1","f","rechts","55","","","self","f","30","false"
"null","<div style=""font-size:60px;"">+</div>","null","html-keyboard-response","220","240349","0.0-6.0-0.107","HEFI","1","f","rechts","55","","fixation","","","",""
"913","img/0_240.png","70","image-keyboard-response","221","241263","0.0-6.0-1.107","HEFI","1","f","rechts","55","","","self","f","0","true"
"null","<div style=""font-size:60px;"">+</div>","null","html-keyboard-response","222","241615","0.0-6.0-0.108","HEFI","1","f","rechts","55","","fixation","","","",""
"1276","img/30_120.png","74","image-keyboard-response","223","242892","0.0-6.0-1.108","HEFI","1","f","rechts","55","","","self","j","30","true"
"null","<div style=""font-size:60px;"">+</div>","null","html-keyboard-response","224","243294","0.0-6.0-0.109","HEFI","1","f","rechts","55","","fixation","","","",""
"2013","img/150_300.png","74","image-keyboard-response","225","245307","0.0-6.0-1.109","HEFI","1","f","rechts","55","","","self","j","150","true"
"null","<div style=""font-size:60px;"">+</div>","null","html-keyboard-response","226","245659","0.0-6.0-0.110","HEFI","1","f","rechts","55","","fixation","","","",""
"1686","img/150_120.png","74","image-keyboard-response","227","247345","0.0-6.0-1.110","HEFI","1","f","rechts","55","","","self","f","150","false"
"null","<div style=""font-size:60px;"">+</div>","null","html-keyboard-response","228","247646","0.0-6.0-0.111","HEFI","1","f","rechts","55","","fixation","","","",""
"1297","img/L120_180.png","70","image-keyboard-response","229","248945","0.0-6.0-1.111","HEFI","1","f","rechts","55","","","self","f","120","true"
"null","<div style=""font-size:60px;"">+</div>","null","html-keyboard-response","230","249346","0.0-6.0-0.112","HEFI","1","f","rechts","55","","fixation","","","",""
"1598","img/120_90.png","70","image-keyboard-response","231","250945","0.0-6.0-1.112","HEFI","1","f","rechts","55","","","self","f","120","true"
"null","<div style=""font-size:60px;"">+</div>","null","html-keyboard-response","232","251396","0.0-6.0-0.113","HEFI","1","f","rechts","55","","fixation","","","",""
"1362","img/120_270.png","74","image-keyboard-response","233","252759","0.0-6.0-1.113","HEFI","1","f","rechts","55","","","self","j","120","true"
"null","<div style=""font-size:60px;"">+</div>","null","html-keyboard-response","234","253210","0.0-6.0-0.114","HEFI","1","f","rechts","55","","fixation","","","",""
"964","img/0_60.png","74","image-keyboard-response","235","254175","0.0-6.0-1.114","HEFI","1","f","rechts","55","","","self","j","0","true"
"null","<div style=""font-size:60px;"">+</div>","null","html-keyboard-response","236","254527","0.0-6.0-0.115","HEFI","1","f","rechts","55","","fixation","","","",""
"1370","img/90_30.png","70","image-keyboard-response","237","255898","0.0-6.0-1.115","HEFI","1","f","rechts","55","","","self","j","90","false"
"null","<div style=""font-size:60px;"">+</div>","null","html-keyboard-response","238","256400","0.0-6.0-0.116","HEFI","1","f","rechts","55","","fixation","","","",""
"926","img/0_300.png","70","image-keyboard-response","239","257327","0.0-6.0-1.116","HEFI","1","f","rechts","55","","","self","f","0","true"
"null","<div style=""font-size:60px;"">+</div>","null","html-keyboard-response","240","257679","0.0-6.0-0.117","HEFI","1","f","rechts","55","","fixation","","","",""
"1562","img/150_240.png","74","image-keyboard-response","241","259242","0.0-6.0-1.117","HEFI","1","f","rechts","55","","","self","j","150","true"
"null","<div style=""font-size:60px;"">+</div>","null","html-keyboard-response","242","259594","0.0-6.0-0.118","HEFI","1","f","rechts","55","","fixation","","","",""
"2002","img/120_150.png","74","image-keyboard-response","243","261597","0.0-6.0-1.118","HEFI","1","f","rechts","55","","","self","f","120","false"
"null","<div style=""font-size:60px;"">+</div>","null","html-keyboard-response","244","262099","0.0-6.0-0.119","HEFI","1","f","rechts","55","","fixation","","","",""
"1576","img/90_150.png","74","image-keyboard-response","245","263676","0.0-6.0-1.119","HEFI","1","f","rechts","55","","","self","f","90","false"
"null","<div style=""font-size:60px;"">+</div>","null","html-keyboard-response","246","263978","0.0-6.0-0.120","HEFI","1","f","rechts","55","","fixation","","","",""
"1467","img/120_330.png","70","image-keyboard-response","247","265446","0.0-6.0-1.120","HEFI","1","f","rechts","55","","","self","f","120","true"
"null","<div style=""font-size:60px;"">+</div>","null","html-keyboard-response","248","265798","0.0-6.0-0.121","HEFI","1","f","rechts","55","","fixation","","","",""
"1142","img/0_330.png","70","image-keyboard-response","249","266941","0.0-6.0-1.121","HEFI","1","f","rechts","55","","","self","f","0","true"
"null","<div style=""font-size:60px;"">+</div>","null","html-keyboard-response","250","267243","0.0-6.0-0.122","HEFI","1","f","rechts","55","","fixation","","","",""
"989","img/0_270.png","70","image-keyboard-response","251","268233","0.0-6.0-1.122","HEFI","1","f","rechts","55","","","self","f","0","true"
"null","<div style=""font-size:60px;"">+</div>","null","html-keyboard-response","252","268585","0.0-6.0-0.123","HEFI","1","f","rechts","55","","fixation","","","",""
"1658","img/60_270.png","70","image-keyboard-response","253","270244","0.0-6.0-1.123","HEFI","1","f","rechts","55","","","self","f","60","true"
"null","<div style=""font-size:60px;"">+</div>","null","html-keyboard-response","254","270646","0.0-6.0-0.124","HEFI","1","f","rechts","55","","fixation","","","",""
"1310","img/90_300.png","70","image-keyboard-response","255","271957","0.0-6.0-1.124","HEFI","1","f","rechts","55","","","self","f","90","true"
"null","<div style=""font-size:60px;"">+</div>","null","html-keyboard-response","256","272259","0.0-6.0-0.125","HEFI","1","f","rechts","55","","fixation","","","",""
"990","img/0_150.png","74","image-keyboard-response","257","273250","0.0-6.0-1.125","HEFI","1","f","rechts","55","","","self","j","0","true"
"null","<div style=""font-size:60px;"">+</div>","null","html-keyboard-response","258","273601","0.0-6.0-0.126","HEFI","1","f","rechts","55","","fixation","","","",""
"1287","img/0_210.png","70","image-keyboard-response","259","274889","0.0-6.0-1.126","HEFI","1","f","rechts","55","","","self","f","0","true"
"null","<div style=""font-size:60px;"">+</div>","null","html-keyboard-response","260","275341","0.0-6.0-0.127","HEFI","1","f","rechts","55","","fixation","","","",""
"1305","img/150_180.png","74","image-keyboard-response","261","276646","0.0-6.0-1.127","HEFI","1","f","rechts","55","","","self","j","150","true"
"null","<div style=""font-size:60px;"">+</div>","null","html-keyboard-response","262","276997","0.0-6.0-0.128","HEFI","1","f","rechts","55","","fixation","","","",""
"1353","img/30_240.png","70","image-keyboard-response","263","278351","0.0-6.0-1.128","HEFI","1","f","rechts","55","","","self","f","30","true"
"null","<div style=""font-size:60px;"">+</div>","null","html-keyboard-response","264","278853","0.0-6.0-0.129","HEFI","1","f","rechts","55","","fixation","","","",""
"939","img/0_90.png","74","image-keyboard-response","265","279792","0.0-6.0-1.129","HEFI","1","f","rechts","55","","","self","j","0","true"
"null","<div style=""font-size:60px;"">+</div>","null","html-keyboard-response","266","280244","0.0-6.0-0.130","HEFI","1","f","rechts","55","","fixation","","","",""
"1375","img/30_180.png","74","image-keyboard-response","267","281620","0.0-6.0-1.130","HEFI","1","f","rechts","55","","","self","j","30","true"
"null","<div style=""font-size:60px;"">+</div>","null","html-keyboard-response","268","282121","0.0-6.0-0.131","HEFI","1","f","rechts","55","","fixation","","","",""
"1786","img/60_330.png","70","image-keyboard-response","269","283908","0.0-6.0-1.131","HEFI","1","f","rechts","55","","","self","f","60","true"
"null","<div style=""font-size:60px;"">+</div>","null","html-keyboard-response","270","284210","0.0-6.0-0.132","HEFI","1","f","rechts","55","","fixation","","","",""
"1336","img/30_300.png","70","image-keyboard-response","271","285546","0.0-6.0-1.132","HEFI","1","f","rechts","55","","","self","f","30","true"
"null","<div style=""font-size:60px;"">+</div>","null","html-keyboard-response","272","286048","0.0-6.0-0.133","HEFI","1","f","rechts","55","","fixation","","","",""
"1390","img/90_120.png","74","image-keyboard-response","273","287438","0.0-6.0-1.133","HEFI","1","f","rechts","55","","","self","f","90","false"
"null","<div style=""font-size:60px;"">+</div>","null","html-keyboard-response","274","287890","0.0-6.0-0.134","HEFI","1","f","rechts","55","","fixation","","","",""
"1597","img/L90_180.png","74","image-keyboard-response","275","289488","0.0-6.0-1.134","HEFI","1","f","rechts","55","","","self","f","90","false"
"null","<div style=""font-size:60px;"">+</div>","null","html-keyboard-response","276","289840","0.0-6.0-0.135","HEFI","1","f","rechts","55","","fixation","","","",""
"1748","img/L150_180.png","74","image-keyboard-response","277","291588","0.0-6.0-1.135","HEFI","1","f","rechts","55","","","self","f","150","false"
"null","<div style=""font-size:60px;"">+</div>","null","html-keyboard-response","278","291939","0.0-6.0-0.136","HEFI","1","f","rechts","55","","fixation","","","",""
"1810","img/150_90.png","74","image-keyboard-response","279","293749","0.0-6.0-1.136","HEFI","1","f","rechts","55","","","self","f","150","false"
"null","<div style=""font-size:60px;"">+</div>","null","html-keyboard-response","280","294251","0.0-6.0-0.137","HEFI","1","f","rechts","55","","fixation","","","",""
"1561","img/60_150.png","70","image-keyboard-response","281","295812","0.0-6.0-1.137","HEFI","1","f","rechts","55","","","self","f","60","true"
"null","<div style=""font-size:60px;"">+</div>","null","html-keyboard-response","282","296214","0.0-6.0-0.138","HEFI","1","f","rechts","55","","fixation","","","",""
"1911","img/90_330.png","70","image-keyboard-response","283","298127","0.0-6.0-1.138","HEFI","1","f","rechts","55","","","self","f","90","true"
"null","<div style=""font-size:60px;"">+</div>","null","html-keyboard-response","284","298628","0.0-6.0-0.139","HEFI","1","f","rechts","55","","fixation","","","",""
"2052","img/150_270.png","74","image-keyboard-response","285","300681","0.0-6.0-1.139","HEFI","1","f","rechts","55","","","self","j","150","true"
"null","<div style=""font-size:60px;"">+</div>","null","html-keyboard-response","286","301132","0.0-6.0-0.140","HEFI","1","f","rechts","55","","fixation","","","",""
"1886","img/L30_180.png","70","image-keyboard-response","287","303020","0.0-6.0-1.140","HEFI","1","f","rechts","55","","","self","f","30","true"
"null","<div style=""font-size:60px;"">+</div>","null","html-keyboard-response","288","303371","0.0-6.0-0.141","HEFI","1","f","rechts","55","","fixation","","","",""
"1440","img/30_60.png","74","image-keyboard-response","289","304812","0.0-6.0-1.141","HEFI","1","f","rechts","55","","","self","j","30","true"
"null","<div style=""font-size:60px;"">+</div>","null","html-keyboard-response","290","305114","0.0-6.0-0.142","HEFI","1","f","rechts","55","","fixation","","","",""
"1362","img/0_120.png","74","image-keyboard-response","291","306478","0.0-6.0-1.142","HEFI","1","f","rechts","55","","","self","j","0","true"
"null","<div style=""font-size:60px;"">+</div>","null","html-keyboard-response","292","306779","0.0-6.0-0.143","HEFI","1","f","rechts","55","","fixation","","","",""
"1325","img/90_180.png","70","image-keyboard-response","293","308106","0.0-6.0-1.143","HEFI","1","f","rechts","55","","","self","j","90","false"
"null","<div style=""font-size:60px;"">+</div>","null","html-keyboard-response","294","308557","0.0-6.0-0.144","HEFI","1","f","rechts","55","","fixation","","","",""
"1350","img/60_90.png","74","image-keyboard-response","295","309909","0.0-6.0-1.144","HEFI","1","f","rechts","55","","","self","j","60","true"
"null","<div style=""font-size:60px;"">+</div>","null","html-keyboard-response","296","310209","0.0-6.0-0.145","HEFI","1","f","rechts","55","","fixation","","","",""
"1678","img/90_60.png","74","image-keyboard-response","297","311889","0.0-6.0-1.145","HEFI","1","f","rechts","55","","","self","j","90","true"
"null","<div style=""font-size:60px;"">+</div>","null","html-keyboard-response","298","312291","0.0-6.0-0.146","HEFI","1","f","rechts","55","","fixation","","","",""
"1238","img/0_30.png","74","image-keyboard-response","299","313529","0.0-6.0-1.146","HEFI","1","f","rechts","55","","","self","j","0","true"
"null","<div style=""font-size:60px;"">+</div>","null","html-keyboard-response","300","313831","0.0-6.0-0.147","HEFI","1","f","rechts","55","","fixation","","","",""
"1318","img/60_210.png","70","image-keyboard-response","301","315150","0.0-6.0-1.147","HEFI","1","f","rechts","55","","","self","j","60","false"
"null","<div style=""font-size:60px;"">+</div>","null","html-keyboard-response","302","315602","0.0-6.0-0.148","HEFI","1","f","rechts","55","","fixation","","","",""
"1402","img/90_210.png","74","image-keyboard-response","303","317005","0.0-6.0-1.148","HEFI","1","f","rechts","55","","","self","j","90","true"
"null","<div style=""font-size:60px;"">+</div>","null","html-keyboard-response","304","317307","0.0-6.0-0.149","HEFI","1","f","rechts","55","","fixation","","","",""
"1329","img/90_240.png","74","image-keyboard-response","305","318637","0.0-6.0-1.149","HEFI","1","f","rechts","55","","","self","j","90","true"
"null","<div style=""font-size:60px;"">+</div>","null","html-keyboard-response","306","318938","0.0-6.0-0.150","HEFI","1","f","rechts","55","","fixation","","","",""
"1324","img/60_180.png","74","image-keyboard-response","307","320263","0.0-6.0-1.150","HEFI","1","f","rechts","55","","","self","j","60","true"
"null","<div style=""font-size:60px;"">+</div>","null","html-keyboard-response","308","320665","0.0-6.0-0.151","HEFI","1","f","rechts","55","","fixation","","","",""
"1762","img/120_30.png","74","image-keyboard-response","309","322428","0.0-6.0-1.151","HEFI","1","f","rechts","55","","","self","j","120","true"
"null","<div style=""font-size:60px;"">+</div>","null","html-keyboard-response","310","322930","0.0-6.0-0.152","HEFI","1","f","rechts","55","","fixation","","","",""
"1234","img/L60_180.png","74","image-keyboard-response","311","324165","0.0-6.0-1.152","HEFI","1","f","rechts","55","","","self","f","60","false"
"null","<div style=""font-size:60px;"">+</div>","null","html-keyboard-response","312","324617","0.0-6.0-0.153","HEFI","1","f","rechts","55","","fixation","","","",""
"1532","img/150_60.png","70","image-keyboard-response","313","326150","0.0-6.0-1.153","HEFI","1","f","rechts","55","","","self","f","150","true"
"null","<div style=""font-size:60px;"">+</div>","null","html-keyboard-response","314","326452","0.0-6.0-0.154","HEFI","1","f","rechts","55","","fixation","","","",""
"1667","img/30_90.png","70","image-keyboard-response","315","328119","0.0-6.0-1.154","HEFI","1","f","rechts","55","","","self","j","30","false"
"null","<div style=""font-size:60px;"">+</div>","null","html-keyboard-response","316","328421","0.0-6.0-0.155","HEFI","1","f","rechts","55","","fixation","","","",""
"1322","img/120_210.png","74","image-keyboard-response","317","329744","0.0-6.0-1.155","HEFI","1","f","rechts","55","","","self","j","120","true"
"null","<div style=""font-size:60px;"">+</div>","null","html-keyboard-response","318","330046","0.0-6.0-0.156","HEFI","1","f","rechts","55","","fixation","","","",""
"1355","img/120_210.png","74","image-keyboard-response","319","331401","0.0-6.0-1.156","HEFI","1","f","rechts","55","","","self","j","120","true"
"null","<div style=""font-size:60px;"">+</div>","null","html-keyboard-response","320","331803","0.0-6.0-0.157","HEFI","1","f","rechts","55","","fixation","","","",""
"1460","img/60_90.png","70","image-keyboard-response","321","333264","0.0-6.0-1.157","HEFI","1","f","rechts","55","","","self","j","60","false"
"null","<div style=""font-size:60px;"">+</div>","null","html-keyboard-response","322","333716","0.0-6.0-0.158","HEFI","1","f","rechts","55","","fixation","","","",""
"1675","img/L120_180.png","74","image-keyboard-response","323","335391","0.0-6.0-1.158","HEFI","1","f","rechts","55","","","self","f","120","false"
"null","<div style=""font-size:60px;"">+</div>","null","html-keyboard-response","324","335793","0.0-6.0-0.159","HEFI","1","f","rechts","55","","fixation","","","",""
"1787","img/90_150.png","70","image-keyboard-response","325","337580","0.0-6.0-1.159","HEFI","1","f","rechts","55","","","self","f","90","true"
"null","<div style=""font-size:60px;"">+</div>","null","html-keyboard-response","326","337981","0.0-6.0-0.160","HEFI","1","f","rechts","55","","fixation","","","",""
"1588","img/L90_180.png","74","image-keyboard-response","327","339570","0.0-6.0-1.160","HEFI","1","f","rechts","55","","","self","f","90","false"
"null","<div style=""font-size:60px;"">+</div>","null","html-keyboard-response","328","339972","0.0-6.0-0.161","HEFI","1","f","rechts","55","","fixation","","","",""
"1884","img/90_210.png","74","image-keyboard-response","329","341856","0.0-6.0-1.161","HEFI","1","f","rechts","55","","","self","j","90","true"
"null","<div style=""font-size:60px;"">+</div>","null","html-keyboard-response","330","342307","0.0-6.0-0.162","HEFI","1","f","rechts","55","","fixation","","","",""
"1385","img/60_30.png","74","image-keyboard-response","331","343694","0.0-6.0-1.162","HEFI","1","f","rechts","55","","","self","j","60","true"
"null","<div style=""font-size:60px;"">+</div>","null","html-keyboard-response","332","344096","0.0-6.0-0.163","HEFI","1","f","rechts","55","","fixation","","","",""
"1371","img/90_240.png","74","image-keyboard-response","333","345468","0.0-6.0-1.163","HEFI","1","f","rechts","55","","","self","j","90","true"
"null","<div style=""font-size:60px;"">+</div>","null","html-keyboard-response","334","345820","0.0-6.0-0.164","HEFI","1","f","rechts","55","","fixation","","","",""
"1588","img/30_120.png","74","image-keyboard-response","335","347408","0.0-6.0-1.164","HEFI","1","f","rechts","55","","","self","j","30","true"
"null","<div style=""font-size:60px;"">+</div>","null","html-keyboard-response","336","347810","0.0-6.0-0.165","HEFI","1","f","rechts","55","","fixation","","","",""
"1680","img/120_270.png","74","image-keyboard-response","337","349490","0.0-6.0-1.165","HEFI","1","f","rechts","55","","","self","j","120","true"
"null","<div style=""font-size:60px;"">+</div>","null","html-keyboard-response","338","349792","0.0-6.0-0.166","HEFI","1","f","rechts","55","","fixation","","","",""
"1667","img/L30_180.png","74","image-keyboard-response","339","351459","0.0-6.0-1.166","HEFI","1","f","rechts","55","","","self","f","30","false"
"null","<div style=""font-size:60px;"">+</div>","null","html-keyboard-response","340","351860","0.0-6.0-0.167","HEFI","1","f","rechts","55","","fixation","","","",""
"1331","img/90_300.png","70","image-keyboard-response","341","353193","0.0-6.0-1.167","HEFI","1","f","rechts","55","","","self","f","90","true"
"null","<div style=""font-size:60px;"">+</div>","null","html-keyboard-response","342","353494","0.0-6.0-0.168","HEFI","1","f","rechts","55","","fixation","","","",""
"1398","img/60_270.png","74","image-keyboard-response","343","354893","0.0-6.0-1.168","HEFI","1","f","rechts","55","","","self","f","60","false"
"null","<div style=""font-size:60px;"">+</div>","null","html-keyboard-response","344","355295","0.0-6.0-0.169","HEFI","1","f","rechts","55","","fixation","","","",""
"883","img/0_240.png","70","image-keyboard-response","345","356180","0.0-6.0-1.169","HEFI","1","f","rechts","55","","","self","f","0","true"
"null","<div style=""font-size:60px;"">+</div>","null","html-keyboard-response","346","356681","0.0-6.0-0.170","HEFI","1","f","rechts","55","","fixation","","","",""
"1546","img/90_60.png","70","image-keyboard-response","347","358228","0.0-6.0-1.170","HEFI","1","f","rechts","55","","","self","j","90","false"
"null","<div style=""font-size:60px;"">+</div>","null","html-keyboard-response","348","358730","0.0-6.0-0.171","HEFI","1","f","rechts","55","","fixation","","","",""
"749","img/0_120.png","74","image-keyboard-response","349","359480","0.0-6.0-1.171","HEFI","1","f","rechts","55","","","self","j","0","true"
"null","<div style=""font-size:60px;"">+</div>","null","html-keyboard-response","350","359831","0.0-6.0-0.172","HEFI","1","f","rechts","55","","fixation","","","",""
"897","img/0_330.png","70","image-keyboard-response","351","360729","0.0-6.0-1.172","HEFI","1","f","rechts","55","","","self","f","0","true"
"null","<div style=""font-size:60px;"">+</div>","null","html-keyboard-response","352","361131","0.0-6.0-0.173","HEFI","1","f","rechts","55","","fixation","","","",""
"1355","img/90_330.png","70","image-keyboard-response","353","362488","0.0-6.0-1.173","HEFI","1","f","rechts","55","","","self","f","90","true"
"null","<div style=""font-size:60px;"">+</div>","null","html-keyboard-response","354","362839","0.0-6.0-0.174","HEFI","1","f","rechts","55","","fixation","","","",""
"1780","img/150_60.png","70","image-keyboard-response","355","364620","0.0-6.0-1.174","HEFI","1","f","rechts","55","","","self","f","150","true"
"null","<div style=""font-size:60px;"">+</div>","null","html-keyboard-response","356","364922","0.0-6.0-0.175","HEFI","1","f","rechts","55","","fixation","","","",""
"1091","img/90_30.png","74","image-keyboard-response","357","366014","0.0-6.0-1.175","HEFI","1","f","rechts","55","","","self","j","90","true"
"null","<div style=""font-size:60px;"">+</div>","null","html-keyboard-response","358","366466","0.0-6.0-0.176","HEFI","1","f","rechts","55","","fixation","","","",""
"1335","img/L60_180.png","70","image-keyboard-response","359","367802","0.0-6.0-1.176","HEFI","1","f","rechts","55","","","self","f","60","true"
"null","<div style=""font-size:60px;"">+</div>","null","html-keyboard-response","360","368104","0.0-6.0-0.177","HEFI","1","f","rechts","55","","fixation","","","",""
"1311","img/120_180.png","74","image-keyboard-response","361","369416","0.0-6.0-1.177","HEFI","1","f","rechts","55","","","self","j","120","true"
"null","<div style=""font-size:60px;"">+</div>","null","html-keyboard-response","362","369768","0.0-6.0-0.178","HEFI","1","f","rechts","55","","fixation","","","",""
"1530","img/60_210.png","74","image-keyboard-response","363","371300","0.0-6.0-1.178","HEFI","1","f","rechts","55","","","self","j","60","true"
"null","<div style=""font-size:60px;"">+</div>","null","html-keyboard-response","364","371601","0.0-6.0-0.179","HEFI","1","f","rechts","55","","fixation","","","",""
"1543","img/150_300.png","70","image-keyboard-response","365","373145","0.0-6.0-1.179","HEFI","1","f","rechts","55","","","self","j","150","false"
"null","<div style=""font-size:60px;"">+</div>","null","html-keyboard-response","366","373597","0.0-6.0-0.180","HEFI","1","f","rechts","55","","fixation","","","",""
"1630","img/0_270.png","70","image-keyboard-response","367","375228","0.0-6.0-1.180","HEFI","1","f","rechts","55","","","self","f","0","true"
"null","<div style=""font-size:60px;"">+</div>","null","html-keyboard-response","368","375730","0.0-6.0-0.181","HEFI","1","f","rechts","55","","fixation","","","",""
"741","img/0_60.png","74","image-keyboard-response","369","376472","0.0-6.0-1.181","HEFI","1","f","rechts","55","","","self","j","0","true"
"null","<div style=""font-size:60px;"">+</div>","null","html-keyboard-response","370","376824","0.0-6.0-0.182","HEFI","1","f","rechts","55","","fixation","","","",""
"1404","img/120_30.png","70","image-keyboard-response","371","378228","0.0-6.0-1.182","HEFI","1","f","rechts","55","","","self","j","120","false"
"null","<div style=""font-size:60px;"">+</div>","null","html-keyboard-response","372","378730","0.0-6.0-0.183","HEFI","1","f","rechts","55","","fixation","","","",""
"1346","img/30_90.png","74","image-keyboard-response","373","380076","0.0-6.0-1.183","HEFI","1","f","rechts","55","","","self","j","30","true"
"null","<div style=""font-size:60px;"">+</div>","null","html-keyboard-response","374","380428","0.0-6.0-0.184","HEFI","1","f","rechts","55","","fixation","","","",""
"1339","img/60_150.png","74","image-keyboard-response","375","381768","0.0-6.0-1.184","HEFI","1","f","rechts","55","","","self","f","60","false"
"null","<div style=""font-size:60px;"">+</div>","null","html-keyboard-response","376","382220","0.0-6.0-0.185","HEFI","1","f","rechts","55","","fixation","","","",""
"1113","img/90_120.png","70","image-keyboard-response","377","383334","0.0-6.0-1.185","HEFI","1","f","rechts","55","","","self","f","90","true"
"null","<div style=""font-size:60px;"">+</div>","null","html-keyboard-response","378","383836","0.0-6.0-0.186","HEFI","1","f","rechts","55","","fixation","","","",""
"745","img/0_150.png","74","image-keyboard-response","379","384582","0.0-6.0-1.186","HEFI","1","f","rechts","55","","","self","j","0","true"
"null","<div style=""font-size:60px;"">+</div>","null","html-keyboard-response","380","384934","0.0-6.0-0.187","HEFI","1","f","rechts","55","","fixation","","","",""
"1065","img/0_30.png","74","image-keyboard-response","381","386000","0.0-6.0-1.187","HEFI","1","f","rechts","55","","","self","j","0","true"
"null","<div style=""font-size:60px;"">+</div>","null","html-keyboard-response","382","386502","0.0-6.0-0.188","HEFI","1","f","rechts","55","","fixation","","","",""
"1206","img/120_330.png","70","image-keyboard-response","383","387708","0.0-6.0-1.188","HEFI","1","f","rechts","55","","","self","f","120","true"
"null","<div style=""font-size:60px;"">+</div>","null","html-keyboard-response","384","388160","0.0-6.0-0.189","HEFI","1","f","rechts","55","","fixation","","","",""
"1304","img/60_330.png","74","image-keyboard-response","385","389464","0.0-6.0-1.189","HEFI","1","f","rechts","55","","","self","f","60","false"
"null","<div style=""font-size:60px;"">+</div>","null","html-keyboard-response","386","389765","0.0-6.0-0.190","HEFI","1","f","rechts","55","","fixation","","","",""
"1172","img/150_180.png","74","image-keyboard-response","387","390938","0.0-6.0-1.190","HEFI","1","f","rechts","55","","","self","j","150","true"
"null","<div style=""font-size:60px;"">+</div>","null","html-keyboard-response","388","391290","0.0-6.0-0.191","HEFI","1","f","rechts","55","","fixation","","","",""
"1114","img/60_180.png","74","image-keyboard-response","389","392404","0.0-6.0-1.191","HEFI","1","f","rechts","55","","","self","j","60","true"
"null","<div style=""font-size:60px;"">+</div>","null","html-keyboard-response","390","392806","0.0-6.0-0.192","HEFI","1","f","rechts","55","","fixation","","","",""
"1400","img/30_180.png","74","image-keyboard-response","391","394206","0.0-6.0-1.192","HEFI","1","f","rechts","55","","","self","j","30","true"
"null","<div style=""font-size:60px;"">+</div>","null","html-keyboard-response","392","394508","0.0-6.0-0.193","HEFI","1","f","rechts","55","","fixation","","","",""
"1067","img/0_90.png","74","image-keyboard-response","393","395575","0.0-6.0-1.193","HEFI","1","f","rechts","55","","","self","j","0","true"
"null","<div style=""font-size:60px;"">+</div>","null","html-keyboard-response","394","396077","0.0-6.0-0.194","HEFI","1","f","rechts","55","","fixation","","","",""
"1204","img/150_120.png","70","image-keyboard-response","395","397282","0.0-6.0-1.194","HEFI","1","f","rechts","55","","","self","f","150","true"
"null","<div style=""font-size:60px;"">+</div>","null","html-keyboard-response","396","397684","0.0-6.0-0.195","HEFI","1","f","rechts","55","","fixation","","","",""
"1200","img/0_210.png","70","image-keyboard-response","397","398884","0.0-6.0-1.195","HEFI","1","f","rechts","55","","","self","f","0","true"
"null","<div style=""font-size:60px;"">+</div>","null","html-keyboard-response","398","399335","0.0-6.0-0.196","HEFI","1","f","rechts","55","","fixation","","","",""
"1235","img/90_180.png","74","image-keyboard-response","399","400572","0.0-6.0-1.196","HEFI","1","f","rechts","55","","","self","j","90","true"
"null","<div style=""font-size:60px;"">+</div>","null","html-keyboard-response","400","401073","0.0-6.0-0.197","HEFI","1","f","rechts","55","","fixation","","","",""
"1175","img/L150_180.png","70","image-keyboard-response","401","402249","0.0-6.0-1.197","HEFI","1","f","rechts","55","","","self","f","150","true"
"null","<div style=""font-size:60px;"">+</div>","null","html-keyboard-response","402","402551","0.0-6.0-0.198","HEFI","1","f","rechts","55","","fixation","","","",""
"1357","img/120_150.png","74","image-keyboard-response","403","403910","0.0-6.0-1.198","HEFI","1","f","rechts","55","","","self","f","120","false"
"null","<div style=""font-size:60px;"">+</div>","null","html-keyboard-response","404","404361","0.0-6.0-0.199","HEFI","1","f","rechts","55","","fixation","","","",""
"1510","img/30_300.png","74","image-keyboard-response","405","405872","0.0-6.0-1.199","HEFI","1","f","rechts","55","","","self","f","30","false"
"null","<div style=""font-size:60px;"">+</div>","null","html-keyboard-response","406","406224","0.0-6.0-0.200","HEFI","1","f","rechts","55","","fixation","","","",""
"918","img/0_300.png","70","image-keyboard-response","407","407144","0.0-6.0-1.200","HEFI","1","f","rechts","55","","","self","f","0","true"
"null","<div style=""font-size:60px;"">+</div>","null","html-keyboard-response","408","407445","0.0-6.0-0.201","HEFI","1","f","rechts","55","","fixation","","","",""
"1547","img/150_90.png","70","image-keyboard-response","409","408994","0.0-6.0-1.201","HEFI","1","f","rechts","55","","","self","f","150","true"
"null","<div style=""font-size:60px;"">+</div>","null","html-keyboard-response","410","409445","0.0-6.0-0.202","HEFI","1","f","rechts","55","","fixation","","","",""
"1369","img/30_60.png","74","image-keyboard-response","411","410816","0.0-6.0-1.202","HEFI","1","f","rechts","55","","","self","j","30","true"
"null","<div style=""font-size:60px;"">+</div>","null","html-keyboard-response","412","411267","0.0-6.0-0.203","HEFI","1","f","rechts","55","","fixation","","","",""
"1699","img/150_240.png","74","image-keyboard-response","413","412968","0.0-6.0-1.203","HEFI","1","f","rechts","55","","","self","j","150","true"
"null","<div style=""font-size:60px;"">+</div>","null","html-keyboard-response","414","413369","0.0-6.0-0.204","HEFI","1","f","rechts","55","","fixation","","","",""
"1362","img/30_270.png","70","image-keyboard-response","415","414732","0.0-6.0-1.204","HEFI","1","f","rechts","55","","","self","f","30","true"
"null","<div style=""font-size:60px;"">+</div>","null","html-keyboard-response","416","415134","0.0-6.0-0.205","HEFI","1","f","rechts","55","","fixation","","","",""
"1331","img/120_90.png","70","image-keyboard-response","417","416467","0.0-6.0-1.205","HEFI","1","f","rechts","55","","","self","f","120","true"
"null","<div style=""font-size:60px;"">+</div>","null","html-keyboard-response","418","416918","0.0-6.0-0.206","HEFI","1","f","rechts","55","","fixation","","","",""
"1562","img/30_240.png","74","image-keyboard-response","419","418481","0.0-6.0-1.206","HEFI","1","f","rechts","55","","","self","f","30","false"
"null","<div style=""font-size:60px;"">+</div>","null","html-keyboard-response","420","418783","0.0-6.0-0.207","HEFI","1","f","rechts","55","","fixation","","","",""
"1338","img/150_270.png","74","image-keyboard-response","421","420122","0.0-6.0-1.207","HEFI","1","f","rechts","55","","","self","j","150","true"
"135580","<p>Du hast in 70% der Versuche korrekt entschieden.</p><p>Deine durchschnittliche Reaktionszeit war  1444ms.</p><p>Dr&uuml;cke eine beliebige Taste, um die Session zu beenden. Vielen Dank!</p>","72","html-keyboard-response","422","555705","0.0-7.0","HEFI","1","f","rechts","55","","","","","",""
