"rt","stimulus","key_press","trial_type","trial_index","time_elapsed","internal_node_id","subject","session","sex","handedness","age","responses","test_part","condition","correct_response","angle","correct"
"941","<p>Mental Rotation Experiment.</p> <p>Dr&uuml;cke eine beliebige Taste, um anzufangen.</p>","72","html-keyboard-response","0","943","0.0-0.0","HEFI","4","f","rechts","55","","","","","",""
"13549","","","survey-text","1","14495","0.0-1.0","HEFI","4","f","rechts","55","{""Q0"":""HEFI""}","","","","",""
"2076","","","survey-text","2","16571","0.0-2.0","HEFI","4","f","rechts","55","{""Q0"":""4""}","","","","",""
"4609","","","survey-multi-choice","3","21184","0.0-3.0","HEFI","4","f","rechts","55","{""Q0"":""f"",""Q1"":""rechts""}","","","","",""
"2520","","","survey-text","4","23705","0.0-4.0","HEFI","4","f","rechts","55","{""Q0"":""55""}","","","","",""
"24985","<p> Stell dir vor, dass du vor einem runden Tisch stehst, auf dem sich ein blauer Ball am Tischrand befindet. Entlang des Tischrands ist jeweils ein verschieden langer Pfeil. Nun bewegst du dich entlang dieses Pfeils bis an seine Spitze. Wenn du am Ende des Pfeils angekommen bist, schau zur Tischmitte. </p> <img src='img/90_180.png'></img> <br> <p>Entscheide dann, ob der Ball von deiner neuen (vorgestellten) Position links oder rechts von dir liegt.</p> <p>Dr&uuml;cke die <strong>'f'</strong>-Taste f&uuml;r links, die <strong>'j'</strong>-Taste f&uuml;r rechts.</p> <br><p> Das Bild wird jeweils 1 Sekunde lang pr&auml;sentiert. Du hast 3 Sekunden Zeit eine Entscheidung zu treffen.</p>","16","html-keyboard-response","5","48692","0.0-5.0","HEFI","4","f","rechts","55","","","","","",""
"null","<div style=""font-size:60px;"">+</div>","null","html-keyboard-response","6","50195","0.0-6.0-0.0","HEFI","4","f","rechts","55","","fixation","","","",""
"100","img/30_90.png","74","image-keyboard-response","7","50297","0.0-6.0-1.0","HEFI","4","f","rechts","55","","","self","j","30","true"
"null","<div style=""font-size:60px;"">+</div>","null","html-keyboard-response","8","50698","0.0-6.0-0.1","HEFI","4","f","rechts","55","","fixation","","","",""
"698","img/30_240.png","70","image-keyboard-response","9","51398","0.0-6.0-1.1","HEFI","4","f","rechts","55","","","self","f","30","true"
"null","<div style=""font-size:60px;"">+</div>","null","html-keyboard-response","10","51899","0.0-6.0-0.2","HEFI","4","f","rechts","55","","fixation","","","",""
"637","img/60_180.png","74","image-keyboard-response","11","52538","0.0-6.0-1.2","HEFI","4","f","rechts","55","","","self","j","60","true"
"null","<div style=""font-size:60px;"">+</div>","null","html-keyboard-response","12","52989","0.0-6.0-0.3","HEFI","4","f","rechts","55","","fixation","","","",""
"780","img/0_210.png","70","image-keyboard-response","13","53771","0.0-6.0-1.3","HEFI","4","f","rechts","55","","","self","f","0","true"
"null","<div style=""font-size:60px;"">+</div>","null","html-keyboard-response","14","54072","0.0-6.0-0.4","HEFI","4","f","rechts","55","","fixation","","","",""
"730","img/30_180.png","74","image-keyboard-response","15","54804","0.0-6.0-1.4","HEFI","4","f","rechts","55","","","self","j","30","true"
"null","<div style=""font-size:60px;"">+</div>","null","html-keyboard-response","16","55305","0.0-6.0-0.5","HEFI","4","f","rechts","55","","fixation","","","",""
"1119","img/L90_180.png","70","image-keyboard-response","17","56426","0.0-6.0-1.5","HEFI","4","f","rechts","55","","","self","f","90","true"
"null","<div style=""font-size:60px;"">+</div>","null","html-keyboard-response","18","56927","0.0-6.0-0.6","HEFI","4","f","rechts","55","","fixation","","","",""
"971","img/150_180.png","74","image-keyboard-response","19","57899","0.0-6.0-1.6","HEFI","4","f","rechts","55","","","self","j","150","true"
"null","<div style=""font-size:60px;"">+</div>","null","html-keyboard-response","20","58301","0.0-6.0-0.7","HEFI","4","f","rechts","55","","fixation","","","",""
"1302","img/60_150.png","70","image-keyboard-response","21","59605","0.0-6.0-1.7","HEFI","4","f","rechts","55","","","self","f","60","true"
"null","<div style=""font-size:60px;"">+</div>","null","html-keyboard-response","22","60005","0.0-6.0-0.8","HEFI","4","f","rechts","55","","fixation","","","",""
"1459","img/60_30.png","70","image-keyboard-response","23","61465","0.0-6.0-1.8","HEFI","4","f","rechts","55","","","self","j","60","false"
"null","<div style=""font-size:60px;"">+</div>","null","html-keyboard-response","24","61767","0.0-6.0-0.9","HEFI","4","f","rechts","55","","fixation","","","",""
"732","img/L150_180.png","74","image-keyboard-response","25","62500","0.0-6.0-1.9","HEFI","4","f","rechts","55","","","self","f","150","false"
"null","<div style=""font-size:60px;"">+</div>","null","html-keyboard-response","26","63002","0.0-6.0-0.10","HEFI","4","f","rechts","55","","fixation","","","",""
"720","img/0_120.png","74","image-keyboard-response","27","63723","0.0-6.0-1.10","HEFI","4","f","rechts","55","","","self","j","0","true"
"null","<div style=""font-size:60px;"">+</div>","null","html-keyboard-response","28","64225","0.0-6.0-0.11","HEFI","4","f","rechts","55","","fixation","","","",""
"1312","img/30_300.png","70","image-keyboard-response","29","65538","0.0-6.0-1.11","HEFI","4","f","rechts","55","","","self","f","30","true"
"null","<div style=""font-size:60px;"">+</div>","null","html-keyboard-response","30","65840","0.0-6.0-0.12","HEFI","4","f","rechts","55","","fixation","","","",""
"982","img/120_150.png","74","image-keyboard-response","31","66823","0.0-6.0-1.12","HEFI","4","f","rechts","55","","","self","f","120","false"
"null","<div style=""font-size:60px;"">+</div>","null","html-keyboard-response","32","67175","0.0-6.0-0.13","HEFI","4","f","rechts","55","","fixation","","","",""
"1131","img/150_90.png","74","image-keyboard-response","33","68307","0.0-6.0-1.13","HEFI","4","f","rechts","55","","","self","f","150","false"
"null","<div style=""font-size:60px;"">+</div>","null","html-keyboard-response","34","68659","0.0-6.0-0.14","HEFI","4","f","rechts","55","","fixation","","","",""
"1270","img/90_300.png","70","image-keyboard-response","35","69930","0.0-6.0-1.14","HEFI","4","f","rechts","55","","","self","f","90","true"
"null","<div style=""font-size:60px;"">+</div>","null","html-keyboard-response","36","70432","0.0-6.0-0.15","HEFI","4","f","rechts","55","","fixation","","","",""
"1257","img/60_270.png","70","image-keyboard-response","37","71690","0.0-6.0-1.15","HEFI","4","f","rechts","55","","","self","f","60","true"
"null","<div style=""font-size:60px;"">+</div>","null","html-keyboard-response","38","72092","0.0-6.0-0.16","HEFI","4","f","rechts","55","","fixation","","","",""
"1212","img/90_150.png","74","image-keyboard-response","39","73305","0.0-6.0-1.16","HEFI","4","f","rechts","55","","","self","f","90","false"
"null","<div style=""font-size:60px;"">+</div>","null","html-keyboard-response","40","73757","0.0-6.0-0.17","HEFI","4","f","rechts","55","","fixation","","","",""
"746","img/0_270.png","70","image-keyboard-response","41","74503","0.0-6.0-1.17","HEFI","4","f","rechts","55","","","self","f","0","true"
"null","<div style=""font-size:60px;"">+</div>","null","html-keyboard-response","42","74905","0.0-6.0-0.18","HEFI","4","f","rechts","55","","fixation","","","",""
"894","img/150_300.png","74","image-keyboard-response","43","75800","0.0-6.0-1.18","HEFI","4","f","rechts","55","","","self","j","150","true"
"null","<div style=""font-size:60px;"">+</div>","null","html-keyboard-response","44","76302","0.0-6.0-0.19","HEFI","4","f","rechts","55","","fixation","","","",""
"778","img/0_30.png","74","image-keyboard-response","45","77081","0.0-6.0-1.19","HEFI","4","f","rechts","55","","","self","j","0","true"
"null","<div style=""font-size:60px;"">+</div>","null","html-keyboard-response","46","77583","0.0-6.0-0.20","HEFI","4","f","rechts","55","","fixation","","","",""
"896","img/90_120.png","70","image-keyboard-response","47","78480","0.0-6.0-1.20","HEFI","4","f","rechts","55","","","self","f","90","true"
"null","<div style=""font-size:60px;"">+</div>","null","html-keyboard-response","48","78782","0.0-6.0-0.21","HEFI","4","f","rechts","55","","fixation","","","",""
"1270","img/90_330.png","74","image-keyboard-response","49","80053","0.0-6.0-1.21","HEFI","4","f","rechts","55","","","self","f","90","false"
"null","<div style=""font-size:60px;"">+</div>","null","html-keyboard-response","50","80355","0.0-6.0-0.22","HEFI","4","f","rechts","55","","fixation","","","",""
"822","img/120_330.png","70","image-keyboard-response","51","81178","0.0-6.0-1.22","HEFI","4","f","rechts","55","","","self","f","120","true"
"null","<div style=""font-size:60px;"">+</div>","null","html-keyboard-response","52","81630","0.0-6.0-0.23","HEFI","4","f","rechts","55","","fixation","","","",""
"1225","img/90_180.png","74","image-keyboard-response","53","82855","0.0-6.0-1.23","HEFI","4","f","rechts","55","","","self","j","90","true"
"null","<div style=""font-size:60px;"">+</div>","null","html-keyboard-response","54","83357","0.0-6.0-0.24","HEFI","4","f","rechts","55","","fixation","","","",""
"974","img/0_330.png","70","image-keyboard-response","55","84331","0.0-6.0-1.24","HEFI","4","f","rechts","55","","","self","f","0","true"
"null","<div style=""font-size:60px;"">+</div>","null","html-keyboard-response","56","84783","0.0-6.0-0.25","HEFI","4","f","rechts","55","","fixation","","","",""
"1086","img/L60_180.png","74","image-keyboard-response","57","85869","0.0-6.0-1.25","HEFI","4","f","rechts","55","","","self","f","60","false"
"null","<div style=""font-size:60px;"">+</div>","null","html-keyboard-response","58","86170","0.0-6.0-0.26","HEFI","4","f","rechts","55","","fixation","","","",""
"1101","img/120_30.png","70","image-keyboard-response","59","87272","0.0-6.0-1.26","HEFI","4","f","rechts","55","","","self","j","120","false"
"null","<div style=""font-size:60px;"">+</div>","null","html-keyboard-response","60","87723","0.0-6.0-0.27","HEFI","4","f","rechts","55","","fixation","","","",""
"938","img/60_210.png","74","image-keyboard-response","61","88662","0.0-6.0-1.27","HEFI","4","f","rechts","55","","","self","j","60","true"
"null","<div style=""font-size:60px;"">+</div>","null","html-keyboard-response","62","89014","0.0-6.0-0.28","HEFI","4","f","rechts","55","","fixation","","","",""
"1081","img/30_60.png","70","image-keyboard-response","63","90095","0.0-6.0-1.28","HEFI","4","f","rechts","55","","","self","j","30","false"
"null","<div style=""font-size:60px;"">+</div>","null","html-keyboard-response","64","90447","0.0-6.0-0.29","HEFI","4","f","rechts","55","","fixation","","","",""
"1071","img/30_120.png","70","image-keyboard-response","65","91518","0.0-6.0-1.29","HEFI","4","f","rechts","55","","","self","j","30","false"
"null","<div style=""font-size:60px;"">+</div>","null","html-keyboard-response","66","91970","0.0-6.0-0.30","HEFI","4","f","rechts","55","","fixation","","","",""
"938","img/120_210.png","74","image-keyboard-response","67","92910","0.0-6.0-1.30","HEFI","4","f","rechts","55","","","self","j","120","true"
"null","<div style=""font-size:60px;"">+</div>","null","html-keyboard-response","68","93411","0.0-6.0-0.31","HEFI","4","f","rechts","55","","fixation","","","",""
"872","img/150_120.png","74","image-keyboard-response","69","94284","0.0-6.0-1.31","HEFI","4","f","rechts","55","","","self","f","150","false"
"null","<div style=""font-size:60px;"">+</div>","null","html-keyboard-response","70","94735","0.0-6.0-0.32","HEFI","4","f","rechts","55","","fixation","","","",""
"907","img/90_30.png","70","image-keyboard-response","71","95644","0.0-6.0-1.32","HEFI","4","f","rechts","55","","","self","j","90","false"
"null","<div style=""font-size:60px;"">+</div>","null","html-keyboard-response","72","96095","0.0-6.0-0.33","HEFI","4","f","rechts","55","","fixation","","","",""
"791","img/90_240.png","74","image-keyboard-response","73","96888","0.0-6.0-1.33","HEFI","4","f","rechts","55","","","self","j","90","true"
"null","<div style=""font-size:60px;"">+</div>","null","html-keyboard-response","74","97239","0.0-6.0-0.34","HEFI","4","f","rechts","55","","fixation","","","",""
"677","img/150_60.png","74","image-keyboard-response","75","97918","0.0-6.0-1.34","HEFI","4","f","rechts","55","","","self","f","150","false"
"null","<div style=""font-size:60px;"">+</div>","null","html-keyboard-response","76","98219","0.0-6.0-0.35","HEFI","4","f","rechts","55","","fixation","","","",""
"1389","img/30_270.png","70","image-keyboard-response","77","99610","0.0-6.0-1.35","HEFI","4","f","rechts","55","","","self","f","30","true"
"null","<div style=""font-size:60px;"">+</div>","null","html-keyboard-response","78","100062","0.0-6.0-0.36","HEFI","4","f","rechts","55","","fixation","","","",""
"1068","img/120_270.png","74","image-keyboard-response","79","101131","0.0-6.0-1.36","HEFI","4","f","rechts","55","","","self","j","120","true"
"null","<div style=""font-size:60px;"">+</div>","null","html-keyboard-response","80","101632","0.0-6.0-0.37","HEFI","4","f","rechts","55","","fixation","","","",""
"828","img/120_180.png","74","image-keyboard-response","81","102462","0.0-6.0-1.37","HEFI","4","f","rechts","55","","","self","j","120","true"
"null","<div style=""font-size:60px;"">+</div>","null","html-keyboard-response","82","102913","0.0-6.0-0.38","HEFI","4","f","rechts","55","","fixation","","","",""
"903","img/120_90.png","70","image-keyboard-response","83","103818","0.0-6.0-1.38","HEFI","4","f","rechts","55","","","self","f","120","true"
"null","<div style=""font-size:60px;"">+</div>","null","html-keyboard-response","84","104169","0.0-6.0-0.39","HEFI","4","f","rechts","55","","fixation","","","",""
"968","img/L120_180.png","74","image-keyboard-response","85","105139","0.0-6.0-1.39","HEFI","4","f","rechts","55","","","self","f","120","false"
"null","<div style=""font-size:60px;"">+</div>","null","html-keyboard-response","86","105490","0.0-6.0-0.40","HEFI","4","f","rechts","55","","fixation","","","",""
"829","img/0_150.png","74","image-keyboard-response","87","106321","0.0-6.0-1.40","HEFI","4","f","rechts","55","","","self","j","0","true"
"null","<div style=""font-size:60px;"">+</div>","null","html-keyboard-response","88","106672","0.0-6.0-0.41","HEFI","4","f","rechts","55","","fixation","","","",""
"754","img/150_270.png","74","image-keyboard-response","89","107427","0.0-6.0-1.41","HEFI","4","f","rechts","55","","","self","j","150","true"
"null","<div style=""font-size:60px;"">+</div>","null","html-keyboard-response","90","107729","0.0-6.0-0.42","HEFI","4","f","rechts","55","","fixation","","","",""
"810","img/0_240.png","70","image-keyboard-response","91","108541","0.0-6.0-1.42","HEFI","4","f","rechts","55","","","self","f","0","true"
"null","<div style=""font-size:60px;"">+</div>","null","html-keyboard-response","92","109042","0.0-6.0-0.43","HEFI","4","f","rechts","55","","fixation","","","",""
"776","img/0_300.png","70","image-keyboard-response","93","109819","0.0-6.0-1.43","HEFI","4","f","rechts","55","","","self","f","0","true"
"null","<div style=""font-size:60px;"">+</div>","null","html-keyboard-response","94","110321","0.0-6.0-0.44","HEFI","4","f","rechts","55","","fixation","","","",""
"791","img/150_240.png","74","image-keyboard-response","95","111114","0.0-6.0-1.44","HEFI","4","f","rechts","55","","","self","j","150","true"
"null","<div style=""font-size:60px;"">+</div>","null","html-keyboard-response","96","111615","0.0-6.0-0.45","HEFI","4","f","rechts","55","","fixation","","","",""
"755","img/0_60.png","74","image-keyboard-response","97","112371","0.0-6.0-1.45","HEFI","4","f","rechts","55","","","self","j","0","true"
"null","<div style=""font-size:60px;"">+</div>","null","html-keyboard-response","98","112823","0.0-6.0-0.46","HEFI","4","f","rechts","55","","fixation","","","",""
"666","img/90_60.png","70","image-keyboard-response","99","113490","0.0-6.0-1.46","HEFI","4","f","rechts","55","","","self","j","90","false"
"null","<div style=""font-size:60px;"">+</div>","null","html-keyboard-response","100","113892","0.0-6.0-0.47","HEFI","4","f","rechts","55","","fixation","","","",""
"711","img/60_330.png","74","image-keyboard-response","101","114604","0.0-6.0-1.47","HEFI","4","f","rechts","55","","","self","f","60","false"
"null","<div style=""font-size:60px;"">+</div>","null","html-keyboard-response","102","115106","0.0-6.0-0.48","HEFI","4","f","rechts","55","","fixation","","","",""
"715","img/90_210.png","74","image-keyboard-response","103","115822","0.0-6.0-1.48","HEFI","4","f","rechts","55","","","self","j","90","true"
"null","<div style=""font-size:60px;"">+</div>","null","html-keyboard-response","104","116274","0.0-6.0-0.49","HEFI","4","f","rechts","55","","fixation","","","",""
"660","img/60_90.png","70","image-keyboard-response","105","116935","0.0-6.0-1.49","HEFI","4","f","rechts","55","","","self","j","60","false"
"null","<div style=""font-size:60px;"">+</div>","null","html-keyboard-response","106","117237","0.0-6.0-0.50","HEFI","4","f","rechts","55","","fixation","","","",""
"979","img/L30_180.png","70","image-keyboard-response","107","118217","0.0-6.0-1.50","HEFI","4","f","rechts","55","","","self","f","30","true"
"null","<div style=""font-size:60px;"">+</div>","null","html-keyboard-response","108","118669","0.0-6.0-0.51","HEFI","4","f","rechts","55","","fixation","","","",""
"551","img/0_90.png","74","image-keyboard-response","109","119220","0.0-6.0-1.51","HEFI","4","f","rechts","55","","","self","j","0","true"
"null","<div style=""font-size:60px;"">+</div>","null","html-keyboard-response","110","119622","0.0-6.0-0.52","HEFI","4","f","rechts","55","","fixation","","","",""
"861","img/30_180.png","74","image-keyboard-response","111","120484","0.0-6.0-1.52","HEFI","4","f","rechts","55","","","self","j","30","true"
"null","<div style=""font-size:60px;"">+</div>","null","html-keyboard-response","112","120986","0.0-6.0-0.53","HEFI","4","f","rechts","55","","fixation","","","",""
"801","img/0_30.png","74","image-keyboard-response","113","121788","0.0-6.0-1.53","HEFI","4","f","rechts","55","","","self","j","0","true"
"null","<div style=""font-size:60px;"">+</div>","null","html-keyboard-response","114","122290","0.0-6.0-0.54","HEFI","4","f","rechts","55","","fixation","","","",""
"823","img/90_240.png","74","image-keyboard-response","115","123113","0.0-6.0-1.54","HEFI","4","f","rechts","55","","","self","j","90","true"
"null","<div style=""font-size:60px;"">+</div>","null","html-keyboard-response","116","123415","0.0-6.0-0.55","HEFI","4","f","rechts","55","","fixation","","","",""
"658","img/120_210.png","74","image-keyboard-response","117","124073","0.0-6.0-1.55","HEFI","4","f","rechts","55","","","self","j","120","true"
"null","<div style=""font-size:60px;"">+</div>","null","html-keyboard-response","118","124475","0.0-6.0-0.56","HEFI","4","f","rechts","55","","fixation","","","",""
"1141","img/60_150.png","70","image-keyboard-response","119","125617","0.0-6.0-1.56","HEFI","4","f","rechts","55","","","self","f","60","true"
"null","<div style=""font-size:60px;"">+</div>","null","html-keyboard-response","120","125919","0.0-6.0-0.57","HEFI","4","f","rechts","55","","fixation","","","",""
"991","img/120_30.png","70","image-keyboard-response","121","126910","0.0-6.0-1.57","HEFI","4","f","rechts","55","","","self","j","120","false"
"null","<div style=""font-size:60px;"">+</div>","null","html-keyboard-response","122","127261","0.0-6.0-0.58","HEFI","4","f","rechts","55","","fixation","","","",""
"680","img/60_180.png","74","image-keyboard-response","123","127941","0.0-6.0-1.58","HEFI","4","f","rechts","55","","","self","j","60","true"
"null","<div style=""font-size:60px;"">+</div>","null","html-keyboard-response","124","128243","0.0-6.0-0.59","HEFI","4","f","rechts","55","","fixation","","","",""
"1114","img/150_240.png","74","image-keyboard-response","125","129357","0.0-6.0-1.59","HEFI","4","f","rechts","55","","","self","j","150","true"
"null","<div style=""font-size:60px;"">+</div>","null","html-keyboard-response","126","129759","0.0-6.0-0.60","HEFI","4","f","rechts","55","","fixation","","","",""
"1601","img/60_90.png","74","image-keyboard-response","127","131360","0.0-6.0-1.60","HEFI","4","f","rechts","55","","","self","j","60","true"
"null","<div style=""font-size:60px;"">+</div>","null","html-keyboard-response","128","131762","0.0-6.0-0.61","HEFI","4","f","rechts","55","","fixation","","","",""
"1267","img/30_60.png","74","image-keyboard-response","129","133029","0.0-6.0-1.61","HEFI","4","f","rechts","55","","","self","j","30","true"
"null","<div style=""font-size:60px;"">+</div>","null","html-keyboard-response","130","133481","0.0-6.0-0.62","HEFI","4","f","rechts","55","","fixation","","","",""
"907","img/120_150.png","70","image-keyboard-response","131","134388","0.0-6.0-1.62","HEFI","4","f","rechts","55","","","self","f","120","true"
"null","<div style=""font-size:60px;"">+</div>","null","html-keyboard-response","132","134789","0.0-6.0-0.63","HEFI","4","f","rechts","55","","fixation","","","",""
"690","img/0_60.png","74","image-keyboard-response","133","135480","0.0-6.0-1.63","HEFI","4","f","rechts","55","","","self","j","0","true"
"null","<div style=""font-size:60px;"">+</div>","null","html-keyboard-response","134","135832","0.0-6.0-0.64","HEFI","4","f","rechts","55","","fixation","","","",""
"1091","img/150_90.png","70","image-keyboard-response","135","136923","0.0-6.0-1.64","HEFI","4","f","rechts","55","","","self","f","150","true"
"null","<div style=""font-size:60px;"">+</div>","null","html-keyboard-response","136","137325","0.0-6.0-0.65","HEFI","4","f","rechts","55","","fixation","","","",""
"960","img/0_270.png","70","image-keyboard-response","137","138285","0.0-6.0-1.65","HEFI","4","f","rechts","55","","","self","f","0","true"
"null","<div style=""font-size:60px;"">+</div>","null","html-keyboard-response","138","138787","0.0-6.0-0.66","HEFI","4","f","rechts","55","","fixation","","","",""
"1092","img/90_150.png","70","image-keyboard-response","139","139879","0.0-6.0-1.66","HEFI","4","f","rechts","55","","","self","f","90","true"
"null","<div style=""font-size:60px;"">+</div>","null","html-keyboard-response","140","140281","0.0-6.0-0.67","HEFI","4","f","rechts","55","","fixation","","","",""
"1345","img/30_300.png","74","image-keyboard-response","141","141626","0.0-6.0-1.67","HEFI","4","f","rechts","55","","","self","f","30","false"
"null","<div style=""font-size:60px;"">+</div>","null","html-keyboard-response","142","142028","0.0-6.0-0.68","HEFI","4","f","rechts","55","","fixation","","","",""
"721","img/0_90.png","74","image-keyboard-response","143","142749","0.0-6.0-1.68","HEFI","4","f","rechts","55","","","self","j","0","true"
"null","<div style=""font-size:60px;"">+</div>","null","html-keyboard-response","144","143249","0.0-6.0-0.69","HEFI","4","f","rechts","55","","fixation","","","",""
"665","img/L60_180.png","70","image-keyboard-response","145","143915","0.0-6.0-1.69","HEFI","4","f","rechts","55","","","self","f","60","true"
"null","<div style=""font-size:60px;"">+</div>","null","html-keyboard-response","146","144267","0.0-6.0-0.70","HEFI","4","f","rechts","55","","fixation","","","",""
"786","img/0_300.png","70","image-keyboard-response","147","145053","0.0-6.0-1.70","HEFI","4","f","rechts","55","","","self","f","0","true"
"null","<div style=""font-size:60px;"">+</div>","null","html-keyboard-response","148","145554","0.0-6.0-0.71","HEFI","4","f","rechts","55","","fixation","","","",""
"931","img/30_120.png","74","image-keyboard-response","149","146486","0.0-6.0-1.71","HEFI","4","f","rechts","55","","","self","j","30","true"
"null","<div style=""font-size:60px;"">+</div>","null","html-keyboard-response","150","146987","0.0-6.0-0.72","HEFI","4","f","rechts","55","","fixation","","","",""
"1395","img/120_90.png","70","image-keyboard-response","151","148383","0.0-6.0-1.72","HEFI","4","f","rechts","55","","","self","f","120","true"
"null","<div style=""font-size:60px;"">+</div>","null","html-keyboard-response","152","148785","0.0-6.0-0.73","HEFI","4","f","rechts","55","","fixation","","","",""
"939","img/120_270.png","74","image-keyboard-response","153","149725","0.0-6.0-1.73","HEFI","4","f","rechts","55","","","self","j","120","true"
"null","<div style=""font-size:60px;"">+</div>","null","html-keyboard-response","154","150126","0.0-6.0-0.74","HEFI","4","f","rechts","55","","fixation","","","",""
"1076","img/30_90.png","70","image-keyboard-response","155","151203","0.0-6.0-1.74","HEFI","4","f","rechts","55","","","self","j","30","false"
"null","<div style=""font-size:60px;"">+</div>","null","html-keyboard-response","156","151505","0.0-6.0-0.75","HEFI","4","f","rechts","55","","fixation","","","",""
"1309","img/0_240.png","74","image-keyboard-response","157","152815","0.0-6.0-1.75","HEFI","4","f","rechts","55","","","self","f","0","false"
"null","<div style=""font-size:60px;"">+</div>","null","html-keyboard-response","158","153216","0.0-6.0-0.76","HEFI","4","f","rechts","55","","fixation","","","",""
"981","img/60_270.png","74","image-keyboard-response","159","154199","0.0-6.0-1.76","HEFI","4","f","rechts","55","","","self","f","60","false"
"null","<div style=""font-size:60px;"">+</div>","null","html-keyboard-response","160","154651","0.0-6.0-0.77","HEFI","4","f","rechts","55","","fixation","","","",""
"981","img/150_300.png","74","image-keyboard-response","161","155633","0.0-6.0-1.77","HEFI","4","f","rechts","55","","","self","j","150","true"
"null","<div style=""font-size:60px;"">+</div>","null","html-keyboard-response","162","156034","0.0-6.0-0.78","HEFI","4","f","rechts","55","","fixation","","","",""
"1008","img/L90_180.png","70","image-keyboard-response","163","157043","0.0-6.0-1.78","HEFI","4","f","rechts","55","","","self","f","90","true"
"null","<div style=""font-size:60px;"">+</div>","null","html-keyboard-response","164","157495","0.0-6.0-0.79","HEFI","4","f","rechts","55","","fixation","","","",""
"818","img/90_210.png","74","image-keyboard-response","165","158314","0.0-6.0-1.79","HEFI","4","f","rechts","55","","","self","j","90","true"
"null","<div style=""font-size:60px;"">+</div>","null","html-keyboard-response","166","158666","0.0-6.0-0.80","HEFI","4","f","rechts","55","","fixation","","","",""
"1066","img/150_60.png","74","image-keyboard-response","167","159733","0.0-6.0-1.80","HEFI","4","f","rechts","55","","","self","f","150","false"
"null","<div style=""font-size:60px;"">+</div>","null","html-keyboard-response","168","160235","0.0-6.0-0.81","HEFI","4","f","rechts","55","","fixation","","","",""
"917","img/150_180.png","74","image-keyboard-response","169","161152","0.0-6.0-1.81","HEFI","4","f","rechts","55","","","self","j","150","true"
"null","<div style=""font-size:60px;"">+</div>","null","html-keyboard-response","170","161554","0.0-6.0-0.82","HEFI","4","f","rechts","55","","fixation","","","",""
"1063","img/60_210.png","74","image-keyboard-response","171","162618","0.0-6.0-1.82","HEFI","4","f","rechts","55","","","self","j","60","true"
"null","<div style=""font-size:60px;"">+</div>","null","html-keyboard-response","172","163020","0.0-6.0-0.83","HEFI","4","f","rechts","55","","fixation","","","",""
"908","img/0_120.png","74","image-keyboard-response","173","163928","0.0-6.0-1.83","HEFI","4","f","rechts","55","","","self","j","0","true"
"null","<div style=""font-size:60px;"">+</div>","null","html-keyboard-response","174","164380","0.0-6.0-0.84","HEFI","4","f","rechts","55","","fixation","","","",""
"1077","img/150_270.png","74","image-keyboard-response","175","165457","0.0-6.0-1.84","HEFI","4","f","rechts","55","","","self","j","150","true"
"null","<div style=""font-size:60px;"">+</div>","null","html-keyboard-response","176","165909","0.0-6.0-0.85","HEFI","4","f","rechts","55","","fixation","","","",""
"976","img/90_300.png","70","image-keyboard-response","177","166885","0.0-6.0-1.85","HEFI","4","f","rechts","55","","","self","f","90","true"
"null","<div style=""font-size:60px;"">+</div>","null","html-keyboard-response","178","167337","0.0-6.0-0.86","HEFI","4","f","rechts","55","","fixation","","","",""
"648","img/0_330.png","70","image-keyboard-response","179","167985","0.0-6.0-1.86","HEFI","4","f","rechts","55","","","self","f","0","true"
"null","<div style=""font-size:60px;"">+</div>","null","html-keyboard-response","180","168487","0.0-6.0-0.87","HEFI","4","f","rechts","55","","fixation","","","",""
"722","img/120_180.png","74","image-keyboard-response","181","169209","0.0-6.0-1.87","HEFI","4","f","rechts","55","","","self","j","120","true"
"null","<div style=""font-size:60px;"">+</div>","null","html-keyboard-response","182","169561","0.0-6.0-0.88","HEFI","4","f","rechts","55","","fixation","","","",""
"1175","img/60_330.png","70","image-keyboard-response","183","170736","0.0-6.0-1.88","HEFI","4","f","rechts","55","","","self","f","60","true"
"null","<div style=""font-size:60px;"">+</div>","null","html-keyboard-response","184","171038","0.0-6.0-0.89","HEFI","4","f","rechts","55","","fixation","","","",""
"842","img/L120_180.png","74","image-keyboard-response","185","171881","0.0-6.0-1.89","HEFI","4","f","rechts","55","","","self","f","120","false"
"null","<div style=""font-size:60px;"">+</div>","null","html-keyboard-response","186","172333","0.0-6.0-0.90","HEFI","4","f","rechts","55","","fixation","","","",""
"798","img/0_210.png","70","image-keyboard-response","187","173131","0.0-6.0-1.90","HEFI","4","f","rechts","55","","","self","f","0","true"
"null","<div style=""font-size:60px;"">+</div>","null","html-keyboard-response","188","173432","0.0-6.0-0.91","HEFI","4","f","rechts","55","","fixation","","","",""
"1088","img/90_30.png","74","image-keyboard-response","189","174521","0.0-6.0-1.91","HEFI","4","f","rechts","55","","","self","j","90","true"
"null","<div style=""font-size:60px;"">+</div>","null","html-keyboard-response","190","175023","0.0-6.0-0.92","HEFI","4","f","rechts","55","","fixation","","","",""
"927","img/30_240.png","70","image-keyboard-response","191","175951","0.0-6.0-1.92","HEFI","4","f","rechts","55","","","self","f","30","true"
"null","<div style=""font-size:60px;"">+</div>","null","html-keyboard-response","192","176303","0.0-6.0-0.93","HEFI","4","f","rechts","55","","fixation","","","",""
"731","img/0_150.png","74","image-keyboard-response","193","177034","0.0-6.0-1.93","HEFI","4","f","rechts","55","","","self","j","0","true"
"null","<div style=""font-size:60px;"">+</div>","null","html-keyboard-response","194","177486","0.0-6.0-0.94","HEFI","4","f","rechts","55","","fixation","","","",""
"1085","img/90_180.png","74","image-keyboard-response","195","178572","0.0-6.0-1.94","HEFI","4","f","rechts","55","","","self","j","90","true"
"null","<div style=""font-size:60px;"">+</div>","null","html-keyboard-response","196","178874","0.0-6.0-0.95","HEFI","4","f","rechts","55","","fixation","","","",""
"885","img/120_330.png","70","image-keyboard-response","197","179761","0.0-6.0-1.95","HEFI","4","f","rechts","55","","","self","f","120","true"
"null","<div style=""font-size:60px;"">+</div>","null","html-keyboard-response","198","180112","0.0-6.0-0.96","HEFI","4","f","rechts","55","","fixation","","","",""
"988","img/90_120.png","70","image-keyboard-response","199","181101","0.0-6.0-1.96","HEFI","4","f","rechts","55","","","self","f","90","true"
"null","<div style=""font-size:60px;"">+</div>","null","html-keyboard-response","200","181403","0.0-6.0-0.97","HEFI","4","f","rechts","55","","fixation","","","",""
"908","img/90_330.png","74","image-keyboard-response","201","182311","0.0-6.0-1.97","HEFI","4","f","rechts","55","","","self","f","90","false"
"null","<div style=""font-size:60px;"">+</div>","null","html-keyboard-response","202","182613","0.0-6.0-0.98","HEFI","4","f","rechts","55","","fixation","","","",""
"1070","img/L30_180.png","70","image-keyboard-response","203","183683","0.0-6.0-1.98","HEFI","4","f","rechts","55","","","self","f","30","true"
"null","<div style=""font-size:60px;"">+</div>","null","html-keyboard-response","204","184135","0.0-6.0-0.99","HEFI","4","f","rechts","55","","fixation","","","",""
"1296","img/150_120.png","70","image-keyboard-response","205","185433","0.0-6.0-1.99","HEFI","4","f","rechts","55","","","self","f","150","true"
"null","<div style=""font-size:60px;"">+</div>","null","html-keyboard-response","206","185883","0.0-6.0-0.100","HEFI","4","f","rechts","55","","fixation","","","",""
"1309","img/90_60.png","70","image-keyboard-response","207","187194","0.0-6.0-1.100","HEFI","4","f","rechts","55","","","self","j","90","false"
"null","<div style=""font-size:60px;"">+</div>","null","html-keyboard-response","208","187645","0.0-6.0-0.101","HEFI","4","f","rechts","55","","fixation","","","",""
"878","img/60_30.png","70","image-keyboard-response","209","188524","0.0-6.0-1.101","HEFI","4","f","rechts","55","","","self","j","60","false"
"null","<div style=""font-size:60px;"">+</div>","null","html-keyboard-response","210","188975","0.0-6.0-0.102","HEFI","4","f","rechts","55","","fixation","","","",""
"640","img/L150_180.png","74","image-keyboard-response","211","189616","0.0-6.0-1.102","HEFI","4","f","rechts","55","","","self","f","150","false"
"null","<div style=""font-size:60px;"">+</div>","null","html-keyboard-response","212","189918","0.0-6.0-0.103","HEFI","4","f","rechts","55","","fixation","","","",""
"1051","img/30_270.png","74","image-keyboard-response","213","190969","0.0-6.0-1.103","HEFI","4","f","rechts","55","","","self","f","30","false"
"null","<div style=""font-size:60px;"">+</div>","null","html-keyboard-response","214","191271","0.0-6.0-0.104","HEFI","4","f","rechts","55","","fixation","","","",""
"930","img/120_270.png","70","image-keyboard-response","215","192202","0.0-6.0-1.104","HEFI","4","f","rechts","55","","","self","j","120","false"
"null","<div style=""font-size:60px;"">+</div>","null","html-keyboard-response","216","192554","0.0-6.0-0.105","HEFI","4","f","rechts","55","","fixation","","","",""
"938","img/L150_180.png","74","image-keyboard-response","217","193493","0.0-6.0-1.105","HEFI","4","f","rechts","55","","","self","f","150","false"
"null","<div style=""font-size:60px;"">+</div>","null","html-keyboard-response","218","193795","0.0-6.0-0.106","HEFI","4","f","rechts","55","","fixation","","","",""
"713","img/90_120.png","70","image-keyboard-response","219","194508","0.0-6.0-1.106","HEFI","4","f","rechts","55","","","self","f","90","true"
"null","<div style=""font-size:60px;"">+</div>","null","html-keyboard-response","220","194960","0.0-6.0-0.107","HEFI","4","f","rechts","55","","fixation","","","",""
"798","img/0_270.png","70","image-keyboard-response","221","195758","0.0-6.0-1.107","HEFI","4","f","rechts","55","","","self","f","0","true"
"null","<div style=""font-size:60px;"">+</div>","null","html-keyboard-response","222","196110","0.0-6.0-0.108","HEFI","4","f","rechts","55","","fixation","","","",""
"885","img/150_60.png","70","image-keyboard-response","223","196997","0.0-6.0-1.108","HEFI","4","f","rechts","55","","","self","f","150","true"
"null","<div style=""font-size:60px;"">+</div>","null","html-keyboard-response","224","197398","0.0-6.0-0.109","HEFI","4","f","rechts","55","","fixation","","","",""
"820","img/90_300.png","74","image-keyboard-response","225","198220","0.0-6.0-1.109","HEFI","4","f","rechts","55","","","self","f","90","false"
"null","<div style=""font-size:60px;"">+</div>","null","html-keyboard-response","226","198720","0.0-6.0-0.110","HEFI","4","f","rechts","55","","fixation","","","",""
"844","img/0_210.png","70","image-keyboard-response","227","199565","0.0-6.0-1.110","HEFI","4","f","rechts","55","","","self","f","0","true"
"null","<div style=""font-size:60px;"">+</div>","null","html-keyboard-response","228","199916","0.0-6.0-0.111","HEFI","4","f","rechts","55","","fixation","","","",""
"1009","img/150_120.png","70","image-keyboard-response","229","200926","0.0-6.0-1.111","HEFI","4","f","rechts","55","","","self","f","150","true"
"null","<div style=""font-size:60px;"">+</div>","null","html-keyboard-response","230","201378","0.0-6.0-0.112","HEFI","4","f","rechts","55","","fixation","","","",""
"761","img/90_60.png","74","image-keyboard-response","231","202139","0.0-6.0-1.112","HEFI","4","f","rechts","55","","","self","j","90","true"
"null","<div style=""font-size:60px;"">+</div>","null","html-keyboard-response","232","202490","0.0-6.0-0.113","HEFI","4","f","rechts","55","","fixation","","","",""
"739","img/L60_180.png","70","image-keyboard-response","233","203231","0.0-6.0-1.113","HEFI","4","f","rechts","55","","","self","f","60","true"
"null","<div style=""font-size:60px;"">+</div>","null","html-keyboard-response","234","203532","0.0-6.0-0.114","HEFI","4","f","rechts","55","","fixation","","","",""
"1063","img/60_270.png","70","image-keyboard-response","235","204596","0.0-6.0-1.114","HEFI","4","f","rechts","55","","","self","f","60","true"
"null","<div style=""font-size:60px;"">+</div>","null","html-keyboard-response","236","204948","0.0-6.0-0.115","HEFI","4","f","rechts","55","","fixation","","","",""
"881","img/30_270.png","74","image-keyboard-response","237","205830","0.0-6.0-1.115","HEFI","4","f","rechts","55","","","self","f","30","false"
"null","<div style=""font-size:60px;"">+</div>","null","html-keyboard-response","238","206181","0.0-6.0-0.116","HEFI","4","f","rechts","55","","fixation","","","",""
"1187","img/30_90.png","74","image-keyboard-response","239","207369","0.0-6.0-1.116","HEFI","4","f","rechts","55","","","self","j","30","true"
"null","<div style=""font-size:60px;"">+</div>","null","html-keyboard-response","240","207771","0.0-6.0-0.117","HEFI","4","f","rechts","55","","fixation","","","",""
"1153","img/0_90.png","70","image-keyboard-response","241","208924","0.0-6.0-1.117","HEFI","4","f","rechts","55","","","self","j","0","false"
"null","<div style=""font-size:60px;"">+</div>","null","html-keyboard-response","242","209426","0.0-6.0-0.118","HEFI","4","f","rechts","55","","fixation","","","",""
"653","img/120_90.png","74","image-keyboard-response","243","210079","0.0-6.0-1.118","HEFI","4","f","rechts","55","","","self","f","120","false"
"null","<div style=""font-size:60px;"">+</div>","null","html-keyboard-response","244","210481","0.0-6.0-0.119","HEFI","4","f","rechts","55","","fixation","","","",""
"707","img/150_90.png","74","image-keyboard-response","245","211188","0.0-6.0-1.119","HEFI","4","f","rechts","55","","","self","f","150","false"
"null","<div style=""font-size:60px;"">+</div>","null","html-keyboard-response","246","211490","0.0-6.0-0.120","HEFI","4","f","rechts","55","","fixation","","","",""
"1048","img/60_330.png","70","image-keyboard-response","247","212538","0.0-6.0-1.120","HEFI","4","f","rechts","55","","","self","f","60","true"
"null","<div style=""font-size:60px;"">+</div>","null","html-keyboard-response","248","212940","0.0-6.0-0.121","HEFI","4","f","rechts","55","","fixation","","","",""
"712","img/30_120.png","70","image-keyboard-response","249","213652","0.0-6.0-1.121","HEFI","4","f","rechts","55","","","self","j","30","false"
"null","<div style=""font-size:60px;"">+</div>","null","html-keyboard-response","250","214154","0.0-6.0-0.122","HEFI","4","f","rechts","55","","fixation","","","",""
"609","img/30_240.png","74","image-keyboard-response","251","214763","0.0-6.0-1.122","HEFI","4","f","rechts","55","","","self","f","30","false"
"null","<div style=""font-size:60px;"">+</div>","null","html-keyboard-response","252","215064","0.0-6.0-0.123","HEFI","4","f","rechts","55","","fixation","","","",""
"634","img/L120_180.png","70","image-keyboard-response","253","215699","0.0-6.0-1.123","HEFI","4","f","rechts","55","","","self","f","120","true"
"null","<div style=""font-size:60px;"">+</div>","null","html-keyboard-response","254","216051","0.0-6.0-0.124","HEFI","4","f","rechts","55","","fixation","","","",""
"577","img/90_330.png","74","image-keyboard-response","255","216628","0.0-6.0-1.124","HEFI","4","f","rechts","55","","","self","f","90","false"
"null","<div style=""font-size:60px;"">+</div>","null","html-keyboard-response","256","217029","0.0-6.0-0.125","HEFI","4","f","rechts","55","","fixation","","","",""
"867","img/90_180.png","74","image-keyboard-response","257","217897","0.0-6.0-1.125","HEFI","4","f","rechts","55","","","self","j","90","true"
"null","<div style=""font-size:60px;"">+</div>","null","html-keyboard-response","258","218248","0.0-6.0-0.126","HEFI","4","f","rechts","55","","fixation","","","",""
"642","img/120_180.png","74","image-keyboard-response","259","218891","0.0-6.0-1.126","HEFI","4","f","rechts","55","","","self","j","120","true"
"null","<div style=""font-size:60px;"">+</div>","null","html-keyboard-response","260","219193","0.0-6.0-0.127","HEFI","4","f","rechts","55","","fixation","","","",""
"763","img/0_60.png","74","image-keyboard-response","261","219956","0.0-6.0-1.127","HEFI","4","f","rechts","55","","","self","j","0","true"
"null","<div style=""font-size:60px;"">+</div>","null","html-keyboard-response","262","220258","0.0-6.0-0.128","HEFI","4","f","rechts","55","","fixation","","","",""
"1083","img/90_240.png","70","image-keyboard-response","263","221341","0.0-6.0-1.128","HEFI","4","f","rechts","55","","","self","j","90","false"
"null","<div style=""font-size:60px;"">+</div>","null","html-keyboard-response","264","221841","0.0-6.0-0.129","HEFI","4","f","rechts","55","","fixation","","","",""
"968","img/30_60.png","70","image-keyboard-response","265","222810","0.0-6.0-1.129","HEFI","4","f","rechts","55","","","self","j","30","false"
"null","<div style=""font-size:60px;"">+</div>","null","html-keyboard-response","266","223162","0.0-6.0-0.130","HEFI","4","f","rechts","55","","fixation","","","",""
"654","img/150_270.png","74","image-keyboard-response","267","223816","0.0-6.0-1.130","HEFI","4","f","rechts","55","","","self","j","150","true"
"null","<div style=""font-size:60px;"">+</div>","null","html-keyboard-response","268","224316","0.0-6.0-0.131","HEFI","4","f","rechts","55","","fixation","","","",""
"729","img/150_180.png","74","image-keyboard-response","269","225046","0.0-6.0-1.131","HEFI","4","f","rechts","55","","","self","j","150","true"
"null","<div style=""font-size:60px;"">+</div>","null","html-keyboard-response","270","225547","0.0-6.0-0.132","HEFI","4","f","rechts","55","","fixation","","","",""
"1116","img/60_150.png","70","image-keyboard-response","271","226663","0.0-6.0-1.132","HEFI","4","f","rechts","55","","","self","f","60","true"
"null","<div style=""font-size:60px;"">+</div>","null","html-keyboard-response","272","226964","0.0-6.0-0.133","HEFI","4","f","rechts","55","","fixation","","","",""
"956","img/150_300.png","74","image-keyboard-response","273","227921","0.0-6.0-1.133","HEFI","4","f","rechts","55","","","self","j","150","true"
"null","<div style=""font-size:60px;"">+</div>","null","html-keyboard-response","274","228423","0.0-6.0-0.134","HEFI","4","f","rechts","55","","fixation","","","",""
"953","img/120_330.png","74","image-keyboard-response","275","229376","0.0-6.0-1.134","HEFI","4","f","rechts","55","","","self","f","120","false"
"null","<div style=""font-size:60px;"">+</div>","null","html-keyboard-response","276","229678","0.0-6.0-0.135","HEFI","4","f","rechts","55","","fixation","","","",""
"1308","img/150_240.png","74","image-keyboard-response","277","230986","0.0-6.0-1.135","HEFI","4","f","rechts","55","","","self","j","150","true"
"null","<div style=""font-size:60px;"">+</div>","null","html-keyboard-response","278","231437","0.0-6.0-0.136","HEFI","4","f","rechts","55","","fixation","","","",""
"1286","img/120_150.png","74","image-keyboard-response","279","232724","0.0-6.0-1.136","HEFI","4","f","rechts","55","","","self","f","120","false"
"null","<div style=""font-size:60px;"">+</div>","null","html-keyboard-response","280","233225","0.0-6.0-0.137","HEFI","4","f","rechts","55","","fixation","","","",""
"1009","img/120_30.png","70","image-keyboard-response","281","234236","0.0-6.0-1.137","HEFI","4","f","rechts","55","","","self","j","120","false"
"null","<div style=""font-size:60px;"">+</div>","null","html-keyboard-response","282","234687","0.0-6.0-0.138","HEFI","4","f","rechts","55","","fixation","","","",""
"1105","img/30_180.png","74","image-keyboard-response","283","235794","0.0-6.0-1.138","HEFI","4","f","rechts","55","","","self","j","30","true"
"null","<div style=""font-size:60px;"">+</div>","null","html-keyboard-response","284","236195","0.0-6.0-0.139","HEFI","4","f","rechts","55","","fixation","","","",""
"724","img/0_330.png","70","image-keyboard-response","285","236919","0.0-6.0-1.139","HEFI","4","f","rechts","55","","","self","f","0","true"
"null","<div style=""font-size:60px;"">+</div>","null","html-keyboard-response","286","237219","0.0-6.0-0.140","HEFI","4","f","rechts","55","","fixation","","","",""
"710","img/0_150.png","74","image-keyboard-response","287","237930","0.0-6.0-1.140","HEFI","4","f","rechts","55","","","self","j","0","true"
"null","<div style=""font-size:60px;"">+</div>","null","html-keyboard-response","288","238281","0.0-6.0-0.141","HEFI","4","f","rechts","55","","fixation","","","",""
"619","img/0_240.png","70","image-keyboard-response","289","238902","0.0-6.0-1.141","HEFI","4","f","rechts","55","","","self","f","0","true"
"null","<div style=""font-size:60px;"">+</div>","null","html-keyboard-response","290","239303","0.0-6.0-0.142","HEFI","4","f","rechts","55","","fixation","","","",""
"824","img/L90_180.png","70","image-keyboard-response","291","240129","0.0-6.0-1.142","HEFI","4","f","rechts","55","","","self","f","90","true"
"null","<div style=""font-size:60px;"">+</div>","null","html-keyboard-response","292","240630","0.0-6.0-0.143","HEFI","4","f","rechts","55","","fixation","","","",""
"660","img/90_30.png","74","image-keyboard-response","293","241292","0.0-6.0-1.143","HEFI","4","f","rechts","55","","","self","j","90","true"
"null","<div style=""font-size:60px;"">+</div>","null","html-keyboard-response","294","241793","0.0-6.0-0.144","HEFI","4","f","rechts","55","","fixation","","","",""
"731","img/0_30.png","74","image-keyboard-response","295","242525","0.0-6.0-1.144","HEFI","4","f","rechts","55","","","self","j","0","true"
"null","<div style=""font-size:60px;"">+</div>","null","html-keyboard-response","296","242827","0.0-6.0-0.145","HEFI","4","f","rechts","55","","fixation","","","",""
"929","img/90_210.png","74","image-keyboard-response","297","243758","0.0-6.0-1.145","HEFI","4","f","rechts","55","","","self","j","90","true"
"null","<div style=""font-size:60px;"">+</div>","null","html-keyboard-response","298","244109","0.0-6.0-0.146","HEFI","4","f","rechts","55","","fixation","","","",""
"841","img/120_210.png","74","image-keyboard-response","299","244951","0.0-6.0-1.146","HEFI","4","f","rechts","55","","","self","j","120","true"
"null","<div style=""font-size:60px;"">+</div>","null","html-keyboard-response","300","245453","0.0-6.0-0.147","HEFI","4","f","rechts","55","","fixation","","","",""
"829","img/60_90.png","70","image-keyboard-response","301","246283","0.0-6.0-1.147","HEFI","4","f","rechts","55","","","self","j","60","false"
"null","<div style=""font-size:60px;"">+</div>","null","html-keyboard-response","302","246734","0.0-6.0-0.148","HEFI","4","f","rechts","55","","fixation","","","",""
"874","img/90_150.png","70","image-keyboard-response","303","247609","0.0-6.0-1.148","HEFI","4","f","rechts","55","","","self","f","90","true"
"null","<div style=""font-size:60px;"">+</div>","null","html-keyboard-response","304","247961","0.0-6.0-0.149","HEFI","4","f","rechts","55","","fixation","","","",""
"1051","img/30_300.png","74","image-keyboard-response","305","249014","0.0-6.0-1.149","HEFI","4","f","rechts","55","","","self","f","30","false"
"null","<div style=""font-size:60px;"">+</div>","null","html-keyboard-response","306","249515","0.0-6.0-0.150","HEFI","4","f","rechts","55","","fixation","","","",""
"1313","img/0_300.png","70","image-keyboard-response","307","250830","0.0-6.0-1.150","HEFI","4","f","rechts","55","","","self","f","0","true"
"null","<div style=""font-size:60px;"">+</div>","null","html-keyboard-response","308","251281","0.0-6.0-0.151","HEFI","4","f","rechts","55","","fixation","","","",""
"909","img/60_180.png","74","image-keyboard-response","309","252192","0.0-6.0-1.151","HEFI","4","f","rechts","55","","","self","j","60","true"
"null","<div style=""font-size:60px;"">+</div>","null","html-keyboard-response","310","252493","0.0-6.0-0.152","HEFI","4","f","rechts","55","","fixation","","","",""
"855","img/60_30.png","70","image-keyboard-response","311","253349","0.0-6.0-1.152","HEFI","4","f","rechts","55","","","self","j","60","false"
"null","<div style=""font-size:60px;"">+</div>","null","html-keyboard-response","312","253651","0.0-6.0-0.153","HEFI","4","f","rechts","55","","fixation","","","",""
"1067","img/60_210.png","74","image-keyboard-response","313","254719","0.0-6.0-1.153","HEFI","4","f","rechts","55","","","self","j","60","true"
"null","<div style=""font-size:60px;"">+</div>","null","html-keyboard-response","314","255021","0.0-6.0-0.154","HEFI","4","f","rechts","55","","fixation","","","",""
"739","img/L30_180.png","70","image-keyboard-response","315","255761","0.0-6.0-1.154","HEFI","4","f","rechts","55","","","self","f","30","true"
"null","<div style=""font-size:60px;"">+</div>","null","html-keyboard-response","316","256213","0.0-6.0-0.155","HEFI","4","f","rechts","55","","fixation","","","",""
"649","img/0_120.png","74","image-keyboard-response","317","256863","0.0-6.0-1.155","HEFI","4","f","rechts","55","","","self","j","0","true"
"null","<div style=""font-size:60px;"">+</div>","null","html-keyboard-response","318","257165","0.0-6.0-0.156","HEFI","4","f","rechts","55","","fixation","","","",""
"748","img/L120_180.png","70","image-keyboard-response","319","257914","0.0-6.0-1.156","HEFI","4","f","rechts","55","","","self","f","120","true"
"null","<div style=""font-size:60px;"">+</div>","null","html-keyboard-response","320","258416","0.0-6.0-0.157","HEFI","4","f","rechts","55","","fixation","","","",""
"889","img/90_120.png","70","image-keyboard-response","321","259306","0.0-6.0-1.157","HEFI","4","f","rechts","55","","","self","f","90","true"
"null","<div style=""font-size:60px;"">+</div>","null","html-keyboard-response","322","259808","0.0-6.0-0.158","HEFI","4","f","rechts","55","","fixation","","","",""
"750","img/150_240.png","74","image-keyboard-response","323","260559","0.0-6.0-1.158","HEFI","4","f","rechts","55","","","self","j","150","true"
"null","<div style=""font-size:60px;"">+</div>","null","html-keyboard-response","324","260861","0.0-6.0-0.159","HEFI","4","f","rechts","55","","fixation","","","",""
"741","img/0_330.png","70","image-keyboard-response","325","261603","0.0-6.0-1.159","HEFI","4","f","rechts","55","","","self","f","0","true"
"null","<div style=""font-size:60px;"">+</div>","null","html-keyboard-response","326","261955","0.0-6.0-0.160","HEFI","4","f","rechts","55","","fixation","","","",""
"662","img/30_240.png","74","image-keyboard-response","327","262618","0.0-6.0-1.160","HEFI","4","f","rechts","55","","","self","f","30","false"
"null","<div style=""font-size:60px;"">+</div>","null","html-keyboard-response","328","263020","0.0-6.0-0.161","HEFI","4","f","rechts","55","","fixation","","","",""
"918","img/60_330.png","70","image-keyboard-response","329","263938","0.0-6.0-1.161","HEFI","4","f","rechts","55","","","self","f","60","true"
"null","<div style=""font-size:60px;"">+</div>","null","html-keyboard-response","330","264240","0.0-6.0-0.162","HEFI","4","f","rechts","55","","fixation","","","",""
"867","img/120_150.png","74","image-keyboard-response","331","265107","0.0-6.0-1.162","HEFI","4","f","rechts","55","","","self","f","120","false"
"null","<div style=""font-size:60px;"">+</div>","null","html-keyboard-response","332","265409","0.0-6.0-0.163","HEFI","4","f","rechts","55","","fixation","","","",""
"796","img/0_270.png","70","image-keyboard-response","333","266205","0.0-6.0-1.163","HEFI","4","f","rechts","55","","","self","f","0","true"
"null","<div style=""font-size:60px;"">+</div>","null","html-keyboard-response","334","266607","0.0-6.0-0.164","HEFI","4","f","rechts","55","","fixation","","","",""
"754","img/120_210.png","74","image-keyboard-response","335","267362","0.0-6.0-1.164","HEFI","4","f","rechts","55","","","self","j","120","true"
"null","<div style=""font-size:60px;"">+</div>","null","html-keyboard-response","336","267863","0.0-6.0-0.165","HEFI","4","f","rechts","55","","fixation","","","",""
"729","img/0_120.png","74","image-keyboard-response","337","268592","0.0-6.0-1.165","HEFI","4","f","rechts","55","","","self","j","0","true"
"null","<div style=""font-size:60px;"">+</div>","null","html-keyboard-response","338","269094","0.0-6.0-0.166","HEFI","4","f","rechts","55","","fixation","","","",""
"635","img/150_300.png","74","image-keyboard-response","339","269730","0.0-6.0-1.166","HEFI","4","f","rechts","55","","","self","j","150","true"
"null","<div style=""font-size:60px;"">+</div>","null","html-keyboard-response","340","270231","0.0-6.0-0.167","HEFI","4","f","rechts","55","","fixation","","","",""
"1058","img/120_270.png","70","image-keyboard-response","341","271290","0.0-6.0-1.167","HEFI","4","f","rechts","55","","","self","j","120","false"
"null","<div style=""font-size:60px;"">+</div>","null","html-keyboard-response","342","271792","0.0-6.0-0.168","HEFI","4","f","rechts","55","","fixation","","","",""
"808","img/0_240.png","70","image-keyboard-response","343","272601","0.0-6.0-1.168","HEFI","4","f","rechts","55","","","self","f","0","true"
"null","<div style=""font-size:60px;"">+</div>","null","html-keyboard-response","344","273053","0.0-6.0-0.169","HEFI","4","f","rechts","55","","fixation","","","",""
"927","img/0_300.png","70","image-keyboard-response","345","273981","0.0-6.0-1.169","HEFI","4","f","rechts","55","","","self","f","0","true"
"null","<div style=""font-size:60px;"">+</div>","null","html-keyboard-response","346","274431","0.0-6.0-0.170","HEFI","4","f","rechts","55","","fixation","","","",""
"607","img/90_300.png","74","image-keyboard-response","347","275039","0.0-6.0-1.170","HEFI","4","f","rechts","55","","","self","f","90","false"
"null","<div style=""font-size:60px;"">+</div>","null","html-keyboard-response","348","275541","0.0-6.0-0.171","HEFI","4","f","rechts","55","","fixation","","","",""
"639","img/90_210.png","70","image-keyboard-response","349","276180","0.0-6.0-1.171","HEFI","4","f","rechts","55","","","self","j","90","false"
"null","<div style=""font-size:60px;"">+</div>","null","html-keyboard-response","350","276682","0.0-6.0-0.172","HEFI","4","f","rechts","55","","fixation","","","",""
"1217","img/90_150.png","74","image-keyboard-response","351","277899","0.0-6.0-1.172","HEFI","4","f","rechts","55","","","self","f","90","false"
"null","<div style=""font-size:60px;"">+</div>","null","html-keyboard-response","352","278201","0.0-6.0-0.173","HEFI","4","f","rechts","55","","fixation","","","",""
"1734","img/L30_180.png","74","image-keyboard-response","353","279935","0.0-6.0-1.173","HEFI","4","f","rechts","55","","","self","f","30","false"
"null","<div style=""font-size:60px;"">+</div>","null","html-keyboard-response","354","280287","0.0-6.0-0.174","HEFI","4","f","rechts","55","","fixation","","","",""
"1297","img/120_30.png","74","image-keyboard-response","355","281584","0.0-6.0-1.174","HEFI","4","f","rechts","55","","","self","j","120","true"
"null","<div style=""font-size:60px;"">+</div>","null","html-keyboard-response","356","281936","0.0-6.0-0.175","HEFI","4","f","rechts","55","","fixation","","","",""
"1063","img/30_60.png","70","image-keyboard-response","357","282999","0.0-6.0-1.175","HEFI","4","f","rechts","55","","","self","j","30","false"
"null","<div style=""font-size:60px;"">+</div>","null","html-keyboard-response","358","283301","0.0-6.0-0.176","HEFI","4","f","rechts","55","","fixation","","","",""
"671","img/150_180.png","74","image-keyboard-response","359","283973","0.0-6.0-1.176","HEFI","4","f","rechts","55","","","self","j","150","true"
"null","<div style=""font-size:60px;"">+</div>","null","html-keyboard-response","360","284375","0.0-6.0-0.177","HEFI","4","f","rechts","55","","fixation","","","",""
"691","img/0_90.png","74","image-keyboard-response","361","285066","0.0-6.0-1.177","HEFI","4","f","rechts","55","","","self","j","0","true"
"null","<div style=""font-size:60px;"">+</div>","null","html-keyboard-response","362","285467","0.0-6.0-0.178","HEFI","4","f","rechts","55","","fixation","","","",""
"725","img/90_240.png","74","image-keyboard-response","363","286193","0.0-6.0-1.178","HEFI","4","f","rechts","55","","","self","j","90","true"
"null","<div style=""font-size:60px;"">+</div>","null","html-keyboard-response","364","286695","0.0-6.0-0.179","HEFI","4","f","rechts","55","","fixation","","","",""
"558","img/0_150.png","74","image-keyboard-response","365","287253","0.0-6.0-1.179","HEFI","4","f","rechts","55","","","self","j","0","true"
"null","<div style=""font-size:60px;"">+</div>","null","html-keyboard-response","366","287754","0.0-6.0-0.180","HEFI","4","f","rechts","55","","fixation","","","",""
"801","img/60_150.png","74","image-keyboard-response","367","288555","0.0-6.0-1.180","HEFI","4","f","rechts","55","","","self","f","60","false"
"null","<div style=""font-size:60px;"">+</div>","null","html-keyboard-response","368","288855","0.0-6.0-0.181","HEFI","4","f","rechts","55","","fixation","","","",""
"1074","img/90_30.png","70","image-keyboard-response","369","289931","0.0-6.0-1.181","HEFI","4","f","rechts","55","","","self","j","90","false"
"null","<div style=""font-size:60px;"">+</div>","null","html-keyboard-response","370","290432","0.0-6.0-0.182","HEFI","4","f","rechts","55","","fixation","","","",""
"1278","img/150_120.png","70","image-keyboard-response","371","291711","0.0-6.0-1.182","HEFI","4","f","rechts","55","","","self","f","150","true"
"null","<div style=""font-size:60px;"">+</div>","null","html-keyboard-response","372","292012","0.0-6.0-0.183","HEFI","4","f","rechts","55","","fixation","","","",""
"624","img/30_180.png","74","image-keyboard-response","373","292638","0.0-6.0-1.183","HEFI","4","f","rechts","55","","","self","j","30","true"
"null","<div style=""font-size:60px;"">+</div>","null","html-keyboard-response","374","293139","0.0-6.0-0.184","HEFI","4","f","rechts","55","","fixation","","","",""
"653","img/0_30.png","74","image-keyboard-response","375","293793","0.0-6.0-1.184","HEFI","4","f","rechts","55","","","self","j","0","true"
"null","<div style=""font-size:60px;"">+</div>","null","html-keyboard-response","376","294195","0.0-6.0-0.185","HEFI","4","f","rechts","55","","fixation","","","",""
"750","img/L90_180.png","70","image-keyboard-response","377","294945","0.0-6.0-1.185","HEFI","4","f","rechts","55","","","self","f","90","true"
"null","<div style=""font-size:60px;"">+</div>","null","html-keyboard-response","378","295246","0.0-6.0-0.186","HEFI","4","f","rechts","55","","fixation","","","",""
"1393","img/150_60.png","70","image-keyboard-response","379","296641","0.0-6.0-1.186","HEFI","4","f","rechts","55","","","self","f","150","true"
"null","<div style=""font-size:60px;"">+</div>","null","html-keyboard-response","380","297042","0.0-6.0-0.187","HEFI","4","f","rechts","55","","fixation","","","",""
"985","img/120_90.png","70","image-keyboard-response","381","298028","0.0-6.0-1.187","HEFI","4","f","rechts","55","","","self","f","120","true"
"null","<div style=""font-size:60px;"">+</div>","null","html-keyboard-response","382","298430","0.0-6.0-0.188","HEFI","4","f","rechts","55","","fixation","","","",""
"606","img/60_210.png","74","image-keyboard-response","383","299037","0.0-6.0-1.188","HEFI","4","f","rechts","55","","","self","j","60","true"
"null","<div style=""font-size:60px;"">+</div>","null","html-keyboard-response","384","299488","0.0-6.0-0.189","HEFI","4","f","rechts","55","","fixation","","","",""
"724","img/L150_180.png","74","image-keyboard-response","385","300214","0.0-6.0-1.189","HEFI","4","f","rechts","55","","","self","f","150","false"
"null","<div style=""font-size:60px;"">+</div>","null","html-keyboard-response","386","300715","0.0-6.0-0.190","HEFI","4","f","rechts","55","","fixation","","","",""
"832","img/60_180.png","74","image-keyboard-response","387","301548","0.0-6.0-1.190","HEFI","4","f","rechts","55","","","self","j","60","true"
"null","<div style=""font-size:60px;"">+</div>","null","html-keyboard-response","388","302000","0.0-6.0-0.191","HEFI","4","f","rechts","55","","fixation","","","",""
"1194","img/30_270.png","70","image-keyboard-response","389","303194","0.0-6.0-1.191","HEFI","4","f","rechts","55","","","self","f","30","true"
"null","<div style=""font-size:60px;"">+</div>","null","html-keyboard-response","390","303696","0.0-6.0-0.192","HEFI","4","f","rechts","55","","fixation","","","",""
"781","img/150_270.png","74","image-keyboard-response","391","304479","0.0-6.0-1.192","HEFI","4","f","rechts","55","","","self","j","150","true"
"null","<div style=""font-size:60px;"">+</div>","null","html-keyboard-response","392","304879","0.0-6.0-0.193","HEFI","4","f","rechts","55","","fixation","","","",""
"671","img/90_330.png","70","image-keyboard-response","393","305550","0.0-6.0-1.193","HEFI","4","f","rechts","55","","","self","f","90","true"
"null","<div style=""font-size:60px;"">+</div>","null","html-keyboard-response","394","305852","0.0-6.0-0.194","HEFI","4","f","rechts","55","","fixation","","","",""
"773","img/120_180.png","74","image-keyboard-response","395","306625","0.0-6.0-1.194","HEFI","4","f","rechts","55","","","self","j","120","true"
"null","<div style=""font-size:60px;"">+</div>","null","html-keyboard-response","396","307077","0.0-6.0-0.195","HEFI","4","f","rechts","55","","fixation","","","",""
"596","img/30_120.png","70","image-keyboard-response","397","307674","0.0-6.0-1.195","HEFI","4","f","rechts","55","","","self","j","30","false"
"null","<div style=""font-size:60px;"">+</div>","null","html-keyboard-response","398","308176","0.0-6.0-0.196","HEFI","4","f","rechts","55","","fixation","","","",""
"582","img/120_330.png","74","image-keyboard-response","399","308759","0.0-6.0-1.196","HEFI","4","f","rechts","55","","","self","f","120","false"
"null","<div style=""font-size:60px;"">+</div>","null","html-keyboard-response","400","309211","0.0-6.0-0.197","HEFI","4","f","rechts","55","","fixation","","","",""
"606","img/90_60.png","70","image-keyboard-response","401","309817","0.0-6.0-1.197","HEFI","4","f","rechts","55","","","self","j","90","false"
"null","<div style=""font-size:60px;"">+</div>","null","html-keyboard-response","402","310169","0.0-6.0-0.198","HEFI","4","f","rechts","55","","fixation","","","",""
"551","img/90_180.png","74","image-keyboard-response","403","310721","0.0-6.0-1.198","HEFI","4","f","rechts","55","","","self","j","90","true"
"null","<div style=""font-size:60px;"">+</div>","null","html-keyboard-response","404","311023","0.0-6.0-0.199","HEFI","4","f","rechts","55","","fixation","","","",""
"855","img/0_60.png","74","image-keyboard-response","405","311879","0.0-6.0-1.199","HEFI","4","f","rechts","55","","","self","j","0","true"
"null","<div style=""font-size:60px;"">+</div>","null","html-keyboard-response","406","312281","0.0-6.0-0.200","HEFI","4","f","rechts","55","","fixation","","","",""
"623","img/30_90.png","70","image-keyboard-response","407","312905","0.0-6.0-1.200","HEFI","4","f","rechts","55","","","self","j","30","false"
"null","<div style=""font-size:60px;"">+</div>","null","html-keyboard-response","408","313407","0.0-6.0-0.201","HEFI","4","f","rechts","55","","fixation","","","",""
"654","img/30_300.png","74","image-keyboard-response","409","314062","0.0-6.0-1.201","HEFI","4","f","rechts","55","","","self","f","30","false"
"null","<div style=""font-size:60px;"">+</div>","null","html-keyboard-response","410","314463","0.0-6.0-0.202","HEFI","4","f","rechts","55","","fixation","","","",""
"594","img/60_90.png","70","image-keyboard-response","411","315057","0.0-6.0-1.202","HEFI","4","f","rechts","55","","","self","j","60","false"
"null","<div style=""font-size:60px;"">+</div>","null","html-keyboard-response","412","315409","0.0-6.0-0.203","HEFI","4","f","rechts","55","","fixation","","","",""
"616","img/60_270.png","74","image-keyboard-response","413","316025","0.0-6.0-1.203","HEFI","4","f","rechts","55","","","self","f","60","false"
"null","<div style=""font-size:60px;"">+</div>","null","html-keyboard-response","414","316527","0.0-6.0-0.204","HEFI","4","f","rechts","55","","fixation","","","",""
"998","img/150_90.png","74","image-keyboard-response","415","317526","0.0-6.0-1.204","HEFI","4","f","rechts","55","","","self","f","150","false"
"null","<div style=""font-size:60px;"">+</div>","null","html-keyboard-response","416","317928","0.0-6.0-0.205","HEFI","4","f","rechts","55","","fixation","","","",""
"870","img/0_210.png","70","image-keyboard-response","417","318799","0.0-6.0-1.205","HEFI","4","f","rechts","55","","","self","f","0","true"
"null","<div style=""font-size:60px;"">+</div>","null","html-keyboard-response","418","319101","0.0-6.0-0.206","HEFI","4","f","rechts","55","","fixation","","","",""
"1143","img/60_30.png","70","image-keyboard-response","419","320244","0.0-6.0-1.206","HEFI","4","f","rechts","55","","","self","j","60","false"
"null","<div style=""font-size:60px;"">+</div>","null","html-keyboard-response","420","320696","0.0-6.0-0.207","HEFI","4","f","rechts","55","","fixation","","","",""
"618","img/L60_180.png","74","image-keyboard-response","421","321315","0.0-6.0-1.207","HEFI","4","f","rechts","55","","","self","f","60","false"
"14165","<p>Du hast in 65% der Versuche korrekt entschieden.</p><p>Deine durchschnittliche Reaktionszeit war  887ms.</p><p>Dr&uuml;cke eine beliebige Taste, um die Session zu beenden. Vielen Dank!</p>","74","html-keyboard-response","422","335480","0.0-7.0","HEFI","4","f","rechts","55","","","","","",""
