"rt","stimulus","key_press","trial_type","trial_index","time_elapsed","internal_node_id","subject","session","sex","handedness","age","responses","test_part","condition","correct_response","angle","correct"
"1982","<p>Mental Rotation Experiment.</p> <p>Dr&uuml;cke eine beliebige Taste, um anzufangen.</p>","13","html-keyboard-response","0","2017","0.0-0.0","VIDE","1","m","rechts","23","","","","","",""
"11952","","","survey-text","1","13971","0.0-1.0","VIDE","1","m","rechts","23","{""Q0"":""VIDE""}","","","","",""
"5800","","","survey-text","2","19772","0.0-2.0","VIDE","1","m","rechts","23","{""Q0"":""1""}","","","","",""
"5306","","","survey-multi-choice","3","25084","0.0-3.0","VIDE","1","m","rechts","23","{""Q0"":""m"",""Q1"":""rechts""}","","","","",""
"3249","","","survey-text","4","28335","0.0-4.0","VIDE","1","m","rechts","23","{""Q0"":""23""}","","","","",""
"33421","<p>Stell dir vor, dass du vor einem runden Tisch stehst, auf dem sich ein blauer Ball am Tischrand befindet. Entlang des Tischrands ist jeweils ein verschieden langer Pfeil. Nun bleibst du an deinem Platz vor dem Tisch und rotierst den Tisch entlang des Pfeils (gleiche Richtung und Länge). </p> <img src='img/30_180.png'></img> <br><p> Nachdem du diese (vorgestellte) Rotation durchgef&uuml;hrt hast, schau in Richtung der Tischmitte, und entscheide dann, ob der Ball links oder rechts von dir liegt.</p> <p>Dr&uuml;cke die <strong>'f'</strong>-Taste f&uuml;r links, die <strong>'j'</strong>-Taste f&uuml;r rechts.</p><br><p> Das Bild wird jeweils 1 Sekunde lang pr&auml;sentiert. Du hast 3 Sekunden Zeit eine Entscheidung zu treffen.</p>","70","html-keyboard-response","5","61764","0.0-5.0","VIDE","1","m","rechts","23","","","","","",""
"null","<div style=""font-size:60px;"">+</div>","null","html-keyboard-response","6","63152","0.0-6.0-0.0","VIDE","1","m","rechts","23","","fixation","","","",""
"1562","img/120_210.png","74","image-keyboard-response","7","64724","0.0-6.0-1.0","VIDE","1","m","rechts","23","","","object","f","120","false"
"null","<div style=""font-size:60px;"">+</div>","null","html-keyboard-response","8","65252","0.0-6.0-0.1","VIDE","1","m","rechts","23","","fixation","","","",""
"2715","img/60_330.png","74","image-keyboard-response","9","67987","0.0-6.0-1.1","VIDE","1","m","rechts","23","","","object","j","60","true"
"null","<div style=""font-size:60px;"">+</div>","null","html-keyboard-response","10","68515","0.0-6.0-0.2","VIDE","1","m","rechts","23","","fixation","","","",""
"2242","img/30_240.png","70","image-keyboard-response","11","70775","0.0-6.0-1.2","VIDE","1","m","rechts","23","","","object","f","30","true"
"null","<div style=""font-size:60px;"">+</div>","null","html-keyboard-response","12","71131","0.0-6.0-0.3","VIDE","1","m","rechts","23","","fixation","","","",""
"2809","img/60_30.png","70","image-keyboard-response","13","73950","0.0-6.0-1.3","VIDE","1","m","rechts","23","","","object","f","60","true"
"null","<div style=""font-size:60px;"">+</div>","null","html-keyboard-response","14","74413","0.0-6.0-0.4","VIDE","1","m","rechts","23","","fixation","","","",""
"2685","img/120_150.png","74","image-keyboard-response","15","77118","0.0-6.0-1.4","VIDE","1","m","rechts","23","","","object","j","120","true"
"null","<div style=""font-size:60px;"">+</div>","null","html-keyboard-response","16","77538","0.0-6.0-0.5","VIDE","1","m","rechts","23","","fixation","","","",""
"1338","img/0_300.png","70","image-keyboard-response","17","78893","0.0-6.0-1.5","VIDE","1","m","rechts","23","","","object","f","0","true"
"null","<div style=""font-size:60px;"">+</div>","null","html-keyboard-response","18","79413","0.0-6.0-0.6","VIDE","1","m","rechts","23","","fixation","","","",""
"2167","img/30_90.png","74","image-keyboard-response","19","81598","0.0-6.0-1.6","VIDE","1","m","rechts","23","","","object","j","30","true"
"null","<div style=""font-size:60px;"">+</div>","null","html-keyboard-response","20","82110","0.0-6.0-0.7","VIDE","1","m","rechts","23","","fixation","","","",""
"1503","img/120_270.png","74","image-keyboard-response","21","83630","0.0-6.0-1.7","VIDE","1","m","rechts","23","","","object","j","120","true"
"null","<div style=""font-size:60px;"">+</div>","null","html-keyboard-response","22","83984","0.0-6.0-0.8","VIDE","1","m","rechts","23","","fixation","","","",""
"1489","img/30_180.png","70","image-keyboard-response","23","85486","0.0-6.0-1.8","VIDE","1","m","rechts","23","","","object","f","30","true"
"null","<div style=""font-size:60px;"">+</div>","null","html-keyboard-response","24","86015","0.0-6.0-0.9","VIDE","1","m","rechts","23","","fixation","","","",""
"1726","img/L60_180.png","74","image-keyboard-response","25","87759","0.0-6.0-1.9","VIDE","1","m","rechts","23","","","object","j","60","true"
"null","<div style=""font-size:60px;"">+</div>","null","html-keyboard-response","26","88170","0.0-6.0-0.10","VIDE","1","m","rechts","23","","fixation","","","",""
"1176","img/0_150.png","74","image-keyboard-response","27","89356","0.0-6.0-1.10","VIDE","1","m","rechts","23","","","object","j","0","true"
"null","<div style=""font-size:60px;"">+</div>","null","html-keyboard-response","28","89717","0.0-6.0-0.11","VIDE","1","m","rechts","23","","fixation","","","",""
"1626","img/120_90.png","70","image-keyboard-response","29","91360","0.0-6.0-1.11","VIDE","1","m","rechts","23","","","object","f","120","true"
"null","<div style=""font-size:60px;"">+</div>","null","html-keyboard-response","30","91720","0.0-6.0-0.12","VIDE","1","m","rechts","23","","fixation","","","",""
"1195","img/0_270.png","70","image-keyboard-response","31","92932","0.0-6.0-1.12","VIDE","1","m","rechts","23","","","object","f","0","true"
"null","<div style=""font-size:60px;"">+</div>","null","html-keyboard-response","32","93391","0.0-6.0-0.13","VIDE","1","m","rechts","23","","fixation","","","",""
"1482","img/150_120.png","70","image-keyboard-response","33","94880","0.0-6.0-1.13","VIDE","1","m","rechts","23","","","object","f","150","true"
"null","<div style=""font-size:60px;"">+</div>","null","html-keyboard-response","34","95297","0.0-6.0-0.14","VIDE","1","m","rechts","23","","fixation","","","",""
"1060","img/120_30.png","70","image-keyboard-response","35","96377","0.0-6.0-1.14","VIDE","1","m","rechts","23","","","object","f","120","true"
"null","<div style=""font-size:60px;"">+</div>","null","html-keyboard-response","36","96704","0.0-6.0-0.15","VIDE","1","m","rechts","23","","fixation","","","",""
"2495","img/60_210.png","74","image-keyboard-response","37","99218","0.0-6.0-1.15","VIDE","1","m","rechts","23","","","object","f","60","false"
"null","<div style=""font-size:60px;"">+</div>","null","html-keyboard-response","38","99681","0.0-6.0-0.16","VIDE","1","m","rechts","23","","fixation","","","",""
"2520","img/150_180.png","74","image-keyboard-response","39","102223","0.0-6.0-1.16","VIDE","1","m","rechts","23","","","object","f","150","false"
"null","<div style=""font-size:60px;"">+</div>","null","html-keyboard-response","40","102688","0.0-6.0-0.17","VIDE","1","m","rechts","23","","fixation","","","",""
"996","img/0_120.png","74","image-keyboard-response","41","103701","0.0-6.0-1.17","VIDE","1","m","rechts","23","","","object","j","0","true"
"null","<div style=""font-size:60px;"">+</div>","null","html-keyboard-response","42","104202","0.0-6.0-0.18","VIDE","1","m","rechts","23","","fixation","","","",""
"1515","img/90_210.png","70","image-keyboard-response","43","105737","0.0-6.0-1.18","VIDE","1","m","rechts","23","","","object","f","90","true"
"null","<div style=""font-size:60px;"">+</div>","null","html-keyboard-response","44","106110","0.0-6.0-0.19","VIDE","1","m","rechts","23","","fixation","","","",""
"857","img/0_90.png","74","image-keyboard-response","45","106987","0.0-6.0-1.19","VIDE","1","m","rechts","23","","","object","j","0","true"
"null","<div style=""font-size:60px;"">+</div>","null","html-keyboard-response","46","107438","0.0-6.0-0.20","VIDE","1","m","rechts","23","","fixation","","","",""
"1330","img/60_270.png","74","image-keyboard-response","47","108786","0.0-6.0-1.20","VIDE","1","m","rechts","23","","","object","f","60","false"
"null","<div style=""font-size:60px;"">+</div>","null","html-keyboard-response","48","109249","0.0-6.0-0.21","VIDE","1","m","rechts","23","","fixation","","","",""
"1793","img/120_180.png","70","image-keyboard-response","49","111059","0.0-6.0-1.21","VIDE","1","m","rechts","23","","","object","f","120","true"
"null","<div style=""font-size:60px;"">+</div>","null","html-keyboard-response","50","111391","0.0-6.0-0.22","VIDE","1","m","rechts","23","","fixation","","","",""
"1843","img/30_270.png","70","image-keyboard-response","51","113252","0.0-6.0-1.22","VIDE","1","m","rechts","23","","","object","f","30","true"
"null","<div style=""font-size:60px;"">+</div>","null","html-keyboard-response","52","113658","0.0-6.0-0.23","VIDE","1","m","rechts","23","","fixation","","","",""
"1759","img/90_30.png","70","image-keyboard-response","53","115434","0.0-6.0-1.23","VIDE","1","m","rechts","23","","","object","f","90","true"
"null","<div style=""font-size:60px;"">+</div>","null","html-keyboard-response","54","115750","0.0-6.0-0.24","VIDE","1","m","rechts","23","","fixation","","","",""
"1364","img/90_60.png","70","image-keyboard-response","55","117134","0.0-6.0-1.24","VIDE","1","m","rechts","23","","","object","f","90","true"
"null","<div style=""font-size:60px;"">+</div>","null","html-keyboard-response","56","117641","0.0-6.0-0.25","VIDE","1","m","rechts","23","","fixation","","","",""
"983","img/0_330.png","70","image-keyboard-response","57","118642","0.0-6.0-1.25","VIDE","1","m","rechts","23","","","object","f","0","true"
"null","<div style=""font-size:60px;"">+</div>","null","html-keyboard-response","58","119001","0.0-6.0-0.26","VIDE","1","m","rechts","23","","fixation","","","",""
"1117","img/120_330.png","74","image-keyboard-response","59","120137","0.0-6.0-1.26","VIDE","1","m","rechts","23","","","object","j","120","true"
"null","<div style=""font-size:60px;"">+</div>","null","html-keyboard-response","60","120643","0.0-6.0-0.27","VIDE","1","m","rechts","23","","fixation","","","",""
"1570","img/30_120.png","70","image-keyboard-response","61","122231","0.0-6.0-1.27","VIDE","1","m","rechts","23","","","object","j","30","false"
"null","<div style=""font-size:60px;"">+</div>","null","html-keyboard-response","62","122548","0.0-6.0-0.28","VIDE","1","m","rechts","23","","fixation","","","",""
"1430","img/30_60.png","70","image-keyboard-response","63","123996","0.0-6.0-1.28","VIDE","1","m","rechts","23","","","object","j","30","false"
"null","<div style=""font-size:60px;"">+</div>","null","html-keyboard-response","64","124502","0.0-6.0-0.29","VIDE","1","m","rechts","23","","fixation","","","",""
"1020","img/0_210.png","70","image-keyboard-response","65","125538","0.0-6.0-1.29","VIDE","1","m","rechts","23","","","object","f","0","true"
"null","<div style=""font-size:60px;"">+</div>","null","html-keyboard-response","66","125846","0.0-6.0-0.30","VIDE","1","m","rechts","23","","fixation","","","",""
"1688","img/L120_180.png","74","image-keyboard-response","67","127551","0.0-6.0-1.30","VIDE","1","m","rechts","23","","","object","j","120","true"
"null","<div style=""font-size:60px;"">+</div>","null","html-keyboard-response","68","127923","0.0-6.0-0.31","VIDE","1","m","rechts","23","","fixation","","","",""
"1723","img/L150_180.png","74","image-keyboard-response","69","129665","0.0-6.0-1.31","VIDE","1","m","rechts","23","","","object","j","150","true"
"null","<div style=""font-size:60px;"">+</div>","null","html-keyboard-response","70","130144","0.0-6.0-0.32","VIDE","1","m","rechts","23","","fixation","","","",""
"2434","img/90_150.png","74","image-keyboard-response","71","132597","0.0-6.0-1.32","VIDE","1","m","rechts","23","","","object","j","90","true"
"null","<div style=""font-size:60px;"">+</div>","null","html-keyboard-response","72","132967","0.0-6.0-0.33","VIDE","1","m","rechts","23","","fixation","","","",""
"1393","img/60_150.png","74","image-keyboard-response","73","134379","0.0-6.0-1.33","VIDE","1","m","rechts","23","","","object","j","60","true"
"null","<div style=""font-size:60px;"">+</div>","null","html-keyboard-response","74","134889","0.0-6.0-0.34","VIDE","1","m","rechts","23","","fixation","","","",""
"1260","img/150_60.png","70","image-keyboard-response","75","136166","0.0-6.0-1.34","VIDE","1","m","rechts","23","","","object","f","150","true"
"null","<div style=""font-size:60px;"">+</div>","null","html-keyboard-response","76","136623","0.0-6.0-0.35","VIDE","1","m","rechts","23","","fixation","","","",""
"1698","img/90_180.png","70","image-keyboard-response","77","138339","0.0-6.0-1.35","VIDE","1","m","rechts","23","","","object","f","90","true"
"null","<div style=""font-size:60px;"">+</div>","null","html-keyboard-response","78","138655","0.0-6.0-0.36","VIDE","1","m","rechts","23","","fixation","","","",""
"1658","img/150_300.png","74","image-keyboard-response","79","140331","0.0-6.0-1.36","VIDE","1","m","rechts","23","","","object","j","150","true"
"null","<div style=""font-size:60px;"">+</div>","null","html-keyboard-response","80","140781","0.0-6.0-0.37","VIDE","1","m","rechts","23","","fixation","","","",""
"null","img/L30_180.png","null","image-keyboard-response","81","143812","0.0-6.0-1.37","VIDE","1","m","rechts","23","","","object","j","30","false"
"null","<div style=""font-size:60px;"">+</div>","null","html-keyboard-response","82","144235","0.0-6.0-0.38","VIDE","1","m","rechts","23","","fixation","","","",""
"1203","img/30_300.png","74","image-keyboard-response","83","145455","0.0-6.0-1.38","VIDE","1","m","rechts","23","","","object","f","30","false"
"null","<div style=""font-size:60px;"">+</div>","null","html-keyboard-response","84","145858","0.0-6.0-0.39","VIDE","1","m","rechts","23","","fixation","","","",""
"1396","img/90_120.png","70","image-keyboard-response","85","147274","0.0-6.0-1.39","VIDE","1","m","rechts","23","","","object","j","90","false"
"null","<div style=""font-size:60px;"">+</div>","null","html-keyboard-response","86","147734","0.0-6.0-0.40","VIDE","1","m","rechts","23","","fixation","","","",""
"1625","img/L90_180.png","74","image-keyboard-response","87","149378","0.0-6.0-1.40","VIDE","1","m","rechts","23","","","object","j","90","true"
"null","<div style=""font-size:60px;"">+</div>","null","html-keyboard-response","88","149890","0.0-6.0-0.41","VIDE","1","m","rechts","23","","fixation","","","",""
"1133","img/90_300.png","74","image-keyboard-response","89","151041","0.0-6.0-1.41","VIDE","1","m","rechts","23","","","object","j","90","true"
"null","<div style=""font-size:60px;"">+</div>","null","html-keyboard-response","90","151346","0.0-6.0-0.42","VIDE","1","m","rechts","23","","fixation","","","",""
"1827","img/90_240.png","74","image-keyboard-response","91","153188","0.0-6.0-1.42","VIDE","1","m","rechts","23","","","object","f","90","false"
"null","<div style=""font-size:60px;"">+</div>","null","html-keyboard-response","92","153594","0.0-6.0-0.43","VIDE","1","m","rechts","23","","fixation","","","",""
"1658","img/150_90.png","70","image-keyboard-response","93","155270","0.0-6.0-1.43","VIDE","1","m","rechts","23","","","object","f","150","true"
"null","<div style=""font-size:60px;"">+</div>","null","html-keyboard-response","94","155782","0.0-6.0-0.44","VIDE","1","m","rechts","23","","fixation","","","",""
"1258","img/0_60.png","74","image-keyboard-response","95","157061","0.0-6.0-1.44","VIDE","1","m","rechts","23","","","object","j","0","true"
"null","<div style=""font-size:60px;"">+</div>","null","html-keyboard-response","96","157580","0.0-6.0-0.45","VIDE","1","m","rechts","23","","fixation","","","",""
"1230","img/60_90.png","70","image-keyboard-response","97","158828","0.0-6.0-1.45","VIDE","1","m","rechts","23","","","object","j","60","false"
"null","<div style=""font-size:60px;"">+</div>","null","html-keyboard-response","98","159252","0.0-6.0-0.46","VIDE","1","m","rechts","23","","fixation","","","",""
"861","img/90_330.png","74","image-keyboard-response","99","160131","0.0-6.0-1.46","VIDE","1","m","rechts","23","","","object","j","90","true"
"null","<div style=""font-size:60px;"">+</div>","null","html-keyboard-response","100","160612","0.0-6.0-0.47","VIDE","1","m","rechts","23","","fixation","","","",""
"953","img/60_180.png","70","image-keyboard-response","101","161584","0.0-6.0-1.47","VIDE","1","m","rechts","23","","","object","f","60","true"
"null","<div style=""font-size:60px;"">+</div>","null","html-keyboard-response","102","161941","0.0-6.0-0.48","VIDE","1","m","rechts","23","","fixation","","","",""
"1312","img/150_270.png","74","image-keyboard-response","103","163270","0.0-6.0-1.48","VIDE","1","m","rechts","23","","","object","j","150","true"
"null","<div style=""font-size:60px;"">+</div>","null","html-keyboard-response","104","163753","0.0-6.0-0.49","VIDE","1","m","rechts","23","","fixation","","","",""
"null","img/0_240.png","null","image-keyboard-response","105","166785","0.0-6.0-1.49","VIDE","1","m","rechts","23","","","object","f","0","false"
"null","<div style=""font-size:60px;"">+</div>","null","html-keyboard-response","106","167205","0.0-6.0-0.50","VIDE","1","m","rechts","23","","fixation","","","",""
"1247","img/150_240.png","74","image-keyboard-response","107","168473","0.0-6.0-1.50","VIDE","1","m","rechts","23","","","object","j","150","true"
"null","<div style=""font-size:60px;"">+</div>","null","html-keyboard-response","108","168936","0.0-6.0-0.51","VIDE","1","m","rechts","23","","fixation","","","",""
"737","img/0_30.png","74","image-keyboard-response","109","169691","0.0-6.0-1.51","VIDE","1","m","rechts","23","","","object","j","0","true"
"null","<div style=""font-size:60px;"">+</div>","null","html-keyboard-response","110","170098","0.0-6.0-0.52","VIDE","1","m","rechts","23","","fixation","","","",""
"588","img/0_30.png","74","image-keyboard-response","111","170694","0.0-6.0-1.52","VIDE","1","m","rechts","23","","","object","j","0","true"
"null","<div style=""font-size:60px;"">+</div>","null","html-keyboard-response","112","171004","0.0-6.0-0.53","VIDE","1","m","rechts","23","","fixation","","","",""
"2150","img/60_150.png","70","image-keyboard-response","113","173165","0.0-6.0-1.53","VIDE","1","m","rechts","23","","","object","j","60","false"
"null","<div style=""font-size:60px;"">+</div>","null","html-keyboard-response","114","173474","0.0-6.0-0.54","VIDE","1","m","rechts","23","","fixation","","","",""
"1394","img/30_180.png","74","image-keyboard-response","115","174880","0.0-6.0-1.54","VIDE","1","m","rechts","23","","","object","f","30","false"
"null","<div style=""font-size:60px;"">+</div>","null","html-keyboard-response","116","175334","0.0-6.0-0.55","VIDE","1","m","rechts","23","","fixation","","","",""
"1407","img/150_240.png","74","image-keyboard-response","117","176749","0.0-6.0-1.55","VIDE","1","m","rechts","23","","","object","j","150","true"
"null","<div style=""font-size:60px;"">+</div>","null","html-keyboard-response","118","177223","0.0-6.0-0.56","VIDE","1","m","rechts","23","","fixation","","","",""
"1069","img/30_90.png","70","image-keyboard-response","119","178300","0.0-6.0-1.56","VIDE","1","m","rechts","23","","","object","j","30","false"
"null","<div style=""font-size:60px;"">+</div>","null","html-keyboard-response","120","178662","0.0-6.0-0.57","VIDE","1","m","rechts","23","","fixation","","","",""
"911","img/0_90.png","74","image-keyboard-response","121","179584","0.0-6.0-1.57","VIDE","1","m","rechts","23","","","object","j","0","true"
"null","<div style=""font-size:60px;"">+</div>","null","html-keyboard-response","122","180098","0.0-6.0-0.58","VIDE","1","m","rechts","23","","fixation","","","",""
"1399","img/30_300.png","74","image-keyboard-response","123","181507","0.0-6.0-1.58","VIDE","1","m","rechts","23","","","object","f","30","false"
"null","<div style=""font-size:60px;"">+</div>","null","html-keyboard-response","124","181974","0.0-6.0-0.59","VIDE","1","m","rechts","23","","fixation","","","",""
"1187","img/30_120.png","70","image-keyboard-response","125","183171","0.0-6.0-1.59","VIDE","1","m","rechts","23","","","object","j","30","false"
"null","<div style=""font-size:60px;"">+</div>","null","html-keyboard-response","126","183550","0.0-6.0-0.60","VIDE","1","m","rechts","23","","fixation","","","",""
"2067","img/120_90.png","74","image-keyboard-response","127","185630","0.0-6.0-1.60","VIDE","1","m","rechts","23","","","object","f","120","false"
"null","<div style=""font-size:60px;"">+</div>","null","html-keyboard-response","128","185987","0.0-6.0-0.61","VIDE","1","m","rechts","23","","fixation","","","",""
"2467","img/90_150.png","74","image-keyboard-response","129","188463","0.0-6.0-1.61","VIDE","1","m","rechts","23","","","object","j","90","true"
"null","<div style=""font-size:60px;"">+</div>","null","html-keyboard-response","130","188945","0.0-6.0-0.62","VIDE","1","m","rechts","23","","fixation","","","",""
"1415","img/150_180.png","70","image-keyboard-response","131","190372","0.0-6.0-1.62","VIDE","1","m","rechts","23","","","object","f","150","true"
"null","<div style=""font-size:60px;"">+</div>","null","html-keyboard-response","132","190738","0.0-6.0-0.63","VIDE","1","m","rechts","23","","fixation","","","",""
"986","img/90_330.png","74","image-keyboard-response","133","191733","0.0-6.0-1.63","VIDE","1","m","rechts","23","","","object","j","90","true"
"null","<div style=""font-size:60px;"">+</div>","null","html-keyboard-response","134","192161","0.0-6.0-0.64","VIDE","1","m","rechts","23","","fixation","","","",""
"1652","img/120_180.png","70","image-keyboard-response","135","193827","0.0-6.0-1.64","VIDE","1","m","rechts","23","","","object","f","120","true"
"null","<div style=""font-size:60px;"">+</div>","null","html-keyboard-response","136","194192","0.0-6.0-0.65","VIDE","1","m","rechts","23","","fixation","","","",""
"1574","img/L150_180.png","74","image-keyboard-response","137","195772","0.0-6.0-1.65","VIDE","1","m","rechts","23","","","object","j","150","true"
"null","<div style=""font-size:60px;"">+</div>","null","html-keyboard-response","138","196284","0.0-6.0-0.66","VIDE","1","m","rechts","23","","fixation","","","",""
"1606","img/150_90.png","74","image-keyboard-response","139","197897","0.0-6.0-1.66","VIDE","1","m","rechts","23","","","object","f","150","false"
"null","<div style=""font-size:60px;"">+</div>","null","html-keyboard-response","140","198379","0.0-6.0-0.67","VIDE","1","m","rechts","23","","fixation","","","",""
"1655","img/90_210.png","70","image-keyboard-response","141","200048","0.0-6.0-1.67","VIDE","1","m","rechts","23","","","object","f","90","true"
"null","<div style=""font-size:60px;"">+</div>","null","html-keyboard-response","142","200412","0.0-6.0-0.68","VIDE","1","m","rechts","23","","fixation","","","",""
"1017","img/120_330.png","74","image-keyboard-response","143","201443","0.0-6.0-1.68","VIDE","1","m","rechts","23","","","object","j","120","true"
"null","<div style=""font-size:60px;"">+</div>","null","html-keyboard-response","144","201772","0.0-6.0-0.69","VIDE","1","m","rechts","23","","fixation","","","",""
"1177","img/30_270.png","74","image-keyboard-response","145","202961","0.0-6.0-1.69","VIDE","1","m","rechts","23","","","object","f","30","false"
"null","<div style=""font-size:60px;"">+</div>","null","html-keyboard-response","146","203412","0.0-6.0-0.70","VIDE","1","m","rechts","23","","fixation","","","",""
"872","img/30_60.png","70","image-keyboard-response","147","204299","0.0-6.0-1.70","VIDE","1","m","rechts","23","","","object","j","30","false"
"null","<div style=""font-size:60px;"">+</div>","null","html-keyboard-response","148","204724","0.0-6.0-0.71","VIDE","1","m","rechts","23","","fixation","","","",""
"896","img/60_30.png","70","image-keyboard-response","149","205638","0.0-6.0-1.71","VIDE","1","m","rechts","23","","","object","f","60","true"
"null","<div style=""font-size:60px;"">+</div>","null","html-keyboard-response","150","206069","0.0-6.0-0.72","VIDE","1","m","rechts","23","","fixation","","","",""
"865","img/90_120.png","74","image-keyboard-response","151","206944","0.0-6.0-1.72","VIDE","1","m","rechts","23","","","object","j","90","true"
"null","<div style=""font-size:60px;"">+</div>","null","html-keyboard-response","152","207348","0.0-6.0-0.73","VIDE","1","m","rechts","23","","fixation","","","",""
"1337","img/120_210.png","70","image-keyboard-response","153","208698","0.0-6.0-1.73","VIDE","1","m","rechts","23","","","object","f","120","true"
"null","<div style=""font-size:60px;"">+</div>","null","html-keyboard-response","154","209006","0.0-6.0-0.74","VIDE","1","m","rechts","23","","fixation","","","",""
"1334","img/L30_180.png","74","image-keyboard-response","155","210351","0.0-6.0-1.74","VIDE","1","m","rechts","23","","","object","j","30","true"
"null","<div style=""font-size:60px;"">+</div>","null","html-keyboard-response","156","210710","0.0-6.0-0.75","VIDE","1","m","rechts","23","","fixation","","","",""
"1170","img/0_300.png","70","image-keyboard-response","157","211894","0.0-6.0-1.75","VIDE","1","m","rechts","23","","","object","f","0","true"
"null","<div style=""font-size:60px;"">+</div>","null","html-keyboard-response","158","212399","0.0-6.0-0.76","VIDE","1","m","rechts","23","","fixation","","","",""
"684","img/0_120.png","74","image-keyboard-response","159","213095","0.0-6.0-1.76","VIDE","1","m","rechts","23","","","object","j","0","true"
"null","<div style=""font-size:60px;"">+</div>","null","html-keyboard-response","160","213460","0.0-6.0-0.77","VIDE","1","m","rechts","23","","fixation","","","",""
"1433","img/150_270.png","74","image-keyboard-response","161","214898","0.0-6.0-1.77","VIDE","1","m","rechts","23","","","object","j","150","true"
"null","<div style=""font-size:60px;"">+</div>","null","html-keyboard-response","162","215320","0.0-6.0-0.78","VIDE","1","m","rechts","23","","fixation","","","",""
"1100","img/0_330.png","70","image-keyboard-response","163","216427","0.0-6.0-1.78","VIDE","1","m","rechts","23","","","object","f","0","true"
"null","<div style=""font-size:60px;"">+</div>","null","html-keyboard-response","164","216945","0.0-6.0-0.79","VIDE","1","m","rechts","23","","fixation","","","",""
"1195","img/90_180.png","70","image-keyboard-response","165","218149","0.0-6.0-1.79","VIDE","1","m","rechts","23","","","object","f","90","true"
"null","<div style=""font-size:60px;"">+</div>","null","html-keyboard-response","166","218516","0.0-6.0-0.80","VIDE","1","m","rechts","23","","fixation","","","",""
"1519","img/150_60.png","74","image-keyboard-response","167","220049","0.0-6.0-1.80","VIDE","1","m","rechts","23","","","object","f","150","false"
"null","<div style=""font-size:60px;"">+</div>","null","html-keyboard-response","168","220359","0.0-6.0-0.81","VIDE","1","m","rechts","23","","fixation","","","",""
"1965","img/90_240.png","74","image-keyboard-response","169","222333","0.0-6.0-1.81","VIDE","1","m","rechts","23","","","object","f","90","false"
"null","<div style=""font-size:60px;"">+</div>","null","html-keyboard-response","170","222641","0.0-6.0-0.82","VIDE","1","m","rechts","23","","fixation","","","",""
"1199","img/30_240.png","70","image-keyboard-response","171","223853","0.0-6.0-1.82","VIDE","1","m","rechts","23","","","object","f","30","true"
"null","<div style=""font-size:60px;"">+</div>","null","html-keyboard-response","172","224170","0.0-6.0-0.83","VIDE","1","m","rechts","23","","fixation","","","",""
"1661","img/120_150.png","70","image-keyboard-response","173","225844","0.0-6.0-1.83","VIDE","1","m","rechts","23","","","object","j","120","false"
"null","<div style=""font-size:60px;"">+</div>","null","html-keyboard-response","174","226205","0.0-6.0-0.84","VIDE","1","m","rechts","23","","fixation","","","",""
"1432","img/60_90.png","70","image-keyboard-response","175","227645","0.0-6.0-1.84","VIDE","1","m","rechts","23","","","object","j","60","false"
"null","<div style=""font-size:60px;"">+</div>","null","html-keyboard-response","176","228063","0.0-6.0-0.85","VIDE","1","m","rechts","23","","fixation","","","",""
"1412","img/60_270.png","74","image-keyboard-response","177","229490","0.0-6.0-1.85","VIDE","1","m","rechts","23","","","object","f","60","false"
"null","<div style=""font-size:60px;"">+</div>","null","html-keyboard-response","178","229954","0.0-6.0-0.86","VIDE","1","m","rechts","23","","fixation","","","",""
"1410","img/90_60.png","70","image-keyboard-response","179","231377","0.0-6.0-1.86","VIDE","1","m","rechts","23","","","object","f","90","true"
"null","<div style=""font-size:60px;"">+</div>","null","html-keyboard-response","180","231893","0.0-6.0-0.87","VIDE","1","m","rechts","23","","fixation","","","",""
"961","img/0_240.png","70","image-keyboard-response","181","232864","0.0-6.0-1.87","VIDE","1","m","rechts","23","","","object","f","0","true"
"null","<div style=""font-size:60px;"">+</div>","null","html-keyboard-response","182","233330","0.0-6.0-0.88","VIDE","1","m","rechts","23","","fixation","","","",""
"697","img/0_150.png","74","image-keyboard-response","183","234035","0.0-6.0-1.88","VIDE","1","m","rechts","23","","","object","j","0","true"
"null","<div style=""font-size:60px;"">+</div>","null","html-keyboard-response","184","234456","0.0-6.0-0.89","VIDE","1","m","rechts","23","","fixation","","","",""
"1737","img/L90_180.png","70","image-keyboard-response","185","236208","0.0-6.0-1.89","VIDE","1","m","rechts","23","","","object","j","90","false"
"null","<div style=""font-size:60px;"">+</div>","null","html-keyboard-response","186","236564","0.0-6.0-0.90","VIDE","1","m","rechts","23","","fixation","","","",""
"1012","img/90_30.png","70","image-keyboard-response","187","237590","0.0-6.0-1.90","VIDE","1","m","rechts","23","","","object","f","90","true"
"null","<div style=""font-size:60px;"">+</div>","null","html-keyboard-response","188","237955","0.0-6.0-0.91","VIDE","1","m","rechts","23","","fixation","","","",""
"738","img/0_60.png","74","image-keyboard-response","189","238703","0.0-6.0-1.91","VIDE","1","m","rechts","23","","","object","j","0","true"
"null","<div style=""font-size:60px;"">+</div>","null","html-keyboard-response","190","239065","0.0-6.0-0.92","VIDE","1","m","rechts","23","","fixation","","","",""
"852","img/0_210.png","70","image-keyboard-response","191","239928","0.0-6.0-1.92","VIDE","1","m","rechts","23","","","object","f","0","true"
"null","<div style=""font-size:60px;"">+</div>","null","html-keyboard-response","192","240286","0.0-6.0-0.93","VIDE","1","m","rechts","23","","fixation","","","",""
"1011","img/L120_180.png","74","image-keyboard-response","193","241310","0.0-6.0-1.93","VIDE","1","m","rechts","23","","","object","j","120","true"
"null","<div style=""font-size:60px;"">+</div>","null","html-keyboard-response","194","241612","0.0-6.0-0.94","VIDE","1","m","rechts","23","","fixation","","","",""
"1645","img/60_210.png","70","image-keyboard-response","195","243270","0.0-6.0-1.94","VIDE","1","m","rechts","23","","","object","f","60","true"
"null","<div style=""font-size:60px;"">+</div>","null","html-keyboard-response","196","243723","0.0-6.0-0.95","VIDE","1","m","rechts","23","","fixation","","","",""
"1537","img/120_270.png","74","image-keyboard-response","197","245273","0.0-6.0-1.95","VIDE","1","m","rechts","23","","","object","j","120","true"
"null","<div style=""font-size:60px;"">+</div>","null","html-keyboard-response","198","245676","0.0-6.0-0.96","VIDE","1","m","rechts","23","","fixation","","","",""
"1606","img/L60_180.png","74","image-keyboard-response","199","247295","0.0-6.0-1.96","VIDE","1","m","rechts","23","","","object","j","60","true"
"null","<div style=""font-size:60px;"">+</div>","null","html-keyboard-response","200","247597","0.0-6.0-0.97","VIDE","1","m","rechts","23","","fixation","","","",""
"868","img/0_270.png","70","image-keyboard-response","201","248479","0.0-6.0-1.97","VIDE","1","m","rechts","23","","","object","f","0","true"
"null","<div style=""font-size:60px;"">+</div>","null","html-keyboard-response","202","249004","0.0-6.0-0.98","VIDE","1","m","rechts","23","","fixation","","","",""
"1160","img/150_120.png","70","image-keyboard-response","203","250176","0.0-6.0-1.98","VIDE","1","m","rechts","23","","","object","f","150","true"
"null","<div style=""font-size:60px;"">+</div>","null","html-keyboard-response","204","250599","0.0-6.0-0.99","VIDE","1","m","rechts","23","","fixation","","","",""
"949","img/120_30.png","70","image-keyboard-response","205","251561","0.0-6.0-1.99","VIDE","1","m","rechts","23","","","object","f","120","true"
"null","<div style=""font-size:60px;"">+</div>","null","html-keyboard-response","206","251864","0.0-6.0-0.100","VIDE","1","m","rechts","23","","fixation","","","",""
"1008","img/60_330.png","74","image-keyboard-response","207","252889","0.0-6.0-1.100","VIDE","1","m","rechts","23","","","object","j","60","true"
"null","<div style=""font-size:60px;"">+</div>","null","html-keyboard-response","208","253301","0.0-6.0-0.101","VIDE","1","m","rechts","23","","fixation","","","",""
"930","img/90_300.png","74","image-keyboard-response","209","254239","0.0-6.0-1.101","VIDE","1","m","rechts","23","","","object","j","90","true"
"null","<div style=""font-size:60px;"">+</div>","null","html-keyboard-response","210","254697","0.0-6.0-0.102","VIDE","1","m","rechts","23","","fixation","","","",""
"1026","img/150_300.png","74","image-keyboard-response","211","255736","0.0-6.0-1.102","VIDE","1","m","rechts","23","","","object","j","150","true"
"null","<div style=""font-size:60px;"">+</div>","null","html-keyboard-response","212","256101","0.0-6.0-0.103","VIDE","1","m","rechts","23","","fixation","","","",""
"1117","img/60_180.png","74","image-keyboard-response","213","257231","0.0-6.0-1.103","VIDE","1","m","rechts","23","","","object","f","60","false"
"null","<div style=""font-size:60px;"">+</div>","null","html-keyboard-response","214","257586","0.0-6.0-0.104","VIDE","1","m","rechts","23","","fixation","","","",""
"982","img/90_330.png","74","image-keyboard-response","215","258582","0.0-6.0-1.104","VIDE","1","m","rechts","23","","","object","j","90","true"
"null","<div style=""font-size:60px;"">+</div>","null","html-keyboard-response","216","258898","0.0-6.0-0.105","VIDE","1","m","rechts","23","","fixation","","","",""
"1071","img/90_30.png","70","image-keyboard-response","217","259978","0.0-6.0-1.105","VIDE","1","m","rechts","23","","","object","f","90","true"
"null","<div style=""font-size:60px;"">+</div>","null","html-keyboard-response","218","260339","0.0-6.0-0.106","VIDE","1","m","rechts","23","","fixation","","","",""
"1472","img/30_120.png","70","image-keyboard-response","219","261824","0.0-6.0-1.106","VIDE","1","m","rechts","23","","","object","j","30","false"
"null","<div style=""font-size:60px;"">+</div>","null","html-keyboard-response","220","262136","0.0-6.0-0.107","VIDE","1","m","rechts","23","","fixation","","","",""
"944","img/0_90.png","74","image-keyboard-response","221","263093","0.0-6.0-1.107","VIDE","1","m","rechts","23","","","object","j","0","true"
"null","<div style=""font-size:60px;"">+</div>","null","html-keyboard-response","222","263511","0.0-6.0-0.108","VIDE","1","m","rechts","23","","fixation","","","",""
"1586","img/150_120.png","70","image-keyboard-response","223","265108","0.0-6.0-1.108","VIDE","1","m","rechts","23","","","object","f","150","true"
"null","<div style=""font-size:60px;"">+</div>","null","html-keyboard-response","224","265573","0.0-6.0-0.109","VIDE","1","m","rechts","23","","fixation","","","",""
"1685","img/30_240.png","70","image-keyboard-response","225","267268","0.0-6.0-1.109","VIDE","1","m","rechts","23","","","object","f","30","true"
"null","<div style=""font-size:60px;"">+</div>","null","html-keyboard-response","226","267650","0.0-6.0-0.110","VIDE","1","m","rechts","23","","fixation","","","",""
"778","img/0_330.png","70","image-keyboard-response","227","268437","0.0-6.0-1.110","VIDE","1","m","rechts","23","","","object","f","0","true"
"null","<div style=""font-size:60px;"">+</div>","null","html-keyboard-response","228","268853","0.0-6.0-0.111","VIDE","1","m","rechts","23","","fixation","","","",""
"1262","img/90_300.png","74","image-keyboard-response","229","270124","0.0-6.0-1.111","VIDE","1","m","rechts","23","","","object","j","90","true"
"null","<div style=""font-size:60px;"">+</div>","null","html-keyboard-response","230","270450","0.0-6.0-0.112","VIDE","1","m","rechts","23","","fixation","","","",""
"723","img/60_330.png","74","image-keyboard-response","231","271183","0.0-6.0-1.112","VIDE","1","m","rechts","23","","","object","j","60","true"
"null","<div style=""font-size:60px;"">+</div>","null","html-keyboard-response","232","271589","0.0-6.0-0.113","VIDE","1","m","rechts","23","","fixation","","","",""
"1547","img/90_210.png","74","image-keyboard-response","233","273149","0.0-6.0-1.113","VIDE","1","m","rechts","23","","","object","f","90","false"
"null","<div style=""font-size:60px;"">+</div>","null","html-keyboard-response","234","273651","0.0-6.0-0.114","VIDE","1","m","rechts","23","","fixation","","","",""
"1097","img/30_60.png","70","image-keyboard-response","235","274759","0.0-6.0-1.114","VIDE","1","m","rechts","23","","","object","j","30","false"
"null","<div style=""font-size:60px;"">+</div>","null","html-keyboard-response","236","275214","0.0-6.0-0.115","VIDE","1","m","rechts","23","","fixation","","","",""
"1083","img/0_30.png","74","image-keyboard-response","237","276310","0.0-6.0-1.115","VIDE","1","m","rechts","23","","","object","j","0","true"
"null","<div style=""font-size:60px;"">+</div>","null","html-keyboard-response","238","276792","0.0-6.0-0.116","VIDE","1","m","rechts","23","","fixation","","","",""
"1636","img/120_270.png","74","image-keyboard-response","239","278438","0.0-6.0-1.116","VIDE","1","m","rechts","23","","","object","j","120","true"
"null","<div style=""font-size:60px;"">+</div>","null","html-keyboard-response","240","278902","0.0-6.0-0.117","VIDE","1","m","rechts","23","","fixation","","","",""
"1705","img/L150_180.png","74","image-keyboard-response","241","280621","0.0-6.0-1.117","VIDE","1","m","rechts","23","","","object","j","150","true"
"null","<div style=""font-size:60px;"">+</div>","null","html-keyboard-response","242","281139","0.0-6.0-0.118","VIDE","1","m","rechts","23","","fixation","","","",""
"1722","img/120_210.png","74","image-keyboard-response","243","282871","0.0-6.0-1.118","VIDE","1","m","rechts","23","","","object","f","120","false"
"null","<div style=""font-size:60px;"">+</div>","null","html-keyboard-response","244","283200","0.0-6.0-0.119","VIDE","1","m","rechts","23","","fixation","","","",""
"796","img/0_210.png","70","image-keyboard-response","245","284006","0.0-6.0-1.119","VIDE","1","m","rechts","23","","","object","f","0","true"
"null","<div style=""font-size:60px;"">+</div>","null","html-keyboard-response","246","284387","0.0-6.0-0.120","VIDE","1","m","rechts","23","","fixation","","","",""
"912","img/0_240.png","70","image-keyboard-response","247","285310","0.0-6.0-1.120","VIDE","1","m","rechts","23","","","object","f","0","true"
"null","<div style=""font-size:60px;"">+</div>","null","html-keyboard-response","248","285763","0.0-6.0-0.121","VIDE","1","m","rechts","23","","fixation","","","",""
"1519","img/150_300.png","74","image-keyboard-response","249","287291","0.0-6.0-1.121","VIDE","1","m","rechts","23","","","object","j","150","true"
"null","<div style=""font-size:60px;"">+</div>","null","html-keyboard-response","250","287701","0.0-6.0-0.122","VIDE","1","m","rechts","23","","fixation","","","",""
"1635","img/150_90.png","74","image-keyboard-response","251","289351","0.0-6.0-1.122","VIDE","1","m","rechts","23","","","object","f","150","false"
"null","<div style=""font-size:60px;"">+</div>","null","html-keyboard-response","252","289808","0.0-6.0-0.123","VIDE","1","m","rechts","23","","fixation","","","",""
"904","img/0_120.png","74","image-keyboard-response","253","290723","0.0-6.0-1.123","VIDE","1","m","rechts","23","","","object","j","0","true"
"null","<div style=""font-size:60px;"">+</div>","null","html-keyboard-response","254","291088","0.0-6.0-0.124","VIDE","1","m","rechts","23","","fixation","","","",""
"2326","img/150_240.png","74","image-keyboard-response","255","293427","0.0-6.0-1.124","VIDE","1","m","rechts","23","","","object","j","150","true"
"null","<div style=""font-size:60px;"">+</div>","null","html-keyboard-response","256","293737","0.0-6.0-0.125","VIDE","1","m","rechts","23","","fixation","","","",""
"1664","img/90_150.png","70","image-keyboard-response","257","295414","0.0-6.0-1.125","VIDE","1","m","rechts","23","","","object","j","90","false"
"null","<div style=""font-size:60px;"">+</div>","null","html-keyboard-response","258","295877","0.0-6.0-0.126","VIDE","1","m","rechts","23","","fixation","","","",""
"1801","img/120_30.png","70","image-keyboard-response","259","297688","0.0-6.0-1.126","VIDE","1","m","rechts","23","","","object","f","120","true"
"null","<div style=""font-size:60px;"">+</div>","null","html-keyboard-response","260","298049","0.0-6.0-0.127","VIDE","1","m","rechts","23","","fixation","","","",""
"1754","img/0_150.png","74","image-keyboard-response","261","299814","0.0-6.0-1.127","VIDE","1","m","rechts","23","","","object","j","0","true"
"null","<div style=""font-size:60px;"">+</div>","null","html-keyboard-response","262","300286","0.0-6.0-0.128","VIDE","1","m","rechts","23","","fixation","","","",""
"2437","img/L60_180.png","74","image-keyboard-response","263","302733","0.0-6.0-1.128","VIDE","1","m","rechts","23","","","object","j","60","true"
"null","<div style=""font-size:60px;"">+</div>","null","html-keyboard-response","264","303197","0.0-6.0-0.129","VIDE","1","m","rechts","23","","fixation","","","",""
"2427","img/60_270.png","74","image-keyboard-response","265","305634","0.0-6.0-1.129","VIDE","1","m","rechts","23","","","object","f","60","false"
"null","<div style=""font-size:60px;"">+</div>","null","html-keyboard-response","266","305989","0.0-6.0-0.130","VIDE","1","m","rechts","23","","fixation","","","",""
"1371","img/90_240.png","74","image-keyboard-response","267","307374","0.0-6.0-1.130","VIDE","1","m","rechts","23","","","object","f","90","false"
"null","<div style=""font-size:60px;"">+</div>","null","html-keyboard-response","268","307694","0.0-6.0-0.131","VIDE","1","m","rechts","23","","fixation","","","",""
"1027","img/0_300.png","70","image-keyboard-response","269","308734","0.0-6.0-1.131","VIDE","1","m","rechts","23","","","object","f","0","true"
"null","<div style=""font-size:60px;"">+</div>","null","html-keyboard-response","270","309161","0.0-6.0-0.132","VIDE","1","m","rechts","23","","fixation","","","",""
"1429","img/90_60.png","70","image-keyboard-response","271","310603","0.0-6.0-1.132","VIDE","1","m","rechts","23","","","object","f","90","true"
"null","<div style=""font-size:60px;"">+</div>","null","html-keyboard-response","272","310962","0.0-6.0-0.133","VIDE","1","m","rechts","23","","fixation","","","",""
"1934","img/L30_180.png","74","image-keyboard-response","273","312909","0.0-6.0-1.133","VIDE","1","m","rechts","23","","","object","j","30","true"
"null","<div style=""font-size:60px;"">+</div>","null","html-keyboard-response","274","313213","0.0-6.0-0.134","VIDE","1","m","rechts","23","","fixation","","","",""
"1809","img/120_90.png","70","image-keyboard-response","275","315036","0.0-6.0-1.134","VIDE","1","m","rechts","23","","","object","f","120","true"
"null","<div style=""font-size:60px;"">+</div>","null","html-keyboard-response","276","315400","0.0-6.0-0.135","VIDE","1","m","rechts","23","","fixation","","","",""
"1411","img/60_90.png","74","image-keyboard-response","277","316824","0.0-6.0-1.135","VIDE","1","m","rechts","23","","","object","j","60","true"
"null","<div style=""font-size:60px;"">+</div>","null","html-keyboard-response","278","317136","0.0-6.0-0.136","VIDE","1","m","rechts","23","","fixation","","","",""
"2115","img/120_150.png","70","image-keyboard-response","279","319260","0.0-6.0-1.136","VIDE","1","m","rechts","23","","","object","j","120","false"
"null","<div style=""font-size:60px;"">+</div>","null","html-keyboard-response","280","319772","0.0-6.0-0.137","VIDE","1","m","rechts","23","","fixation","","","",""
"1779","img/60_210.png","70","image-keyboard-response","281","321560","0.0-6.0-1.137","VIDE","1","m","rechts","23","","","object","f","60","true"
"null","<div style=""font-size:60px;"">+</div>","null","html-keyboard-response","282","321870","0.0-6.0-0.138","VIDE","1","m","rechts","23","","fixation","","","",""
"1577","img/30_300.png","70","image-keyboard-response","283","323460","0.0-6.0-1.138","VIDE","1","m","rechts","23","","","object","f","30","true"
"null","<div style=""font-size:60px;"">+</div>","null","html-keyboard-response","284","323932","0.0-6.0-0.139","VIDE","1","m","rechts","23","","fixation","","","",""
"2693","img/60_150.png","74","image-keyboard-response","285","326639","0.0-6.0-1.139","VIDE","1","m","rechts","23","","","object","j","60","true"
"null","<div style=""font-size:60px;"">+</div>","null","html-keyboard-response","286","327119","0.0-6.0-0.140","VIDE","1","m","rechts","23","","fixation","","","",""
"953","img/0_60.png","74","image-keyboard-response","287","328087","0.0-6.0-1.140","VIDE","1","m","rechts","23","","","object","j","0","true"
"null","<div style=""font-size:60px;"">+</div>","null","html-keyboard-response","288","328398","0.0-6.0-0.141","VIDE","1","m","rechts","23","","fixation","","","",""
"1145","img/60_30.png","70","image-keyboard-response","289","329556","0.0-6.0-1.141","VIDE","1","m","rechts","23","","","object","f","60","true"
"null","<div style=""font-size:60px;"">+</div>","null","html-keyboard-response","290","329913","0.0-6.0-0.142","VIDE","1","m","rechts","23","","fixation","","","",""
"1681","img/90_180.png","70","image-keyboard-response","291","331607","0.0-6.0-1.142","VIDE","1","m","rechts","23","","","object","f","90","true"
"null","<div style=""font-size:60px;"">+</div>","null","html-keyboard-response","292","332089","0.0-6.0-0.143","VIDE","1","m","rechts","23","","fixation","","","",""
"2217","img/90_120.png","70","image-keyboard-response","293","334318","0.0-6.0-1.143","VIDE","1","m","rechts","23","","","object","j","90","false"
"null","<div style=""font-size:60px;"">+</div>","null","html-keyboard-response","294","334690","0.0-6.0-0.144","VIDE","1","m","rechts","23","","fixation","","","",""
"2197","img/120_330.png","74","image-keyboard-response","295","336900","0.0-6.0-1.144","VIDE","1","m","rechts","23","","","object","j","120","true"
"null","<div style=""font-size:60px;"">+</div>","null","html-keyboard-response","296","337208","0.0-6.0-0.145","VIDE","1","m","rechts","23","","fixation","","","",""
"1147","img/120_180.png","70","image-keyboard-response","297","338366","0.0-6.0-1.145","VIDE","1","m","rechts","23","","","object","f","120","true"
"null","<div style=""font-size:60px;"">+</div>","null","html-keyboard-response","298","338785","0.0-6.0-0.146","VIDE","1","m","rechts","23","","fixation","","","",""
"1081","img/60_180.png","70","image-keyboard-response","299","339876","0.0-6.0-1.146","VIDE","1","m","rechts","23","","","object","f","60","true"
"null","<div style=""font-size:60px;"">+</div>","null","html-keyboard-response","300","340378","0.0-6.0-0.147","VIDE","1","m","rechts","23","","fixation","","","",""
"1140","img/30_180.png","70","image-keyboard-response","301","341529","0.0-6.0-1.147","VIDE","1","m","rechts","23","","","object","f","30","true"
"null","<div style=""font-size:60px;"">+</div>","null","html-keyboard-response","302","341847","0.0-6.0-0.148","VIDE","1","m","rechts","23","","fixation","","","",""
"692","img/30_270.png","70","image-keyboard-response","303","342554","0.0-6.0-1.148","VIDE","1","m","rechts","23","","","object","f","30","true"
"null","<div style=""font-size:60px;"">+</div>","null","html-keyboard-response","304","342910","0.0-6.0-0.149","VIDE","1","m","rechts","23","","fixation","","","",""
"1194","img/L90_180.png","74","image-keyboard-response","305","344117","0.0-6.0-1.149","VIDE","1","m","rechts","23","","","object","j","90","true"
"null","<div style=""font-size:60px;"">+</div>","null","html-keyboard-response","306","344599","0.0-6.0-0.150","VIDE","1","m","rechts","23","","fixation","","","",""
"1113","img/150_60.png","70","image-keyboard-response","307","345725","0.0-6.0-1.150","VIDE","1","m","rechts","23","","","object","f","150","true"
"null","<div style=""font-size:60px;"">+</div>","null","html-keyboard-response","308","346255","0.0-6.0-0.151","VIDE","1","m","rechts","23","","fixation","","","",""
"897","img/0_270.png","70","image-keyboard-response","309","347163","0.0-6.0-1.151","VIDE","1","m","rechts","23","","","object","f","0","true"
"null","<div style=""font-size:60px;"">+</div>","null","html-keyboard-response","310","347612","0.0-6.0-0.152","VIDE","1","m","rechts","23","","fixation","","","",""
"1723","img/150_180.png","70","image-keyboard-response","311","349348","0.0-6.0-1.152","VIDE","1","m","rechts","23","","","object","f","150","true"
"null","<div style=""font-size:60px;"">+</div>","null","html-keyboard-response","312","349675","0.0-6.0-0.153","VIDE","1","m","rechts","23","","fixation","","","",""
"1369","img/30_90.png","70","image-keyboard-response","313","351058","0.0-6.0-1.153","VIDE","1","m","rechts","23","","","object","j","30","false"
"null","<div style=""font-size:60px;"">+</div>","null","html-keyboard-response","314","351490","0.0-6.0-0.154","VIDE","1","m","rechts","23","","fixation","","","",""
"1523","img/150_270.png","74","image-keyboard-response","315","353027","0.0-6.0-1.154","VIDE","1","m","rechts","23","","","object","j","150","true"
"null","<div style=""font-size:60px;"">+</div>","null","html-keyboard-response","316","353552","0.0-6.0-0.155","VIDE","1","m","rechts","23","","fixation","","","",""
"2368","img/L120_180.png","74","image-keyboard-response","317","355935","0.0-6.0-1.155","VIDE","1","m","rechts","23","","","object","j","120","true"
"null","<div style=""font-size:60px;"">+</div>","null","html-keyboard-response","318","356416","0.0-6.0-0.156","VIDE","1","m","rechts","23","","fixation","","","",""
"1641","img/120_330.png","74","image-keyboard-response","319","358065","0.0-6.0-1.156","VIDE","1","m","rechts","23","","","object","j","120","true"
"null","<div style=""font-size:60px;"">+</div>","null","html-keyboard-response","320","358539","0.0-6.0-0.157","VIDE","1","m","rechts","23","","fixation","","","",""
"1645","img/150_180.png","74","image-keyboard-response","321","360195","0.0-6.0-1.157","VIDE","1","m","rechts","23","","","object","f","150","false"
"null","<div style=""font-size:60px;"">+</div>","null","html-keyboard-response","322","360509","0.0-6.0-0.158","VIDE","1","m","rechts","23","","fixation","","","",""
"946","img/L150_180.png","70","image-keyboard-response","323","361465","0.0-6.0-1.158","VIDE","1","m","rechts","23","","","object","j","150","false"
"null","<div style=""font-size:60px;"">+</div>","null","html-keyboard-response","324","361868","0.0-6.0-0.159","VIDE","1","m","rechts","23","","fixation","","","",""
"1220","img/0_300.png","70","image-keyboard-response","325","363097","0.0-6.0-1.159","VIDE","1","m","rechts","23","","","object","f","0","true"
"null","<div style=""font-size:60px;"">+</div>","null","html-keyboard-response","326","363602","0.0-6.0-0.160","VIDE","1","m","rechts","23","","fixation","","","",""
"1316","img/150_60.png","70","image-keyboard-response","327","364929","0.0-6.0-1.160","VIDE","1","m","rechts","23","","","object","f","150","true"
"null","<div style=""font-size:60px;"">+</div>","null","html-keyboard-response","328","365251","0.0-6.0-0.161","VIDE","1","m","rechts","23","","fixation","","","",""
"1402","img/150_270.png","74","image-keyboard-response","329","366662","0.0-6.0-1.161","VIDE","1","m","rechts","23","","","object","j","150","true"
"null","<div style=""font-size:60px;"">+</div>","null","html-keyboard-response","330","367080","0.0-6.0-0.162","VIDE","1","m","rechts","23","","fixation","","","",""
"799","img/90_330.png","74","image-keyboard-response","331","367888","0.0-6.0-1.162","VIDE","1","m","rechts","23","","","object","j","90","true"
"null","<div style=""font-size:60px;"">+</div>","null","html-keyboard-response","332","368266","0.0-6.0-0.163","VIDE","1","m","rechts","23","","fixation","","","",""
"1884","img/L120_180.png","74","image-keyboard-response","333","370161","0.0-6.0-1.163","VIDE","1","m","rechts","23","","","object","j","120","true"
"null","<div style=""font-size:60px;"">+</div>","null","html-keyboard-response","334","370518","0.0-6.0-0.164","VIDE","1","m","rechts","23","","fixation","","","",""
"1499","img/120_90.png","70","image-keyboard-response","335","372028","0.0-6.0-1.164","VIDE","1","m","rechts","23","","","object","f","120","true"
"null","<div style=""font-size:60px;"">+</div>","null","html-keyboard-response","336","372486","0.0-6.0-0.165","VIDE","1","m","rechts","23","","fixation","","","",""
"1089","img/60_210.png","74","image-keyboard-response","337","373591","0.0-6.0-1.165","VIDE","1","m","rechts","23","","","object","f","60","false"
"null","<div style=""font-size:60px;"">+</div>","null","html-keyboard-response","338","373971","0.0-6.0-0.166","VIDE","1","m","rechts","23","","fixation","","","",""
"2879","img/150_90.png","70","image-keyboard-response","339","376859","0.0-6.0-1.166","VIDE","1","m","rechts","23","","","object","f","150","true"
"null","<div style=""font-size:60px;"">+</div>","null","html-keyboard-response","340","377387","0.0-6.0-0.167","VIDE","1","m","rechts","23","","fixation","","","",""
"1432","img/90_120.png","74","image-keyboard-response","341","378824","0.0-6.0-1.167","VIDE","1","m","rechts","23","","","object","j","90","true"
"null","<div style=""font-size:60px;"">+</div>","null","html-keyboard-response","342","379356","0.0-6.0-0.168","VIDE","1","m","rechts","23","","fixation","","","",""
"1845","img/90_60.png","70","image-keyboard-response","343","381214","0.0-6.0-1.168","VIDE","1","m","rechts","23","","","object","f","90","true"
"null","<div style=""font-size:60px;"">+</div>","null","html-keyboard-response","344","381522","0.0-6.0-0.169","VIDE","1","m","rechts","23","","fixation","","","",""
"913","img/60_90.png","70","image-keyboard-response","345","382446","0.0-6.0-1.169","VIDE","1","m","rechts","23","","","object","j","60","false"
"null","<div style=""font-size:60px;"">+</div>","null","html-keyboard-response","346","382866","0.0-6.0-0.170","VIDE","1","m","rechts","23","","fixation","","","",""
"962","img/30_270.png","74","image-keyboard-response","347","383840","0.0-6.0-1.170","VIDE","1","m","rechts","23","","","object","f","30","false"
"null","<div style=""font-size:60px;"">+</div>","null","html-keyboard-response","348","384257","0.0-6.0-0.171","VIDE","1","m","rechts","23","","fixation","","","",""
"1168","img/120_30.png","70","image-keyboard-response","349","385438","0.0-6.0-1.171","VIDE","1","m","rechts","23","","","object","f","120","true"
"null","<div style=""font-size:60px;"">+</div>","null","html-keyboard-response","350","385850","0.0-6.0-0.172","VIDE","1","m","rechts","23","","fixation","","","",""
"1773","img/90_180.png","70","image-keyboard-response","351","387633","0.0-6.0-1.172","VIDE","1","m","rechts","23","","","object","f","90","true"
"null","<div style=""font-size:60px;"">+</div>","null","html-keyboard-response","352","388148","0.0-6.0-0.173","VIDE","1","m","rechts","23","","fixation","","","",""
"1039","img/30_180.png","70","image-keyboard-response","353","389196","0.0-6.0-1.173","VIDE","1","m","rechts","23","","","object","f","30","true"
"null","<div style=""font-size:60px;"">+</div>","null","html-keyboard-response","354","389507","0.0-6.0-0.174","VIDE","1","m","rechts","23","","fixation","","","",""
"1175","img/120_150.png","74","image-keyboard-response","355","390691","0.0-6.0-1.174","VIDE","1","m","rechts","23","","","object","j","120","true"
"null","<div style=""font-size:60px;"">+</div>","null","html-keyboard-response","356","391071","0.0-6.0-0.175","VIDE","1","m","rechts","23","","fixation","","","",""
"1683","img/90_150.png","74","image-keyboard-response","357","392763","0.0-6.0-1.175","VIDE","1","m","rechts","23","","","object","j","90","true"
"null","<div style=""font-size:60px;"">+</div>","null","html-keyboard-response","358","393274","0.0-6.0-0.176","VIDE","1","m","rechts","23","","fixation","","","",""
"1502","img/0_270.png","70","image-keyboard-response","359","394789","0.0-6.0-1.176","VIDE","1","m","rechts","23","","","object","f","0","true"
"null","<div style=""font-size:60px;"">+</div>","null","html-keyboard-response","360","395305","0.0-6.0-0.177","VIDE","1","m","rechts","23","","fixation","","","",""
"1156","img/60_330.png","74","image-keyboard-response","361","396474","0.0-6.0-1.177","VIDE","1","m","rechts","23","","","object","j","60","true"
"null","<div style=""font-size:60px;"">+</div>","null","html-keyboard-response","362","396929","0.0-6.0-0.178","VIDE","1","m","rechts","23","","fixation","","","",""
"904","img/90_30.png","70","image-keyboard-response","363","397847","0.0-6.0-1.178","VIDE","1","m","rechts","23","","","object","f","90","true"
"null","<div style=""font-size:60px;"">+</div>","null","html-keyboard-response","364","398352","0.0-6.0-0.179","VIDE","1","m","rechts","23","","fixation","","","",""
"1805","img/120_180.png","70","image-keyboard-response","365","400166","0.0-6.0-1.179","VIDE","1","m","rechts","23","","","object","f","120","true"
"null","<div style=""font-size:60px;"">+</div>","null","html-keyboard-response","366","400694","0.0-6.0-0.180","VIDE","1","m","rechts","23","","fixation","","","",""
"2334","img/30_90.png","70","image-keyboard-response","367","403039","0.0-6.0-1.180","VIDE","1","m","rechts","23","","","object","j","30","false"
"null","<div style=""font-size:60px;"">+</div>","null","html-keyboard-response","368","403565","0.0-6.0-0.181","VIDE","1","m","rechts","23","","fixation","","","",""
"2066","img/120_210.png","74","image-keyboard-response","369","405646","0.0-6.0-1.181","VIDE","1","m","rechts","23","","","object","f","120","false"
"null","<div style=""font-size:60px;"">+</div>","null","html-keyboard-response","370","406019","0.0-6.0-0.182","VIDE","1","m","rechts","23","","fixation","","","",""
"1450","img/90_240.png","74","image-keyboard-response","371","407478","0.0-6.0-1.182","VIDE","1","m","rechts","23","","","object","f","90","false"
"null","<div style=""font-size:60px;"">+</div>","null","html-keyboard-response","372","407910","0.0-6.0-0.183","VIDE","1","m","rechts","23","","fixation","","","",""
"1810","img/60_150.png","74","image-keyboard-response","373","409729","0.0-6.0-1.183","VIDE","1","m","rechts","23","","","object","j","60","true"
"null","<div style=""font-size:60px;"">+</div>","null","html-keyboard-response","374","410205","0.0-6.0-0.184","VIDE","1","m","rechts","23","","fixation","","","",""
"1420","img/60_180.png","70","image-keyboard-response","375","411638","0.0-6.0-1.184","VIDE","1","m","rechts","23","","","object","f","60","true"
"null","<div style=""font-size:60px;"">+</div>","null","html-keyboard-response","376","411955","0.0-6.0-0.185","VIDE","1","m","rechts","23","","fixation","","","",""
"1146","img/30_240.png","70","image-keyboard-response","377","413114","0.0-6.0-1.185","VIDE","1","m","rechts","23","","","object","f","30","true"
"null","<div style=""font-size:60px;"">+</div>","null","html-keyboard-response","378","413517","0.0-6.0-0.186","VIDE","1","m","rechts","23","","fixation","","","",""
"1037","img/30_300.png","70","image-keyboard-response","379","414565","0.0-6.0-1.186","VIDE","1","m","rechts","23","","","object","f","30","true"
"null","<div style=""font-size:60px;"">+</div>","null","html-keyboard-response","380","415097","0.0-6.0-0.187","VIDE","1","m","rechts","23","","fixation","","","",""
"827","img/0_90.png","74","image-keyboard-response","381","415939","0.0-6.0-1.187","VIDE","1","m","rechts","23","","","object","j","0","true"
"null","<div style=""font-size:60px;"">+</div>","null","html-keyboard-response","382","416442","0.0-6.0-0.188","VIDE","1","m","rechts","23","","fixation","","","",""
"1766","img/150_240.png","74","image-keyboard-response","383","418222","0.0-6.0-1.188","VIDE","1","m","rechts","23","","","object","j","150","true"
"null","<div style=""font-size:60px;"">+</div>","null","html-keyboard-response","384","418738","0.0-6.0-0.189","VIDE","1","m","rechts","23","","fixation","","","",""
"1475","img/60_270.png","70","image-keyboard-response","385","420226","0.0-6.0-1.189","VIDE","1","m","rechts","23","","","object","f","60","true"
"null","<div style=""font-size:60px;"">+</div>","null","html-keyboard-response","386","420581","0.0-6.0-0.190","VIDE","1","m","rechts","23","","fixation","","","",""
"1702","img/L90_180.png","74","image-keyboard-response","387","422292","0.0-6.0-1.190","VIDE","1","m","rechts","23","","","object","j","90","true"
"null","<div style=""font-size:60px;"">+</div>","null","html-keyboard-response","388","422597","0.0-6.0-0.191","VIDE","1","m","rechts","23","","fixation","","","",""
"1737","img/120_270.png","74","image-keyboard-response","389","424340","0.0-6.0-1.191","VIDE","1","m","rechts","23","","","object","j","120","true"
"null","<div style=""font-size:60px;"">+</div>","null","html-keyboard-response","390","424707","0.0-6.0-0.192","VIDE","1","m","rechts","23","","fixation","","","",""
"1060","img/0_60.png","74","image-keyboard-response","391","425780","0.0-6.0-1.192","VIDE","1","m","rechts","23","","","object","j","0","true"
"null","<div style=""font-size:60px;"">+</div>","null","html-keyboard-response","392","426239","0.0-6.0-0.193","VIDE","1","m","rechts","23","","fixation","","","",""
"1494","img/90_300.png","74","image-keyboard-response","393","427737","0.0-6.0-1.193","VIDE","1","m","rechts","23","","","object","j","90","true"
"null","<div style=""font-size:60px;"">+</div>","null","html-keyboard-response","394","428144","0.0-6.0-0.194","VIDE","1","m","rechts","23","","fixation","","","",""
"1164","img/L30_180.png","70","image-keyboard-response","395","429369","0.0-6.0-1.194","VIDE","1","m","rechts","23","","","object","j","30","false"
"null","<div style=""font-size:60px;"">+</div>","null","html-keyboard-response","396","429879","0.0-6.0-0.195","VIDE","1","m","rechts","23","","fixation","","","",""
"1218","img/60_30.png","70","image-keyboard-response","397","431101","0.0-6.0-1.195","VIDE","1","m","rechts","23","","","object","f","60","true"
"null","<div style=""font-size:60px;"">+</div>","null","html-keyboard-response","398","431521","0.0-6.0-0.196","VIDE","1","m","rechts","23","","fixation","","","",""
"2846","img/30_120.png","74","image-keyboard-response","399","434377","0.0-6.0-1.196","VIDE","1","m","rechts","23","","","object","j","30","true"
"null","<div style=""font-size:60px;"">+</div>","null","html-keyboard-response","400","434734","0.0-6.0-0.197","VIDE","1","m","rechts","23","","fixation","","","",""
"2144","img/90_210.png","70","image-keyboard-response","401","436884","0.0-6.0-1.197","VIDE","1","m","rechts","23","","","object","f","90","true"
"null","<div style=""font-size:60px;"">+</div>","null","html-keyboard-response","402","437398","0.0-6.0-0.198","VIDE","1","m","rechts","23","","fixation","","","",""
"1031","img/0_120.png","74","image-keyboard-response","403","438434","0.0-6.0-1.198","VIDE","1","m","rechts","23","","","object","j","0","true"
"null","<div style=""font-size:60px;"">+</div>","null","html-keyboard-response","404","438913","0.0-6.0-0.199","VIDE","1","m","rechts","23","","fixation","","","",""
"1452","img/0_210.png","70","image-keyboard-response","405","440370","0.0-6.0-1.199","VIDE","1","m","rechts","23","","","object","f","0","true"
"null","<div style=""font-size:60px;"">+</div>","null","html-keyboard-response","406","440784","0.0-6.0-0.200","VIDE","1","m","rechts","23","","fixation","","","",""
"775","img/0_240.png","70","image-keyboard-response","407","441564","0.0-6.0-1.200","VIDE","1","m","rechts","23","","","object","f","0","true"
"null","<div style=""font-size:60px;"">+</div>","null","html-keyboard-response","408","441971","0.0-6.0-0.201","VIDE","1","m","rechts","23","","fixation","","","",""
"771","img/0_30.png","74","image-keyboard-response","409","442755","0.0-6.0-1.201","VIDE","1","m","rechts","23","","","object","j","0","true"
"null","<div style=""font-size:60px;"">+</div>","null","html-keyboard-response","410","443268","0.0-6.0-0.202","VIDE","1","m","rechts","23","","fixation","","","",""
"656","img/0_330.png","70","image-keyboard-response","411","443927","0.0-6.0-1.202","VIDE","1","m","rechts","23","","","object","f","0","true"
"null","<div style=""font-size:60px;"">+</div>","null","html-keyboard-response","412","444344","0.0-6.0-0.203","VIDE","1","m","rechts","23","","fixation","","","",""
"689","img/0_150.png","74","image-keyboard-response","413","445040","0.0-6.0-1.203","VIDE","1","m","rechts","23","","","object","j","0","true"
"null","<div style=""font-size:60px;"">+</div>","null","html-keyboard-response","414","445347","0.0-6.0-0.204","VIDE","1","m","rechts","23","","fixation","","","",""
"1792","img/L60_180.png","74","image-keyboard-response","415","447144","0.0-6.0-1.204","VIDE","1","m","rechts","23","","","object","j","60","true"
"null","<div style=""font-size:60px;"">+</div>","null","html-keyboard-response","416","447597","0.0-6.0-0.205","VIDE","1","m","rechts","23","","fixation","","","",""
"1873","img/150_120.png","70","image-keyboard-response","417","449486","0.0-6.0-1.205","VIDE","1","m","rechts","23","","","object","f","150","true"
"null","<div style=""font-size:60px;"">+</div>","null","html-keyboard-response","418","449910","0.0-6.0-0.206","VIDE","1","m","rechts","23","","fixation","","","",""
"2443","img/150_300.png","74","image-keyboard-response","419","452366","0.0-6.0-1.206","VIDE","1","m","rechts","23","","","object","j","150","true"
"null","<div style=""font-size:60px;"">+</div>","null","html-keyboard-response","420","452833","0.0-6.0-0.207","VIDE","1","m","rechts","23","","fixation","","","",""
"1338","img/30_60.png","74","image-keyboard-response","421","454178","0.0-6.0-1.207","VIDE","1","m","rechts","23","","","object","j","30","true"
"17199","<p>Du hast in 75% der Versuche korrekt entschieden.</p><p>Deine durchschnittliche Reaktionszeit war  1403ms.</p><p>Dr&uuml;cke eine beliebige Taste, um die Session zu beenden. Vielen Dank!</p>","32","html-keyboard-response","422","471383","0.0-7.0","VIDE","1","m","rechts","23","","","","","",""
