"rt","stimulus","key_press","trial_type","trial_index","time_elapsed","internal_node_id","subject","session","sex","handedness","age","responses","test_part","condition","correct_response","angle","correct"
"1763","<p>Mental Rotation Experiment.</p> <p>Dr&uuml;cke eine beliebige Taste, um anzufangen.</p>","13","html-keyboard-response","0","1801","0.0-0.0","VIDE","3","m","rechts","23","","","","","",""
"28092","","","survey-text","1","29896","0.0-1.0","VIDE","3","m","rechts","23","{""Q0"":""VIDE""}","","","","",""
"2988","","","survey-text","2","32887","0.0-2.0","VIDE","3","m","rechts","23","{""Q0"":""3""}","","","","",""
"6780","","","survey-multi-choice","3","39672","0.0-3.0","VIDE","3","m","rechts","23","{""Q0"":""m"",""Q1"":""rechts""}","","","","",""
"3666","","","survey-text","4","43339","0.0-4.0","VIDE","3","m","rechts","23","{""Q0"":""23""}","","","","",""
"42221","<p>Stell dir vor, dass du vor einem runden Tisch stehst, auf dem sich ein blauer Ball am Tischrand befindet. Entlang des Tischrands ist jeweils ein verschieden langer Pfeil. Nun bleibst du an deinem Platz vor dem Tisch und rotierst den Tisch entlang des Pfeils (gleiche Richtung und Länge). </p> <img src='img/30_180.png'></img> <br><p> Nachdem du diese (vorgestellte) Rotation durchgef&uuml;hrt hast, schau in Richtung der Tischmitte, und entscheide dann, ob der Ball links oder rechts von dir liegt.</p> <p>Dr&uuml;cke die <strong>'f'</strong>-Taste f&uuml;r links, die <strong>'j'</strong>-Taste f&uuml;r rechts.</p><br><p> Das Bild wird jeweils 1 Sekunde lang pr&auml;sentiert. Du hast 3 Sekunden Zeit eine Entscheidung zu treffen.</p>","70","html-keyboard-response","5","85568","0.0-5.0","VIDE","3","m","rechts","23","","","","","",""
"null","<div style=""font-size:60px;"">+</div>","null","html-keyboard-response","6","86954","0.0-6.0-0.0","VIDE","3","m","rechts","23","","fixation","","","",""
"1888","img/90_210.png","74","image-keyboard-response","7","88865","0.0-6.0-1.0","VIDE","3","m","rechts","23","","","object","f","90","false"
"null","<div style=""font-size:60px;"">+</div>","null","html-keyboard-response","8","89391","0.0-6.0-0.1","VIDE","3","m","rechts","23","","fixation","","","",""
"1551","img/120_90.png","70","image-keyboard-response","9","90964","0.0-6.0-1.1","VIDE","3","m","rechts","23","","","object","f","120","true"
"null","<div style=""font-size:60px;"">+</div>","null","html-keyboard-response","10","91267","0.0-6.0-0.2","VIDE","3","m","rechts","23","","fixation","","","",""
"1152","img/30_60.png","74","image-keyboard-response","11","92437","0.0-6.0-1.2","VIDE","3","m","rechts","23","","","object","j","30","true"
"null","<div style=""font-size:60px;"">+</div>","null","html-keyboard-response","12","92791","0.0-6.0-0.3","VIDE","3","m","rechts","23","","fixation","","","",""
"888","img/0_120.png","74","image-keyboard-response","13","93698","0.0-6.0-1.3","VIDE","3","m","rechts","23","","","object","j","0","true"
"null","<div style=""font-size:60px;"">+</div>","null","html-keyboard-response","14","94010","0.0-6.0-0.4","VIDE","3","m","rechts","23","","fixation","","","",""
"963","img/120_330.png","74","image-keyboard-response","15","94991","0.0-6.0-1.4","VIDE","3","m","rechts","23","","","object","j","120","true"
"null","<div style=""font-size:60px;"">+</div>","null","html-keyboard-response","16","95400","0.0-6.0-0.5","VIDE","3","m","rechts","23","","fixation","","","",""
"969","img/90_240.png","74","image-keyboard-response","17","96386","0.0-6.0-1.5","VIDE","3","m","rechts","23","","","object","f","90","false"
"null","<div style=""font-size:60px;"">+</div>","null","html-keyboard-response","18","96901","0.0-6.0-0.6","VIDE","3","m","rechts","23","","fixation","","","",""
"2576","img/90_150.png","74","image-keyboard-response","19","99495","0.0-6.0-1.6","VIDE","3","m","rechts","23","","","object","j","90","true"
"null","<div style=""font-size:60px;"">+</div>","null","html-keyboard-response","20","99804","0.0-6.0-0.7","VIDE","3","m","rechts","23","","fixation","","","",""
"1345","img/150_240.png","74","image-keyboard-response","21","101166","0.0-6.0-1.7","VIDE","3","m","rechts","23","","","object","j","150","true"
"null","<div style=""font-size:60px;"">+</div>","null","html-keyboard-response","22","101694","0.0-6.0-0.8","VIDE","3","m","rechts","23","","fixation","","","",""
"1301","img/60_270.png","74","image-keyboard-response","23","103012","0.0-6.0-1.8","VIDE","3","m","rechts","23","","","object","f","60","false"
"null","<div style=""font-size:60px;"">+</div>","null","html-keyboard-response","24","103367","0.0-6.0-0.9","VIDE","3","m","rechts","23","","fixation","","","",""
"1483","img/L60_180.png","74","image-keyboard-response","25","104867","0.0-6.0-1.9","VIDE","3","m","rechts","23","","","object","j","60","true"
"null","<div style=""font-size:60px;"">+</div>","null","html-keyboard-response","26","105337","0.0-6.0-0.10","VIDE","3","m","rechts","23","","fixation","","","",""
"988","img/30_90.png","74","image-keyboard-response","27","106343","0.0-6.0-1.10","VIDE","3","m","rechts","23","","","object","j","30","true"
"null","<div style=""font-size:60px;"">+</div>","null","html-keyboard-response","28","106711","0.0-6.0-0.11","VIDE","3","m","rechts","23","","fixation","","","",""
"1627","img/60_180.png","70","image-keyboard-response","29","108356","0.0-6.0-1.11","VIDE","3","m","rechts","23","","","object","f","60","true"
"null","<div style=""font-size:60px;"">+</div>","null","html-keyboard-response","30","108711","0.0-6.0-0.12","VIDE","3","m","rechts","23","","fixation","","","",""
"775","img/0_300.png","70","image-keyboard-response","31","109503","0.0-6.0-1.12","VIDE","3","m","rechts","23","","","object","f","0","true"
"null","<div style=""font-size:60px;"">+</div>","null","html-keyboard-response","32","110008","0.0-6.0-0.13","VIDE","3","m","rechts","23","","fixation","","","",""
"973","img/90_60.png","70","image-keyboard-response","33","111000","0.0-6.0-1.13","VIDE","3","m","rechts","23","","","object","f","90","true"
"null","<div style=""font-size:60px;"">+</div>","null","html-keyboard-response","34","111508","0.0-6.0-0.14","VIDE","3","m","rechts","23","","fixation","","","",""
"765","img/0_270.png","70","image-keyboard-response","35","112294","0.0-6.0-1.14","VIDE","3","m","rechts","23","","","object","f","0","true"
"null","<div style=""font-size:60px;"">+</div>","null","html-keyboard-response","36","112772","0.0-6.0-0.15","VIDE","3","m","rechts","23","","fixation","","","",""
"795","img/120_150.png","74","image-keyboard-response","37","113586","0.0-6.0-1.15","VIDE","3","m","rechts","23","","","object","j","120","true"
"null","<div style=""font-size:60px;"">+</div>","null","html-keyboard-response","38","114013","0.0-6.0-0.16","VIDE","3","m","rechts","23","","fixation","","","",""
"1003","img/30_180.png","70","image-keyboard-response","39","115027","0.0-6.0-1.16","VIDE","3","m","rechts","23","","","object","f","30","true"
"null","<div style=""font-size:60px;"">+</div>","null","html-keyboard-response","40","115559","0.0-6.0-0.17","VIDE","3","m","rechts","23","","fixation","","","",""
"1104","img/L120_180.png","74","image-keyboard-response","41","116681","0.0-6.0-1.17","VIDE","3","m","rechts","23","","","object","j","120","true"
"null","<div style=""font-size:60px;"">+</div>","null","html-keyboard-response","42","117199","0.0-6.0-0.18","VIDE","3","m","rechts","23","","fixation","","","",""
"1128","img/150_90.png","74","image-keyboard-response","43","118346","0.0-6.0-1.18","VIDE","3","m","rechts","23","","","object","f","150","false"
"null","<div style=""font-size:60px;"">+</div>","null","html-keyboard-response","44","118700","0.0-6.0-0.19","VIDE","3","m","rechts","23","","fixation","","","",""
"944","img/L90_180.png","74","image-keyboard-response","45","119662","0.0-6.0-1.19","VIDE","3","m","rechts","23","","","object","j","90","true"
"null","<div style=""font-size:60px;"">+</div>","null","html-keyboard-response","46","120029","0.0-6.0-0.20","VIDE","3","m","rechts","23","","fixation","","","",""
"944","img/150_300.png","74","image-keyboard-response","47","120988","0.0-6.0-1.20","VIDE","3","m","rechts","23","","","object","j","150","true"
"null","<div style=""font-size:60px;"">+</div>","null","html-keyboard-response","48","121355","0.0-6.0-0.21","VIDE","3","m","rechts","23","","fixation","","","",""
"875","img/0_330.png","70","image-keyboard-response","49","122250","0.0-6.0-1.21","VIDE","3","m","rechts","23","","","object","f","0","true"
"null","<div style=""font-size:60px;"">+</div>","null","html-keyboard-response","50","122558","0.0-6.0-0.22","VIDE","3","m","rechts","23","","fixation","","","",""
"730","img/30_300.png","74","image-keyboard-response","51","123307","0.0-6.0-1.22","VIDE","3","m","rechts","23","","","object","f","30","false"
"null","<div style=""font-size:60px;"">+</div>","null","html-keyboard-response","52","123780","0.0-6.0-0.23","VIDE","3","m","rechts","23","","fixation","","","",""
"1017","img/30_120.png","74","image-keyboard-response","53","124815","0.0-6.0-1.23","VIDE","3","m","rechts","23","","","object","j","30","true"
"null","<div style=""font-size:60px;"">+</div>","null","html-keyboard-response","54","125122","0.0-6.0-0.24","VIDE","3","m","rechts","23","","fixation","","","",""
"752","img/90_330.png","74","image-keyboard-response","55","125884","0.0-6.0-1.24","VIDE","3","m","rechts","23","","","object","j","90","true"
"null","<div style=""font-size:60px;"">+</div>","null","html-keyboard-response","56","126309","0.0-6.0-0.25","VIDE","3","m","rechts","23","","fixation","","","",""
"713","img/90_300.png","74","image-keyboard-response","57","127043","0.0-6.0-1.25","VIDE","3","m","rechts","23","","","object","j","90","true"
"null","<div style=""font-size:60px;"">+</div>","null","html-keyboard-response","58","127514","0.0-6.0-0.26","VIDE","3","m","rechts","23","","fixation","","","",""
"1693","img/120_210.png","74","image-keyboard-response","59","129225","0.0-6.0-1.26","VIDE","3","m","rechts","23","","","object","f","120","false"
"null","<div style=""font-size:60px;"">+</div>","null","html-keyboard-response","60","129583","0.0-6.0-0.27","VIDE","3","m","rechts","23","","fixation","","","",""
"612","img/0_30.png","74","image-keyboard-response","61","130213","0.0-6.0-1.27","VIDE","3","m","rechts","23","","","object","j","0","true"
"null","<div style=""font-size:60px;"">+</div>","null","html-keyboard-response","62","130740","0.0-6.0-0.28","VIDE","3","m","rechts","23","","fixation","","","",""
"1044","img/90_180.png","70","image-keyboard-response","63","131802","0.0-6.0-1.28","VIDE","3","m","rechts","23","","","object","f","90","true"
"null","<div style=""font-size:60px;"">+</div>","null","html-keyboard-response","64","132177","0.0-6.0-0.29","VIDE","3","m","rechts","23","","fixation","","","",""
"865","img/150_60.png","70","image-keyboard-response","65","133062","0.0-6.0-1.29","VIDE","3","m","rechts","23","","","object","f","150","true"
"null","<div style=""font-size:60px;"">+</div>","null","html-keyboard-response","66","133536","0.0-6.0-0.30","VIDE","3","m","rechts","23","","fixation","","","",""
"1701","img/150_180.png","70","image-keyboard-response","67","135256","0.0-6.0-1.30","VIDE","3","m","rechts","23","","","object","f","150","true"
"null","<div style=""font-size:60px;"">+</div>","null","html-keyboard-response","68","135583","0.0-6.0-0.31","VIDE","3","m","rechts","23","","fixation","","","",""
"1565","img/L30_180.png","74","image-keyboard-response","69","137166","0.0-6.0-1.31","VIDE","3","m","rechts","23","","","object","j","30","true"
"null","<div style=""font-size:60px;"">+</div>","null","html-keyboard-response","70","137489","0.0-6.0-0.32","VIDE","3","m","rechts","23","","fixation","","","",""
"1517","img/120_270.png","74","image-keyboard-response","71","139023","0.0-6.0-1.32","VIDE","3","m","rechts","23","","","object","j","120","true"
"null","<div style=""font-size:60px;"">+</div>","null","html-keyboard-response","72","139475","0.0-6.0-0.33","VIDE","3","m","rechts","23","","fixation","","","",""
"966","img/0_60.png","74","image-keyboard-response","73","140462","0.0-6.0-1.33","VIDE","3","m","rechts","23","","","object","j","0","true"
"null","<div style=""font-size:60px;"">+</div>","null","html-keyboard-response","74","140772","0.0-6.0-0.34","VIDE","3","m","rechts","23","","fixation","","","",""
"1360","img/60_330.png","70","image-keyboard-response","75","142138","0.0-6.0-1.34","VIDE","3","m","rechts","23","","","object","j","60","false"
"null","<div style=""font-size:60px;"">+</div>","null","html-keyboard-response","76","142568","0.0-6.0-0.35","VIDE","3","m","rechts","23","","fixation","","","",""
"1221","img/30_270.png","74","image-keyboard-response","77","143806","0.0-6.0-1.35","VIDE","3","m","rechts","23","","","object","f","30","false"
"null","<div style=""font-size:60px;"">+</div>","null","html-keyboard-response","78","144114","0.0-6.0-0.36","VIDE","3","m","rechts","23","","fixation","","","",""
"1950","img/60_150.png","74","image-keyboard-response","79","146078","0.0-6.0-1.36","VIDE","3","m","rechts","23","","","object","j","60","true"
"null","<div style=""font-size:60px;"">+</div>","null","html-keyboard-response","80","146381","0.0-6.0-0.37","VIDE","3","m","rechts","23","","fixation","","","",""
"833","img/120_30.png","70","image-keyboard-response","81","147237","0.0-6.0-1.37","VIDE","3","m","rechts","23","","","object","f","120","true"
"null","<div style=""font-size:60px;"">+</div>","null","html-keyboard-response","82","147601","0.0-6.0-0.38","VIDE","3","m","rechts","23","","fixation","","","",""
"723","img/0_240.png","70","image-keyboard-response","83","148339","0.0-6.0-1.38","VIDE","3","m","rechts","23","","","object","f","0","true"
"null","<div style=""font-size:60px;"">+</div>","null","html-keyboard-response","84","148819","0.0-6.0-0.39","VIDE","3","m","rechts","23","","fixation","","","",""
"558","img/0_210.png","70","image-keyboard-response","85","149397","0.0-6.0-1.39","VIDE","3","m","rechts","23","","","object","f","0","true"
"null","<div style=""font-size:60px;"">+</div>","null","html-keyboard-response","86","149772","0.0-6.0-0.40","VIDE","3","m","rechts","23","","fixation","","","",""
"922","img/150_270.png","74","image-keyboard-response","87","150713","0.0-6.0-1.40","VIDE","3","m","rechts","23","","","object","j","150","true"
"null","<div style=""font-size:60px;"">+</div>","null","html-keyboard-response","88","151131","0.0-6.0-0.41","VIDE","3","m","rechts","23","","fixation","","","",""
"693","img/0_90.png","74","image-keyboard-response","89","151837","0.0-6.0-1.41","VIDE","3","m","rechts","23","","","object","j","0","true"
"null","<div style=""font-size:60px;"">+</div>","null","html-keyboard-response","90","152147","0.0-6.0-0.42","VIDE","3","m","rechts","23","","fixation","","","",""
"1199","img/120_180.png","70","image-keyboard-response","91","153356","0.0-6.0-1.42","VIDE","3","m","rechts","23","","","object","f","120","true"
"null","<div style=""font-size:60px;"">+</div>","null","html-keyboard-response","92","153711","0.0-6.0-0.43","VIDE","3","m","rechts","23","","fixation","","","",""
"899","img/L150_180.png","74","image-keyboard-response","93","154627","0.0-6.0-1.43","VIDE","3","m","rechts","23","","","object","j","150","true"
"null","<div style=""font-size:60px;"">+</div>","null","html-keyboard-response","94","155039","0.0-6.0-0.44","VIDE","3","m","rechts","23","","fixation","","","",""
"741","img/90_120.png","70","image-keyboard-response","95","155798","0.0-6.0-1.44","VIDE","3","m","rechts","23","","","object","j","90","false"
"null","<div style=""font-size:60px;"">+</div>","null","html-keyboard-response","96","156256","0.0-6.0-0.45","VIDE","3","m","rechts","23","","fixation","","","",""
"837","img/60_30.png","70","image-keyboard-response","97","157114","0.0-6.0-1.45","VIDE","3","m","rechts","23","","","object","f","60","true"
"null","<div style=""font-size:60px;"">+</div>","null","html-keyboard-response","98","157570","0.0-6.0-0.46","VIDE","3","m","rechts","23","","fixation","","","",""
"643","img/0_150.png","74","image-keyboard-response","99","158230","0.0-6.0-1.46","VIDE","3","m","rechts","23","","","object","j","0","true"
"null","<div style=""font-size:60px;"">+</div>","null","html-keyboard-response","100","158650","0.0-6.0-0.47","VIDE","3","m","rechts","23","","fixation","","","",""
"909","img/150_120.png","70","image-keyboard-response","101","159577","0.0-6.0-1.47","VIDE","3","m","rechts","23","","","object","f","150","true"
"null","<div style=""font-size:60px;"">+</div>","null","html-keyboard-response","102","160104","0.0-6.0-0.48","VIDE","3","m","rechts","23","","fixation","","","",""
"1106","img/60_90.png","70","image-keyboard-response","103","161231","0.0-6.0-1.48","VIDE","3","m","rechts","23","","","object","j","60","false"
"null","<div style=""font-size:60px;"">+</div>","null","html-keyboard-response","104","161586","0.0-6.0-0.49","VIDE","3","m","rechts","23","","fixation","","","",""
"684","img/60_210.png","74","image-keyboard-response","105","162289","0.0-6.0-1.49","VIDE","3","m","rechts","23","","","object","f","60","false"
"null","<div style=""font-size:60px;"">+</div>","null","html-keyboard-response","106","162744","0.0-6.0-0.50","VIDE","3","m","rechts","23","","fixation","","","",""
"779","img/90_30.png","70","image-keyboard-response","107","163538","0.0-6.0-1.50","VIDE","3","m","rechts","23","","","object","f","90","true"
"null","<div style=""font-size:60px;"">+</div>","null","html-keyboard-response","108","163900","0.0-6.0-0.51","VIDE","3","m","rechts","23","","fixation","","","",""
"766","img/30_240.png","74","image-keyboard-response","109","164685","0.0-6.0-1.51","VIDE","3","m","rechts","23","","","object","f","30","false"
"null","<div style=""font-size:60px;"">+</div>","null","html-keyboard-response","110","164992","0.0-6.0-0.52","VIDE","3","m","rechts","23","","fixation","","","",""
"905","img/150_300.png","74","image-keyboard-response","111","165910","0.0-6.0-1.52","VIDE","3","m","rechts","23","","","object","j","150","true"
"null","<div style=""font-size:60px;"">+</div>","null","html-keyboard-response","112","166228","0.0-6.0-0.53","VIDE","3","m","rechts","23","","fixation","","","",""
"1146","img/60_150.png","70","image-keyboard-response","113","167385","0.0-6.0-1.53","VIDE","3","m","rechts","23","","","object","j","60","false"
"null","<div style=""font-size:60px;"">+</div>","null","html-keyboard-response","114","167698","0.0-6.0-0.54","VIDE","3","m","rechts","23","","fixation","","","",""
"1227","img/90_210.png","74","image-keyboard-response","115","168938","0.0-6.0-1.54","VIDE","3","m","rechts","23","","","object","f","90","false"
"null","<div style=""font-size:60px;"">+</div>","null","html-keyboard-response","116","169355","0.0-6.0-0.55","VIDE","3","m","rechts","23","","fixation","","","",""
"1797","img/L60_180.png","74","image-keyboard-response","117","171164","0.0-6.0-1.55","VIDE","3","m","rechts","23","","","object","j","60","true"
"null","<div style=""font-size:60px;"">+</div>","null","html-keyboard-response","118","171681","0.0-6.0-0.56","VIDE","3","m","rechts","23","","fixation","","","",""
"1112","img/30_180.png","70","image-keyboard-response","119","172808","0.0-6.0-1.56","VIDE","3","m","rechts","23","","","object","f","30","true"
"null","<div style=""font-size:60px;"">+</div>","null","html-keyboard-response","120","173338","0.0-6.0-0.57","VIDE","3","m","rechts","23","","fixation","","","",""
"683","img/0_300.png","70","image-keyboard-response","121","174035","0.0-6.0-1.57","VIDE","3","m","rechts","23","","","object","f","0","true"
"null","<div style=""font-size:60px;"">+</div>","null","html-keyboard-response","122","174495","0.0-6.0-0.58","VIDE","3","m","rechts","23","","fixation","","","",""
"1226","img/L120_180.png","74","image-keyboard-response","123","175733","0.0-6.0-1.58","VIDE","3","m","rechts","23","","","object","j","120","true"
"null","<div style=""font-size:60px;"">+</div>","null","html-keyboard-response","124","176244","0.0-6.0-0.59","VIDE","3","m","rechts","23","","fixation","","","",""
"730","img/0_90.png","74","image-keyboard-response","125","176982","0.0-6.0-1.59","VIDE","3","m","rechts","23","","","object","j","0","true"
"null","<div style=""font-size:60px;"">+</div>","null","html-keyboard-response","126","177447","0.0-6.0-0.60","VIDE","3","m","rechts","23","","fixation","","","",""
"738","img/120_30.png","70","image-keyboard-response","127","178196","0.0-6.0-1.60","VIDE","3","m","rechts","23","","","object","f","120","true"
"null","<div style=""font-size:60px;"">+</div>","null","html-keyboard-response","128","178512","0.0-6.0-0.61","VIDE","3","m","rechts","23","","fixation","","","",""
"1178","img/150_240.png","74","image-keyboard-response","129","179705","0.0-6.0-1.61","VIDE","3","m","rechts","23","","","object","j","150","true"
"null","<div style=""font-size:60px;"">+</div>","null","html-keyboard-response","130","180230","0.0-6.0-0.62","VIDE","3","m","rechts","23","","fixation","","","",""
"697","img/90_330.png","74","image-keyboard-response","131","180941","0.0-6.0-1.62","VIDE","3","m","rechts","23","","","object","j","90","true"
"null","<div style=""font-size:60px;"">+</div>","null","html-keyboard-response","132","181308","0.0-6.0-0.63","VIDE","3","m","rechts","23","","fixation","","","",""
"1076","img/150_270.png","74","image-keyboard-response","133","182394","0.0-6.0-1.63","VIDE","3","m","rechts","23","","","object","j","150","true"
"null","<div style=""font-size:60px;"">+</div>","null","html-keyboard-response","134","182700","0.0-6.0-0.64","VIDE","3","m","rechts","23","","fixation","","","",""
"1147","img/L150_180.png","74","image-keyboard-response","135","183856","0.0-6.0-1.64","VIDE","3","m","rechts","23","","","object","j","150","true"
"null","<div style=""font-size:60px;"">+</div>","null","html-keyboard-response","136","184308","0.0-6.0-0.65","VIDE","3","m","rechts","23","","fixation","","","",""
"933","img/60_90.png","70","image-keyboard-response","137","185252","0.0-6.0-1.65","VIDE","3","m","rechts","23","","","object","j","60","false"
"null","<div style=""font-size:60px;"">+</div>","null","html-keyboard-response","138","185606","0.0-6.0-0.66","VIDE","3","m","rechts","23","","fixation","","","",""
"817","img/150_60.png","70","image-keyboard-response","139","186432","0.0-6.0-1.66","VIDE","3","m","rechts","23","","","object","f","150","true"
"null","<div style=""font-size:60px;"">+</div>","null","html-keyboard-response","140","186840","0.0-6.0-0.67","VIDE","3","m","rechts","23","","fixation","","","",""
"693","img/120_330.png","74","image-keyboard-response","141","187546","0.0-6.0-1.67","VIDE","3","m","rechts","23","","","object","j","120","true"
"null","<div style=""font-size:60px;"">+</div>","null","html-keyboard-response","142","187918","0.0-6.0-0.68","VIDE","3","m","rechts","23","","fixation","","","",""
"943","img/90_120.png","70","image-keyboard-response","143","188871","0.0-6.0-1.68","VIDE","3","m","rechts","23","","","object","j","90","false"
"null","<div style=""font-size:60px;"">+</div>","null","html-keyboard-response","144","189372","0.0-6.0-0.69","VIDE","3","m","rechts","23","","fixation","","","",""
"576","img/30_300.png","74","image-keyboard-response","145","189952","0.0-6.0-1.69","VIDE","3","m","rechts","23","","","object","f","30","false"
"null","<div style=""font-size:60px;"">+</div>","null","html-keyboard-response","146","190309","0.0-6.0-0.70","VIDE","3","m","rechts","23","","fixation","","","",""
"736","img/90_30.png","70","image-keyboard-response","147","191056","0.0-6.0-1.70","VIDE","3","m","rechts","23","","","object","f","90","true"
"null","<div style=""font-size:60px;"">+</div>","null","html-keyboard-response","148","191420","0.0-6.0-0.71","VIDE","3","m","rechts","23","","fixation","","","",""
"1638","img/90_150.png","74","image-keyboard-response","149","193070","0.0-6.0-1.71","VIDE","3","m","rechts","23","","","object","j","90","true"
"null","<div style=""font-size:60px;"">+</div>","null","html-keyboard-response","150","193387","0.0-6.0-0.72","VIDE","3","m","rechts","23","","fixation","","","",""
"694","img/0_60.png","74","image-keyboard-response","151","194094","0.0-6.0-1.72","VIDE","3","m","rechts","23","","","object","j","0","true"
"null","<div style=""font-size:60px;"">+</div>","null","html-keyboard-response","152","194451","0.0-6.0-0.73","VIDE","3","m","rechts","23","","fixation","","","",""
"645","img/0_150.png","74","image-keyboard-response","153","195105","0.0-6.0-1.73","VIDE","3","m","rechts","23","","","object","j","0","true"
"null","<div style=""font-size:60px;"">+</div>","null","html-keyboard-response","154","195420","0.0-6.0-0.74","VIDE","3","m","rechts","23","","fixation","","","",""
"1036","img/120_210.png","70","image-keyboard-response","155","196468","0.0-6.0-1.74","VIDE","3","m","rechts","23","","","object","f","120","true"
"null","<div style=""font-size:60px;"">+</div>","null","html-keyboard-response","156","196919","0.0-6.0-0.75","VIDE","3","m","rechts","23","","fixation","","","",""
"818","img/0_330.png","70","image-keyboard-response","157","197750","0.0-6.0-1.75","VIDE","3","m","rechts","23","","","object","f","0","true"
"null","<div style=""font-size:60px;"">+</div>","null","html-keyboard-response","158","198218","0.0-6.0-0.76","VIDE","3","m","rechts","23","","fixation","","","",""
"812","img/150_180.png","74","image-keyboard-response","159","199044","0.0-6.0-1.76","VIDE","3","m","rechts","23","","","object","f","150","false"
"null","<div style=""font-size:60px;"">+</div>","null","html-keyboard-response","160","199499","0.0-6.0-0.77","VIDE","3","m","rechts","23","","fixation","","","",""
"1532","img/150_90.png","70","image-keyboard-response","161","201044","0.0-6.0-1.77","VIDE","3","m","rechts","23","","","object","f","150","true"
"null","<div style=""font-size:60px;"">+</div>","null","html-keyboard-response","162","201499","0.0-6.0-0.78","VIDE","3","m","rechts","23","","fixation","","","",""
"1322","img/60_180.png","70","image-keyboard-response","163","202834","0.0-6.0-1.78","VIDE","3","m","rechts","23","","","object","f","60","true"
"null","<div style=""font-size:60px;"">+</div>","null","html-keyboard-response","164","203140","0.0-6.0-0.79","VIDE","3","m","rechts","23","","fixation","","","",""
"1417","img/L90_180.png","74","image-keyboard-response","165","204566","0.0-6.0-1.79","VIDE","3","m","rechts","23","","","object","j","90","true"
"null","<div style=""font-size:60px;"">+</div>","null","html-keyboard-response","166","205043","0.0-6.0-0.80","VIDE","3","m","rechts","23","","fixation","","","",""
"1671","img/120_90.png","74","image-keyboard-response","167","206727","0.0-6.0-1.80","VIDE","3","m","rechts","23","","","object","f","120","false"
"null","<div style=""font-size:60px;"">+</div>","null","html-keyboard-response","168","207043","0.0-6.0-0.81","VIDE","3","m","rechts","23","","fixation","","","",""
"886","img/L30_180.png","74","image-keyboard-response","169","207941","0.0-6.0-1.81","VIDE","3","m","rechts","23","","","object","j","30","true"
"null","<div style=""font-size:60px;"">+</div>","null","html-keyboard-response","170","208408","0.0-6.0-0.82","VIDE","3","m","rechts","23","","fixation","","","",""
"996","img/60_270.png","70","image-keyboard-response","171","209417","0.0-6.0-1.82","VIDE","3","m","rechts","23","","","object","f","60","true"
"null","<div style=""font-size:60px;"">+</div>","null","html-keyboard-response","172","209720","0.0-6.0-0.83","VIDE","3","m","rechts","23","","fixation","","","",""
"718","img/0_240.png","70","image-keyboard-response","173","210451","0.0-6.0-1.83","VIDE","3","m","rechts","23","","","object","f","0","true"
"null","<div style=""font-size:60px;"">+</div>","null","html-keyboard-response","174","210922","0.0-6.0-0.84","VIDE","3","m","rechts","23","","fixation","","","",""
"594","img/0_210.png","70","image-keyboard-response","175","211529","0.0-6.0-1.84","VIDE","3","m","rechts","23","","","object","f","0","true"
"null","<div style=""font-size:60px;"">+</div>","null","html-keyboard-response","176","211860","0.0-6.0-0.85","VIDE","3","m","rechts","23","","fixation","","","",""
"623","img/0_30.png","74","image-keyboard-response","177","212498","0.0-6.0-1.85","VIDE","3","m","rechts","23","","","object","j","0","true"
"null","<div style=""font-size:60px;"">+</div>","null","html-keyboard-response","178","212953","0.0-6.0-0.86","VIDE","3","m","rechts","23","","fixation","","","",""
"1063","img/30_270.png","74","image-keyboard-response","179","214029","0.0-6.0-1.86","VIDE","3","m","rechts","23","","","object","f","30","false"
"null","<div style=""font-size:60px;"">+</div>","null","html-keyboard-response","180","214438","0.0-6.0-0.87","VIDE","3","m","rechts","23","","fixation","","","",""
"973","img/90_300.png","74","image-keyboard-response","181","215424","0.0-6.0-1.87","VIDE","3","m","rechts","23","","","object","j","90","true"
"null","<div style=""font-size:60px;"">+</div>","null","html-keyboard-response","182","215891","0.0-6.0-0.88","VIDE","3","m","rechts","23","","fixation","","","",""
"1166","img/150_120.png","70","image-keyboard-response","183","217066","0.0-6.0-1.88","VIDE","3","m","rechts","23","","","object","f","150","true"
"null","<div style=""font-size:60px;"">+</div>","null","html-keyboard-response","184","217484","0.0-6.0-0.89","VIDE","3","m","rechts","23","","fixation","","","",""
"1124","img/30_240.png","74","image-keyboard-response","185","218619","0.0-6.0-1.89","VIDE","3","m","rechts","23","","","object","f","30","false"
"null","<div style=""font-size:60px;"">+</div>","null","html-keyboard-response","186","218939","0.0-6.0-0.90","VIDE","3","m","rechts","23","","fixation","","","",""
"746","img/0_120.png","74","image-keyboard-response","187","219698","0.0-6.0-1.90","VIDE","3","m","rechts","23","","","object","j","0","true"
"null","<div style=""font-size:60px;"">+</div>","null","html-keyboard-response","188","220001","0.0-6.0-0.91","VIDE","3","m","rechts","23","","fixation","","","",""
"1134","img/30_90.png","70","image-keyboard-response","189","221148","0.0-6.0-1.91","VIDE","3","m","rechts","23","","","object","j","30","false"
"null","<div style=""font-size:60px;"">+</div>","null","html-keyboard-response","190","221502","0.0-6.0-0.92","VIDE","3","m","rechts","23","","fixation","","","",""
"1019","img/90_60.png","70","image-keyboard-response","191","222536","0.0-6.0-1.92","VIDE","3","m","rechts","23","","","object","f","90","true"
"null","<div style=""font-size:60px;"">+</div>","null","html-keyboard-response","192","223064","0.0-6.0-0.93","VIDE","3","m","rechts","23","","fixation","","","",""
"1505","img/90_180.png","70","image-keyboard-response","193","224581","0.0-6.0-1.93","VIDE","3","m","rechts","23","","","object","f","90","true"
"null","<div style=""font-size:60px;"">+</div>","null","html-keyboard-response","194","224939","0.0-6.0-0.94","VIDE","3","m","rechts","23","","fixation","","","",""
"768","img/60_210.png","70","image-keyboard-response","195","225716","0.0-6.0-1.94","VIDE","3","m","rechts","23","","","object","f","60","true"
"null","<div style=""font-size:60px;"">+</div>","null","html-keyboard-response","196","226079","0.0-6.0-0.95","VIDE","3","m","rechts","23","","fixation","","","",""
"1009","img/90_240.png","70","image-keyboard-response","197","227101","0.0-6.0-1.95","VIDE","3","m","rechts","23","","","object","f","90","true"
"null","<div style=""font-size:60px;"">+</div>","null","html-keyboard-response","198","227408","0.0-6.0-0.96","VIDE","3","m","rechts","23","","fixation","","","",""
"1524","img/120_150.png","74","image-keyboard-response","199","228947","0.0-6.0-1.96","VIDE","3","m","rechts","23","","","object","j","120","true"
"null","<div style=""font-size:60px;"">+</div>","null","html-keyboard-response","200","229268","0.0-6.0-0.97","VIDE","3","m","rechts","23","","fixation","","","",""
"836","img/60_30.png","70","image-keyboard-response","201","230118","0.0-6.0-1.97","VIDE","3","m","rechts","23","","","object","f","60","true"
"null","<div style=""font-size:60px;"">+</div>","null","html-keyboard-response","202","230424","0.0-6.0-0.98","VIDE","3","m","rechts","23","","fixation","","","",""
"1006","img/120_270.png","74","image-keyboard-response","203","231443","0.0-6.0-1.98","VIDE","3","m","rechts","23","","","object","j","120","true"
"null","<div style=""font-size:60px;"">+</div>","null","html-keyboard-response","204","231800","0.0-6.0-0.99","VIDE","3","m","rechts","23","","fixation","","","",""
"859","img/30_60.png","70","image-keyboard-response","205","232670","0.0-6.0-1.99","VIDE","3","m","rechts","23","","","object","j","30","false"
"null","<div style=""font-size:60px;"">+</div>","null","html-keyboard-response","206","233127","0.0-6.0-0.100","VIDE","3","m","rechts","23","","fixation","","","",""
"693","img/60_330.png","74","image-keyboard-response","207","233828","0.0-6.0-1.100","VIDE","3","m","rechts","23","","","object","j","60","true"
"null","<div style=""font-size:60px;"">+</div>","null","html-keyboard-response","208","234252","0.0-6.0-0.101","VIDE","3","m","rechts","23","","fixation","","","",""
"585","img/0_270.png","70","image-keyboard-response","209","234850","0.0-6.0-1.101","VIDE","3","m","rechts","23","","","object","f","0","true"
"null","<div style=""font-size:60px;"">+</div>","null","html-keyboard-response","210","235283","0.0-6.0-0.102","VIDE","3","m","rechts","23","","fixation","","","",""
"906","img/30_120.png","74","image-keyboard-response","211","236202","0.0-6.0-1.102","VIDE","3","m","rechts","23","","","object","j","30","true"
"null","<div style=""font-size:60px;"">+</div>","null","html-keyboard-response","212","236706","0.0-6.0-0.103","VIDE","3","m","rechts","23","","fixation","","","",""
"823","img/120_180.png","70","image-keyboard-response","213","237541","0.0-6.0-1.103","VIDE","3","m","rechts","23","","","object","f","120","true"
"null","<div style=""font-size:60px;"">+</div>","null","html-keyboard-response","214","237971","0.0-6.0-0.104","VIDE","3","m","rechts","23","","fixation","","","",""
"709","img/0_210.png","70","image-keyboard-response","215","238689","0.0-6.0-1.104","VIDE","3","m","rechts","23","","","object","f","0","true"
"null","<div style=""font-size:60px;"">+</div>","null","html-keyboard-response","216","239066","0.0-6.0-0.105","VIDE","3","m","rechts","23","","fixation","","","",""
"626","img/30_270.png","74","image-keyboard-response","217","239702","0.0-6.0-1.105","VIDE","3","m","rechts","23","","","object","f","30","false"
"null","<div style=""font-size:60px;"">+</div>","null","html-keyboard-response","218","240161","0.0-6.0-0.106","VIDE","3","m","rechts","23","","fixation","","","",""
"909","img/120_210.png","70","image-keyboard-response","219","241077","0.0-6.0-1.106","VIDE","3","m","rechts","23","","","object","f","120","true"
"null","<div style=""font-size:60px;"">+</div>","null","html-keyboard-response","220","241550","0.0-6.0-0.107","VIDE","3","m","rechts","23","","fixation","","","",""
"1424","img/150_270.png","74","image-keyboard-response","221","242988","0.0-6.0-1.107","VIDE","3","m","rechts","23","","","object","j","150","true"
"null","<div style=""font-size:60px;"">+</div>","null","html-keyboard-response","222","243442","0.0-6.0-0.108","VIDE","3","m","rechts","23","","fixation","","","",""
"1346","img/90_180.png","70","image-keyboard-response","223","244797","0.0-6.0-1.108","VIDE","3","m","rechts","23","","","object","f","90","true"
"null","<div style=""font-size:60px;"">+</div>","null","html-keyboard-response","224","245270","0.0-6.0-0.109","VIDE","3","m","rechts","23","","fixation","","","",""
"1133","img/30_90.png","70","image-keyboard-response","225","246416","0.0-6.0-1.109","VIDE","3","m","rechts","23","","","object","j","30","false"
"null","<div style=""font-size:60px;"">+</div>","null","html-keyboard-response","226","246785","0.0-6.0-0.110","VIDE","3","m","rechts","23","","fixation","","","",""
"2316","img/120_180.png","74","image-keyboard-response","227","249112","0.0-6.0-1.110","VIDE","3","m","rechts","23","","","object","f","120","false"
"null","<div style=""font-size:60px;"">+</div>","null","html-keyboard-response","228","249516","0.0-6.0-0.111","VIDE","3","m","rechts","23","","fixation","","","",""
"1269","img/150_300.png","74","image-keyboard-response","229","250805","0.0-6.0-1.111","VIDE","3","m","rechts","23","","","object","j","150","true"
"null","<div style=""font-size:60px;"">+</div>","null","html-keyboard-response","230","251281","0.0-6.0-0.112","VIDE","3","m","rechts","23","","fixation","","","",""
"1144","img/30_120.png","74","image-keyboard-response","231","252436","0.0-6.0-1.112","VIDE","3","m","rechts","23","","","object","j","30","true"
"null","<div style=""font-size:60px;"">+</div>","null","html-keyboard-response","232","252952","0.0-6.0-0.113","VIDE","3","m","rechts","23","","fixation","","","",""
"925","img/30_240.png","70","image-keyboard-response","233","253888","0.0-6.0-1.113","VIDE","3","m","rechts","23","","","object","f","30","true"
"null","<div style=""font-size:60px;"">+</div>","null","html-keyboard-response","234","254259","0.0-6.0-0.114","VIDE","3","m","rechts","23","","fixation","","","",""
"1316","img/30_180.png","70","image-keyboard-response","235","255588","0.0-6.0-1.114","VIDE","3","m","rechts","23","","","object","f","30","true"
"null","<div style=""font-size:60px;"">+</div>","null","html-keyboard-response","236","256118","0.0-6.0-0.115","VIDE","3","m","rechts","23","","fixation","","","",""
"695","img/0_120.png","74","image-keyboard-response","237","256824","0.0-6.0-1.115","VIDE","3","m","rechts","23","","","object","j","0","true"
"null","<div style=""font-size:60px;"">+</div>","null","html-keyboard-response","238","257335","0.0-6.0-0.116","VIDE","3","m","rechts","23","","fixation","","","",""
"1054","img/90_240.png","74","image-keyboard-response","239","258399","0.0-6.0-1.116","VIDE","3","m","rechts","23","","","object","f","90","false"
"null","<div style=""font-size:60px;"">+</div>","null","html-keyboard-response","240","258854","0.0-6.0-0.117","VIDE","3","m","rechts","23","","fixation","","","",""
"886","img/120_270.png","74","image-keyboard-response","241","259749","0.0-6.0-1.117","VIDE","3","m","rechts","23","","","object","j","120","true"
"null","<div style=""font-size:60px;"">+</div>","null","html-keyboard-response","242","260071","0.0-6.0-0.118","VIDE","3","m","rechts","23","","fixation","","","",""
"852","img/60_270.png","74","image-keyboard-response","243","260930","0.0-6.0-1.118","VIDE","3","m","rechts","23","","","object","f","60","false"
"null","<div style=""font-size:60px;"">+</div>","null","html-keyboard-response","244","261337","0.0-6.0-0.119","VIDE","3","m","rechts","23","","fixation","","","",""
"737","img/0_300.png","74","image-keyboard-response","245","262088","0.0-6.0-1.119","VIDE","3","m","rechts","23","","","object","f","0","false"
"null","<div style=""font-size:60px;"">+</div>","null","html-keyboard-response","246","262603","0.0-6.0-0.120","VIDE","3","m","rechts","23","","fixation","","","",""
"1083","img/90_150.png","74","image-keyboard-response","247","263697","0.0-6.0-1.120","VIDE","3","m","rechts","23","","","object","j","90","true"
"null","<div style=""font-size:60px;"">+</div>","null","html-keyboard-response","248","264056","0.0-6.0-0.121","VIDE","3","m","rechts","23","","fixation","","","",""
"1012","img/L120_180.png","74","image-keyboard-response","249","265082","0.0-6.0-1.121","VIDE","3","m","rechts","23","","","object","j","120","true"
"null","<div style=""font-size:60px;"">+</div>","null","html-keyboard-response","250","265493","0.0-6.0-0.122","VIDE","3","m","rechts","23","","fixation","","","",""
"949","img/120_30.png","70","image-keyboard-response","251","266455","0.0-6.0-1.122","VIDE","3","m","rechts","23","","","object","f","120","true"
"null","<div style=""font-size:60px;"">+</div>","null","html-keyboard-response","252","266915","0.0-6.0-0.123","VIDE","3","m","rechts","23","","fixation","","","",""
"889","img/150_180.png","74","image-keyboard-response","253","267815","0.0-6.0-1.123","VIDE","3","m","rechts","23","","","object","f","150","false"
"null","<div style=""font-size:60px;"">+</div>","null","html-keyboard-response","254","268322","0.0-6.0-0.124","VIDE","3","m","rechts","23","","fixation","","","",""
"1145","img/60_150.png","74","image-keyboard-response","255","269480","0.0-6.0-1.124","VIDE","3","m","rechts","23","","","object","j","60","true"
"null","<div style=""font-size:60px;"">+</div>","null","html-keyboard-response","256","269995","0.0-6.0-0.125","VIDE","3","m","rechts","23","","fixation","","","",""
"658","img/0_30.png","74","image-keyboard-response","257","270662","0.0-6.0-1.125","VIDE","3","m","rechts","23","","","object","j","0","true"
"null","<div style=""font-size:60px;"">+</div>","null","html-keyboard-response","258","271135","0.0-6.0-0.126","VIDE","3","m","rechts","23","","fixation","","","",""
"610","img/0_240.png","70","image-keyboard-response","259","271752","0.0-6.0-1.126","VIDE","3","m","rechts","23","","","object","f","0","true"
"null","<div style=""font-size:60px;"">+</div>","null","html-keyboard-response","260","272261","0.0-6.0-0.127","VIDE","3","m","rechts","23","","fixation","","","",""
"1009","img/90_330.png","74","image-keyboard-response","261","273282","0.0-6.0-1.127","VIDE","3","m","rechts","23","","","object","j","90","true"
"null","<div style=""font-size:60px;"">+</div>","null","html-keyboard-response","262","273635","0.0-6.0-0.128","VIDE","3","m","rechts","23","","fixation","","","",""
"1537","img/120_150.png","70","image-keyboard-response","263","275183","0.0-6.0-1.128","VIDE","3","m","rechts","23","","","object","j","120","false"
"null","<div style=""font-size:60px;"">+</div>","null","html-keyboard-response","264","275495","0.0-6.0-0.129","VIDE","3","m","rechts","23","","fixation","","","",""
"1567","img/60_90.png","74","image-keyboard-response","265","277074","0.0-6.0-1.129","VIDE","3","m","rechts","23","","","object","j","60","true"
"null","<div style=""font-size:60px;"">+</div>","null","html-keyboard-response","266","277588","0.0-6.0-0.130","VIDE","3","m","rechts","23","","fixation","","","",""
"697","img/0_150.png","74","image-keyboard-response","267","278300","0.0-6.0-1.130","VIDE","3","m","rechts","23","","","object","j","0","true"
"null","<div style=""font-size:60px;"">+</div>","null","html-keyboard-response","268","278824","0.0-6.0-0.131","VIDE","3","m","rechts","23","","fixation","","","",""
"907","img/90_60.png","70","image-keyboard-response","269","279741","0.0-6.0-1.131","VIDE","3","m","rechts","23","","","object","f","90","true"
"null","<div style=""font-size:60px;"">+</div>","null","html-keyboard-response","270","280074","0.0-6.0-0.132","VIDE","3","m","rechts","23","","fixation","","","",""
"723","img/120_330.png","74","image-keyboard-response","271","280810","0.0-6.0-1.132","VIDE","3","m","rechts","23","","","object","j","120","true"
"null","<div style=""font-size:60px;"">+</div>","null","html-keyboard-response","272","281324","0.0-6.0-0.133","VIDE","3","m","rechts","23","","fixation","","","",""
"800","img/120_90.png","70","image-keyboard-response","273","282137","0.0-6.0-1.133","VIDE","3","m","rechts","23","","","object","f","120","true"
"null","<div style=""font-size:60px;"">+</div>","null","html-keyboard-response","274","282464","0.0-6.0-0.134","VIDE","3","m","rechts","23","","fixation","","","",""
"1471","img/L150_180.png","74","image-keyboard-response","275","283948","0.0-6.0-1.134","VIDE","3","m","rechts","23","","","object","j","150","true"
"null","<div style=""font-size:60px;"">+</div>","null","html-keyboard-response","276","284356","0.0-6.0-0.135","VIDE","3","m","rechts","23","","fixation","","","",""
"602","img/0_60.png","74","image-keyboard-response","277","284971","0.0-6.0-1.135","VIDE","3","m","rechts","23","","","object","j","0","true"
"null","<div style=""font-size:60px;"">+</div>","null","html-keyboard-response","278","285434","0.0-6.0-0.136","VIDE","3","m","rechts","23","","fixation","","","",""
"953","img/150_60.png","70","image-keyboard-response","279","286402","0.0-6.0-1.136","VIDE","3","m","rechts","23","","","object","f","150","true"
"null","<div style=""font-size:60px;"">+</div>","null","html-keyboard-response","280","286824","0.0-6.0-0.137","VIDE","3","m","rechts","23","","fixation","","","",""
"788","img/150_90.png","74","image-keyboard-response","281","287625","0.0-6.0-1.137","VIDE","3","m","rechts","23","","","object","f","150","false"
"null","<div style=""font-size:60px;"">+</div>","null","html-keyboard-response","282","288091","0.0-6.0-0.138","VIDE","3","m","rechts","23","","fixation","","","",""
"671","img/0_90.png","74","image-keyboard-response","283","288776","0.0-6.0-1.138","VIDE","3","m","rechts","23","","","object","j","0","true"
"null","<div style=""font-size:60px;"">+</div>","null","html-keyboard-response","284","289200","0.0-6.0-0.139","VIDE","3","m","rechts","23","","fixation","","","",""
"920","img/60_30.png","70","image-keyboard-response","285","290126","0.0-6.0-1.139","VIDE","3","m","rechts","23","","","object","f","60","true"
"null","<div style=""font-size:60px;"">+</div>","null","html-keyboard-response","286","290590","0.0-6.0-0.140","VIDE","3","m","rechts","23","","fixation","","","",""
"1078","img/90_30.png","70","image-keyboard-response","287","291676","0.0-6.0-1.140","VIDE","3","m","rechts","23","","","object","f","90","true"
"null","<div style=""font-size:60px;"">+</div>","null","html-keyboard-response","288","291997","0.0-6.0-0.141","VIDE","3","m","rechts","23","","fixation","","","",""
"796","img/30_60.png","70","image-keyboard-response","289","292802","0.0-6.0-1.141","VIDE","3","m","rechts","23","","","object","j","30","false"
"null","<div style=""font-size:60px;"">+</div>","null","html-keyboard-response","290","293217","0.0-6.0-0.142","VIDE","3","m","rechts","23","","fixation","","","",""
"1327","img/150_240.png","74","image-keyboard-response","291","294557","0.0-6.0-1.142","VIDE","3","m","rechts","23","","","object","j","150","true"
"null","<div style=""font-size:60px;"">+</div>","null","html-keyboard-response","292","295061","0.0-6.0-0.143","VIDE","3","m","rechts","23","","fixation","","","",""
"1363","img/90_210.png","74","image-keyboard-response","293","296436","0.0-6.0-1.143","VIDE","3","m","rechts","23","","","object","f","90","false"
"null","<div style=""font-size:60px;"">+</div>","null","html-keyboard-response","294","296810","0.0-6.0-0.144","VIDE","3","m","rechts","23","","fixation","","","",""
"759","img/90_300.png","74","image-keyboard-response","295","297584","0.0-6.0-1.144","VIDE","3","m","rechts","23","","","object","j","90","true"
"null","<div style=""font-size:60px;"">+</div>","null","html-keyboard-response","296","297966","0.0-6.0-0.145","VIDE","3","m","rechts","23","","fixation","","","",""
"909","img/60_180.png","70","image-keyboard-response","297","298889","0.0-6.0-1.145","VIDE","3","m","rechts","23","","","object","f","60","true"
"null","<div style=""font-size:60px;"">+</div>","null","html-keyboard-response","298","299296","0.0-6.0-0.146","VIDE","3","m","rechts","23","","fixation","","","",""
"1212","img/90_120.png","74","image-keyboard-response","299","300520","0.0-6.0-1.146","VIDE","3","m","rechts","23","","","object","j","90","true"
"null","<div style=""font-size:60px;"">+</div>","null","html-keyboard-response","300","301031","0.0-6.0-0.147","VIDE","3","m","rechts","23","","fixation","","","",""
"1490","img/L60_180.png","74","image-keyboard-response","301","302534","0.0-6.0-1.147","VIDE","3","m","rechts","23","","","object","j","60","true"
"null","<div style=""font-size:60px;"">+</div>","null","html-keyboard-response","302","302936","0.0-6.0-0.148","VIDE","3","m","rechts","23","","fixation","","","",""
"799","img/0_330.png","70","image-keyboard-response","303","303748","0.0-6.0-1.148","VIDE","3","m","rechts","23","","","object","f","0","true"
"null","<div style=""font-size:60px;"">+</div>","null","html-keyboard-response","304","304155","0.0-6.0-0.149","VIDE","3","m","rechts","23","","fixation","","","",""
"1074","img/30_300.png","70","image-keyboard-response","305","305244","0.0-6.0-1.149","VIDE","3","m","rechts","23","","","object","f","30","true"
"null","<div style=""font-size:60px;"">+</div>","null","html-keyboard-response","306","305624","0.0-6.0-0.150","VIDE","3","m","rechts","23","","fixation","","","",""
"780","img/60_330.png","74","image-keyboard-response","307","306415","0.0-6.0-1.150","VIDE","3","m","rechts","23","","","object","j","60","true"
"null","<div style=""font-size:60px;"">+</div>","null","html-keyboard-response","308","306889","0.0-6.0-0.151","VIDE","3","m","rechts","23","","fixation","","","",""
"1796","img/L30_180.png","74","image-keyboard-response","309","308698","0.0-6.0-1.151","VIDE","3","m","rechts","23","","","object","j","30","true"
"null","<div style=""font-size:60px;"">+</div>","null","html-keyboard-response","310","309079","0.0-6.0-0.152","VIDE","3","m","rechts","23","","fixation","","","",""
"1203","img/60_210.png","70","image-keyboard-response","311","310295","0.0-6.0-1.152","VIDE","3","m","rechts","23","","","object","f","60","true"
"null","<div style=""font-size:60px;"">+</div>","null","html-keyboard-response","312","310703","0.0-6.0-0.153","VIDE","3","m","rechts","23","","fixation","","","",""
"1177","img/L90_180.png","74","image-keyboard-response","313","311893","0.0-6.0-1.153","VIDE","3","m","rechts","23","","","object","j","90","true"
"null","<div style=""font-size:60px;"">+</div>","null","html-keyboard-response","314","312407","0.0-6.0-0.154","VIDE","3","m","rechts","23","","fixation","","","",""
"823","img/0_270.png","70","image-keyboard-response","315","313243","0.0-6.0-1.154","VIDE","3","m","rechts","23","","","object","f","0","true"
"null","<div style=""font-size:60px;"">+</div>","null","html-keyboard-response","316","313674","0.0-6.0-0.155","VIDE","3","m","rechts","23","","fixation","","","",""
"1131","img/150_120.png","70","image-keyboard-response","317","314819","0.0-6.0-1.155","VIDE","3","m","rechts","23","","","object","f","150","true"
"null","<div style=""font-size:60px;"">+</div>","null","html-keyboard-response","318","315125","0.0-6.0-0.156","VIDE","3","m","rechts","23","","fixation","","","",""
"953","img/30_90.png","74","image-keyboard-response","319","316090","0.0-6.0-1.156","VIDE","3","m","rechts","23","","","object","j","30","true"
"null","<div style=""font-size:60px;"">+</div>","null","html-keyboard-response","320","316451","0.0-6.0-0.157","VIDE","3","m","rechts","23","","fixation","","","",""
"1403","img/90_60.png","70","image-keyboard-response","321","317867","0.0-6.0-1.157","VIDE","3","m","rechts","23","","","object","f","90","true"
"null","<div style=""font-size:60px;"">+</div>","null","html-keyboard-response","322","318186","0.0-6.0-0.158","VIDE","3","m","rechts","23","","fixation","","","",""
"1426","img/60_150.png","74","image-keyboard-response","323","319620","0.0-6.0-1.158","VIDE","3","m","rechts","23","","","object","j","60","true"
"null","<div style=""font-size:60px;"">+</div>","null","html-keyboard-response","324","319987","0.0-6.0-0.159","VIDE","3","m","rechts","23","","fixation","","","",""
"689","img/0_210.png","70","image-keyboard-response","325","320690","0.0-6.0-1.159","VIDE","3","m","rechts","23","","","object","f","0","true"
"null","<div style=""font-size:60px;"">+</div>","null","html-keyboard-response","326","321049","0.0-6.0-0.160","VIDE","3","m","rechts","23","","fixation","","","",""
"1422","img/90_120.png","70","image-keyboard-response","327","322480","0.0-6.0-1.160","VIDE","3","m","rechts","23","","","object","j","90","false"
"null","<div style=""font-size:60px;"">+</div>","null","html-keyboard-response","328","322909","0.0-6.0-0.161","VIDE","3","m","rechts","23","","fixation","","","",""
"1066","img/30_270.png","70","image-keyboard-response","329","323988","0.0-6.0-1.161","VIDE","3","m","rechts","23","","","object","f","30","true"
"null","<div style=""font-size:60px;"">+</div>","null","html-keyboard-response","330","324316","0.0-6.0-0.162","VIDE","3","m","rechts","23","","fixation","","","",""
"692","img/0_120.png","74","image-keyboard-response","331","325022","0.0-6.0-1.162","VIDE","3","m","rechts","23","","","object","j","0","true"
"null","<div style=""font-size:60px;"">+</div>","null","html-keyboard-response","332","325536","0.0-6.0-0.163","VIDE","3","m","rechts","23","","fixation","","","",""
"1076","img/L90_180.png","74","image-keyboard-response","333","326620","0.0-6.0-1.163","VIDE","3","m","rechts","23","","","object","j","90","true"
"null","<div style=""font-size:60px;"">+</div>","null","html-keyboard-response","334","327051","0.0-6.0-0.164","VIDE","3","m","rechts","23","","fixation","","","",""
"1502","img/120_210.png","70","image-keyboard-response","335","328567","0.0-6.0-1.164","VIDE","3","m","rechts","23","","","object","f","120","true"
"null","<div style=""font-size:60px;"">+</div>","null","html-keyboard-response","336","329021","0.0-6.0-0.165","VIDE","3","m","rechts","23","","fixation","","","",""
"758","img/0_300.png","70","image-keyboard-response","337","329792","0.0-6.0-1.165","VIDE","3","m","rechts","23","","","object","f","0","true"
"null","<div style=""font-size:60px;"">+</div>","null","html-keyboard-response","338","330146","0.0-6.0-0.166","VIDE","3","m","rechts","23","","fixation","","","",""
"1048","img/150_270.png","74","image-keyboard-response","339","331209","0.0-6.0-1.166","VIDE","3","m","rechts","23","","","object","j","150","true"
"null","<div style=""font-size:60px;"">+</div>","null","html-keyboard-response","340","331521","0.0-6.0-0.167","VIDE","3","m","rechts","23","","fixation","","","",""
"993","img/150_60.png","70","image-keyboard-response","341","332525","0.0-6.0-1.167","VIDE","3","m","rechts","23","","","object","f","150","true"
"null","<div style=""font-size:60px;"">+</div>","null","html-keyboard-response","342","333036","0.0-6.0-0.168","VIDE","3","m","rechts","23","","fixation","","","",""
"1054","img/30_180.png","70","image-keyboard-response","343","334103","0.0-6.0-1.168","VIDE","3","m","rechts","23","","","object","f","30","true"
"null","<div style=""font-size:60px;"">+</div>","null","html-keyboard-response","344","334428","0.0-6.0-0.169","VIDE","3","m","rechts","23","","fixation","","","",""
"616","img/0_30.png","74","image-keyboard-response","345","335057","0.0-6.0-1.169","VIDE","3","m","rechts","23","","","object","j","0","true"
"null","<div style=""font-size:60px;"">+</div>","null","html-keyboard-response","346","335568","0.0-6.0-0.170","VIDE","3","m","rechts","23","","fixation","","","",""
"919","img/30_300.png","70","image-keyboard-response","347","336498","0.0-6.0-1.170","VIDE","3","m","rechts","23","","","object","f","30","true"
"null","<div style=""font-size:60px;"">+</div>","null","html-keyboard-response","348","336866","0.0-6.0-0.171","VIDE","3","m","rechts","23","","fixation","","","",""
"1419","img/60_90.png","70","image-keyboard-response","349","338298","0.0-6.0-1.171","VIDE","3","m","rechts","23","","","object","j","60","false"
"null","<div style=""font-size:60px;"">+</div>","null","html-keyboard-response","350","338615","0.0-6.0-0.172","VIDE","3","m","rechts","23","","fixation","","","",""
"1065","img/30_240.png","70","image-keyboard-response","351","339693","0.0-6.0-1.172","VIDE","3","m","rechts","23","","","object","f","30","true"
"null","<div style=""font-size:60px;"">+</div>","null","html-keyboard-response","352","340147","0.0-6.0-0.173","VIDE","3","m","rechts","23","","fixation","","","",""
"886","img/90_30.png","70","image-keyboard-response","353","341043","0.0-6.0-1.173","VIDE","3","m","rechts","23","","","object","f","90","true"
"null","<div style=""font-size:60px;"">+</div>","null","html-keyboard-response","354","341350","0.0-6.0-0.174","VIDE","3","m","rechts","23","","fixation","","","",""
"1269","img/150_120.png","70","image-keyboard-response","355","342629","0.0-6.0-1.174","VIDE","3","m","rechts","23","","","object","f","150","true"
"null","<div style=""font-size:60px;"">+</div>","null","html-keyboard-response","356","342943","0.0-6.0-0.175","VIDE","3","m","rechts","23","","fixation","","","",""
"879","img/150_240.png","74","image-keyboard-response","357","343832","0.0-6.0-1.175","VIDE","3","m","rechts","23","","","object","j","150","true"
"null","<div style=""font-size:60px;"">+</div>","null","html-keyboard-response","358","344209","0.0-6.0-0.176","VIDE","3","m","rechts","23","","fixation","","","",""
"865","img/30_60.png","70","image-keyboard-response","359","345082","0.0-6.0-1.176","VIDE","3","m","rechts","23","","","object","j","30","false"
"null","<div style=""font-size:60px;"">+</div>","null","html-keyboard-response","360","345538","0.0-6.0-0.177","VIDE","3","m","rechts","23","","fixation","","","",""
"1309","img/120_180.png","70","image-keyboard-response","361","346860","0.0-6.0-1.177","VIDE","3","m","rechts","23","","","object","f","120","true"
"null","<div style=""font-size:60px;"">+</div>","null","html-keyboard-response","362","347226","0.0-6.0-0.178","VIDE","3","m","rechts","23","","fixation","","","",""
"778","img/90_300.png","74","image-keyboard-response","363","348008","0.0-6.0-1.178","VIDE","3","m","rechts","23","","","object","j","90","true"
"null","<div style=""font-size:60px;"">+</div>","null","html-keyboard-response","364","348413","0.0-6.0-0.179","VIDE","3","m","rechts","23","","fixation","","","",""
"638","img/90_330.png","74","image-keyboard-response","365","349064","0.0-6.0-1.179","VIDE","3","m","rechts","23","","","object","j","90","true"
"null","<div style=""font-size:60px;"">+</div>","null","html-keyboard-response","366","349477","0.0-6.0-0.180","VIDE","3","m","rechts","23","","fixation","","","",""
"744","img/120_30.png","70","image-keyboard-response","367","350233","0.0-6.0-1.180","VIDE","3","m","rechts","23","","","object","f","120","true"
"null","<div style=""font-size:60px;"">+</div>","null","html-keyboard-response","368","350602","0.0-6.0-0.181","VIDE","3","m","rechts","23","","fixation","","","",""
"1049","img/120_150.png","74","image-keyboard-response","369","351663","0.0-6.0-1.181","VIDE","3","m","rechts","23","","","object","j","120","true"
"null","<div style=""font-size:60px;"">+</div>","null","html-keyboard-response","370","351991","0.0-6.0-0.182","VIDE","3","m","rechts","23","","fixation","","","",""
"794","img/0_60.png","74","image-keyboard-response","371","352798","0.0-6.0-1.182","VIDE","3","m","rechts","23","","","object","j","0","true"
"null","<div style=""font-size:60px;"">+</div>","null","html-keyboard-response","372","353320","0.0-6.0-0.183","VIDE","3","m","rechts","23","","fixation","","","",""
"736","img/30_120.png","70","image-keyboard-response","373","354070","0.0-6.0-1.183","VIDE","3","m","rechts","23","","","object","j","30","false"
"null","<div style=""font-size:60px;"">+</div>","null","html-keyboard-response","374","354524","0.0-6.0-0.184","VIDE","3","m","rechts","23","","fixation","","","",""
"726","img/120_330.png","74","image-keyboard-response","375","355264","0.0-6.0-1.184","VIDE","3","m","rechts","23","","","object","j","120","true"
"null","<div style=""font-size:60px;"">+</div>","null","html-keyboard-response","376","355570","0.0-6.0-0.185","VIDE","3","m","rechts","23","","fixation","","","",""
"625","img/60_330.png","74","image-keyboard-response","377","356207","0.0-6.0-1.185","VIDE","3","m","rechts","23","","","object","j","60","true"
"null","<div style=""font-size:60px;"">+</div>","null","html-keyboard-response","378","356727","0.0-6.0-0.186","VIDE","3","m","rechts","23","","fixation","","","",""
"1191","img/90_210.png","74","image-keyboard-response","379","357930","0.0-6.0-1.186","VIDE","3","m","rechts","23","","","object","f","90","false"
"null","<div style=""font-size:60px;"">+</div>","null","html-keyboard-response","380","358243","0.0-6.0-0.187","VIDE","3","m","rechts","23","","fixation","","","",""
"865","img/60_30.png","70","image-keyboard-response","381","359122","0.0-6.0-1.187","VIDE","3","m","rechts","23","","","object","f","60","true"
"null","<div style=""font-size:60px;"">+</div>","null","html-keyboard-response","382","359525","0.0-6.0-0.188","VIDE","3","m","rechts","23","","fixation","","","",""
"967","img/120_90.png","74","image-keyboard-response","383","360506","0.0-6.0-1.188","VIDE","3","m","rechts","23","","","object","f","120","false"
"null","<div style=""font-size:60px;"">+</div>","null","html-keyboard-response","384","360867","0.0-6.0-0.189","VIDE","3","m","rechts","23","","fixation","","","",""
"1032","img/90_240.png","70","image-keyboard-response","385","361912","0.0-6.0-1.189","VIDE","3","m","rechts","23","","","object","f","90","true"
"null","<div style=""font-size:60px;"">+</div>","null","html-keyboard-response","386","362321","0.0-6.0-0.190","VIDE","3","m","rechts","23","","fixation","","","",""
"1177","img/150_180.png","70","image-keyboard-response","387","363511","0.0-6.0-1.190","VIDE","3","m","rechts","23","","","object","f","150","true"
"null","<div style=""font-size:60px;"">+</div>","null","html-keyboard-response","388","363837","0.0-6.0-0.191","VIDE","3","m","rechts","23","","fixation","","","",""
"974","img/120_270.png","74","image-keyboard-response","389","364826","0.0-6.0-1.191","VIDE","3","m","rechts","23","","","object","j","120","true"
"null","<div style=""font-size:60px;"">+</div>","null","html-keyboard-response","390","365134","0.0-6.0-0.192","VIDE","3","m","rechts","23","","fixation","","","",""
"703","img/0_90.png","74","image-keyboard-response","391","365850","0.0-6.0-1.192","VIDE","3","m","rechts","23","","","object","j","0","true"
"null","<div style=""font-size:60px;"">+</div>","null","html-keyboard-response","392","366179","0.0-6.0-0.193","VIDE","3","m","rechts","23","","fixation","","","",""
"563","img/0_240.png","74","image-keyboard-response","393","366759","0.0-6.0-1.193","VIDE","3","m","rechts","23","","","object","f","0","false"
"null","<div style=""font-size:60px;"">+</div>","null","html-keyboard-response","394","367179","0.0-6.0-0.194","VIDE","3","m","rechts","23","","fixation","","","",""
"1831","img/L30_180.png","74","image-keyboard-response","395","369023","0.0-6.0-1.194","VIDE","3","m","rechts","23","","","object","j","30","true"
"null","<div style=""font-size:60px;"">+</div>","null","html-keyboard-response","396","369494","0.0-6.0-0.195","VIDE","3","m","rechts","23","","fixation","","","",""
"744","img/0_330.png","70","image-keyboard-response","397","370254","0.0-6.0-1.195","VIDE","3","m","rechts","23","","","object","f","0","true"
"null","<div style=""font-size:60px;"">+</div>","null","html-keyboard-response","398","370572","0.0-6.0-0.196","VIDE","3","m","rechts","23","","fixation","","","",""
"841","img/150_300.png","74","image-keyboard-response","399","371428","0.0-6.0-1.196","VIDE","3","m","rechts","23","","","object","j","150","true"
"null","<div style=""font-size:60px;"">+</div>","null","html-keyboard-response","400","371901","0.0-6.0-0.197","VIDE","3","m","rechts","23","","fixation","","","",""
"2455","img/150_90.png","70","image-keyboard-response","401","374369","0.0-6.0-1.197","VIDE","3","m","rechts","23","","","object","f","150","true"
"null","<div style=""font-size:60px;"">+</div>","null","html-keyboard-response","402","374789","0.0-6.0-0.198","VIDE","3","m","rechts","23","","fixation","","","",""
"959","img/60_270.png","70","image-keyboard-response","403","375761","0.0-6.0-1.198","VIDE","3","m","rechts","23","","","object","f","60","true"
"null","<div style=""font-size:60px;"">+</div>","null","html-keyboard-response","404","376070","0.0-6.0-0.199","VIDE","3","m","rechts","23","","fixation","","","",""
"1468","img/60_180.png","70","image-keyboard-response","405","377550","0.0-6.0-1.199","VIDE","3","m","rechts","23","","","object","f","60","true"
"null","<div style=""font-size:60px;"">+</div>","null","html-keyboard-response","406","377913","0.0-6.0-0.200","VIDE","3","m","rechts","23","","fixation","","","",""
"814","img/60_210.png","70","image-keyboard-response","407","378741","0.0-6.0-1.200","VIDE","3","m","rechts","23","","","object","f","60","true"
"null","<div style=""font-size:60px;"">+</div>","null","html-keyboard-response","408","379198","0.0-6.0-0.201","VIDE","3","m","rechts","23","","fixation","","","",""
"974","img/90_180.png","70","image-keyboard-response","409","380179","0.0-6.0-1.201","VIDE","3","m","rechts","23","","","object","f","90","true"
"null","<div style=""font-size:60px;"">+</div>","null","html-keyboard-response","410","380494","0.0-6.0-0.202","VIDE","3","m","rechts","23","","fixation","","","",""
"831","img/0_270.png","70","image-keyboard-response","411","381330","0.0-6.0-1.202","VIDE","3","m","rechts","23","","","object","f","0","true"
"null","<div style=""font-size:60px;"">+</div>","null","html-keyboard-response","412","381761","0.0-6.0-0.203","VIDE","3","m","rechts","23","","fixation","","","",""
"1054","img/90_150.png","74","image-keyboard-response","413","382827","0.0-6.0-1.203","VIDE","3","m","rechts","23","","","object","j","90","true"
"null","<div style=""font-size:60px;"">+</div>","null","html-keyboard-response","414","383151","0.0-6.0-0.204","VIDE","3","m","rechts","23","","fixation","","","",""
"865","img/0_150.png","74","image-keyboard-response","415","384030","0.0-6.0-1.204","VIDE","3","m","rechts","23","","","object","j","0","true"
"null","<div style=""font-size:60px;"">+</div>","null","html-keyboard-response","416","384433","0.0-6.0-0.205","VIDE","3","m","rechts","23","","fixation","","","",""
"1518","img/L120_180.png","74","image-keyboard-response","417","385965","0.0-6.0-1.205","VIDE","3","m","rechts","23","","","object","j","120","true"
"null","<div style=""font-size:60px;"">+</div>","null","html-keyboard-response","418","386371","0.0-6.0-0.206","VIDE","3","m","rechts","23","","fixation","","","",""
"1186","img/L60_180.png","74","image-keyboard-response","419","387572","0.0-6.0-1.206","VIDE","3","m","rechts","23","","","object","j","60","true"
"null","<div style=""font-size:60px;"">+</div>","null","html-keyboard-response","420","387884","0.0-6.0-0.207","VIDE","3","m","rechts","23","","fixation","","","",""
"979","img/L150_180.png","74","image-keyboard-response","421","388879","0.0-6.0-1.207","VIDE","3","m","rechts","23","","","object","j","150","true"
"7671","<p>Du hast in 78% der Versuche korrekt entschieden.</p><p>Deine durchschnittliche Reaktionszeit war  1022ms.</p><p>Dr&uuml;cke eine beliebige Taste, um die Session zu beenden. Vielen Dank!</p>","32","html-keyboard-response","422","396555","0.0-7.0","VIDE","3","m","rechts","23","","","","","",""
