"rt","stimulus","key_press","trial_type","trial_index","time_elapsed","internal_node_id","subject","session","sex","handedness","age","responses","test_part","condition","correct_response","angle","correct"
"1258","<p>Mental Rotation Experiment.</p> <p>Dr&uuml;cke eine beliebige Taste, um anzufangen.</p>","13","html-keyboard-response","0","1293","0.0-0.0","VIDE","2","m","rechts","23","","","","","",""
"3819","","","survey-text","1","5115","0.0-1.0","VIDE","2","m","rechts","23","{""Q0"":""VIDE""}","","","","",""
"3077","","","survey-text","2","8194","0.0-2.0","VIDE","2","m","rechts","23","{""Q0"":""2""}","","","","",""
"4121","","","survey-multi-choice","3","12323","0.0-3.0","VIDE","2","m","rechts","23","{""Q0"":""m"",""Q1"":""rechts""}","","","","",""
"3148","","","survey-text","4","15471","0.0-4.0","VIDE","2","m","rechts","23","{""Q0"":""23""}","","","","",""
"212974","<p>Stell dir vor, dass du vor einem runden Tisch stehst, auf dem sich ein blauer Ball am Tischrand befindet. Entlang des Tischrands ist jeweils ein verschieden langer Pfeil. Nun bleibst du an deinem Platz vor dem Tisch und rotierst den Tisch entlang des Pfeils (gleiche Richtung und Länge). </p> <img src='img/30_180.png'></img> <br><p> Nachdem du diese (vorgestellte) Rotation durchgef&uuml;hrt hast, schau in Richtung der Tischmitte, und entscheide dann, ob der Ball links oder rechts von dir liegt.</p> <p>Dr&uuml;cke die <strong>'f'</strong>-Taste f&uuml;r links, die <strong>'j'</strong>-Taste f&uuml;r rechts.</p><br><p> Das Bild wird jeweils 1 Sekunde lang pr&auml;sentiert. Du hast 3 Sekunden Zeit eine Entscheidung zu treffen.</p>","70","html-keyboard-response","5","228456","0.0-5.0","VIDE","2","m","rechts","23","","","","","",""
"null","<div style=""font-size:60px;"">+</div>","null","html-keyboard-response","6","229981","0.0-6.0-0.0","VIDE","2","m","rechts","23","","fixation","","","",""
"1465","img/0_240.png","70","image-keyboard-response","7","231469","0.0-6.0-1.0","VIDE","2","m","rechts","23","","","object","f","0","true"
"null","<div style=""font-size:60px;"">+</div>","null","html-keyboard-response","8","231981","0.0-6.0-0.1","VIDE","2","m","rechts","23","","fixation","","","",""
"1311","img/60_330.png","74","image-keyboard-response","9","233309","0.0-6.0-1.1","VIDE","2","m","rechts","23","","","object","j","60","true"
"null","<div style=""font-size:60px;"">+</div>","null","html-keyboard-response","10","233638","0.0-6.0-0.2","VIDE","2","m","rechts","23","","fixation","","","",""
"1192","img/30_300.png","70","image-keyboard-response","11","234850","0.0-6.0-1.2","VIDE","2","m","rechts","23","","","object","f","30","true"
"null","<div style=""font-size:60px;"">+</div>","null","html-keyboard-response","12","235270","0.0-6.0-0.3","VIDE","2","m","rechts","23","","fixation","","","",""
"1480","img/120_270.png","74","image-keyboard-response","13","236763","0.0-6.0-1.3","VIDE","2","m","rechts","23","","","object","j","120","true"
"null","<div style=""font-size:60px;"">+</div>","null","html-keyboard-response","14","237268","0.0-6.0-0.4","VIDE","2","m","rechts","23","","fixation","","","",""
"1037","img/60_90.png","70","image-keyboard-response","15","238315","0.0-6.0-1.4","VIDE","2","m","rechts","23","","","object","j","60","false"
"null","<div style=""font-size:60px;"">+</div>","null","html-keyboard-response","16","238690","0.0-6.0-0.5","VIDE","2","m","rechts","23","","fixation","","","",""
"1249","img/90_150.png","74","image-keyboard-response","17","239960","0.0-6.0-1.5","VIDE","2","m","rechts","23","","","object","j","90","true"
"null","<div style=""font-size:60px;"">+</div>","null","html-keyboard-response","18","240411","0.0-6.0-0.6","VIDE","2","m","rechts","23","","fixation","","","",""
"1387","img/90_240.png","70","image-keyboard-response","19","241815","0.0-6.0-1.6","VIDE","2","m","rechts","23","","","object","f","90","true"
"null","<div style=""font-size:60px;"">+</div>","null","html-keyboard-response","20","242271","0.0-6.0-0.7","VIDE","2","m","rechts","23","","fixation","","","",""
"1978","img/60_150.png","74","image-keyboard-response","21","244259","0.0-6.0-1.7","VIDE","2","m","rechts","23","","","object","j","60","true"
"null","<div style=""font-size:60px;"">+</div>","null","html-keyboard-response","22","244618","0.0-6.0-0.8","VIDE","2","m","rechts","23","","fixation","","","",""
"1013","img/60_270.png","70","image-keyboard-response","23","245651","0.0-6.0-1.8","VIDE","2","m","rechts","23","","","object","f","60","true"
"null","<div style=""font-size:60px;"">+</div>","null","html-keyboard-response","24","245975","0.0-6.0-0.9","VIDE","2","m","rechts","23","","fixation","","","",""
"1718","img/90_210.png","70","image-keyboard-response","25","247709","0.0-6.0-1.9","VIDE","2","m","rechts","23","","","object","f","90","true"
"null","<div style=""font-size:60px;"">+</div>","null","html-keyboard-response","26","248084","0.0-6.0-0.10","VIDE","2","m","rechts","23","","fixation","","","",""
"1644","img/L60_180.png","74","image-keyboard-response","27","249747","0.0-6.0-1.10","VIDE","2","m","rechts","23","","","object","j","60","true"
"null","<div style=""font-size:60px;"">+</div>","null","html-keyboard-response","28","250177","0.0-6.0-0.11","VIDE","2","m","rechts","23","","fixation","","","",""
"1059","img/30_120.png","74","image-keyboard-response","29","251254","0.0-6.0-1.11","VIDE","2","m","rechts","23","","","object","j","30","true"
"null","<div style=""font-size:60px;"">+</div>","null","html-keyboard-response","30","251568","0.0-6.0-0.12","VIDE","2","m","rechts","23","","fixation","","","",""
"949","img/0_270.png","70","image-keyboard-response","31","252536","0.0-6.0-1.12","VIDE","2","m","rechts","23","","","object","f","0","true"
"null","<div style=""font-size:60px;"">+</div>","null","html-keyboard-response","32","252990","0.0-6.0-0.13","VIDE","2","m","rechts","23","","fixation","","","",""
"1622","img/90_180.png","70","image-keyboard-response","33","254629","0.0-6.0-1.13","VIDE","2","m","rechts","23","","","object","f","90","true"
"null","<div style=""font-size:60px;"">+</div>","null","html-keyboard-response","34","254943","0.0-6.0-0.14","VIDE","2","m","rechts","23","","fixation","","","",""
"1600","img/120_150.png","70","image-keyboard-response","35","256564","0.0-6.0-1.14","VIDE","2","m","rechts","23","","","object","j","120","false"
"null","<div style=""font-size:60px;"">+</div>","null","html-keyboard-response","36","257069","0.0-6.0-0.15","VIDE","2","m","rechts","23","","fixation","","","",""
"1682","img/150_90.png","70","image-keyboard-response","37","258768","0.0-6.0-1.15","VIDE","2","m","rechts","23","","","object","f","150","true"
"null","<div style=""font-size:60px;"">+</div>","null","html-keyboard-response","38","259147","0.0-6.0-0.16","VIDE","2","m","rechts","23","","fixation","","","",""
"1333","img/150_300.png","74","image-keyboard-response","39","260501","0.0-6.0-1.16","VIDE","2","m","rechts","23","","","object","j","150","true"
"null","<div style=""font-size:60px;"">+</div>","null","html-keyboard-response","40","260929","0.0-6.0-0.17","VIDE","2","m","rechts","23","","fixation","","","",""
"1581","img/L120_180.png","74","image-keyboard-response","41","262527","0.0-6.0-1.17","VIDE","2","m","rechts","23","","","object","j","120","true"
"null","<div style=""font-size:60px;"">+</div>","null","html-keyboard-response","42","263006","0.0-6.0-0.18","VIDE","2","m","rechts","23","","fixation","","","",""
"1221","img/120_210.png","70","image-keyboard-response","43","264248","0.0-6.0-1.18","VIDE","2","m","rechts","23","","","object","f","120","true"
"null","<div style=""font-size:60px;"">+</div>","null","html-keyboard-response","44","264678","0.0-6.0-0.19","VIDE","2","m","rechts","23","","fixation","","","",""
"913","img/0_150.png","74","image-keyboard-response","45","265609","0.0-6.0-1.19","VIDE","2","m","rechts","23","","","object","j","0","true"
"null","<div style=""font-size:60px;"">+</div>","null","html-keyboard-response","46","265930","0.0-6.0-0.20","VIDE","2","m","rechts","23","","fixation","","","",""
"1406","img/30_270.png","74","image-keyboard-response","47","267354","0.0-6.0-1.20","VIDE","2","m","rechts","23","","","object","f","30","false"
"null","<div style=""font-size:60px;"">+</div>","null","html-keyboard-response","48","267759","0.0-6.0-0.21","VIDE","2","m","rechts","23","","fixation","","","",""
"1117","img/60_30.png","70","image-keyboard-response","49","268894","0.0-6.0-1.21","VIDE","2","m","rechts","23","","","object","f","60","true"
"null","<div style=""font-size:60px;"">+</div>","null","html-keyboard-response","50","269212","0.0-6.0-0.22","VIDE","2","m","rechts","23","","fixation","","","",""
"1835","img/150_120.png","70","image-keyboard-response","51","271066","0.0-6.0-1.22","VIDE","2","m","rechts","23","","","object","f","150","true"
"null","<div style=""font-size:60px;"">+</div>","null","html-keyboard-response","52","271430","0.0-6.0-0.23","VIDE","2","m","rechts","23","","fixation","","","",""
"1000","img/0_30.png","74","image-keyboard-response","53","272449","0.0-6.0-1.23","VIDE","2","m","rechts","23","","","object","j","0","true"
"null","<div style=""font-size:60px;"">+</div>","null","html-keyboard-response","54","272766","0.0-6.0-0.24","VIDE","2","m","rechts","23","","fixation","","","",""
"857","img/0_90.png","74","image-keyboard-response","55","273642","0.0-6.0-1.24","VIDE","2","m","rechts","23","","","object","j","0","true"
"null","<div style=""font-size:60px;"">+</div>","null","html-keyboard-response","56","273954","0.0-6.0-0.25","VIDE","2","m","rechts","23","","fixation","","","",""
"2655","img/150_180.png","70","image-keyboard-response","57","276627","0.0-6.0-1.25","VIDE","2","m","rechts","23","","","object","f","150","true"
"null","<div style=""font-size:60px;"">+</div>","null","html-keyboard-response","58","277046","0.0-6.0-0.26","VIDE","2","m","rechts","23","","fixation","","","",""
"2375","img/120_90.png","70","image-keyboard-response","59","279439","0.0-6.0-1.26","VIDE","2","m","rechts","23","","","object","f","120","true"
"null","<div style=""font-size:60px;"">+</div>","null","html-keyboard-response","60","279904","0.0-6.0-0.27","VIDE","2","m","rechts","23","","fixation","","","",""
"1358","img/30_240.png","70","image-keyboard-response","61","281279","0.0-6.0-1.27","VIDE","2","m","rechts","23","","","object","f","30","true"
"null","<div style=""font-size:60px;"">+</div>","null","html-keyboard-response","62","281596","0.0-6.0-0.28","VIDE","2","m","rechts","23","","fixation","","","",""
"891","img/0_210.png","70","image-keyboard-response","63","282505","0.0-6.0-1.28","VIDE","2","m","rechts","23","","","object","f","0","true"
"null","<div style=""font-size:60px;"">+</div>","null","html-keyboard-response","64","282955","0.0-6.0-0.29","VIDE","2","m","rechts","23","","fixation","","","",""
"983","img/90_30.png","70","image-keyboard-response","65","283956","0.0-6.0-1.29","VIDE","2","m","rechts","23","","","object","f","90","true"
"null","<div style=""font-size:60px;"">+</div>","null","html-keyboard-response","66","284267","0.0-6.0-0.30","VIDE","2","m","rechts","23","","fixation","","","",""
"1358","img/150_60.png","70","image-keyboard-response","67","285635","0.0-6.0-1.30","VIDE","2","m","rechts","23","","","object","f","150","true"
"null","<div style=""font-size:60px;"">+</div>","null","html-keyboard-response","68","286095","0.0-6.0-0.31","VIDE","2","m","rechts","23","","fixation","","","",""
"1047","img/90_300.png","74","image-keyboard-response","69","287164","0.0-6.0-1.31","VIDE","2","m","rechts","23","","","object","j","90","true"
"null","<div style=""font-size:60px;"">+</div>","null","html-keyboard-response","70","287517","0.0-6.0-0.32","VIDE","2","m","rechts","23","","fixation","","","",""
"2931","img/150_240.png","74","image-keyboard-response","71","290466","0.0-6.0-1.32","VIDE","2","m","rechts","23","","","object","j","150","true"
"null","<div style=""font-size:60px;"">+</div>","null","html-keyboard-response","72","290790","0.0-6.0-0.33","VIDE","2","m","rechts","23","","fixation","","","",""
"1024","img/120_330.png","74","image-keyboard-response","73","291833","0.0-6.0-1.33","VIDE","2","m","rechts","23","","","object","j","120","true"
"null","<div style=""font-size:60px;"">+</div>","null","html-keyboard-response","74","292133","0.0-6.0-0.34","VIDE","2","m","rechts","23","","fixation","","","",""
"2858","img/150_270.png","74","image-keyboard-response","75","295010","0.0-6.0-1.34","VIDE","2","m","rechts","23","","","object","j","150","true"
"null","<div style=""font-size:60px;"">+</div>","null","html-keyboard-response","76","295428","0.0-6.0-0.35","VIDE","2","m","rechts","23","","fixation","","","",""
"899","img/90_60.png","70","image-keyboard-response","77","296344","0.0-6.0-1.35","VIDE","2","m","rechts","23","","","object","f","90","true"
"null","<div style=""font-size:60px;"">+</div>","null","html-keyboard-response","78","296803","0.0-6.0-0.36","VIDE","2","m","rechts","23","","fixation","","","",""
"796","img/120_30.png","70","image-keyboard-response","79","297617","0.0-6.0-1.36","VIDE","2","m","rechts","23","","","object","f","120","true"
"null","<div style=""font-size:60px;"">+</div>","null","html-keyboard-response","80","298131","0.0-6.0-0.37","VIDE","2","m","rechts","23","","fixation","","","",""
"2517","img/90_120.png","74","image-keyboard-response","81","300668","0.0-6.0-1.37","VIDE","2","m","rechts","23","","","object","j","90","true"
"null","<div style=""font-size:60px;"">+</div>","null","html-keyboard-response","82","301133","0.0-6.0-0.38","VIDE","2","m","rechts","23","","fixation","","","",""
"1470","img/30_90.png","74","image-keyboard-response","83","302622","0.0-6.0-1.38","VIDE","2","m","rechts","23","","","object","j","30","true"
"null","<div style=""font-size:60px;"">+</div>","null","html-keyboard-response","84","303134","0.0-6.0-0.39","VIDE","2","m","rechts","23","","fixation","","","",""
"1894","img/L30_180.png","74","image-keyboard-response","85","305046","0.0-6.0-1.39","VIDE","2","m","rechts","23","","","object","j","30","true"
"null","<div style=""font-size:60px;"">+</div>","null","html-keyboard-response","86","305523","0.0-6.0-0.40","VIDE","2","m","rechts","23","","fixation","","","",""
"937","img/0_300.png","70","image-keyboard-response","87","306480","0.0-6.0-1.40","VIDE","2","m","rechts","23","","","object","f","0","true"
"null","<div style=""font-size:60px;"">+</div>","null","html-keyboard-response","88","306943","0.0-6.0-0.41","VIDE","2","m","rechts","23","","fixation","","","",""
"1746","img/60_180.png","70","image-keyboard-response","89","308708","0.0-6.0-1.41","VIDE","2","m","rechts","23","","","object","f","60","true"
"null","<div style=""font-size:60px;"">+</div>","null","html-keyboard-response","90","309071","0.0-6.0-0.42","VIDE","2","m","rechts","23","","fixation","","","",""
"1058","img/90_330.png","74","image-keyboard-response","91","310147","0.0-6.0-1.42","VIDE","2","m","rechts","23","","","object","j","90","true"
"null","<div style=""font-size:60px;"">+</div>","null","html-keyboard-response","92","310476","0.0-6.0-0.43","VIDE","2","m","rechts","23","","fixation","","","",""
"2662","img/L150_180.png","74","image-keyboard-response","93","313157","0.0-6.0-1.43","VIDE","2","m","rechts","23","","","object","j","150","true"
"null","<div style=""font-size:60px;"">+</div>","null","html-keyboard-response","94","313636","0.0-6.0-0.44","VIDE","2","m","rechts","23","","fixation","","","",""
"2684","img/120_180.png","70","image-keyboard-response","95","316340","0.0-6.0-1.44","VIDE","2","m","rechts","23","","","object","f","120","true"
"null","<div style=""font-size:60px;"">+</div>","null","html-keyboard-response","96","316664","0.0-6.0-0.45","VIDE","2","m","rechts","23","","fixation","","","",""
"1582","img/30_180.png","70","image-keyboard-response","97","318259","0.0-6.0-1.45","VIDE","2","m","rechts","23","","","object","f","30","true"
"null","<div style=""font-size:60px;"">+</div>","null","html-keyboard-response","98","318789","0.0-6.0-0.46","VIDE","2","m","rechts","23","","fixation","","","",""
"1351","img/L90_180.png","74","image-keyboard-response","99","320160","0.0-6.0-1.46","VIDE","2","m","rechts","23","","","object","j","90","true"
"null","<div style=""font-size:60px;"">+</div>","null","html-keyboard-response","100","320575","0.0-6.0-0.47","VIDE","2","m","rechts","23","","fixation","","","",""
"1648","img/30_60.png","74","image-keyboard-response","101","322242","0.0-6.0-1.47","VIDE","2","m","rechts","23","","","object","j","30","true"
"null","<div style=""font-size:60px;"">+</div>","null","html-keyboard-response","102","322700","0.0-6.0-0.48","VIDE","2","m","rechts","23","","fixation","","","",""
"1636","img/60_210.png","70","image-keyboard-response","103","324358","0.0-6.0-1.48","VIDE","2","m","rechts","23","","","object","f","60","true"
"null","<div style=""font-size:60px;"">+</div>","null","html-keyboard-response","104","324887","0.0-6.0-0.49","VIDE","2","m","rechts","23","","fixation","","","",""
"914","img/0_120.png","74","image-keyboard-response","105","325820","0.0-6.0-1.49","VIDE","2","m","rechts","23","","","object","j","0","true"
"null","<div style=""font-size:60px;"">+</div>","null","html-keyboard-response","106","326137","0.0-6.0-0.50","VIDE","2","m","rechts","23","","fixation","","","",""
"879","img/0_330.png","70","image-keyboard-response","107","327034","0.0-6.0-1.50","VIDE","2","m","rechts","23","","","object","f","0","true"
"null","<div style=""font-size:60px;"">+</div>","null","html-keyboard-response","108","327465","0.0-6.0-0.51","VIDE","2","m","rechts","23","","fixation","","","",""
"777","img/0_60.png","74","image-keyboard-response","109","328261","0.0-6.0-1.51","VIDE","2","m","rechts","23","","","object","j","0","true"
"null","<div style=""font-size:60px;"">+</div>","null","html-keyboard-response","110","328731","0.0-6.0-0.52","VIDE","2","m","rechts","23","","fixation","","","",""
"1049","img/120_330.png","74","image-keyboard-response","111","329790","0.0-6.0-1.52","VIDE","2","m","rechts","23","","","object","j","120","true"
"null","<div style=""font-size:60px;"">+</div>","null","html-keyboard-response","112","330123","0.0-6.0-0.53","VIDE","2","m","rechts","23","","fixation","","","",""
"1915","img/120_150.png","74","image-keyboard-response","113","332053","0.0-6.0-1.53","VIDE","2","m","rechts","23","","","object","j","120","true"
"null","<div style=""font-size:60px;"">+</div>","null","html-keyboard-response","114","332514","0.0-6.0-0.54","VIDE","2","m","rechts","23","","fixation","","","",""
"1644","img/150_180.png","70","image-keyboard-response","115","334168","0.0-6.0-1.54","VIDE","2","m","rechts","23","","","object","f","150","true"
"null","<div style=""font-size:60px;"">+</div>","null","html-keyboard-response","116","334483","0.0-6.0-0.55","VIDE","2","m","rechts","23","","fixation","","","",""
"1663","img/150_300.png","74","image-keyboard-response","117","336159","0.0-6.0-1.55","VIDE","2","m","rechts","23","","","object","j","150","true"
"null","<div style=""font-size:60px;"">+</div>","null","html-keyboard-response","118","336608","0.0-6.0-0.56","VIDE","2","m","rechts","23","","fixation","","","",""
"2221","img/L120_180.png","74","image-keyboard-response","119","338841","0.0-6.0-1.56","VIDE","2","m","rechts","23","","","object","j","120","true"
"null","<div style=""font-size:60px;"">+</div>","null","html-keyboard-response","120","339149","0.0-6.0-0.57","VIDE","2","m","rechts","23","","fixation","","","",""
"1803","img/L30_180.png","70","image-keyboard-response","121","340963","0.0-6.0-1.57","VIDE","2","m","rechts","23","","","object","j","30","false"
"null","<div style=""font-size:60px;"">+</div>","null","html-keyboard-response","122","341469","0.0-6.0-0.58","VIDE","2","m","rechts","23","","fixation","","","",""
"1780","img/L150_180.png","74","image-keyboard-response","123","343259","0.0-6.0-1.58","VIDE","2","m","rechts","23","","","object","j","150","true"
"null","<div style=""font-size:60px;"">+</div>","null","html-keyboard-response","124","343625","0.0-6.0-0.59","VIDE","2","m","rechts","23","","fixation","","","",""
"967","img/30_120.png","74","image-keyboard-response","125","344607","0.0-6.0-1.59","VIDE","2","m","rechts","23","","","object","j","30","true"
"null","<div style=""font-size:60px;"">+</div>","null","html-keyboard-response","126","344968","0.0-6.0-0.60","VIDE","2","m","rechts","23","","fixation","","","",""
"1100","img/30_300.png","74","image-keyboard-response","127","346082","0.0-6.0-1.60","VIDE","2","m","rechts","23","","","object","f","30","false"
"null","<div style=""font-size:60px;"">+</div>","null","html-keyboard-response","128","346586","0.0-6.0-0.61","VIDE","2","m","rechts","23","","fixation","","","",""
"937","img/0_300.png","70","image-keyboard-response","129","347532","0.0-6.0-1.61","VIDE","2","m","rechts","23","","","object","f","0","true"
"null","<div style=""font-size:60px;"">+</div>","null","html-keyboard-response","130","347913","0.0-6.0-0.62","VIDE","2","m","rechts","23","","fixation","","","",""
"1788","img/90_180.png","70","image-keyboard-response","131","349714","0.0-6.0-1.62","VIDE","2","m","rechts","23","","","object","f","90","true"
"null","<div style=""font-size:60px;"">+</div>","null","html-keyboard-response","132","350071","0.0-6.0-0.63","VIDE","2","m","rechts","23","","fixation","","","",""
"1034","img/90_30.png","70","image-keyboard-response","133","351116","0.0-6.0-1.63","VIDE","2","m","rechts","23","","","object","f","90","true"
"null","<div style=""font-size:60px;"">+</div>","null","html-keyboard-response","134","351423","0.0-6.0-0.64","VIDE","2","m","rechts","23","","fixation","","","",""
"1529","img/150_120.png","74","image-keyboard-response","135","352967","0.0-6.0-1.64","VIDE","2","m","rechts","23","","","object","f","150","false"
"null","<div style=""font-size:60px;"">+</div>","null","html-keyboard-response","136","353439","0.0-6.0-0.65","VIDE","2","m","rechts","23","","fixation","","","",""
"2311","img/90_210.png","74","image-keyboard-response","137","355761","0.0-6.0-1.65","VIDE","2","m","rechts","23","","","object","f","90","false"
"null","<div style=""font-size:60px;"">+</div>","null","html-keyboard-response","138","356069","0.0-6.0-0.66","VIDE","2","m","rechts","23","","fixation","","","",""
"1642","img/90_150.png","74","image-keyboard-response","139","357725","0.0-6.0-1.66","VIDE","2","m","rechts","23","","","object","j","90","true"
"null","<div style=""font-size:60px;"">+</div>","null","html-keyboard-response","140","358179","0.0-6.0-0.67","VIDE","2","m","rechts","23","","fixation","","","",""
"920","img/90_330.png","74","image-keyboard-response","141","359108","0.0-6.0-1.67","VIDE","2","m","rechts","23","","","object","j","90","true"
"null","<div style=""font-size:60px;"">+</div>","null","html-keyboard-response","142","359539","0.0-6.0-0.68","VIDE","2","m","rechts","23","","fixation","","","",""
"795","img/0_150.png","74","image-keyboard-response","143","360348","0.0-6.0-1.68","VIDE","2","m","rechts","23","","","object","j","0","true"
"null","<div style=""font-size:60px;"">+</div>","null","html-keyboard-response","144","360799","0.0-6.0-0.69","VIDE","2","m","rechts","23","","fixation","","","",""
"692","img/0_30.png","74","image-keyboard-response","145","361505","0.0-6.0-1.69","VIDE","2","m","rechts","23","","","object","j","0","true"
"null","<div style=""font-size:60px;"">+</div>","null","html-keyboard-response","146","361831","0.0-6.0-0.70","VIDE","2","m","rechts","23","","fixation","","","",""
"1665","img/90_120.png","70","image-keyboard-response","147","363506","0.0-6.0-1.70","VIDE","2","m","rechts","23","","","object","j","90","false"
"null","<div style=""font-size:60px;"">+</div>","null","html-keyboard-response","148","363861","0.0-6.0-0.71","VIDE","2","m","rechts","23","","fixation","","","",""
"2102","img/90_240.png","74","image-keyboard-response","149","365977","0.0-6.0-1.71","VIDE","2","m","rechts","23","","","object","f","90","false"
"null","<div style=""font-size:60px;"">+</div>","null","html-keyboard-response","150","366379","0.0-6.0-0.72","VIDE","2","m","rechts","23","","fixation","","","",""
"2452","img/150_90.png","70","image-keyboard-response","151","368844","0.0-6.0-1.72","VIDE","2","m","rechts","23","","","object","f","150","true"
"null","<div style=""font-size:60px;"">+</div>","null","html-keyboard-response","152","369246","0.0-6.0-0.73","VIDE","2","m","rechts","23","","fixation","","","",""
"1558","img/0_270.png","70","image-keyboard-response","153","370820","0.0-6.0-1.73","VIDE","2","m","rechts","23","","","object","f","0","true"
"null","<div style=""font-size:60px;"">+</div>","null","html-keyboard-response","154","371128","0.0-6.0-0.74","VIDE","2","m","rechts","23","","fixation","","","",""
"718","img/0_60.png","74","image-keyboard-response","155","371855","0.0-6.0-1.74","VIDE","2","m","rechts","23","","","object","j","0","true"
"null","<div style=""font-size:60px;"">+</div>","null","html-keyboard-response","156","372333","0.0-6.0-0.75","VIDE","2","m","rechts","23","","fixation","","","",""
"706","img/0_120.png","74","image-keyboard-response","157","373047","0.0-6.0-1.75","VIDE","2","m","rechts","23","","","object","j","0","true"
"null","<div style=""font-size:60px;"">+</div>","null","html-keyboard-response","158","373471","0.0-6.0-0.76","VIDE","2","m","rechts","23","","fixation","","","",""
"1114","img/150_60.png","70","image-keyboard-response","159","374601","0.0-6.0-1.76","VIDE","2","m","rechts","23","","","object","f","150","true"
"null","<div style=""font-size:60px;"">+</div>","null","html-keyboard-response","160","374908","0.0-6.0-0.77","VIDE","2","m","rechts","23","","fixation","","","",""
"1333","img/60_270.png","74","image-keyboard-response","161","376255","0.0-6.0-1.77","VIDE","2","m","rechts","23","","","object","f","60","false"
"null","<div style=""font-size:60px;"">+</div>","null","html-keyboard-response","162","376627","0.0-6.0-0.78","VIDE","2","m","rechts","23","","fixation","","","",""
"611","img/0_90.png","74","image-keyboard-response","163","377255","0.0-6.0-1.78","VIDE","2","m","rechts","23","","","object","j","0","true"
"null","<div style=""font-size:60px;"">+</div>","null","html-keyboard-response","164","377627","0.0-6.0-0.79","VIDE","2","m","rechts","23","","fixation","","","",""
"586","img/60_210.png","74","image-keyboard-response","165","378223","0.0-6.0-1.79","VIDE","2","m","rechts","23","","","object","f","60","false"
"null","<div style=""font-size:60px;"">+</div>","null","html-keyboard-response","166","378644","0.0-6.0-0.80","VIDE","2","m","rechts","23","","fixation","","","",""
"1308","img/150_270.png","74","image-keyboard-response","167","379965","0.0-6.0-1.80","VIDE","2","m","rechts","23","","","object","j","150","true"
"null","<div style=""font-size:60px;"">+</div>","null","html-keyboard-response","168","380426","0.0-6.0-0.81","VIDE","2","m","rechts","23","","fixation","","","",""
"1123","img/120_90.png","70","image-keyboard-response","169","381562","0.0-6.0-1.81","VIDE","2","m","rechts","23","","","object","f","120","true"
"null","<div style=""font-size:60px;"">+</div>","null","html-keyboard-response","170","381926","0.0-6.0-0.82","VIDE","2","m","rechts","23","","fixation","","","",""
"1774","img/L60_180.png","74","image-keyboard-response","171","383713","0.0-6.0-1.82","VIDE","2","m","rechts","23","","","object","j","60","true"
"null","<div style=""font-size:60px;"">+</div>","null","html-keyboard-response","172","384017","0.0-6.0-0.83","VIDE","2","m","rechts","23","","fixation","","","",""
"852","img/60_330.png","74","image-keyboard-response","173","384882","0.0-6.0-1.83","VIDE","2","m","rechts","23","","","object","j","60","true"
"null","<div style=""font-size:60px;"">+</div>","null","html-keyboard-response","174","385287","0.0-6.0-0.84","VIDE","2","m","rechts","23","","fixation","","","",""
"2439","img/150_240.png","74","image-keyboard-response","175","387734","0.0-6.0-1.84","VIDE","2","m","rechts","23","","","object","j","150","true"
"null","<div style=""font-size:60px;"">+</div>","null","html-keyboard-response","176","388090","0.0-6.0-0.85","VIDE","2","m","rechts","23","","fixation","","","",""
"2161","img/120_210.png","74","image-keyboard-response","177","390265","0.0-6.0-1.85","VIDE","2","m","rechts","23","","","object","f","120","false"
"null","<div style=""font-size:60px;"">+</div>","null","html-keyboard-response","178","390621","0.0-6.0-0.86","VIDE","2","m","rechts","23","","fixation","","","",""
"976","img/90_60.png","70","image-keyboard-response","179","391610","0.0-6.0-1.86","VIDE","2","m","rechts","23","","","object","f","90","true"
"null","<div style=""font-size:60px;"">+</div>","null","html-keyboard-response","180","392136","0.0-6.0-0.87","VIDE","2","m","rechts","23","","fixation","","","",""
"1608","img/60_180.png","70","image-keyboard-response","181","393757","0.0-6.0-1.87","VIDE","2","m","rechts","23","","","object","f","60","true"
"null","<div style=""font-size:60px;"">+</div>","null","html-keyboard-response","182","394181","0.0-6.0-0.88","VIDE","2","m","rechts","23","","fixation","","","",""
"1331","img/60_30.png","70","image-keyboard-response","183","395525","0.0-6.0-1.88","VIDE","2","m","rechts","23","","","object","f","60","true"
"null","<div style=""font-size:60px;"">+</div>","null","html-keyboard-response","184","396038","0.0-6.0-0.89","VIDE","2","m","rechts","23","","fixation","","","",""
"1185","img/30_180.png","74","image-keyboard-response","185","397236","0.0-6.0-1.89","VIDE","2","m","rechts","23","","","object","f","30","false"
"null","<div style=""font-size:60px;"">+</div>","null","html-keyboard-response","186","397569","0.0-6.0-0.90","VIDE","2","m","rechts","23","","fixation","","","",""
"1329","img/30_90.png","74","image-keyboard-response","187","398912","0.0-6.0-1.90","VIDE","2","m","rechts","23","","","object","j","30","true"
"null","<div style=""font-size:60px;"">+</div>","null","html-keyboard-response","188","399365","0.0-6.0-0.91","VIDE","2","m","rechts","23","","fixation","","","",""
"818","img/120_30.png","70","image-keyboard-response","189","400197","0.0-6.0-1.91","VIDE","2","m","rechts","23","","","object","f","120","true"
"null","<div style=""font-size:60px;"">+</div>","null","html-keyboard-response","190","400600","0.0-6.0-0.92","VIDE","2","m","rechts","23","","fixation","","","",""
"2417","img/60_150.png","74","image-keyboard-response","191","403030","0.0-6.0-1.92","VIDE","2","m","rechts","23","","","object","j","60","true"
"null","<div style=""font-size:60px;"">+</div>","null","html-keyboard-response","192","403435","0.0-6.0-0.93","VIDE","2","m","rechts","23","","fixation","","","",""
"1230","img/L90_180.png","74","image-keyboard-response","193","404670","0.0-6.0-1.93","VIDE","2","m","rechts","23","","","object","j","90","true"
"null","<div style=""font-size:60px;"">+</div>","null","html-keyboard-response","194","404982","0.0-6.0-0.94","VIDE","2","m","rechts","23","","fixation","","","",""
"1095","img/30_240.png","70","image-keyboard-response","195","406090","0.0-6.0-1.94","VIDE","2","m","rechts","23","","","object","f","30","true"
"null","<div style=""font-size:60px;"">+</div>","null","html-keyboard-response","196","406404","0.0-6.0-0.95","VIDE","2","m","rechts","23","","fixation","","","",""
"1245","img/90_300.png","74","image-keyboard-response","197","407665","0.0-6.0-1.95","VIDE","2","m","rechts","23","","","object","j","90","true"
"null","<div style=""font-size:60px;"">+</div>","null","html-keyboard-response","198","407967","0.0-6.0-0.96","VIDE","2","m","rechts","23","","fixation","","","",""
"810","img/0_240.png","70","image-keyboard-response","199","408790","0.0-6.0-1.96","VIDE","2","m","rechts","23","","","object","f","0","true"
"null","<div style=""font-size:60px;"">+</div>","null","html-keyboard-response","200","409248","0.0-6.0-0.97","VIDE","2","m","rechts","23","","fixation","","","",""
"1271","img/30_60.png","74","image-keyboard-response","201","410534","0.0-6.0-1.97","VIDE","2","m","rechts","23","","","object","j","30","true"
"null","<div style=""font-size:60px;"">+</div>","null","html-keyboard-response","202","410844","0.0-6.0-0.98","VIDE","2","m","rechts","23","","fixation","","","",""
"908","img/0_330.png","70","image-keyboard-response","203","411766","0.0-6.0-1.98","VIDE","2","m","rechts","23","","","object","f","0","true"
"null","<div style=""font-size:60px;"">+</div>","null","html-keyboard-response","204","412219","0.0-6.0-0.99","VIDE","2","m","rechts","23","","fixation","","","",""
"730","img/0_210.png","70","image-keyboard-response","205","412963","0.0-6.0-1.99","VIDE","2","m","rechts","23","","","object","f","0","true"
"null","<div style=""font-size:60px;"">+</div>","null","html-keyboard-response","206","413422","0.0-6.0-0.100","VIDE","2","m","rechts","23","","fixation","","","",""
"1092","img/60_90.png","74","image-keyboard-response","207","414527","0.0-6.0-1.100","VIDE","2","m","rechts","23","","","object","j","60","true"
"null","<div style=""font-size:60px;"">+</div>","null","html-keyboard-response","208","414999","0.0-6.0-0.101","VIDE","2","m","rechts","23","","fixation","","","",""
"1236","img/120_270.png","74","image-keyboard-response","209","416248","0.0-6.0-1.101","VIDE","2","m","rechts","23","","","object","j","120","true"
"null","<div style=""font-size:60px;"">+</div>","null","html-keyboard-response","210","416766","0.0-6.0-0.102","VIDE","2","m","rechts","23","","fixation","","","",""
"1043","img/120_180.png","70","image-keyboard-response","211","417822","0.0-6.0-1.102","VIDE","2","m","rechts","23","","","object","f","120","true"
"null","<div style=""font-size:60px;"">+</div>","null","html-keyboard-response","212","418296","0.0-6.0-0.103","VIDE","2","m","rechts","23","","fixation","","","",""
"1083","img/30_270.png","70","image-keyboard-response","213","419387","0.0-6.0-1.103","VIDE","2","m","rechts","23","","","object","f","30","true"
"null","<div style=""font-size:60px;"">+</div>","null","html-keyboard-response","214","419695","0.0-6.0-0.104","VIDE","2","m","rechts","23","","fixation","","","",""
"927","img/150_300.png","74","image-keyboard-response","215","420636","0.0-6.0-1.104","VIDE","2","m","rechts","23","","","object","j","150","true"
"null","<div style=""font-size:60px;"">+</div>","null","html-keyboard-response","216","421017","0.0-6.0-0.105","VIDE","2","m","rechts","23","","fixation","","","",""
"655","img/0_90.png","74","image-keyboard-response","217","421682","0.0-6.0-1.105","VIDE","2","m","rechts","23","","","object","j","0","true"
"null","<div style=""font-size:60px;"">+</div>","null","html-keyboard-response","218","421986","0.0-6.0-0.106","VIDE","2","m","rechts","23","","fixation","","","",""
"1611","img/120_180.png","70","image-keyboard-response","219","423607","0.0-6.0-1.106","VIDE","2","m","rechts","23","","","object","f","120","true"
"null","<div style=""font-size:60px;"">+</div>","null","html-keyboard-response","220","424033","0.0-6.0-0.107","VIDE","2","m","rechts","23","","fixation","","","",""
"1206","img/30_270.png","70","image-keyboard-response","221","425248","0.0-6.0-1.107","VIDE","2","m","rechts","23","","","object","f","30","true"
"null","<div style=""font-size:60px;"">+</div>","null","html-keyboard-response","222","425610","0.0-6.0-0.108","VIDE","2","m","rechts","23","","fixation","","","",""
"1148","img/150_60.png","70","image-keyboard-response","223","426769","0.0-6.0-1.108","VIDE","2","m","rechts","23","","","object","f","150","true"
"null","<div style=""font-size:60px;"">+</div>","null","html-keyboard-response","224","427080","0.0-6.0-0.109","VIDE","2","m","rechts","23","","fixation","","","",""
"1993","img/60_210.png","70","image-keyboard-response","225","429086","0.0-6.0-1.109","VIDE","2","m","rechts","23","","","object","f","60","true"
"null","<div style=""font-size:60px;"">+</div>","null","html-keyboard-response","226","429610","0.0-6.0-0.110","VIDE","2","m","rechts","23","","fixation","","","",""
"1210","img/120_270.png","74","image-keyboard-response","227","430828","0.0-6.0-1.110","VIDE","2","m","rechts","23","","","object","j","120","true"
"null","<div style=""font-size:60px;"">+</div>","null","html-keyboard-response","228","431285","0.0-6.0-0.111","VIDE","2","m","rechts","23","","fixation","","","",""
"963","img/60_180.png","70","image-keyboard-response","229","432258","0.0-6.0-1.111","VIDE","2","m","rechts","23","","","object","f","60","true"
"null","<div style=""font-size:60px;"">+</div>","null","html-keyboard-response","230","432566","0.0-6.0-0.112","VIDE","2","m","rechts","23","","fixation","","","",""
"918","img/60_30.png","70","image-keyboard-response","231","433493","0.0-6.0-1.112","VIDE","2","m","rechts","23","","","object","f","60","true"
"null","<div style=""font-size:60px;"">+</div>","null","html-keyboard-response","232","433861","0.0-6.0-0.113","VIDE","2","m","rechts","23","","fixation","","","",""
"2338","img/90_150.png","70","image-keyboard-response","233","436212","0.0-6.0-1.113","VIDE","2","m","rechts","23","","","object","j","90","false"
"null","<div style=""font-size:60px;"">+</div>","null","html-keyboard-response","234","436566","0.0-6.0-0.114","VIDE","2","m","rechts","23","","fixation","","","",""
"957","img/60_330.png","74","image-keyboard-response","235","437532","0.0-6.0-1.114","VIDE","2","m","rechts","23","","","object","j","60","true"
"null","<div style=""font-size:60px;"">+</div>","null","html-keyboard-response","236","437895","0.0-6.0-0.115","VIDE","2","m","rechts","23","","fixation","","","",""
"965","img/150_90.png","70","image-keyboard-response","237","438873","0.0-6.0-1.115","VIDE","2","m","rechts","23","","","object","f","150","true"
"null","<div style=""font-size:60px;"">+</div>","null","html-keyboard-response","238","439332","0.0-6.0-0.116","VIDE","2","m","rechts","23","","fixation","","","",""
"703","img/0_120.png","74","image-keyboard-response","239","440042","0.0-6.0-1.116","VIDE","2","m","rechts","23","","","object","j","0","true"
"null","<div style=""font-size:60px;"">+</div>","null","html-keyboard-response","240","440566","0.0-6.0-0.117","VIDE","2","m","rechts","23","","fixation","","","",""
"1017","img/0_60.png","74","image-keyboard-response","241","441596","0.0-6.0-1.117","VIDE","2","m","rechts","23","","","object","j","0","true"
"null","<div style=""font-size:60px;"">+</div>","null","html-keyboard-response","242","441972","0.0-6.0-0.118","VIDE","2","m","rechts","23","","fixation","","","",""
"1083","img/30_300.png","70","image-keyboard-response","243","443069","0.0-6.0-1.118","VIDE","2","m","rechts","23","","","object","f","30","true"
"null","<div style=""font-size:60px;"">+</div>","null","html-keyboard-response","244","443441","0.0-6.0-0.119","VIDE","2","m","rechts","23","","fixation","","","",""
"1571","img/90_120.png","70","image-keyboard-response","245","445025","0.0-6.0-1.119","VIDE","2","m","rechts","23","","","object","j","90","false"
"null","<div style=""font-size:60px;"">+</div>","null","html-keyboard-response","246","445506","0.0-6.0-0.120","VIDE","2","m","rechts","23","","fixation","","","",""
"1801","img/L120_180.png","74","image-keyboard-response","247","447320","0.0-6.0-1.120","VIDE","2","m","rechts","23","","","object","j","120","true"
"null","<div style=""font-size:60px;"">+</div>","null","html-keyboard-response","248","447802","0.0-6.0-0.121","VIDE","2","m","rechts","23","","fixation","","","",""
"2762","img/L150_180.png","74","image-keyboard-response","249","450575","0.0-6.0-1.121","VIDE","2","m","rechts","23","","","object","j","150","true"
"null","<div style=""font-size:60px;"">+</div>","null","html-keyboard-response","250","450900","0.0-6.0-0.122","VIDE","2","m","rechts","23","","fixation","","","",""
"2632","img/150_180.png","70","image-keyboard-response","251","453547","0.0-6.0-1.122","VIDE","2","m","rechts","23","","","object","f","150","true"
"null","<div style=""font-size:60px;"">+</div>","null","html-keyboard-response","252","453950","0.0-6.0-0.123","VIDE","2","m","rechts","23","","fixation","","","",""
"1603","img/150_270.png","74","image-keyboard-response","253","455566","0.0-6.0-1.123","VIDE","2","m","rechts","23","","","object","j","150","true"
"null","<div style=""font-size:60px;"">+</div>","null","html-keyboard-response","254","455882","0.0-6.0-0.124","VIDE","2","m","rechts","23","","fixation","","","",""
"1745","img/L90_180.png","74","image-keyboard-response","255","457638","0.0-6.0-1.124","VIDE","2","m","rechts","23","","","object","j","90","true"
"null","<div style=""font-size:60px;"">+</div>","null","html-keyboard-response","256","457942","0.0-6.0-0.125","VIDE","2","m","rechts","23","","fixation","","","",""
"902","img/0_210.png","70","image-keyboard-response","257","458855","0.0-6.0-1.125","VIDE","2","m","rechts","23","","","object","f","0","true"
"null","<div style=""font-size:60px;"">+</div>","null","html-keyboard-response","258","459315","0.0-6.0-0.126","VIDE","2","m","rechts","23","","fixation","","","",""
"1222","img/30_120.png","74","image-keyboard-response","259","460552","0.0-6.0-1.126","VIDE","2","m","rechts","23","","","object","j","30","true"
"null","<div style=""font-size:60px;"">+</div>","null","html-keyboard-response","260","460911","0.0-6.0-0.127","VIDE","2","m","rechts","23","","fixation","","","",""
"1116","img/90_60.png","70","image-keyboard-response","261","462037","0.0-6.0-1.127","VIDE","2","m","rechts","23","","","object","f","90","true"
"null","<div style=""font-size:60px;"">+</div>","null","html-keyboard-response","262","462393","0.0-6.0-0.128","VIDE","2","m","rechts","23","","fixation","","","",""
"1032","img/30_240.png","70","image-keyboard-response","263","463430","0.0-6.0-1.128","VIDE","2","m","rechts","23","","","object","f","30","true"
"null","<div style=""font-size:60px;"">+</div>","null","html-keyboard-response","264","463895","0.0-6.0-0.129","VIDE","2","m","rechts","23","","fixation","","","",""
"874","img/0_270.png","70","image-keyboard-response","265","464782","0.0-6.0-1.129","VIDE","2","m","rechts","23","","","object","f","0","true"
"null","<div style=""font-size:60px;"">+</div>","null","html-keyboard-response","266","465114","0.0-6.0-0.130","VIDE","2","m","rechts","23","","fixation","","","",""
"696","img/0_330.png","70","image-keyboard-response","267","465817","0.0-6.0-1.130","VIDE","2","m","rechts","23","","","object","f","0","true"
"null","<div style=""font-size:60px;"">+</div>","null","html-keyboard-response","268","466194","0.0-6.0-0.131","VIDE","2","m","rechts","23","","fixation","","","",""
"1670","img/120_90.png","70","image-keyboard-response","269","467876","0.0-6.0-1.131","VIDE","2","m","rechts","23","","","object","f","120","true"
"null","<div style=""font-size:60px;"">+</div>","null","html-keyboard-response","270","468380","0.0-6.0-0.132","VIDE","2","m","rechts","23","","fixation","","","",""
"726","img/0_150.png","74","image-keyboard-response","271","469111","0.0-6.0-1.132","VIDE","2","m","rechts","23","","","object","j","0","true"
"null","<div style=""font-size:60px;"">+</div>","null","html-keyboard-response","272","469631","0.0-6.0-0.133","VIDE","2","m","rechts","23","","fixation","","","",""
"1104","img/90_300.png","74","image-keyboard-response","273","470744","0.0-6.0-1.133","VIDE","2","m","rechts","23","","","object","j","90","true"
"null","<div style=""font-size:60px;"">+</div>","null","html-keyboard-response","274","471053","0.0-6.0-0.134","VIDE","2","m","rechts","23","","fixation","","","",""
"2402","img/150_120.png","74","image-keyboard-response","275","473471","0.0-6.0-1.134","VIDE","2","m","rechts","23","","","object","f","150","false"
"null","<div style=""font-size:60px;"">+</div>","null","html-keyboard-response","276","473999","0.0-6.0-0.135","VIDE","2","m","rechts","23","","fixation","","","",""
"1039","img/120_30.png","70","image-keyboard-response","277","475053","0.0-6.0-1.135","VIDE","2","m","rechts","23","","","object","f","120","true"
"null","<div style=""font-size:60px;"">+</div>","null","html-keyboard-response","278","475365","0.0-6.0-0.136","VIDE","2","m","rechts","23","","fixation","","","",""
"1660","img/90_210.png","74","image-keyboard-response","279","477034","0.0-6.0-1.136","VIDE","2","m","rechts","23","","","object","f","90","false"
"null","<div style=""font-size:60px;"">+</div>","null","html-keyboard-response","280","477491","0.0-6.0-0.137","VIDE","2","m","rechts","23","","fixation","","","",""
"845","img/120_330.png","74","image-keyboard-response","281","478349","0.0-6.0-1.137","VIDE","2","m","rechts","23","","","object","j","120","true"
"null","<div style=""font-size:60px;"">+</div>","null","html-keyboard-response","282","478678","0.0-6.0-0.138","VIDE","2","m","rechts","23","","fixation","","","",""
"1391","img/30_60.png","74","image-keyboard-response","283","480082","0.0-6.0-1.138","VIDE","2","m","rechts","23","","","object","j","30","true"
"null","<div style=""font-size:60px;"">+</div>","null","html-keyboard-response","284","480553","0.0-6.0-0.139","VIDE","2","m","rechts","23","","fixation","","","",""
"1563","img/L30_180.png","74","image-keyboard-response","285","482129","0.0-6.0-1.139","VIDE","2","m","rechts","23","","","object","j","30","true"
"null","<div style=""font-size:60px;"">+</div>","null","html-keyboard-response","286","482443","0.0-6.0-0.140","VIDE","2","m","rechts","23","","fixation","","","",""
"1368","img/60_150.png","74","image-keyboard-response","287","483828","0.0-6.0-1.140","VIDE","2","m","rechts","23","","","object","j","60","true"
"null","<div style=""font-size:60px;"">+</div>","null","html-keyboard-response","288","484302","0.0-6.0-0.141","VIDE","2","m","rechts","23","","fixation","","","",""
"931","img/30_180.png","70","image-keyboard-response","289","485246","0.0-6.0-1.141","VIDE","2","m","rechts","23","","","object","f","30","true"
"null","<div style=""font-size:60px;"">+</div>","null","html-keyboard-response","290","485774","0.0-6.0-0.142","VIDE","2","m","rechts","23","","fixation","","","",""
"778","img/0_30.png","74","image-keyboard-response","291","486564","0.0-6.0-1.142","VIDE","2","m","rechts","23","","","object","j","0","true"
"null","<div style=""font-size:60px;"">+</div>","null","html-keyboard-response","292","486978","0.0-6.0-0.143","VIDE","2","m","rechts","23","","fixation","","","",""
"934","img/60_270.png","70","image-keyboard-response","293","487924","0.0-6.0-1.143","VIDE","2","m","rechts","23","","","object","f","60","true"
"null","<div style=""font-size:60px;"">+</div>","null","html-keyboard-response","294","488227","0.0-6.0-0.144","VIDE","2","m","rechts","23","","fixation","","","",""
"1426","img/30_90.png","70","image-keyboard-response","295","489666","0.0-6.0-1.144","VIDE","2","m","rechts","23","","","object","j","30","false"
"null","<div style=""font-size:60px;"">+</div>","null","html-keyboard-response","296","489991","0.0-6.0-0.145","VIDE","2","m","rechts","23","","fixation","","","",""
"1306","img/0_300.png","70","image-keyboard-response","297","491311","0.0-6.0-1.145","VIDE","2","m","rechts","23","","","object","f","0","true"
"null","<div style=""font-size:60px;"">+</div>","null","html-keyboard-response","298","491617","0.0-6.0-0.146","VIDE","2","m","rechts","23","","fixation","","","",""
"1164","img/0_240.png","70","image-keyboard-response","299","492794","0.0-6.0-1.146","VIDE","2","m","rechts","23","","","object","f","0","true"
"null","<div style=""font-size:60px;"">+</div>","null","html-keyboard-response","300","493198","0.0-6.0-0.147","VIDE","2","m","rechts","23","","fixation","","","",""
"1370","img/120_210.png","74","image-keyboard-response","301","494582","0.0-6.0-1.147","VIDE","2","m","rechts","23","","","object","f","120","false"
"null","<div style=""font-size:60px;"">+</div>","null","html-keyboard-response","302","495043","0.0-6.0-0.148","VIDE","2","m","rechts","23","","fixation","","","",""
"1177","img/90_180.png","70","image-keyboard-response","303","496235","0.0-6.0-1.148","VIDE","2","m","rechts","23","","","object","f","90","true"
"null","<div style=""font-size:60px;"">+</div>","null","html-keyboard-response","304","496558","0.0-6.0-0.149","VIDE","2","m","rechts","23","","fixation","","","",""
"814","img/90_330.png","74","image-keyboard-response","305","497385","0.0-6.0-1.149","VIDE","2","m","rechts","23","","","object","j","90","true"
"null","<div style=""font-size:60px;"">+</div>","null","html-keyboard-response","306","497839","0.0-6.0-0.150","VIDE","2","m","rechts","23","","fixation","","","",""
"1176","img/90_240.png","70","image-keyboard-response","307","499028","0.0-6.0-1.150","VIDE","2","m","rechts","23","","","object","f","90","true"
"null","<div style=""font-size:60px;"">+</div>","null","html-keyboard-response","308","499557","0.0-6.0-0.151","VIDE","2","m","rechts","23","","fixation","","","",""
"851","img/90_30.png","70","image-keyboard-response","309","500423","0.0-6.0-1.151","VIDE","2","m","rechts","23","","","object","f","90","true"
"null","<div style=""font-size:60px;"">+</div>","null","html-keyboard-response","310","500778","0.0-6.0-0.152","VIDE","2","m","rechts","23","","fixation","","","",""
"1035","img/60_90.png","74","image-keyboard-response","311","501826","0.0-6.0-1.152","VIDE","2","m","rechts","23","","","object","j","60","true"
"null","<div style=""font-size:60px;"">+</div>","null","html-keyboard-response","312","502340","0.0-6.0-0.153","VIDE","2","m","rechts","23","","fixation","","","",""
"null","img/120_150.png","null","image-keyboard-response","313","505357","0.0-6.0-1.153","VIDE","2","m","rechts","23","","","object","j","120","false"
"null","<div style=""font-size:60px;"">+</div>","null","html-keyboard-response","314","505669","0.0-6.0-0.154","VIDE","2","m","rechts","23","","fixation","","","",""
"1372","img/L60_180.png","70","image-keyboard-response","315","507055","0.0-6.0-1.154","VIDE","2","m","rechts","23","","","object","j","60","false"
"null","<div style=""font-size:60px;"">+</div>","null","html-keyboard-response","316","507363","0.0-6.0-0.155","VIDE","2","m","rechts","23","","fixation","","","",""
"1470","img/150_240.png","70","image-keyboard-response","317","508848","0.0-6.0-1.155","VIDE","2","m","rechts","23","","","object","j","150","false"
"null","<div style=""font-size:60px;"">+</div>","null","html-keyboard-response","318","509315","0.0-6.0-0.156","VIDE","2","m","rechts","23","","fixation","","","",""
"691","img/0_330.png","70","image-keyboard-response","319","510019","0.0-6.0-1.156","VIDE","2","m","rechts","23","","","object","f","0","true"
"null","<div style=""font-size:60px;"">+</div>","null","html-keyboard-response","320","510376","0.0-6.0-0.157","VIDE","2","m","rechts","23","","fixation","","","",""
"1555","img/150_180.png","70","image-keyboard-response","321","511941","0.0-6.0-1.157","VIDE","2","m","rechts","23","","","object","f","150","true"
"null","<div style=""font-size:60px;"">+</div>","null","html-keyboard-response","322","512300","0.0-6.0-0.158","VIDE","2","m","rechts","23","","fixation","","","",""
"1024","img/90_300.png","74","image-keyboard-response","323","513337","0.0-6.0-1.158","VIDE","2","m","rechts","23","","","object","j","90","true"
"null","<div style=""font-size:60px;"">+</div>","null","html-keyboard-response","324","513657","0.0-6.0-0.159","VIDE","2","m","rechts","23","","fixation","","","",""
"635","img/60_330.png","74","image-keyboard-response","325","514305","0.0-6.0-1.159","VIDE","2","m","rechts","23","","","object","j","60","true"
"null","<div style=""font-size:60px;"">+</div>","null","html-keyboard-response","326","514612","0.0-6.0-0.160","VIDE","2","m","rechts","23","","fixation","","","",""
"1557","img/30_120.png","70","image-keyboard-response","327","516184","0.0-6.0-1.160","VIDE","2","m","rechts","23","","","object","j","30","false"
"null","<div style=""font-size:60px;"">+</div>","null","html-keyboard-response","328","516566","0.0-6.0-0.161","VIDE","2","m","rechts","23","","fixation","","","",""
"991","img/120_30.png","70","image-keyboard-response","329","517568","0.0-6.0-1.161","VIDE","2","m","rechts","23","","","object","f","120","true"
"null","<div style=""font-size:60px;"">+</div>","null","html-keyboard-response","330","518082","0.0-6.0-0.162","VIDE","2","m","rechts","23","","fixation","","","",""
"764","img/0_270.png","70","image-keyboard-response","331","518850","0.0-6.0-1.162","VIDE","2","m","rechts","23","","","object","f","0","true"
"null","<div style=""font-size:60px;"">+</div>","null","html-keyboard-response","332","519176","0.0-6.0-0.163","VIDE","2","m","rechts","23","","fixation","","","",""
"695","img/0_120.png","74","image-keyboard-response","333","519885","0.0-6.0-1.163","VIDE","2","m","rechts","23","","","object","j","0","true"
"null","<div style=""font-size:60px;"">+</div>","null","html-keyboard-response","334","520239","0.0-6.0-0.164","VIDE","2","m","rechts","23","","fixation","","","",""
"1498","img/120_270.png","74","image-keyboard-response","335","521752","0.0-6.0-1.164","VIDE","2","m","rechts","23","","","object","j","120","true"
"null","<div style=""font-size:60px;"">+</div>","null","html-keyboard-response","336","522285","0.0-6.0-0.165","VIDE","2","m","rechts","23","","fixation","","","",""
"1606","img/60_90.png","74","image-keyboard-response","337","523900","0.0-6.0-1.165","VIDE","2","m","rechts","23","","","object","j","60","true"
"null","<div style=""font-size:60px;"">+</div>","null","html-keyboard-response","338","524207","0.0-6.0-0.166","VIDE","2","m","rechts","23","","fixation","","","",""
"1290","img/150_60.png","70","image-keyboard-response","339","525510","0.0-6.0-1.166","VIDE","2","m","rechts","23","","","object","f","150","true"
"null","<div style=""font-size:60px;"">+</div>","null","html-keyboard-response","340","525990","0.0-6.0-0.167","VIDE","2","m","rechts","23","","fixation","","","",""
"1221","img/150_240.png","74","image-keyboard-response","341","527220","0.0-6.0-1.167","VIDE","2","m","rechts","23","","","object","j","150","true"
"null","<div style=""font-size:60px;"">+</div>","null","html-keyboard-response","342","527692","0.0-6.0-0.168","VIDE","2","m","rechts","23","","fixation","","","",""
"935","img/60_270.png","74","image-keyboard-response","343","528636","0.0-6.0-1.168","VIDE","2","m","rechts","23","","","object","f","60","false"
"null","<div style=""font-size:60px;"">+</div>","null","html-keyboard-response","344","529160","0.0-6.0-0.169","VIDE","2","m","rechts","23","","fixation","","","",""
"2181","img/120_90.png","70","image-keyboard-response","345","531354","0.0-6.0-1.169","VIDE","2","m","rechts","23","","","object","f","120","true"
"null","<div style=""font-size:60px;"">+</div>","null","html-keyboard-response","346","531865","0.0-6.0-0.170","VIDE","2","m","rechts","23","","fixation","","","",""
"2046","img/60_150.png","74","image-keyboard-response","347","533920","0.0-6.0-1.170","VIDE","2","m","rechts","23","","","object","j","60","true"
"null","<div style=""font-size:60px;"">+</div>","null","html-keyboard-response","348","534275","0.0-6.0-0.171","VIDE","2","m","rechts","23","","fixation","","","",""
"1754","img/150_300.png","74","image-keyboard-response","349","536042","0.0-6.0-1.171","VIDE","2","m","rechts","23","","","object","j","150","true"
"null","<div style=""font-size:60px;"">+</div>","null","html-keyboard-response","350","536509","0.0-6.0-0.172","VIDE","2","m","rechts","23","","fixation","","","",""
"985","img/30_240.png","70","image-keyboard-response","351","537508","0.0-6.0-1.172","VIDE","2","m","rechts","23","","","object","f","30","true"
"null","<div style=""font-size:60px;"">+</div>","null","html-keyboard-response","352","537821","0.0-6.0-0.173","VIDE","2","m","rechts","23","","fixation","","","",""
"2406","img/90_240.png","70","image-keyboard-response","353","540239","0.0-6.0-1.173","VIDE","2","m","rechts","23","","","object","f","90","true"
"null","<div style=""font-size:60px;"">+</div>","null","html-keyboard-response","354","540765","0.0-6.0-0.174","VIDE","2","m","rechts","23","","fixation","","","",""
"1055","img/30_270.png","70","image-keyboard-response","355","541834","0.0-6.0-1.174","VIDE","2","m","rechts","23","","","object","f","30","true"
"null","<div style=""font-size:60px;"">+</div>","null","html-keyboard-response","356","542141","0.0-6.0-0.175","VIDE","2","m","rechts","23","","fixation","","","",""
"1326","img/L30_180.png","70","image-keyboard-response","357","543476","0.0-6.0-1.175","VIDE","2","m","rechts","23","","","object","j","30","false"
"null","<div style=""font-size:60px;"">+</div>","null","html-keyboard-response","358","543999","0.0-6.0-0.176","VIDE","2","m","rechts","23","","fixation","","","",""
"1219","img/60_30.png","70","image-keyboard-response","359","545231","0.0-6.0-1.176","VIDE","2","m","rechts","23","","","object","f","60","true"
"null","<div style=""font-size:60px;"">+</div>","null","html-keyboard-response","360","545596","0.0-6.0-0.177","VIDE","2","m","rechts","23","","fixation","","","",""
"1255","img/60_210.png","74","image-keyboard-response","361","546864","0.0-6.0-1.177","VIDE","2","m","rechts","23","","","object","f","60","false"
"null","<div style=""font-size:60px;"">+</div>","null","html-keyboard-response","362","547220","0.0-6.0-0.178","VIDE","2","m","rechts","23","","fixation","","","",""
"1104","img/120_180.png","70","image-keyboard-response","363","548337","0.0-6.0-1.178","VIDE","2","m","rechts","23","","","object","f","120","true"
"null","<div style=""font-size:60px;"">+</div>","null","html-keyboard-response","364","548799","0.0-6.0-0.179","VIDE","2","m","rechts","23","","fixation","","","",""
"1235","img/L150_180.png","74","image-keyboard-response","365","550047","0.0-6.0-1.179","VIDE","2","m","rechts","23","","","object","j","150","true"
"null","<div style=""font-size:60px;"">+</div>","null","html-keyboard-response","366","550501","0.0-6.0-0.180","VIDE","2","m","rechts","23","","fixation","","","",""
"1432","img/150_90.png","74","image-keyboard-response","367","551947","0.0-6.0-1.180","VIDE","2","m","rechts","23","","","object","f","150","false"
"null","<div style=""font-size:60px;"">+</div>","null","html-keyboard-response","368","552361","0.0-6.0-0.181","VIDE","2","m","rechts","23","","fixation","","","",""
"835","img/0_300.png","70","image-keyboard-response","369","553206","0.0-6.0-1.181","VIDE","2","m","rechts","23","","","object","f","0","true"
"null","<div style=""font-size:60px;"">+</div>","null","html-keyboard-response","370","553564","0.0-6.0-0.182","VIDE","2","m","rechts","23","","fixation","","","",""
"1071","img/30_60.png","74","image-keyboard-response","371","554648","0.0-6.0-1.182","VIDE","2","m","rechts","23","","","object","j","30","true"
"null","<div style=""font-size:60px;"">+</div>","null","html-keyboard-response","372","554969","0.0-6.0-0.183","VIDE","2","m","rechts","23","","fixation","","","",""
"881","img/90_60.png","70","image-keyboard-response","373","555864","0.0-6.0-1.183","VIDE","2","m","rechts","23","","","object","f","90","true"
"null","<div style=""font-size:60px;"">+</div>","null","html-keyboard-response","374","556346","0.0-6.0-0.184","VIDE","2","m","rechts","23","","fixation","","","",""
"805","img/0_60.png","74","image-keyboard-response","375","557168","0.0-6.0-1.184","VIDE","2","m","rechts","23","","","object","j","0","true"
"null","<div style=""font-size:60px;"">+</div>","null","html-keyboard-response","376","557549","0.0-6.0-0.185","VIDE","2","m","rechts","23","","fixation","","","",""
"2355","img/90_120.png","74","image-keyboard-response","377","559917","0.0-6.0-1.185","VIDE","2","m","rechts","23","","","object","j","90","true"
"null","<div style=""font-size:60px;"">+</div>","null","html-keyboard-response","378","560227","0.0-6.0-0.186","VIDE","2","m","rechts","23","","fixation","","","",""
"1012","img/90_180.png","70","image-keyboard-response","379","561249","0.0-6.0-1.186","VIDE","2","m","rechts","23","","","object","f","90","true"
"null","<div style=""font-size:60px;"">+</div>","null","html-keyboard-response","380","561566","0.0-6.0-0.187","VIDE","2","m","rechts","23","","fixation","","","",""
"1102","img/L90_180.png","74","image-keyboard-response","381","562681","0.0-6.0-1.187","VIDE","2","m","rechts","23","","","object","j","90","true"
"null","<div style=""font-size:60px;"">+</div>","null","html-keyboard-response","382","563192","0.0-6.0-0.188","VIDE","2","m","rechts","23","","fixation","","","",""
"1772","img/150_120.png","74","image-keyboard-response","383","564976","0.0-6.0-1.188","VIDE","2","m","rechts","23","","","object","f","150","false"
"null","<div style=""font-size:60px;"">+</div>","null","html-keyboard-response","384","565302","0.0-6.0-0.189","VIDE","2","m","rechts","23","","fixation","","","",""
"910","img/30_90.png","74","image-keyboard-response","385","566224","0.0-6.0-1.189","VIDE","2","m","rechts","23","","","object","j","30","true"
"null","<div style=""font-size:60px;"">+</div>","null","html-keyboard-response","386","566707","0.0-6.0-0.190","VIDE","2","m","rechts","23","","fixation","","","",""
"673","img/0_240.png","70","image-keyboard-response","387","567393","0.0-6.0-1.190","VIDE","2","m","rechts","23","","","object","f","0","true"
"null","<div style=""font-size:60px;"">+</div>","null","html-keyboard-response","388","567868","0.0-6.0-0.191","VIDE","2","m","rechts","23","","fixation","","","",""
"684","img/0_150.png","74","image-keyboard-response","389","568565","0.0-6.0-1.191","VIDE","2","m","rechts","23","","","object","j","0","true"
"null","<div style=""font-size:60px;"">+</div>","null","html-keyboard-response","390","568930","0.0-6.0-0.192","VIDE","2","m","rechts","23","","fixation","","","",""
"801","img/60_180.png","70","image-keyboard-response","391","569744","0.0-6.0-1.192","VIDE","2","m","rechts","23","","","object","f","60","true"
"null","<div style=""font-size:60px;"">+</div>","null","html-keyboard-response","392","570196","0.0-6.0-0.193","VIDE","2","m","rechts","23","","fixation","","","",""
"845","img/L60_180.png","74","image-keyboard-response","393","571050","0.0-6.0-1.193","VIDE","2","m","rechts","23","","","object","j","60","true"
"null","<div style=""font-size:60px;"">+</div>","null","html-keyboard-response","394","571521","0.0-6.0-0.194","VIDE","2","m","rechts","23","","fixation","","","",""
"1454","img/90_210.png","74","image-keyboard-response","395","572986","0.0-6.0-1.194","VIDE","2","m","rechts","23","","","object","f","90","false"
"null","<div style=""font-size:60px;"">+</div>","null","html-keyboard-response","396","573410","0.0-6.0-0.195","VIDE","2","m","rechts","23","","fixation","","","",""
"1480","img/L120_180.png","74","image-keyboard-response","397","574898","0.0-6.0-1.195","VIDE","2","m","rechts","23","","","object","j","120","true"
"null","<div style=""font-size:60px;"">+</div>","null","html-keyboard-response","398","575224","0.0-6.0-0.196","VIDE","2","m","rechts","23","","fixation","","","",""
"2012","img/120_330.png","74","image-keyboard-response","399","577249","0.0-6.0-1.196","VIDE","2","m","rechts","23","","","object","j","120","true"
"null","<div style=""font-size:60px;"">+</div>","null","html-keyboard-response","400","577566","0.0-6.0-0.197","VIDE","2","m","rechts","23","","fixation","","","",""
"1031","img/90_30.png","70","image-keyboard-response","401","578610","0.0-6.0-1.197","VIDE","2","m","rechts","23","","","object","f","90","true"
"null","<div style=""font-size:60px;"">+</div>","null","html-keyboard-response","402","578989","0.0-6.0-0.198","VIDE","2","m","rechts","23","","fixation","","","",""
"710","img/0_30.png","74","image-keyboard-response","403","579713","0.0-6.0-1.198","VIDE","2","m","rechts","23","","","object","j","0","true"
"null","<div style=""font-size:60px;"">+</div>","null","html-keyboard-response","404","580129","0.0-6.0-0.199","VIDE","2","m","rechts","23","","fixation","","","",""
"548","img/0_90.png","74","image-keyboard-response","405","580690","0.0-6.0-1.199","VIDE","2","m","rechts","23","","","object","j","0","true"
"null","<div style=""font-size:60px;"">+</div>","null","html-keyboard-response","406","581210","0.0-6.0-0.200","VIDE","2","m","rechts","23","","fixation","","","",""
"1130","img/30_300.png","74","image-keyboard-response","407","582354","0.0-6.0-1.200","VIDE","2","m","rechts","23","","","object","f","30","false"
"null","<div style=""font-size:60px;"">+</div>","null","html-keyboard-response","408","582662","0.0-6.0-0.201","VIDE","2","m","rechts","23","","fixation","","","",""
"1155","img/150_270.png","74","image-keyboard-response","409","583831","0.0-6.0-1.201","VIDE","2","m","rechts","23","","","object","j","150","true"
"null","<div style=""font-size:60px;"">+</div>","null","html-keyboard-response","410","584335","0.0-6.0-0.202","VIDE","2","m","rechts","23","","fixation","","","",""
"1371","img/120_210.png","70","image-keyboard-response","411","585721","0.0-6.0-1.202","VIDE","2","m","rechts","23","","","object","f","120","true"
"null","<div style=""font-size:60px;"">+</div>","null","html-keyboard-response","412","586194","0.0-6.0-0.203","VIDE","2","m","rechts","23","","fixation","","","",""
"763","img/0_210.png","70","image-keyboard-response","413","586969","0.0-6.0-1.203","VIDE","2","m","rechts","23","","","object","f","0","true"
"null","<div style=""font-size:60px;"">+</div>","null","html-keyboard-response","414","587428","0.0-6.0-0.204","VIDE","2","m","rechts","23","","fixation","","","",""
"889","img/90_330.png","74","image-keyboard-response","415","588330","0.0-6.0-1.204","VIDE","2","m","rechts","23","","","object","j","90","true"
"null","<div style=""font-size:60px;"">+</div>","null","html-keyboard-response","416","588740","0.0-6.0-0.205","VIDE","2","m","rechts","23","","fixation","","","",""
"1512","img/90_150.png","74","image-keyboard-response","417","590265","0.0-6.0-1.205","VIDE","2","m","rechts","23","","","object","j","90","true"
"null","<div style=""font-size:60px;"">+</div>","null","html-keyboard-response","418","590649","0.0-6.0-0.206","VIDE","2","m","rechts","23","","fixation","","","",""
"996","img/120_150.png","74","image-keyboard-response","419","591661","0.0-6.0-1.206","VIDE","2","m","rechts","23","","","object","j","120","true"
"null","<div style=""font-size:60px;"">+</div>","null","html-keyboard-response","420","591977","0.0-6.0-0.207","VIDE","2","m","rechts","23","","fixation","","","",""
"988","img/30_180.png","70","image-keyboard-response","421","592978","0.0-6.0-1.207","VIDE","2","m","rechts","23","","","object","f","30","true"
"7131","<p>Du hast in 83% der Versuche korrekt entschieden.</p><p>Deine durchschnittliche Reaktionszeit war  1289ms.</p><p>Dr&uuml;cke eine beliebige Taste, um die Session zu beenden. Vielen Dank!</p>","32","html-keyboard-response","422","600115","0.0-7.0","VIDE","2","m","rechts","23","","","","","",""
