"rt","stimulus","key_press","trial_type","trial_index","time_elapsed","internal_node_id","subject","session","sex","handedness","age","responses","test_part","condition","correct_response","angle","correct"
"42970","<p>Mental Rotation Experiment.</p> <p>Dr&uuml;cke eine beliebige Taste, um anzufangen.</p>","13","html-keyboard-response","0","43000","0.0-0.0","VIDE","4","m","rechts","23","","","","","",""
"5274","","","survey-text","1","48281","0.0-1.0","VIDE","4","m","rechts","23","{""Q0"":""VIDE""}","","","","",""
"8882","","","survey-text","2","57164","0.0-2.0","VIDE","4","m","rechts","23","{""Q0"":""4""}","","","","",""
"5373","","","survey-multi-choice","3","62543","0.0-3.0","VIDE","4","m","rechts","23","{""Q0"":""m"",""Q1"":""rechts""}","","","","",""
"6827","","","survey-text","4","69371","0.0-4.0","VIDE","4","m","rechts","23","{""Q0"":""23""}","","","","",""
"25400","<p>Stell dir vor, dass du vor einem runden Tisch stehst, auf dem sich ein blauer Ball am Tischrand befindet. Entlang des Tischrands ist jeweils ein verschieden langer Pfeil. Nun bleibst du an deinem Platz vor dem Tisch und rotierst den Tisch entlang des Pfeils (gleiche Richtung und Länge). </p> <img src='img/30_180.png'></img> <br><p> Nachdem du diese (vorgestellte) Rotation durchgef&uuml;hrt hast, schau in Richtung der Tischmitte, und entscheide dann, ob der Ball links oder rechts von dir liegt.</p> <p>Dr&uuml;cke die <strong>'f'</strong>-Taste f&uuml;r links, die <strong>'j'</strong>-Taste f&uuml;r rechts.</p><br><p> Das Bild wird jeweils 1 Sekunde lang pr&auml;sentiert. Du hast 3 Sekunden Zeit eine Entscheidung zu treffen.</p>","70","html-keyboard-response","5","94781","0.0-5.0","VIDE","4","m","rechts","23","","","","","",""
"null","<div style=""font-size:60px;"">+</div>","null","html-keyboard-response","6","96104","0.0-6.0-0.0","VIDE","4","m","rechts","23","","fixation","","","",""
"1549","img/L150_180.png","74","image-keyboard-response","7","97674","0.0-6.0-1.0","VIDE","4","m","rechts","23","","","object","j","150","true"
"null","<div style=""font-size:60px;"">+</div>","null","html-keyboard-response","8","98138","0.0-6.0-0.1","VIDE","4","m","rechts","23","","fixation","","","",""
"1390","img/120_210.png","70","image-keyboard-response","9","99546","0.0-6.0-1.1","VIDE","4","m","rechts","23","","","object","f","120","true"
"null","<div style=""font-size:60px;"">+</div>","null","html-keyboard-response","10","99856","0.0-6.0-0.2","VIDE","4","m","rechts","23","","fixation","","","",""
"708","img/0_150.png","74","image-keyboard-response","11","100582","0.0-6.0-1.2","VIDE","4","m","rechts","23","","","object","j","0","true"
"null","<div style=""font-size:60px;"">+</div>","null","html-keyboard-response","12","100887","0.0-6.0-0.3","VIDE","4","m","rechts","23","","fixation","","","",""
"844","img/60_330.png","74","image-keyboard-response","13","101749","0.0-6.0-1.3","VIDE","4","m","rechts","23","","","object","j","60","true"
"null","<div style=""font-size:60px;"">+</div>","null","html-keyboard-response","14","102215","0.0-6.0-0.4","VIDE","4","m","rechts","23","","fixation","","","",""
"733","img/0_210.png","70","image-keyboard-response","15","102966","0.0-6.0-1.4","VIDE","4","m","rechts","23","","","object","f","0","true"
"null","<div style=""font-size:60px;"">+</div>","null","html-keyboard-response","16","103279","0.0-6.0-0.5","VIDE","4","m","rechts","23","","fixation","","","",""
"1004","img/90_150.png","74","image-keyboard-response","17","104302","0.0-6.0-1.5","VIDE","4","m","rechts","23","","","object","j","90","true"
"null","<div style=""font-size:60px;"">+</div>","null","html-keyboard-response","18","104717","0.0-6.0-0.6","VIDE","4","m","rechts","23","","fixation","","","",""
"920","img/90_180.png","70","image-keyboard-response","19","105656","0.0-6.0-1.6","VIDE","4","m","rechts","23","","","object","f","90","true"
"null","<div style=""font-size:60px;"">+</div>","null","html-keyboard-response","20","106107","0.0-6.0-0.7","VIDE","4","m","rechts","23","","fixation","","","",""
"1179","img/150_270.png","74","image-keyboard-response","21","107307","0.0-6.0-1.7","VIDE","4","m","rechts","23","","","object","j","150","true"
"null","<div style=""font-size:60px;"">+</div>","null","html-keyboard-response","22","107639","0.0-6.0-0.8","VIDE","4","m","rechts","23","","fixation","","","",""
"1127","img/30_120.png","74","image-keyboard-response","23","108783","0.0-6.0-1.8","VIDE","4","m","rechts","23","","","object","j","30","true"
"null","<div style=""font-size:60px;"">+</div>","null","html-keyboard-response","24","109091","0.0-6.0-0.9","VIDE","4","m","rechts","23","","fixation","","","",""
"1043","img/90_240.png","74","image-keyboard-response","25","110152","0.0-6.0-1.9","VIDE","4","m","rechts","23","","","object","f","90","false"
"null","<div style=""font-size:60px;"">+</div>","null","html-keyboard-response","26","110606","0.0-6.0-0.10","VIDE","4","m","rechts","23","","fixation","","","",""
"2495","img/90_120.png","74","image-keyboard-response","27","113117","0.0-6.0-1.10","VIDE","4","m","rechts","23","","","object","j","90","true"
"null","<div style=""font-size:60px;"">+</div>","null","html-keyboard-response","28","113489","0.0-6.0-0.11","VIDE","4","m","rechts","23","","fixation","","","",""
"799","img/0_120.png","74","image-keyboard-response","29","114306","0.0-6.0-1.11","VIDE","4","m","rechts","23","","","object","j","0","true"
"null","<div style=""font-size:60px;"">+</div>","null","html-keyboard-response","30","114833","0.0-6.0-0.12","VIDE","4","m","rechts","23","","fixation","","","",""
"1535","img/150_90.png","70","image-keyboard-response","31","116386","0.0-6.0-1.12","VIDE","4","m","rechts","23","","","object","f","150","true"
"null","<div style=""font-size:60px;"">+</div>","null","html-keyboard-response","32","116801","0.0-6.0-0.13","VIDE","4","m","rechts","23","","fixation","","","",""
"1231","img/30_300.png","70","image-keyboard-response","33","118052","0.0-6.0-1.13","VIDE","4","m","rechts","23","","","object","f","30","true"
"null","<div style=""font-size:60px;"">+</div>","null","html-keyboard-response","34","118420","0.0-6.0-0.14","VIDE","4","m","rechts","23","","fixation","","","",""
"1030","img/30_240.png","70","image-keyboard-response","35","119471","0.0-6.0-1.14","VIDE","4","m","rechts","23","","","object","f","30","true"
"null","<div style=""font-size:60px;"">+</div>","null","html-keyboard-response","36","119983","0.0-6.0-0.15","VIDE","4","m","rechts","23","","fixation","","","",""
"1056","img/150_300.png","74","image-keyboard-response","37","121056","0.0-6.0-1.15","VIDE","4","m","rechts","23","","","object","j","150","true"
"null","<div style=""font-size:60px;"">+</div>","null","html-keyboard-response","38","121530","0.0-6.0-0.16","VIDE","4","m","rechts","23","","fixation","","","",""
"1364","img/L120_180.png","74","image-keyboard-response","39","122913","0.0-6.0-1.16","VIDE","4","m","rechts","23","","","object","j","120","true"
"null","<div style=""font-size:60px;"">+</div>","null","html-keyboard-response","40","123280","0.0-6.0-0.17","VIDE","4","m","rechts","23","","fixation","","","",""
"806","img/0_30.png","74","image-keyboard-response","41","124104","0.0-6.0-1.17","VIDE","4","m","rechts","23","","","object","j","0","true"
"null","<div style=""font-size:60px;"">+</div>","null","html-keyboard-response","42","124437","0.0-6.0-0.18","VIDE","4","m","rechts","23","","fixation","","","",""
"1654","img/120_270.png","74","image-keyboard-response","43","126108","0.0-6.0-1.18","VIDE","4","m","rechts","23","","","object","j","120","true"
"null","<div style=""font-size:60px;"">+</div>","null","html-keyboard-response","44","126515","0.0-6.0-0.19","VIDE","4","m","rechts","23","","fixation","","","",""
"948","img/60_210.png","70","image-keyboard-response","45","127480","0.0-6.0-1.19","VIDE","4","m","rechts","23","","","object","f","60","true"
"null","<div style=""font-size:60px;"">+</div>","null","html-keyboard-response","46","127796","0.0-6.0-0.20","VIDE","4","m","rechts","23","","fixation","","","",""
"692","img/0_90.png","74","image-keyboard-response","47","128504","0.0-6.0-1.20","VIDE","4","m","rechts","23","","","object","j","0","true"
"null","<div style=""font-size:60px;"">+</div>","null","html-keyboard-response","48","128875","0.0-6.0-0.21","VIDE","4","m","rechts","23","","fixation","","","",""
"1657","img/60_150.png","74","image-keyboard-response","49","130552","0.0-6.0-1.21","VIDE","4","m","rechts","23","","","object","j","60","true"
"null","<div style=""font-size:60px;"">+</div>","null","html-keyboard-response","50","130905","0.0-6.0-0.22","VIDE","4","m","rechts","23","","fixation","","","",""
"1052","img/30_90.png","74","image-keyboard-response","51","131969","0.0-6.0-1.22","VIDE","4","m","rechts","23","","","object","j","30","true"
"null","<div style=""font-size:60px;"">+</div>","null","html-keyboard-response","52","132484","0.0-6.0-0.23","VIDE","4","m","rechts","23","","fixation","","","",""
"965","img/0_270.png","70","image-keyboard-response","53","133466","0.0-6.0-1.23","VIDE","4","m","rechts","23","","","object","f","0","true"
"null","<div style=""font-size:60px;"">+</div>","null","html-keyboard-response","54","133891","0.0-6.0-0.24","VIDE","4","m","rechts","23","","fixation","","","",""
"1481","img/L60_180.png","74","image-keyboard-response","55","135389","0.0-6.0-1.24","VIDE","4","m","rechts","23","","","object","j","60","true"
"null","<div style=""font-size:60px;"">+</div>","null","html-keyboard-response","56","135843","0.0-6.0-0.25","VIDE","4","m","rechts","23","","fixation","","","",""
"1609","img/120_90.png","70","image-keyboard-response","57","137471","0.0-6.0-1.25","VIDE","4","m","rechts","23","","","object","f","120","true"
"null","<div style=""font-size:60px;"">+</div>","null","html-keyboard-response","58","137983","0.0-6.0-0.26","VIDE","4","m","rechts","23","","fixation","","","",""
"750","img/0_300.png","70","image-keyboard-response","59","138753","0.0-6.0-1.26","VIDE","4","m","rechts","23","","","object","f","0","true"
"null","<div style=""font-size:60px;"">+</div>","null","html-keyboard-response","60","139282","0.0-6.0-0.27","VIDE","4","m","rechts","23","","fixation","","","",""
"916","img/30_180.png","70","image-keyboard-response","61","140207","0.0-6.0-1.27","VIDE","4","m","rechts","23","","","object","f","30","true"
"null","<div style=""font-size:60px;"">+</div>","null","html-keyboard-response","62","140657","0.0-6.0-0.28","VIDE","4","m","rechts","23","","fixation","","","",""
"845","img/0_330.png","70","image-keyboard-response","63","141520","0.0-6.0-1.28","VIDE","4","m","rechts","23","","","object","f","0","true"
"null","<div style=""font-size:60px;"">+</div>","null","html-keyboard-response","64","142033","0.0-6.0-0.29","VIDE","4","m","rechts","23","","fixation","","","",""
"988","img/60_180.png","70","image-keyboard-response","65","143039","0.0-6.0-1.29","VIDE","4","m","rechts","23","","","object","f","60","true"
"null","<div style=""font-size:60px;"">+</div>","null","html-keyboard-response","66","143546","0.0-6.0-0.30","VIDE","4","m","rechts","23","","fixation","","","",""
"1482","img/150_60.png","70","image-keyboard-response","67","145052","0.0-6.0-1.30","VIDE","4","m","rechts","23","","","object","f","150","true"
"null","<div style=""font-size:60px;"">+</div>","null","html-keyboard-response","68","145376","0.0-6.0-0.31","VIDE","4","m","rechts","23","","fixation","","","",""
"1640","img/L30_180.png","74","image-keyboard-response","69","147033","0.0-6.0-1.31","VIDE","4","m","rechts","23","","","object","j","30","true"
"null","<div style=""font-size:60px;"">+</div>","null","html-keyboard-response","70","147437","0.0-6.0-0.32","VIDE","4","m","rechts","23","","fixation","","","",""
"1423","img/60_90.png","74","image-keyboard-response","71","148879","0.0-6.0-1.32","VIDE","4","m","rechts","23","","","object","j","60","true"
"null","<div style=""font-size:60px;"">+</div>","null","html-keyboard-response","72","149237","0.0-6.0-0.33","VIDE","4","m","rechts","23","","fixation","","","",""
"1164","img/120_150.png","74","image-keyboard-response","73","150419","0.0-6.0-1.33","VIDE","4","m","rechts","23","","","object","j","120","true"
"null","<div style=""font-size:60px;"">+</div>","null","html-keyboard-response","74","150770","0.0-6.0-0.34","VIDE","4","m","rechts","23","","fixation","","","",""
"1047","img/90_60.png","70","image-keyboard-response","75","151836","0.0-6.0-1.34","VIDE","4","m","rechts","23","","","object","f","90","true"
"null","<div style=""font-size:60px;"">+</div>","null","html-keyboard-response","76","152319","0.0-6.0-0.35","VIDE","4","m","rechts","23","","fixation","","","",""
"818","img/120_330.png","74","image-keyboard-response","77","153152","0.0-6.0-1.35","VIDE","4","m","rechts","23","","","object","j","120","true"
"null","<div style=""font-size:60px;"">+</div>","null","html-keyboard-response","78","153628","0.0-6.0-0.36","VIDE","4","m","rechts","23","","fixation","","","",""
"1432","img/L90_180.png","74","image-keyboard-response","79","155077","0.0-6.0-1.36","VIDE","4","m","rechts","23","","","object","j","90","true"
"null","<div style=""font-size:60px;"">+</div>","null","html-keyboard-response","80","155457","0.0-6.0-0.37","VIDE","4","m","rechts","23","","fixation","","","",""
"895","img/90_30.png","70","image-keyboard-response","81","156371","0.0-6.0-1.37","VIDE","4","m","rechts","23","","","object","f","90","true"
"null","<div style=""font-size:60px;"">+</div>","null","html-keyboard-response","82","156691","0.0-6.0-0.38","VIDE","4","m","rechts","23","","fixation","","","",""
"1010","img/60_30.png","70","image-keyboard-response","83","157721","0.0-6.0-1.38","VIDE","4","m","rechts","23","","","object","f","60","true"
"null","<div style=""font-size:60px;"">+</div>","null","html-keyboard-response","84","158034","0.0-6.0-0.39","VIDE","4","m","rechts","23","","fixation","","","",""
"996","img/30_60.png","74","image-keyboard-response","85","159047","0.0-6.0-1.39","VIDE","4","m","rechts","23","","","object","j","30","true"
"null","<div style=""font-size:60px;"">+</div>","null","html-keyboard-response","86","159409","0.0-6.0-0.40","VIDE","4","m","rechts","23","","fixation","","","",""
"1510","img/90_210.png","70","image-keyboard-response","87","160937","0.0-6.0-1.40","VIDE","4","m","rechts","23","","","object","f","90","true"
"null","<div style=""font-size:60px;"">+</div>","null","html-keyboard-response","88","161269","0.0-6.0-0.41","VIDE","4","m","rechts","23","","fixation","","","",""
"709","img/90_300.png","74","image-keyboard-response","89","161995","0.0-6.0-1.41","VIDE","4","m","rechts","23","","","object","j","90","true"
"null","<div style=""font-size:60px;"">+</div>","null","html-keyboard-response","90","162299","0.0-6.0-0.42","VIDE","4","m","rechts","23","","fixation","","","",""
"1443","img/120_180.png","70","image-keyboard-response","91","163762","0.0-6.0-1.42","VIDE","4","m","rechts","23","","","object","f","120","true"
"null","<div style=""font-size:60px;"">+</div>","null","html-keyboard-response","92","164194","0.0-6.0-0.43","VIDE","4","m","rechts","23","","fixation","","","",""
"1484","img/150_120.png","70","image-keyboard-response","93","165696","0.0-6.0-1.43","VIDE","4","m","rechts","23","","","object","f","150","true"
"null","<div style=""font-size:60px;"">+</div>","null","html-keyboard-response","94","166051","0.0-6.0-0.44","VIDE","4","m","rechts","23","","fixation","","","",""
"775","img/120_30.png","70","image-keyboard-response","95","166844","0.0-6.0-1.44","VIDE","4","m","rechts","23","","","object","f","120","true"
"null","<div style=""font-size:60px;"">+</div>","null","html-keyboard-response","96","167146","0.0-6.0-0.45","VIDE","4","m","rechts","23","","fixation","","","",""
"693","img/0_60.png","74","image-keyboard-response","97","167857","0.0-6.0-1.45","VIDE","4","m","rechts","23","","","object","j","0","true"
"null","<div style=""font-size:60px;"">+</div>","null","html-keyboard-response","98","168363","0.0-6.0-0.46","VIDE","4","m","rechts","23","","fixation","","","",""
"677","img/0_240.png","70","image-keyboard-response","99","169060","0.0-6.0-1.46","VIDE","4","m","rechts","23","","","object","f","0","true"
"null","<div style=""font-size:60px;"">+</div>","null","html-keyboard-response","100","169380","0.0-6.0-0.47","VIDE","4","m","rechts","23","","fixation","","","",""
"732","img/90_330.png","74","image-keyboard-response","101","170132","0.0-6.0-1.47","VIDE","4","m","rechts","23","","","object","j","90","true"
"null","<div style=""font-size:60px;"">+</div>","null","html-keyboard-response","102","170598","0.0-6.0-0.48","VIDE","4","m","rechts","23","","fixation","","","",""
"942","img/60_270.png","70","image-keyboard-response","103","171569","0.0-6.0-1.48","VIDE","4","m","rechts","23","","","object","f","60","true"
"null","<div style=""font-size:60px;"">+</div>","null","html-keyboard-response","104","172082","0.0-6.0-0.49","VIDE","4","m","rechts","23","","fixation","","","",""
"1393","img/150_180.png","70","image-keyboard-response","105","173493","0.0-6.0-1.49","VIDE","4","m","rechts","23","","","object","f","150","true"
"null","<div style=""font-size:60px;"">+</div>","null","html-keyboard-response","106","173896","0.0-6.0-0.50","VIDE","4","m","rechts","23","","fixation","","","",""
"1092","img/30_270.png","70","image-keyboard-response","107","175000","0.0-6.0-1.50","VIDE","4","m","rechts","23","","","object","f","30","true"
"null","<div style=""font-size:60px;"">+</div>","null","html-keyboard-response","108","175459","0.0-6.0-0.51","VIDE","4","m","rechts","23","","fixation","","","",""
"1550","img/150_240.png","74","image-keyboard-response","109","177026","0.0-6.0-1.51","VIDE","4","m","rechts","23","","","object","j","150","true"
"null","<div style=""font-size:60px;"">+</div>","null","html-keyboard-response","110","177537","0.0-6.0-0.52","VIDE","4","m","rechts","23","","fixation","","","",""
"1411","img/30_60.png","70","image-keyboard-response","111","178959","0.0-6.0-1.52","VIDE","4","m","rechts","23","","","object","j","30","false"
"null","<div style=""font-size:60px;"">+</div>","null","html-keyboard-response","112","179489","0.0-6.0-0.53","VIDE","4","m","rechts","23","","fixation","","","",""
"1257","img/90_240.png","70","image-keyboard-response","113","180761","0.0-6.0-1.53","VIDE","4","m","rechts","23","","","object","f","90","true"
"null","<div style=""font-size:60px;"">+</div>","null","html-keyboard-response","114","181085","0.0-6.0-0.54","VIDE","4","m","rechts","23","","fixation","","","",""
"913","img/150_270.png","74","image-keyboard-response","115","182011","0.0-6.0-1.54","VIDE","4","m","rechts","23","","","object","j","150","true"
"null","<div style=""font-size:60px;"">+</div>","null","html-keyboard-response","116","182364","0.0-6.0-0.55","VIDE","4","m","rechts","23","","fixation","","","",""
"1557","img/90_210.png","70","image-keyboard-response","117","183930","0.0-6.0-1.55","VIDE","4","m","rechts","23","","","object","f","90","true"
"null","<div style=""font-size:60px;"">+</div>","null","html-keyboard-response","118","184289","0.0-6.0-0.56","VIDE","4","m","rechts","23","","fixation","","","",""
"759","img/120_330.png","74","image-keyboard-response","119","185057","0.0-6.0-1.56","VIDE","4","m","rechts","23","","","object","j","120","true"
"null","<div style=""font-size:60px;"">+</div>","null","html-keyboard-response","120","185571","0.0-6.0-0.57","VIDE","4","m","rechts","23","","fixation","","","",""
"1572","img/150_180.png","70","image-keyboard-response","121","187151","0.0-6.0-1.57","VIDE","4","m","rechts","23","","","object","f","150","true"
"null","<div style=""font-size:60px;"">+</div>","null","html-keyboard-response","122","187671","0.0-6.0-0.58","VIDE","4","m","rechts","23","","fixation","","","",""
"1214","img/120_180.png","70","image-keyboard-response","123","188894","0.0-6.0-1.58","VIDE","4","m","rechts","23","","","object","f","120","true"
"null","<div style=""font-size:60px;"">+</div>","null","html-keyboard-response","124","189406","0.0-6.0-0.59","VIDE","4","m","rechts","23","","fixation","","","",""
"1414","img/150_120.png","74","image-keyboard-response","125","190831","0.0-6.0-1.59","VIDE","4","m","rechts","23","","","object","f","150","false"
"null","<div style=""font-size:60px;"">+</div>","null","html-keyboard-response","126","191233","0.0-6.0-0.60","VIDE","4","m","rechts","23","","fixation","","","",""
"1185","img/90_300.png","74","image-keyboard-response","127","192427","0.0-6.0-1.60","VIDE","4","m","rechts","23","","","object","j","90","true"
"null","<div style=""font-size:60px;"">+</div>","null","html-keyboard-response","128","192890","0.0-6.0-0.61","VIDE","4","m","rechts","23","","fixation","","","",""
"659","img/60_330.png","74","image-keyboard-response","129","193565","0.0-6.0-1.61","VIDE","4","m","rechts","23","","","object","j","60","true"
"null","<div style=""font-size:60px;"">+</div>","null","html-keyboard-response","130","193985","0.0-6.0-0.62","VIDE","4","m","rechts","23","","fixation","","","",""
"916","img/60_180.png","70","image-keyboard-response","131","194912","0.0-6.0-1.62","VIDE","4","m","rechts","23","","","object","f","60","true"
"null","<div style=""font-size:60px;"">+</div>","null","html-keyboard-response","132","195234","0.0-6.0-0.63","VIDE","4","m","rechts","23","","fixation","","","",""
"1058","img/L60_180.png","74","image-keyboard-response","133","196297","0.0-6.0-1.63","VIDE","4","m","rechts","23","","","object","j","60","true"
"null","<div style=""font-size:60px;"">+</div>","null","html-keyboard-response","134","196719","0.0-6.0-0.64","VIDE","4","m","rechts","23","","fixation","","","",""
"795","img/60_30.png","70","image-keyboard-response","135","197523","0.0-6.0-1.64","VIDE","4","m","rechts","23","","","object","f","60","true"
"null","<div style=""font-size:60px;"">+</div>","null","html-keyboard-response","136","197986","0.0-6.0-0.65","VIDE","4","m","rechts","23","","fixation","","","",""
"695","img/0_210.png","70","image-keyboard-response","137","198693","0.0-6.0-1.65","VIDE","4","m","rechts","23","","","object","f","0","true"
"null","<div style=""font-size:60px;"">+</div>","null","html-keyboard-response","138","199220","0.0-6.0-0.66","VIDE","4","m","rechts","23","","fixation","","","",""
"700","img/90_30.png","70","image-keyboard-response","139","199930","0.0-6.0-1.66","VIDE","4","m","rechts","23","","","object","f","90","true"
"null","<div style=""font-size:60px;"">+</div>","null","html-keyboard-response","140","200250","0.0-6.0-0.67","VIDE","4","m","rechts","23","","fixation","","","",""
"718","img/90_330.png","74","image-keyboard-response","141","200978","0.0-6.0-1.67","VIDE","4","m","rechts","23","","","object","j","90","true"
"null","<div style=""font-size:60px;"">+</div>","null","html-keyboard-response","142","201454","0.0-6.0-0.68","VIDE","4","m","rechts","23","","fixation","","","",""
"1359","img/150_240.png","74","image-keyboard-response","143","202822","0.0-6.0-1.68","VIDE","4","m","rechts","23","","","object","j","150","true"
"null","<div style=""font-size:60px;"">+</div>","null","html-keyboard-response","144","203284","0.0-6.0-0.69","VIDE","4","m","rechts","23","","fixation","","","",""
"1034","img/60_210.png","70","image-keyboard-response","145","204331","0.0-6.0-1.69","VIDE","4","m","rechts","23","","","object","f","60","true"
"null","<div style=""font-size:60px;"">+</div>","null","html-keyboard-response","146","204800","0.0-6.0-0.70","VIDE","4","m","rechts","23","","fixation","","","",""
"890","img/30_120.png","74","image-keyboard-response","147","205702","0.0-6.0-1.70","VIDE","4","m","rechts","23","","","object","j","30","true"
"null","<div style=""font-size:60px;"">+</div>","null","html-keyboard-response","148","206220","0.0-6.0-0.71","VIDE","4","m","rechts","23","","fixation","","","",""
"1518","img/30_90.png","74","image-keyboard-response","149","207751","0.0-6.0-1.71","VIDE","4","m","rechts","23","","","object","j","30","true"
"null","<div style=""font-size:60px;"">+</div>","null","html-keyboard-response","150","208268","0.0-6.0-0.72","VIDE","4","m","rechts","23","","fixation","","","",""
"1574","img/90_180.png","70","image-keyboard-response","151","209855","0.0-6.0-1.72","VIDE","4","m","rechts","23","","","object","f","90","true"
"null","<div style=""font-size:60px;"">+</div>","null","html-keyboard-response","152","210331","0.0-6.0-0.73","VIDE","4","m","rechts","23","","fixation","","","",""
"1437","img/L30_180.png","74","image-keyboard-response","153","211778","0.0-6.0-1.73","VIDE","4","m","rechts","23","","","object","j","30","true"
"null","<div style=""font-size:60px;"">+</div>","null","html-keyboard-response","154","212251","0.0-6.0-0.74","VIDE","4","m","rechts","23","","fixation","","","",""
"2442","img/120_270.png","70","image-keyboard-response","155","214708","0.0-6.0-1.74","VIDE","4","m","rechts","23","","","object","j","120","false"
"null","<div style=""font-size:60px;"">+</div>","null","html-keyboard-response","156","215078","0.0-6.0-0.75","VIDE","4","m","rechts","23","","fixation","","","",""
"693","img/0_30.png","74","image-keyboard-response","157","215783","0.0-6.0-1.75","VIDE","4","m","rechts","23","","","object","j","0","true"
"null","<div style=""font-size:60px;"">+</div>","null","html-keyboard-response","158","216094","0.0-6.0-0.76","VIDE","4","m","rechts","23","","fixation","","","",""
"780","img/0_240.png","70","image-keyboard-response","159","216883","0.0-6.0-1.76","VIDE","4","m","rechts","23","","","object","f","0","true"
"null","<div style=""font-size:60px;"">+</div>","null","html-keyboard-response","160","217203","0.0-6.0-0.77","VIDE","4","m","rechts","23","","fixation","","","",""
"1368","img/30_180.png","70","image-keyboard-response","161","218584","0.0-6.0-1.77","VIDE","4","m","rechts","23","","","object","f","30","true"
"null","<div style=""font-size:60px;"">+</div>","null","html-keyboard-response","162","219016","0.0-6.0-0.78","VIDE","4","m","rechts","23","","fixation","","","",""
"937","img/60_150.png","74","image-keyboard-response","163","219966","0.0-6.0-1.78","VIDE","4","m","rechts","23","","","object","j","60","true"
"null","<div style=""font-size:60px;"">+</div>","null","html-keyboard-response","164","220344","0.0-6.0-0.79","VIDE","4","m","rechts","23","","fixation","","","",""
"1039","img/0_270.png","70","image-keyboard-response","165","221396","0.0-6.0-1.79","VIDE","4","m","rechts","23","","","object","f","0","true"
"null","<div style=""font-size:60px;"">+</div>","null","html-keyboard-response","166","221812","0.0-6.0-0.80","VIDE","4","m","rechts","23","","fixation","","","",""
"1122","img/120_150.png","74","image-keyboard-response","167","222947","0.0-6.0-1.80","VIDE","4","m","rechts","23","","","object","j","120","true"
"null","<div style=""font-size:60px;"">+</div>","null","html-keyboard-response","168","223471","0.0-6.0-0.81","VIDE","4","m","rechts","23","","fixation","","","",""
"747","img/0_330.png","70","image-keyboard-response","169","224232","0.0-6.0-1.81","VIDE","4","m","rechts","23","","","object","f","0","true"
"null","<div style=""font-size:60px;"">+</div>","null","html-keyboard-response","170","224563","0.0-6.0-0.82","VIDE","4","m","rechts","23","","fixation","","","",""
"1455","img/90_120.png","74","image-keyboard-response","171","226034","0.0-6.0-1.82","VIDE","4","m","rechts","23","","","object","j","90","true"
"null","<div style=""font-size:60px;"">+</div>","null","html-keyboard-response","172","226548","0.0-6.0-0.83","VIDE","4","m","rechts","23","","fixation","","","",""
"943","img/150_60.png","70","image-keyboard-response","173","227505","0.0-6.0-1.83","VIDE","4","m","rechts","23","","","object","f","150","true"
"null","<div style=""font-size:60px;"">+</div>","null","html-keyboard-response","174","227969","0.0-6.0-0.84","VIDE","4","m","rechts","23","","fixation","","","",""
"867","img/90_60.png","70","image-keyboard-response","175","228844","0.0-6.0-1.84","VIDE","4","m","rechts","23","","","object","f","90","true"
"null","<div style=""font-size:60px;"">+</div>","null","html-keyboard-response","176","229377","0.0-6.0-0.85","VIDE","4","m","rechts","23","","fixation","","","",""
"636","img/0_120.png","74","image-keyboard-response","177","230025","0.0-6.0-1.85","VIDE","4","m","rechts","23","","","object","j","0","true"
"null","<div style=""font-size:60px;"">+</div>","null","html-keyboard-response","178","230487","0.0-6.0-0.86","VIDE","4","m","rechts","23","","fixation","","","",""
"552","img/0_150.png","74","image-keyboard-response","179","231051","0.0-6.0-1.86","VIDE","4","m","rechts","23","","","object","j","0","true"
"null","<div style=""font-size:60px;"">+</div>","null","html-keyboard-response","180","231455","0.0-6.0-0.87","VIDE","4","m","rechts","23","","fixation","","","",""
"874","img/120_90.png","70","image-keyboard-response","181","232342","0.0-6.0-1.87","VIDE","4","m","rechts","23","","","object","f","120","true"
"null","<div style=""font-size:60px;"">+</div>","null","html-keyboard-response","182","232861","0.0-6.0-0.88","VIDE","4","m","rechts","23","","fixation","","","",""
"920","img/30_300.png","74","image-keyboard-response","183","233795","0.0-6.0-1.88","VIDE","4","m","rechts","23","","","object","f","30","false"
"null","<div style=""font-size:60px;"">+</div>","null","html-keyboard-response","184","234159","0.0-6.0-0.89","VIDE","4","m","rechts","23","","fixation","","","",""
"1457","img/L90_180.png","74","image-keyboard-response","185","235628","0.0-6.0-1.89","VIDE","4","m","rechts","23","","","object","j","90","true"
"null","<div style=""font-size:60px;"">+</div>","null","html-keyboard-response","186","236159","0.0-6.0-0.90","VIDE","4","m","rechts","23","","fixation","","","",""
"888","img/30_270.png","70","image-keyboard-response","187","237056","0.0-6.0-1.90","VIDE","4","m","rechts","23","","","object","f","30","true"
"null","<div style=""font-size:60px;"">+</div>","null","html-keyboard-response","188","237487","0.0-6.0-0.91","VIDE","4","m","rechts","23","","fixation","","","",""
"974","img/90_150.png","74","image-keyboard-response","189","238474","0.0-6.0-1.91","VIDE","4","m","rechts","23","","","object","j","90","true"
"null","<div style=""font-size:60px;"">+</div>","null","html-keyboard-response","190","238831","0.0-6.0-0.92","VIDE","4","m","rechts","23","","fixation","","","",""
"676","img/0_90.png","74","image-keyboard-response","191","239522","0.0-6.0-1.92","VIDE","4","m","rechts","23","","","object","j","0","true"
"null","<div style=""font-size:60px;"">+</div>","null","html-keyboard-response","192","239987","0.0-6.0-0.93","VIDE","4","m","rechts","23","","fixation","","","",""
"904","img/150_300.png","74","image-keyboard-response","193","240904","0.0-6.0-1.93","VIDE","4","m","rechts","23","","","object","j","150","true"
"null","<div style=""font-size:60px;"">+</div>","null","html-keyboard-response","194","241269","0.0-6.0-0.94","VIDE","4","m","rechts","23","","fixation","","","",""
"838","img/30_240.png","70","image-keyboard-response","195","242120","0.0-6.0-1.94","VIDE","4","m","rechts","23","","","object","f","30","true"
"null","<div style=""font-size:60px;"">+</div>","null","html-keyboard-response","196","242550","0.0-6.0-0.95","VIDE","4","m","rechts","23","","fixation","","","",""
"939","img/L150_180.png","74","image-keyboard-response","197","243504","0.0-6.0-1.95","VIDE","4","m","rechts","23","","","object","j","150","true"
"null","<div style=""font-size:60px;"">+</div>","null","html-keyboard-response","198","243878","0.0-6.0-0.96","VIDE","4","m","rechts","23","","fixation","","","",""
"905","img/60_90.png","74","image-keyboard-response","199","244797","0.0-6.0-1.96","VIDE","4","m","rechts","23","","","object","j","60","true"
"null","<div style=""font-size:60px;"">+</div>","null","html-keyboard-response","200","245160","0.0-6.0-0.97","VIDE","4","m","rechts","23","","fixation","","","",""
"917","img/L120_180.png","74","image-keyboard-response","201","246090","0.0-6.0-1.97","VIDE","4","m","rechts","23","","","object","j","120","true"
"null","<div style=""font-size:60px;"">+</div>","null","html-keyboard-response","202","246519","0.0-6.0-0.98","VIDE","4","m","rechts","23","","fixation","","","",""
"1190","img/150_90.png","74","image-keyboard-response","203","247723","0.0-6.0-1.98","VIDE","4","m","rechts","23","","","object","f","150","false"
"null","<div style=""font-size:60px;"">+</div>","null","html-keyboard-response","204","248193","0.0-6.0-0.99","VIDE","4","m","rechts","23","","fixation","","","",""
"685","img/120_30.png","70","image-keyboard-response","205","248891","0.0-6.0-1.99","VIDE","4","m","rechts","23","","","object","f","120","true"
"null","<div style=""font-size:60px;"">+</div>","null","html-keyboard-response","206","249349","0.0-6.0-0.100","VIDE","4","m","rechts","23","","fixation","","","",""
"980","img/120_210.png","74","image-keyboard-response","207","250344","0.0-6.0-1.100","VIDE","4","m","rechts","23","","","object","f","120","false"
"null","<div style=""font-size:60px;"">+</div>","null","html-keyboard-response","208","250662","0.0-6.0-0.101","VIDE","4","m","rechts","23","","fixation","","","",""
"736","img/0_60.png","74","image-keyboard-response","209","251411","0.0-6.0-1.101","VIDE","4","m","rechts","23","","","object","j","0","true"
"null","<div style=""font-size:60px;"">+</div>","null","html-keyboard-response","210","251818","0.0-6.0-0.102","VIDE","4","m","rechts","23","","fixation","","","",""
"796","img/60_270.png","70","image-keyboard-response","211","252628","0.0-6.0-1.102","VIDE","4","m","rechts","23","","","object","f","60","true"
"null","<div style=""font-size:60px;"">+</div>","null","html-keyboard-response","212","252957","0.0-6.0-0.103","VIDE","4","m","rechts","23","","fixation","","","",""
"652","img/0_300.png","70","image-keyboard-response","213","253617","0.0-6.0-1.103","VIDE","4","m","rechts","23","","","object","f","0","true"
"null","<div style=""font-size:60px;"">+</div>","null","html-keyboard-response","214","254130","0.0-6.0-0.104","VIDE","4","m","rechts","23","","fixation","","","",""
"736","img/90_300.png","74","image-keyboard-response","215","254878","0.0-6.0-1.104","VIDE","4","m","rechts","23","","","object","j","90","true"
"null","<div style=""font-size:60px;"">+</div>","null","html-keyboard-response","216","255286","0.0-6.0-0.105","VIDE","4","m","rechts","23","","fixation","","","",""
"1697","img/90_150.png","74","image-keyboard-response","217","256992","0.0-6.0-1.105","VIDE","4","m","rechts","23","","","object","j","90","true"
"null","<div style=""font-size:60px;"">+</div>","null","html-keyboard-response","218","257318","0.0-6.0-0.106","VIDE","4","m","rechts","23","","fixation","","","",""
"642","img/0_30.png","74","image-keyboard-response","219","257969","0.0-6.0-1.106","VIDE","4","m","rechts","23","","","object","j","0","true"
"null","<div style=""font-size:60px;"">+</div>","null","html-keyboard-response","220","258319","0.0-6.0-0.107","VIDE","4","m","rechts","23","","fixation","","","",""
"788","img/90_60.png","74","image-keyboard-response","221","259116","0.0-6.0-1.107","VIDE","4","m","rechts","23","","","object","f","90","false"
"null","<div style=""font-size:60px;"">+</div>","null","html-keyboard-response","222","259475","0.0-6.0-0.108","VIDE","4","m","rechts","23","","fixation","","","",""
"1272","img/60_210.png","74","image-keyboard-response","223","260761","0.0-6.0-1.108","VIDE","4","m","rechts","23","","","object","f","60","false"
"null","<div style=""font-size:60px;"">+</div>","null","html-keyboard-response","224","261271","0.0-6.0-0.109","VIDE","4","m","rechts","23","","fixation","","","",""
"1382","img/120_150.png","74","image-keyboard-response","225","262662","0.0-6.0-1.109","VIDE","4","m","rechts","23","","","object","j","120","true"
"null","<div style=""font-size:60px;"">+</div>","null","html-keyboard-response","226","263121","0.0-6.0-0.110","VIDE","4","m","rechts","23","","fixation","","","",""
"781","img/120_30.png","70","image-keyboard-response","227","263911","0.0-6.0-1.110","VIDE","4","m","rechts","23","","","object","f","120","true"
"null","<div style=""font-size:60px;"">+</div>","null","html-keyboard-response","228","264324","0.0-6.0-0.111","VIDE","4","m","rechts","23","","fixation","","","",""
"688","img/60_30.png","70","image-keyboard-response","229","265025","0.0-6.0-1.111","VIDE","4","m","rechts","23","","","object","f","60","true"
"null","<div style=""font-size:60px;"">+</div>","null","html-keyboard-response","230","265544","0.0-6.0-0.112","VIDE","4","m","rechts","23","","fixation","","","",""
"797","img/150_300.png","74","image-keyboard-response","231","266351","0.0-6.0-1.112","VIDE","4","m","rechts","23","","","object","j","150","true"
"null","<div style=""font-size:60px;"">+</div>","null","html-keyboard-response","232","266669","0.0-6.0-0.113","VIDE","4","m","rechts","23","","fixation","","","",""
"843","img/L150_180.png","70","image-keyboard-response","233","267523","0.0-6.0-1.113","VIDE","4","m","rechts","23","","","object","j","150","false"
"null","<div style=""font-size:60px;"">+</div>","null","html-keyboard-response","234","267887","0.0-6.0-0.114","VIDE","4","m","rechts","23","","fixation","","","",""
"691","img/120_330.png","74","image-keyboard-response","235","268591","0.0-6.0-1.114","VIDE","4","m","rechts","23","","","object","j","120","true"
"null","<div style=""font-size:60px;"">+</div>","null","html-keyboard-response","236","269015","0.0-6.0-0.115","VIDE","4","m","rechts","23","","fixation","","","",""
"870","img/90_210.png","70","image-keyboard-response","237","269896","0.0-6.0-1.115","VIDE","4","m","rechts","23","","","object","f","90","true"
"null","<div style=""font-size:60px;"">+</div>","null","html-keyboard-response","238","270264","0.0-6.0-0.116","VIDE","4","m","rechts","23","","fixation","","","",""
"837","img/60_270.png","74","image-keyboard-response","239","271111","0.0-6.0-1.116","VIDE","4","m","rechts","23","","","object","f","60","false"
"null","<div style=""font-size:60px;"">+</div>","null","html-keyboard-response","240","271467","0.0-6.0-0.117","VIDE","4","m","rechts","23","","fixation","","","",""
"850","img/L90_180.png","74","image-keyboard-response","241","272329","0.0-6.0-1.117","VIDE","4","m","rechts","23","","","object","j","90","true"
"null","<div style=""font-size:60px;"">+</div>","null","html-keyboard-response","242","272857","0.0-6.0-0.118","VIDE","4","m","rechts","23","","fixation","","","",""
"771","img/120_270.png","74","image-keyboard-response","243","273641","0.0-6.0-1.118","VIDE","4","m","rechts","23","","","object","j","120","true"
"null","<div style=""font-size:60px;"">+</div>","null","html-keyboard-response","244","274171","0.0-6.0-0.119","VIDE","4","m","rechts","23","","fixation","","","",""
"651","img/90_240.png","74","image-keyboard-response","245","274835","0.0-6.0-1.119","VIDE","4","m","rechts","23","","","object","f","90","false"
"null","<div style=""font-size:60px;"">+</div>","null","html-keyboard-response","246","275217","0.0-6.0-0.120","VIDE","4","m","rechts","23","","fixation","","","",""
"1078","img/90_180.png","70","image-keyboard-response","247","276308","0.0-6.0-1.120","VIDE","4","m","rechts","23","","","object","f","90","true"
"null","<div style=""font-size:60px;"">+</div>","null","html-keyboard-response","248","276826","0.0-6.0-0.121","VIDE","4","m","rechts","23","","fixation","","","",""
"766","img/0_330.png","70","image-keyboard-response","249","277602","0.0-6.0-1.121","VIDE","4","m","rechts","23","","","object","f","0","true"
"null","<div style=""font-size:60px;"">+</div>","null","html-keyboard-response","250","278110","0.0-6.0-0.122","VIDE","4","m","rechts","23","","fixation","","","",""
"821","img/150_60.png","74","image-keyboard-response","251","278942","0.0-6.0-1.122","VIDE","4","m","rechts","23","","","object","f","150","false"
"null","<div style=""font-size:60px;"">+</div>","null","html-keyboard-response","252","279359","0.0-6.0-0.123","VIDE","4","m","rechts","23","","fixation","","","",""
"1835","img/120_210.png","70","image-keyboard-response","253","281203","0.0-6.0-1.123","VIDE","4","m","rechts","23","","","object","f","120","true"
"null","<div style=""font-size:60px;"">+</div>","null","html-keyboard-response","254","281609","0.0-6.0-0.124","VIDE","4","m","rechts","23","","fixation","","","",""
"641","img/0_150.png","74","image-keyboard-response","255","282259","0.0-6.0-1.124","VIDE","4","m","rechts","23","","","object","j","0","true"
"null","<div style=""font-size:60px;"">+</div>","null","html-keyboard-response","256","282562","0.0-6.0-0.125","VIDE","4","m","rechts","23","","fixation","","","",""
"732","img/0_240.png","70","image-keyboard-response","257","283307","0.0-6.0-1.125","VIDE","4","m","rechts","23","","","object","f","0","true"
"null","<div style=""font-size:60px;"">+</div>","null","html-keyboard-response","258","283687","0.0-6.0-0.126","VIDE","4","m","rechts","23","","fixation","","","",""
"1170","img/150_120.png","74","image-keyboard-response","259","284870","0.0-6.0-1.126","VIDE","4","m","rechts","23","","","object","f","150","false"
"null","<div style=""font-size:60px;"">+</div>","null","html-keyboard-response","260","285328","0.0-6.0-0.127","VIDE","4","m","rechts","23","","fixation","","","",""
"1476","img/120_180.png","70","image-keyboard-response","261","286817","0.0-6.0-1.127","VIDE","4","m","rechts","23","","","object","f","120","true"
"null","<div style=""font-size:60px;"">+</div>","null","html-keyboard-response","262","287342","0.0-6.0-0.128","VIDE","4","m","rechts","23","","fixation","","","",""
"1792","img/30_270.png","70","image-keyboard-response","263","289145","0.0-6.0-1.128","VIDE","4","m","rechts","23","","","object","f","30","true"
"null","<div style=""font-size:60px;"">+</div>","null","html-keyboard-response","264","289596","0.0-6.0-0.129","VIDE","4","m","rechts","23","","fixation","","","",""
"818","img/30_90.png","74","image-keyboard-response","265","290427","0.0-6.0-1.129","VIDE","4","m","rechts","23","","","object","j","30","true"
"null","<div style=""font-size:60px;"">+</div>","null","html-keyboard-response","266","290892","0.0-6.0-0.130","VIDE","4","m","rechts","23","","fixation","","","",""
"1361","img/L120_180.png","74","image-keyboard-response","267","292262","0.0-6.0-1.130","VIDE","4","m","rechts","23","","","object","j","120","true"
"null","<div style=""font-size:60px;"">+</div>","null","html-keyboard-response","268","292565","0.0-6.0-0.131","VIDE","4","m","rechts","23","","fixation","","","",""
"1068","img/30_60.png","74","image-keyboard-response","269","293644","0.0-6.0-1.131","VIDE","4","m","rechts","23","","","object","j","30","true"
"null","<div style=""font-size:60px;"">+</div>","null","html-keyboard-response","270","294158","0.0-6.0-0.132","VIDE","4","m","rechts","23","","fixation","","","",""
"914","img/90_330.png","74","image-keyboard-response","271","295086","0.0-6.0-1.132","VIDE","4","m","rechts","23","","","object","j","90","true"
"null","<div style=""font-size:60px;"">+</div>","null","html-keyboard-response","272","295455","0.0-6.0-0.133","VIDE","4","m","rechts","23","","fixation","","","",""
"719","img/90_30.png","70","image-keyboard-response","273","296186","0.0-6.0-1.133","VIDE","4","m","rechts","23","","","object","f","90","true"
"null","<div style=""font-size:60px;"">+</div>","null","html-keyboard-response","274","296563","0.0-6.0-0.134","VIDE","4","m","rechts","23","","fixation","","","",""
"2511","img/150_90.png","70","image-keyboard-response","275","299085","0.0-6.0-1.134","VIDE","4","m","rechts","23","","","object","f","150","true"
"null","<div style=""font-size:60px;"">+</div>","null","html-keyboard-response","276","299549","0.0-6.0-0.135","VIDE","4","m","rechts","23","","fixation","","","",""
"844","img/0_210.png","70","image-keyboard-response","277","300407","0.0-6.0-1.135","VIDE","4","m","rechts","23","","","object","f","0","true"
"null","<div style=""font-size:60px;"">+</div>","null","html-keyboard-response","278","300813","0.0-6.0-0.136","VIDE","4","m","rechts","23","","fixation","","","",""
"749","img/L60_180.png","74","image-keyboard-response","279","301575","0.0-6.0-1.136","VIDE","4","m","rechts","23","","","object","j","60","true"
"null","<div style=""font-size:60px;"">+</div>","null","html-keyboard-response","280","302077","0.0-6.0-0.137","VIDE","4","m","rechts","23","","fixation","","","",""
"754","img/60_330.png","74","image-keyboard-response","281","302836","0.0-6.0-1.137","VIDE","4","m","rechts","23","","","object","j","60","true"
"null","<div style=""font-size:60px;"">+</div>","null","html-keyboard-response","282","303347","0.0-6.0-0.138","VIDE","4","m","rechts","23","","fixation","","","",""
"985","img/30_300.png","70","image-keyboard-response","283","304345","0.0-6.0-1.138","VIDE","4","m","rechts","23","","","object","f","30","true"
"null","<div style=""font-size:60px;"">+</div>","null","html-keyboard-response","284","304770","0.0-6.0-0.139","VIDE","4","m","rechts","23","","fixation","","","",""
"1766","img/90_120.png","74","image-keyboard-response","285","306549","0.0-6.0-1.139","VIDE","4","m","rechts","23","","","object","j","90","true"
"null","<div style=""font-size:60px;"">+</div>","null","html-keyboard-response","286","306864","0.0-6.0-0.140","VIDE","4","m","rechts","23","","fixation","","","",""
"1616","img/120_90.png","70","image-keyboard-response","287","308496","0.0-6.0-1.140","VIDE","4","m","rechts","23","","","object","f","120","true"
"null","<div style=""font-size:60px;"">+</div>","null","html-keyboard-response","288","308926","0.0-6.0-0.141","VIDE","4","m","rechts","23","","fixation","","","",""
"685","img/0_270.png","70","image-keyboard-response","289","309621","0.0-6.0-1.141","VIDE","4","m","rechts","23","","","object","f","0","true"
"null","<div style=""font-size:60px;"">+</div>","null","html-keyboard-response","290","309942","0.0-6.0-0.142","VIDE","4","m","rechts","23","","fixation","","","",""
"979","img/60_90.png","74","image-keyboard-response","291","310926","0.0-6.0-1.142","VIDE","4","m","rechts","23","","","object","j","60","true"
"null","<div style=""font-size:60px;"">+</div>","null","html-keyboard-response","292","311301","0.0-6.0-0.143","VIDE","4","m","rechts","23","","fixation","","","",""
"659","img/0_60.png","74","image-keyboard-response","293","311970","0.0-6.0-1.143","VIDE","4","m","rechts","23","","","object","j","0","true"
"null","<div style=""font-size:60px;"">+</div>","null","html-keyboard-response","294","312489","0.0-6.0-0.144","VIDE","4","m","rechts","23","","fixation","","","",""
"1832","img/150_240.png","74","image-keyboard-response","295","314334","0.0-6.0-1.144","VIDE","4","m","rechts","23","","","object","j","150","true"
"null","<div style=""font-size:60px;"">+</div>","null","html-keyboard-response","296","314662","0.0-6.0-0.145","VIDE","4","m","rechts","23","","fixation","","","",""
"1462","img/150_270.png","74","image-keyboard-response","297","316133","0.0-6.0-1.145","VIDE","4","m","rechts","23","","","object","j","150","true"
"null","<div style=""font-size:60px;"">+</div>","null","html-keyboard-response","298","316584","0.0-6.0-0.146","VIDE","4","m","rechts","23","","fixation","","","",""
"943","img/30_120.png","74","image-keyboard-response","299","317541","0.0-6.0-1.146","VIDE","4","m","rechts","23","","","object","j","30","true"
"null","<div style=""font-size:60px;"">+</div>","null","html-keyboard-response","300","317991","0.0-6.0-0.147","VIDE","4","m","rechts","23","","fixation","","","",""
"1269","img/0_120.png","74","image-keyboard-response","301","319273","0.0-6.0-1.147","VIDE","4","m","rechts","23","","","object","j","0","true"
"null","<div style=""font-size:60px;"">+</div>","null","html-keyboard-response","302","319676","0.0-6.0-0.148","VIDE","4","m","rechts","23","","fixation","","","",""
"836","img/0_300.png","70","image-keyboard-response","303","320523","0.0-6.0-1.148","VIDE","4","m","rechts","23","","","object","f","0","true"
"null","<div style=""font-size:60px;"">+</div>","null","html-keyboard-response","304","320943","0.0-6.0-0.149","VIDE","4","m","rechts","23","","fixation","","","",""
"922","img/30_240.png","70","image-keyboard-response","305","321872","0.0-6.0-1.149","VIDE","4","m","rechts","23","","","object","f","30","true"
"null","<div style=""font-size:60px;"">+</div>","null","html-keyboard-response","306","322224","0.0-6.0-0.150","VIDE","4","m","rechts","23","","fixation","","","",""
"659","img/0_90.png","74","image-keyboard-response","307","322896","0.0-6.0-1.150","VIDE","4","m","rechts","23","","","object","j","0","true"
"null","<div style=""font-size:60px;"">+</div>","null","html-keyboard-response","308","323303","0.0-6.0-0.151","VIDE","4","m","rechts","23","","fixation","","","",""
"1517","img/60_150.png","74","image-keyboard-response","309","324829","0.0-6.0-1.151","VIDE","4","m","rechts","23","","","object","j","60","true"
"null","<div style=""font-size:60px;"">+</div>","null","html-keyboard-response","310","325336","0.0-6.0-0.152","VIDE","4","m","rechts","23","","fixation","","","",""
"null","img/L30_180.png","null","image-keyboard-response","311","328350","0.0-6.0-1.152","VIDE","4","m","rechts","23","","","object","j","30","false"
"null","<div style=""font-size:60px;"">+</div>","null","html-keyboard-response","312","328714","0.0-6.0-0.153","VIDE","4","m","rechts","23","","fixation","","","",""
"1234","img/60_180.png","70","image-keyboard-response","313","329960","0.0-6.0-1.153","VIDE","4","m","rechts","23","","","object","f","60","true"
"null","<div style=""font-size:60px;"">+</div>","null","html-keyboard-response","314","330479","0.0-6.0-0.154","VIDE","4","m","rechts","23","","fixation","","","",""
"909","img/150_180.png","70","image-keyboard-response","315","331402","0.0-6.0-1.154","VIDE","4","m","rechts","23","","","object","f","150","true"
"null","<div style=""font-size:60px;"">+</div>","null","html-keyboard-response","316","331714","0.0-6.0-0.155","VIDE","4","m","rechts","23","","fixation","","","",""
"893","img/30_180.png","70","image-keyboard-response","317","332627","0.0-6.0-1.155","VIDE","4","m","rechts","23","","","object","f","30","true"
"null","<div style=""font-size:60px;"">+</div>","null","html-keyboard-response","318","333089","0.0-6.0-0.156","VIDE","4","m","rechts","23","","fixation","","","",""
"1138","img/L30_180.png","74","image-keyboard-response","319","334236","0.0-6.0-1.156","VIDE","4","m","rechts","23","","","object","j","30","true"
"null","<div style=""font-size:60px;"">+</div>","null","html-keyboard-response","320","334541","0.0-6.0-0.157","VIDE","4","m","rechts","23","","fixation","","","",""
"1138","img/120_270.png","70","image-keyboard-response","321","335687","0.0-6.0-1.157","VIDE","4","m","rechts","23","","","object","j","120","false"
"null","<div style=""font-size:60px;"">+</div>","null","html-keyboard-response","322","336198","0.0-6.0-0.158","VIDE","4","m","rechts","23","","fixation","","","",""
"749","img/0_270.png","70","image-keyboard-response","323","336956","0.0-6.0-1.158","VIDE","4","m","rechts","23","","","object","f","0","true"
"null","<div style=""font-size:60px;"">+</div>","null","html-keyboard-response","324","337471","0.0-6.0-0.159","VIDE","4","m","rechts","23","","fixation","","","",""
"626","img/0_210.png","70","image-keyboard-response","325","338106","0.0-6.0-1.159","VIDE","4","m","rechts","23","","","object","f","0","true"
"null","<div style=""font-size:60px;"">+</div>","null","html-keyboard-response","326","338484","0.0-6.0-0.160","VIDE","4","m","rechts","23","","fixation","","","",""
"1367","img/150_120.png","74","image-keyboard-response","327","339861","0.0-6.0-1.160","VIDE","4","m","rechts","23","","","object","f","150","false"
"null","<div style=""font-size:60px;"">+</div>","null","html-keyboard-response","328","340189","0.0-6.0-0.161","VIDE","4","m","rechts","23","","fixation","","","",""
"728","img/30_270.png","70","image-keyboard-response","329","340930","0.0-6.0-1.161","VIDE","4","m","rechts","23","","","object","f","30","true"
"null","<div style=""font-size:60px;"">+</div>","null","html-keyboard-response","330","341314","0.0-6.0-0.162","VIDE","4","m","rechts","23","","fixation","","","",""
"696","img/0_60.png","74","image-keyboard-response","331","342021","0.0-6.0-1.162","VIDE","4","m","rechts","23","","","object","j","0","true"
"null","<div style=""font-size:60px;"">+</div>","null","html-keyboard-response","332","342438","0.0-6.0-0.163","VIDE","4","m","rechts","23","","fixation","","","",""
"540","img/0_90.png","74","image-keyboard-response","333","342986","0.0-6.0-1.163","VIDE","4","m","rechts","23","","","object","j","0","true"
"null","<div style=""font-size:60px;"">+</div>","null","html-keyboard-response","334","343394","0.0-6.0-0.164","VIDE","4","m","rechts","23","","fixation","","","",""
"593","img/0_330.png","70","image-keyboard-response","335","343999","0.0-6.0-1.164","VIDE","4","m","rechts","23","","","object","f","0","true"
"null","<div style=""font-size:60px;"">+</div>","null","html-keyboard-response","336","344315","0.0-6.0-0.165","VIDE","4","m","rechts","23","","fixation","","","",""
"1014","img/30_240.png","74","image-keyboard-response","337","345340","0.0-6.0-1.165","VIDE","4","m","rechts","23","","","object","f","30","false"
"null","<div style=""font-size:60px;"">+</div>","null","html-keyboard-response","338","345861","0.0-6.0-0.166","VIDE","4","m","rechts","23","","fixation","","","",""
"680","img/0_150.png","74","image-keyboard-response","339","346556","0.0-6.0-1.166","VIDE","4","m","rechts","23","","","object","j","0","true"
"null","<div style=""font-size:60px;"">+</div>","null","html-keyboard-response","340","346878","0.0-6.0-0.167","VIDE","4","m","rechts","23","","fixation","","","",""
"1069","img/60_90.png","74","image-keyboard-response","341","347960","0.0-6.0-1.167","VIDE","4","m","rechts","23","","","object","j","60","true"
"null","<div style=""font-size:60px;"">+</div>","null","html-keyboard-response","342","348284","0.0-6.0-0.168","VIDE","4","m","rechts","23","","fixation","","","",""
"679","img/0_120.png","74","image-keyboard-response","343","348973","0.0-6.0-1.168","VIDE","4","m","rechts","23","","","object","j","0","true"
"null","<div style=""font-size:60px;"">+</div>","null","html-keyboard-response","344","349377","0.0-6.0-0.169","VIDE","4","m","rechts","23","","fixation","","","",""
"1746","img/60_150.png","74","image-keyboard-response","345","351134","0.0-6.0-1.169","VIDE","4","m","rechts","23","","","object","j","60","true"
"null","<div style=""font-size:60px;"">+</div>","null","html-keyboard-response","346","351440","0.0-6.0-0.170","VIDE","4","m","rechts","23","","fixation","","","",""
"897","img/90_330.png","74","image-keyboard-response","347","352349","0.0-6.0-1.170","VIDE","4","m","rechts","23","","","object","j","90","true"
"null","<div style=""font-size:60px;"">+</div>","null","html-keyboard-response","348","352658","0.0-6.0-0.171","VIDE","4","m","rechts","23","","fixation","","","",""
"610","img/0_300.png","74","image-keyboard-response","349","353282","0.0-6.0-1.171","VIDE","4","m","rechts","23","","","object","f","0","false"
"null","<div style=""font-size:60px;"">+</div>","null","html-keyboard-response","350","353800","0.0-6.0-0.172","VIDE","4","m","rechts","23","","fixation","","","",""
"1392","img/150_90.png","74","image-keyboard-response","351","355206","0.0-6.0-1.172","VIDE","4","m","rechts","23","","","object","f","150","false"
"null","<div style=""font-size:60px;"">+</div>","null","html-keyboard-response","352","355519","0.0-6.0-0.173","VIDE","4","m","rechts","23","","fixation","","","",""
"1667","img/30_90.png","74","image-keyboard-response","353","357197","0.0-6.0-1.173","VIDE","4","m","rechts","23","","","object","j","30","true"
"null","<div style=""font-size:60px;"">+</div>","null","html-keyboard-response","354","357505","0.0-6.0-0.174","VIDE","4","m","rechts","23","","fixation","","","",""
"830","img/90_30.png","70","image-keyboard-response","355","358345","0.0-6.0-1.174","VIDE","4","m","rechts","23","","","object","f","90","true"
"null","<div style=""font-size:60px;"">+</div>","null","html-keyboard-response","356","358661","0.0-6.0-0.175","VIDE","4","m","rechts","23","","fixation","","","",""
"1528","img/L90_180.png","74","image-keyboard-response","357","360201","0.0-6.0-1.175","VIDE","4","m","rechts","23","","","object","j","90","true"
"null","<div style=""font-size:60px;"">+</div>","null","html-keyboard-response","358","360566","0.0-6.0-0.176","VIDE","4","m","rechts","23","","fixation","","","",""
"1230","img/60_30.png","70","image-keyboard-response","359","361810","0.0-6.0-1.176","VIDE","4","m","rechts","23","","","object","f","60","true"
"null","<div style=""font-size:60px;"">+</div>","null","html-keyboard-response","360","362316","0.0-6.0-0.177","VIDE","4","m","rechts","23","","fixation","","","",""
"1037","img/30_60.png","74","image-keyboard-response","361","363363","0.0-6.0-1.177","VIDE","4","m","rechts","23","","","object","j","30","true"
"null","<div style=""font-size:60px;"">+</div>","null","html-keyboard-response","362","363692","0.0-6.0-0.178","VIDE","4","m","rechts","23","","fixation","","","",""
"1314","img/60_180.png","70","image-keyboard-response","363","365015","0.0-6.0-1.178","VIDE","4","m","rechts","23","","","object","f","60","true"
"null","<div style=""font-size:60px;"">+</div>","null","html-keyboard-response","364","365535","0.0-6.0-0.179","VIDE","4","m","rechts","23","","fixation","","","",""
"1403","img/90_240.png","70","image-keyboard-response","365","366951","0.0-6.0-1.179","VIDE","4","m","rechts","23","","","object","f","90","true"
"null","<div style=""font-size:60px;"">+</div>","null","html-keyboard-response","366","367379","0.0-6.0-0.180","VIDE","4","m","rechts","23","","fixation","","","",""
"1282","img/L60_180.png","74","image-keyboard-response","367","368670","0.0-6.0-1.180","VIDE","4","m","rechts","23","","","object","j","60","true"
"null","<div style=""font-size:60px;"">+</div>","null","html-keyboard-response","368","368973","0.0-6.0-0.181","VIDE","4","m","rechts","23","","fixation","","","",""
"952","img/90_150.png","74","image-keyboard-response","369","369933","0.0-6.0-1.181","VIDE","4","m","rechts","23","","","object","j","90","true"
"null","<div style=""font-size:60px;"">+</div>","null","html-keyboard-response","370","370302","0.0-6.0-0.182","VIDE","4","m","rechts","23","","fixation","","","",""
"892","img/90_120.png","74","image-keyboard-response","371","371203","0.0-6.0-1.182","VIDE","4","m","rechts","23","","","object","j","90","true"
"null","<div style=""font-size:60px;"">+</div>","null","html-keyboard-response","372","371708","0.0-6.0-0.183","VIDE","4","m","rechts","23","","fixation","","","",""
"742","img/0_240.png","70","image-keyboard-response","373","372465","0.0-6.0-1.183","VIDE","4","m","rechts","23","","","object","f","0","true"
"null","<div style=""font-size:60px;"">+</div>","null","html-keyboard-response","374","372926","0.0-6.0-0.184","VIDE","4","m","rechts","23","","fixation","","","",""
"1106","img/120_180.png","70","image-keyboard-response","375","374048","0.0-6.0-1.184","VIDE","4","m","rechts","23","","","object","f","120","true"
"null","<div style=""font-size:60px;"">+</div>","null","html-keyboard-response","376","374519","0.0-6.0-0.185","VIDE","4","m","rechts","23","","fixation","","","",""
"945","img/60_210.png","70","image-keyboard-response","377","375479","0.0-6.0-1.185","VIDE","4","m","rechts","23","","","object","f","60","true"
"null","<div style=""font-size:60px;"">+</div>","null","html-keyboard-response","378","375838","0.0-6.0-0.186","VIDE","4","m","rechts","23","","fixation","","","",""
"888","img/150_300.png","74","image-keyboard-response","379","376739","0.0-6.0-1.186","VIDE","4","m","rechts","23","","","object","j","150","true"
"null","<div style=""font-size:60px;"">+</div>","null","html-keyboard-response","380","377245","0.0-6.0-0.187","VIDE","4","m","rechts","23","","fixation","","","",""
"857","img/30_180.png","70","image-keyboard-response","381","378112","0.0-6.0-1.187","VIDE","4","m","rechts","23","","","object","f","30","true"
"null","<div style=""font-size:60px;"">+</div>","null","html-keyboard-response","382","378541","0.0-6.0-0.188","VIDE","4","m","rechts","23","","fixation","","","",""
"963","img/L150_180.png","74","image-keyboard-response","383","379518","0.0-6.0-1.188","VIDE","4","m","rechts","23","","","object","j","150","true"
"null","<div style=""font-size:60px;"">+</div>","null","html-keyboard-response","384","380041","0.0-6.0-0.189","VIDE","4","m","rechts","23","","fixation","","","",""
"1061","img/150_60.png","70","image-keyboard-response","385","381116","0.0-6.0-1.189","VIDE","4","m","rechts","23","","","object","f","150","true"
"null","<div style=""font-size:60px;"">+</div>","null","html-keyboard-response","386","381541","0.0-6.0-0.190","VIDE","4","m","rechts","23","","fixation","","","",""
"694","img/120_30.png","70","image-keyboard-response","387","382251","0.0-6.0-1.190","VIDE","4","m","rechts","23","","","object","f","120","true"
"null","<div style=""font-size:60px;"">+</div>","null","html-keyboard-response","388","382727","0.0-6.0-0.191","VIDE","4","m","rechts","23","","fixation","","","",""
"930","img/60_270.png","70","image-keyboard-response","389","383670","0.0-6.0-1.191","VIDE","4","m","rechts","23","","","object","f","60","true"
"null","<div style=""font-size:60px;"">+</div>","null","html-keyboard-response","390","383979","0.0-6.0-0.192","VIDE","4","m","rechts","23","","fixation","","","",""
"715","img/120_330.png","74","image-keyboard-response","391","384705","0.0-6.0-1.192","VIDE","4","m","rechts","23","","","object","j","120","true"
"null","<div style=""font-size:60px;"">+</div>","null","html-keyboard-response","392","385059","0.0-6.0-0.193","VIDE","4","m","rechts","23","","fixation","","","",""
"1218","img/120_210.png","70","image-keyboard-response","393","386292","0.0-6.0-1.193","VIDE","4","m","rechts","23","","","object","f","120","true"
"null","<div style=""font-size:60px;"">+</div>","null","html-keyboard-response","394","386714","0.0-6.0-0.194","VIDE","4","m","rechts","23","","fixation","","","",""
"609","img/90_300.png","74","image-keyboard-response","395","387336","0.0-6.0-1.194","VIDE","4","m","rechts","23","","","object","j","90","true"
"null","<div style=""font-size:60px;"">+</div>","null","html-keyboard-response","396","387636","0.0-6.0-0.195","VIDE","4","m","rechts","23","","fixation","","","",""
"1048","img/L120_180.png","74","image-keyboard-response","397","388697","0.0-6.0-1.195","VIDE","4","m","rechts","23","","","object","j","120","true"
"null","<div style=""font-size:60px;"">+</div>","null","html-keyboard-response","398","389026","0.0-6.0-0.196","VIDE","4","m","rechts","23","","fixation","","","",""
"827","img/30_120.png","74","image-keyboard-response","399","389868","0.0-6.0-1.196","VIDE","4","m","rechts","23","","","object","j","30","true"
"null","<div style=""font-size:60px;"">+</div>","null","html-keyboard-response","400","390338","0.0-6.0-0.197","VIDE","4","m","rechts","23","","fixation","","","",""
"741","img/90_210.png","70","image-keyboard-response","401","391095","0.0-6.0-1.197","VIDE","4","m","rechts","23","","","object","f","90","true"
"null","<div style=""font-size:60px;"">+</div>","null","html-keyboard-response","402","391465","0.0-6.0-0.198","VIDE","4","m","rechts","23","","fixation","","","",""
"696","img/120_90.png","74","image-keyboard-response","403","392172","0.0-6.0-1.198","VIDE","4","m","rechts","23","","","object","f","120","false"
"null","<div style=""font-size:60px;"">+</div>","null","html-keyboard-response","404","392541","0.0-6.0-0.199","VIDE","4","m","rechts","23","","fixation","","","",""
"744","img/150_240.png","70","image-keyboard-response","405","393299","0.0-6.0-1.199","VIDE","4","m","rechts","23","","","object","j","150","false"
"null","<div style=""font-size:60px;"">+</div>","null","html-keyboard-response","406","393826","0.0-6.0-0.200","VIDE","4","m","rechts","23","","fixation","","","",""
"719","img/60_330.png","74","image-keyboard-response","407","394558","0.0-6.0-1.200","VIDE","4","m","rechts","23","","","object","j","60","true"
"null","<div style=""font-size:60px;"">+</div>","null","html-keyboard-response","408","394965","0.0-6.0-0.201","VIDE","4","m","rechts","23","","fixation","","","",""
"631","img/150_180.png","70","image-keyboard-response","409","395605","0.0-6.0-1.201","VIDE","4","m","rechts","23","","","object","f","150","true"
"null","<div style=""font-size:60px;"">+</div>","null","html-keyboard-response","410","395981","0.0-6.0-0.202","VIDE","4","m","rechts","23","","fixation","","","",""
"672","img/150_270.png","74","image-keyboard-response","411","396662","0.0-6.0-1.202","VIDE","4","m","rechts","23","","","object","j","150","true"
"null","<div style=""font-size:60px;"">+</div>","null","html-keyboard-response","412","397076","0.0-6.0-0.203","VIDE","4","m","rechts","23","","fixation","","","",""
"677","img/90_60.png","74","image-keyboard-response","413","397766","0.0-6.0-1.203","VIDE","4","m","rechts","23","","","object","f","90","false"
"null","<div style=""font-size:60px;"">+</div>","null","html-keyboard-response","414","398279","0.0-6.0-0.204","VIDE","4","m","rechts","23","","fixation","","","",""
"645","img/0_30.png","74","image-keyboard-response","415","398935","0.0-6.0-1.204","VIDE","4","m","rechts","23","","","object","j","0","true"
"null","<div style=""font-size:60px;"">+</div>","null","html-keyboard-response","416","399402","0.0-6.0-0.205","VIDE","4","m","rechts","23","","fixation","","","",""
"973","img/90_180.png","70","image-keyboard-response","417","400388","0.0-6.0-1.205","VIDE","4","m","rechts","23","","","object","f","90","true"
"null","<div style=""font-size:60px;"">+</div>","null","html-keyboard-response","418","400856","0.0-6.0-0.206","VIDE","4","m","rechts","23","","fixation","","","",""
"663","img/30_300.png","74","image-keyboard-response","419","401532","0.0-6.0-1.206","VIDE","4","m","rechts","23","","","object","f","30","false"
"null","<div style=""font-size:60px;"">+</div>","null","html-keyboard-response","420","401996","0.0-6.0-0.207","VIDE","4","m","rechts","23","","fixation","","","",""
"1578","img/120_150.png","74","image-keyboard-response","421","403583","0.0-6.0-1.207","VIDE","4","m","rechts","23","","","object","j","120","true"
"5217","<p>Du hast in 86% der Versuche korrekt entschieden.</p><p>Deine durchschnittliche Reaktionszeit war  1040ms.</p><p>Dr&uuml;cke eine beliebige Taste, um die Session zu beenden. Vielen Dank!</p>","32","html-keyboard-response","422","408805","0.0-7.0","VIDE","4","m","rechts","23","","","","","",""
