"rt","stimulus","key_press","trial_type","trial_index","time_elapsed","internal_node_id","subject","session","sex","handedness","age","responses","test_part","condition","correct_response","angle","correct"
"7987","<p>Mental Rotation Experiment.</p> <p>Dr&uuml;cke eine beliebige Taste, um anzufangen.</p>","32","html-keyboard-response","0","8026","0.0-0.0","VIDE","2","m","rechts","23","","","","","",""
"17191","","","survey-text","1","25224","0.0-1.0","VIDE","2","m","rechts","23","{""Q0"":""VIDE""}","","","","",""
"5781","","","survey-text","2","31007","0.0-2.0","VIDE","2","m","rechts","23","{""Q0"":""2""}","","","","",""
"8331","","","survey-multi-choice","3","39344","0.0-3.0","VIDE","2","m","rechts","23","{""Q0"":""m"",""Q1"":""rechts""}","","","","",""
"3136","","","survey-text","4","42482","0.0-4.0","VIDE","2","m","rechts","23","{""Q0"":""23""}","","","","",""
"18075","<p> Stell dir vor, dass du vor einem runden Tisch stehst, auf dem sich ein blauer Ball am Tischrand befindet. Entlang des Tischrands ist jeweils ein verschieden langer Pfeil. Nun bewegst du dich entlang dieses Pfeils bis an seine Spitze. Wenn du am Ende des Pfeils angekommen bist, schau zur Tischmitte. </p> <img src='img/90_180.png'></img> <br> <p>Entscheide dann, ob der Ball von deiner neuen (vorgestellten) Position links oder rechts von dir liegt.</p> <p>Dr&uuml;cke die <strong>'f'</strong>-Taste f&uuml;r links, die <strong>'j'</strong>-Taste f&uuml;r rechts.</p> <br><p> Das Bild wird jeweils 1 Sekunde lang pr&auml;sentiert. Du hast 3 Sekunden Zeit eine Entscheidung zu treffen.</p>","74","html-keyboard-response","5","60566","0.0-5.0","VIDE","2","m","rechts","23","","","","","",""
"null","<div style=""font-size:60px;"">+</div>","null","html-keyboard-response","6","62127","0.0-6.0-0.0","VIDE","2","m","rechts","23","","fixation","","","",""
"1435","img/30_60.png","74","image-keyboard-response","7","63582","0.0-6.0-1.0","VIDE","2","m","rechts","23","","","self","j","30","true"
"null","<div style=""font-size:60px;"">+</div>","null","html-keyboard-response","8","63908","0.0-6.0-0.1","VIDE","2","m","rechts","23","","fixation","","","",""
"1148","img/150_60.png","70","image-keyboard-response","9","65074","0.0-6.0-1.1","VIDE","2","m","rechts","23","","","self","f","150","true"
"null","<div style=""font-size:60px;"">+</div>","null","html-keyboard-response","10","65502","0.0-6.0-0.2","VIDE","2","m","rechts","23","","fixation","","","",""
"904","img/120_30.png","74","image-keyboard-response","11","66426","0.0-6.0-1.2","VIDE","2","m","rechts","23","","","self","j","120","true"
"null","<div style=""font-size:60px;"">+</div>","null","html-keyboard-response","12","66831","0.0-6.0-0.3","VIDE","2","m","rechts","23","","fixation","","","",""
"1090","img/L60_180.png","70","image-keyboard-response","13","67939","0.0-6.0-1.3","VIDE","2","m","rechts","23","","","self","f","60","true"
"null","<div style=""font-size:60px;"">+</div>","null","html-keyboard-response","14","68400","0.0-6.0-0.4","VIDE","2","m","rechts","23","","fixation","","","",""
"684","img/0_330.png","70","image-keyboard-response","15","69103","0.0-6.0-1.4","VIDE","2","m","rechts","23","","","self","f","0","true"
"null","<div style=""font-size:60px;"">+</div>","null","html-keyboard-response","16","69415","0.0-6.0-0.5","VIDE","2","m","rechts","23","","fixation","","","",""
"914","img/150_120.png","70","image-keyboard-response","17","70339","0.0-6.0-1.5","VIDE","2","m","rechts","23","","","self","f","150","true"
"null","<div style=""font-size:60px;"">+</div>","null","html-keyboard-response","18","70650","0.0-6.0-0.6","VIDE","2","m","rechts","23","","fixation","","","",""
"1001","img/90_30.png","74","image-keyboard-response","19","71667","0.0-6.0-1.6","VIDE","2","m","rechts","23","","","self","j","90","true"
"null","<div style=""font-size:60px;"">+</div>","null","html-keyboard-response","20","72120","0.0-6.0-0.7","VIDE","2","m","rechts","23","","fixation","","","",""
"861","img/L30_180.png","70","image-keyboard-response","21","73005","0.0-6.0-1.7","VIDE","2","m","rechts","23","","","self","f","30","true"
"null","<div style=""font-size:60px;"">+</div>","null","html-keyboard-response","22","73415","0.0-6.0-0.8","VIDE","2","m","rechts","23","","fixation","","","",""
"686","img/0_270.png","70","image-keyboard-response","23","74119","0.0-6.0-1.8","VIDE","2","m","rechts","23","","","self","f","0","true"
"null","<div style=""font-size:60px;"">+</div>","null","html-keyboard-response","24","74586","0.0-6.0-0.9","VIDE","2","m","rechts","23","","fixation","","","",""
"827","img/90_120.png","70","image-keyboard-response","25","75425","0.0-6.0-1.9","VIDE","2","m","rechts","23","","","self","f","90","true"
"null","<div style=""font-size:60px;"">+</div>","null","html-keyboard-response","26","75837","0.0-6.0-0.10","VIDE","2","m","rechts","23","","fixation","","","",""
"1158","img/90_210.png","74","image-keyboard-response","27","77012","0.0-6.0-1.10","VIDE","2","m","rechts","23","","","self","j","90","true"
"null","<div style=""font-size:60px;"">+</div>","null","html-keyboard-response","28","77477","0.0-6.0-0.11","VIDE","2","m","rechts","23","","fixation","","","",""
"1102","img/90_300.png","70","image-keyboard-response","29","78596","0.0-6.0-1.11","VIDE","2","m","rechts","23","","","self","f","90","true"
"null","<div style=""font-size:60px;"">+</div>","null","html-keyboard-response","30","78976","0.0-6.0-0.12","VIDE","2","m","rechts","23","","fixation","","","",""
"987","img/60_30.png","74","image-keyboard-response","31","79982","0.0-6.0-1.12","VIDE","2","m","rechts","23","","","self","j","60","true"
"null","<div style=""font-size:60px;"">+</div>","null","html-keyboard-response","32","80289","0.0-6.0-0.13","VIDE","2","m","rechts","23","","fixation","","","",""
"958","img/30_180.png","74","image-keyboard-response","33","81264","0.0-6.0-1.13","VIDE","2","m","rechts","23","","","self","j","30","true"
"null","<div style=""font-size:60px;"">+</div>","null","html-keyboard-response","34","81633","0.0-6.0-0.14","VIDE","2","m","rechts","23","","fixation","","","",""
"1030","img/90_330.png","70","image-keyboard-response","35","82682","0.0-6.0-1.14","VIDE","2","m","rechts","23","","","self","f","90","true"
"null","<div style=""font-size:60px;"">+</div>","null","html-keyboard-response","36","83149","0.0-6.0-0.15","VIDE","2","m","rechts","23","","fixation","","","",""
"965","img/60_210.png","74","image-keyboard-response","37","84132","0.0-6.0-1.15","VIDE","2","m","rechts","23","","","self","j","60","true"
"null","<div style=""font-size:60px;"">+</div>","null","html-keyboard-response","38","84650","0.0-6.0-0.16","VIDE","2","m","rechts","23","","fixation","","","",""
"789","img/L90_180.png","70","image-keyboard-response","39","85460","0.0-6.0-1.16","VIDE","2","m","rechts","23","","","self","f","90","true"
"null","<div style=""font-size:60px;"">+</div>","null","html-keyboard-response","40","85823","0.0-6.0-0.17","VIDE","2","m","rechts","23","","fixation","","","",""
"1095","img/60_330.png","70","image-keyboard-response","41","86934","0.0-6.0-1.17","VIDE","2","m","rechts","23","","","self","f","60","true"
"null","<div style=""font-size:60px;"">+</div>","null","html-keyboard-response","42","87243","0.0-6.0-0.18","VIDE","2","m","rechts","23","","fixation","","","",""
"687","img/0_150.png","74","image-keyboard-response","43","87948","0.0-6.0-1.18","VIDE","2","m","rechts","23","","","self","j","0","true"
"null","<div style=""font-size:60px;"">+</div>","null","html-keyboard-response","44","88415","0.0-6.0-0.19","VIDE","2","m","rechts","23","","fixation","","","",""
"773","img/120_180.png","74","image-keyboard-response","45","89206","0.0-6.0-1.19","VIDE","2","m","rechts","23","","","self","j","120","true"
"null","<div style=""font-size:60px;"">+</div>","null","html-keyboard-response","46","89665","0.0-6.0-0.20","VIDE","2","m","rechts","23","","fixation","","","",""
"886","img/30_120.png","74","image-keyboard-response","47","90569","0.0-6.0-1.20","VIDE","2","m","rechts","23","","","self","j","30","true"
"null","<div style=""font-size:60px;"">+</div>","null","html-keyboard-response","48","90947","0.0-6.0-0.21","VIDE","2","m","rechts","23","","fixation","","","",""
"1807","img/120_90.png","74","image-keyboard-response","49","92774","0.0-6.0-1.21","VIDE","2","m","rechts","23","","","self","f","120","false"
"null","<div style=""font-size:60px;"">+</div>","null","html-keyboard-response","50","93196","0.0-6.0-0.22","VIDE","2","m","rechts","23","","fixation","","","",""
"1032","img/150_90.png","70","image-keyboard-response","51","94245","0.0-6.0-1.22","VIDE","2","m","rechts","23","","","self","f","150","true"
"null","<div style=""font-size:60px;"">+</div>","null","html-keyboard-response","52","94776","0.0-6.0-0.23","VIDE","2","m","rechts","23","","fixation","","","",""
"1141","img/120_330.png","70","image-keyboard-response","53","95935","0.0-6.0-1.23","VIDE","2","m","rechts","23","","","self","f","120","true"
"null","<div style=""font-size:60px;"">+</div>","null","html-keyboard-response","54","96414","0.0-6.0-0.24","VIDE","2","m","rechts","23","","fixation","","","",""
"1010","img/150_180.png","74","image-keyboard-response","55","97442","0.0-6.0-1.24","VIDE","2","m","rechts","23","","","self","j","150","true"
"null","<div style=""font-size:60px;"">+</div>","null","html-keyboard-response","56","97820","0.0-6.0-0.25","VIDE","2","m","rechts","23","","fixation","","","",""
"1133","img/90_60.png","74","image-keyboard-response","57","98972","0.0-6.0-1.25","VIDE","2","m","rechts","23","","","self","j","90","true"
"null","<div style=""font-size:60px;"">+</div>","null","html-keyboard-response","58","99338","0.0-6.0-0.26","VIDE","2","m","rechts","23","","fixation","","","",""
"943","img/120_150.png","70","image-keyboard-response","59","100299","0.0-6.0-1.26","VIDE","2","m","rechts","23","","","self","f","120","true"
"null","<div style=""font-size:60px;"">+</div>","null","html-keyboard-response","60","100806","0.0-6.0-0.27","VIDE","2","m","rechts","23","","fixation","","","",""
"722","img/60_180.png","74","image-keyboard-response","61","101547","0.0-6.0-1.27","VIDE","2","m","rechts","23","","","self","j","60","true"
"null","<div style=""font-size:60px;"">+</div>","null","html-keyboard-response","62","102073","0.0-6.0-0.28","VIDE","2","m","rechts","23","","fixation","","","",""
"729","img/60_90.png","74","image-keyboard-response","63","102819","0.0-6.0-1.28","VIDE","2","m","rechts","23","","","self","j","60","true"
"null","<div style=""font-size:60px;"">+</div>","null","html-keyboard-response","64","103181","0.0-6.0-0.29","VIDE","2","m","rechts","23","","fixation","","","",""
"890","img/30_300.png","70","image-keyboard-response","65","104091","0.0-6.0-1.29","VIDE","2","m","rechts","23","","","self","f","30","true"
"null","<div style=""font-size:60px;"">+</div>","null","html-keyboard-response","66","104448","0.0-6.0-0.30","VIDE","2","m","rechts","23","","fixation","","","",""
"656","img/0_60.png","74","image-keyboard-response","67","105123","0.0-6.0-1.30","VIDE","2","m","rechts","23","","","self","j","0","true"
"null","<div style=""font-size:60px;"">+</div>","null","html-keyboard-response","68","105478","0.0-6.0-0.31","VIDE","2","m","rechts","23","","fixation","","","",""
"913","img/60_270.png","70","image-keyboard-response","69","106408","0.0-6.0-1.31","VIDE","2","m","rechts","23","","","self","f","60","true"
"null","<div style=""font-size:60px;"">+</div>","null","html-keyboard-response","70","106838","0.0-6.0-0.32","VIDE","2","m","rechts","23","","fixation","","","",""
"1060","img/L120_180.png","70","image-keyboard-response","71","107915","0.0-6.0-1.32","VIDE","2","m","rechts","23","","","self","f","120","true"
"null","<div style=""font-size:60px;"">+</div>","null","html-keyboard-response","72","108389","0.0-6.0-0.33","VIDE","2","m","rechts","23","","fixation","","","",""
"1084","img/120_270.png","74","image-keyboard-response","73","109491","0.0-6.0-1.33","VIDE","2","m","rechts","23","","","self","j","120","true"
"null","<div style=""font-size:60px;"">+</div>","null","html-keyboard-response","74","109792","0.0-6.0-0.34","VIDE","2","m","rechts","23","","fixation","","","",""
"816","img/90_150.png","70","image-keyboard-response","75","110625","0.0-6.0-1.34","VIDE","2","m","rechts","23","","","self","f","90","true"
"null","<div style=""font-size:60px;"">+</div>","null","html-keyboard-response","76","111035","0.0-6.0-0.35","VIDE","2","m","rechts","23","","fixation","","","",""
"662","img/0_120.png","74","image-keyboard-response","77","111717","0.0-6.0-1.35","VIDE","2","m","rechts","23","","","self","j","0","true"
"null","<div style=""font-size:60px;"">+</div>","null","html-keyboard-response","78","112223","0.0-6.0-0.36","VIDE","2","m","rechts","23","","fixation","","","",""
"725","img/150_240.png","74","image-keyboard-response","79","112967","0.0-6.0-1.36","VIDE","2","m","rechts","23","","","self","j","150","true"
"null","<div style=""font-size:60px;"">+</div>","null","html-keyboard-response","80","113333","0.0-6.0-0.37","VIDE","2","m","rechts","23","","fixation","","","",""
"762","img/30_270.png","70","image-keyboard-response","81","114116","0.0-6.0-1.37","VIDE","2","m","rechts","23","","","self","f","30","true"
"null","<div style=""font-size:60px;"">+</div>","null","html-keyboard-response","82","114426","0.0-6.0-0.38","VIDE","2","m","rechts","23","","fixation","","","",""
"717","img/0_300.png","70","image-keyboard-response","83","115161","0.0-6.0-1.38","VIDE","2","m","rechts","23","","","self","f","0","true"
"null","<div style=""font-size:60px;"">+</div>","null","html-keyboard-response","84","115472","0.0-6.0-0.39","VIDE","2","m","rechts","23","","fixation","","","",""
"864","img/60_150.png","70","image-keyboard-response","85","116353","0.0-6.0-1.39","VIDE","2","m","rechts","23","","","self","f","60","true"
"null","<div style=""font-size:60px;"">+</div>","null","html-keyboard-response","86","116770","0.0-6.0-0.40","VIDE","2","m","rechts","23","","fixation","","","",""
"936","img/150_300.png","74","image-keyboard-response","87","117723","0.0-6.0-1.40","VIDE","2","m","rechts","23","","","self","j","150","true"
"null","<div style=""font-size:60px;"">+</div>","null","html-keyboard-response","88","118238","0.0-6.0-0.41","VIDE","2","m","rechts","23","","fixation","","","",""
"851","img/120_210.png","74","image-keyboard-response","89","119110","0.0-6.0-1.41","VIDE","2","m","rechts","23","","","self","j","120","true"
"null","<div style=""font-size:60px;"">+</div>","null","html-keyboard-response","90","119614","0.0-6.0-0.42","VIDE","2","m","rechts","23","","fixation","","","",""
"714","img/0_90.png","74","image-keyboard-response","91","120346","0.0-6.0-1.42","VIDE","2","m","rechts","23","","","self","j","0","true"
"null","<div style=""font-size:60px;"">+</div>","null","html-keyboard-response","92","120802","0.0-6.0-0.43","VIDE","2","m","rechts","23","","fixation","","","",""
"798","img/150_270.png","74","image-keyboard-response","93","121617","0.0-6.0-1.43","VIDE","2","m","rechts","23","","","self","j","150","true"
"null","<div style=""font-size:60px;"">+</div>","null","html-keyboard-response","94","122130","0.0-6.0-0.44","VIDE","2","m","rechts","23","","fixation","","","",""
"1125","img/30_240.png","70","image-keyboard-response","95","123273","0.0-6.0-1.44","VIDE","2","m","rechts","23","","","self","f","30","true"
"null","<div style=""font-size:60px;"">+</div>","null","html-keyboard-response","96","123739","0.0-6.0-0.45","VIDE","2","m","rechts","23","","fixation","","","",""
"776","img/0_210.png","70","image-keyboard-response","97","124532","0.0-6.0-1.45","VIDE","2","m","rechts","23","","","self","f","0","true"
"null","<div style=""font-size:60px;"">+</div>","null","html-keyboard-response","98","125051","0.0-6.0-0.46","VIDE","2","m","rechts","23","","fixation","","","",""
"822","img/L150_180.png","70","image-keyboard-response","99","125891","0.0-6.0-1.46","VIDE","2","m","rechts","23","","","self","f","150","true"
"null","<div style=""font-size:60px;"">+</div>","null","html-keyboard-response","100","126317","0.0-6.0-0.47","VIDE","2","m","rechts","23","","fixation","","","",""
"1031","img/30_90.png","74","image-keyboard-response","101","127367","0.0-6.0-1.47","VIDE","2","m","rechts","23","","","self","j","30","true"
"null","<div style=""font-size:60px;"">+</div>","null","html-keyboard-response","102","127879","0.0-6.0-0.48","VIDE","2","m","rechts","23","","fixation","","","",""
"916","img/0_240.png","70","image-keyboard-response","103","128817","0.0-6.0-1.48","VIDE","2","m","rechts","23","","","self","f","0","true"
"null","<div style=""font-size:60px;"">+</div>","null","html-keyboard-response","104","129132","0.0-6.0-0.49","VIDE","2","m","rechts","23","","fixation","","","",""
"1076","img/90_240.png","74","image-keyboard-response","105","130226","0.0-6.0-1.49","VIDE","2","m","rechts","23","","","self","j","90","true"
"null","<div style=""font-size:60px;"">+</div>","null","html-keyboard-response","106","130538","0.0-6.0-0.50","VIDE","2","m","rechts","23","","fixation","","","",""
"709","img/90_180.png","74","image-keyboard-response","107","131260","0.0-6.0-1.50","VIDE","2","m","rechts","23","","","self","j","90","true"
"null","<div style=""font-size:60px;"">+</div>","null","html-keyboard-response","108","131616","0.0-6.0-0.51","VIDE","2","m","rechts","23","","fixation","","","",""
"570","img/0_30.png","74","image-keyboard-response","109","132204","0.0-6.0-1.51","VIDE","2","m","rechts","23","","","self","j","0","true"
"null","<div style=""font-size:60px;"">+</div>","null","html-keyboard-response","110","132585","0.0-6.0-0.52","VIDE","2","m","rechts","23","","fixation","","","",""
"630","img/L150_180.png","70","image-keyboard-response","111","133226","0.0-6.0-1.52","VIDE","2","m","rechts","23","","","self","f","150","true"
"null","<div style=""font-size:60px;"">+</div>","null","html-keyboard-response","112","133694","0.0-6.0-0.53","VIDE","2","m","rechts","23","","fixation","","","",""
"1010","img/150_90.png","70","image-keyboard-response","113","134714","0.0-6.0-1.53","VIDE","2","m","rechts","23","","","self","f","150","true"
"null","<div style=""font-size:60px;"">+</div>","null","html-keyboard-response","114","135178","0.0-6.0-0.54","VIDE","2","m","rechts","23","","fixation","","","",""
"1187","img/90_30.png","74","image-keyboard-response","115","136378","0.0-6.0-1.54","VIDE","2","m","rechts","23","","","self","j","90","true"
"null","<div style=""font-size:60px;"">+</div>","null","html-keyboard-response","116","136803","0.0-6.0-0.55","VIDE","2","m","rechts","23","","fixation","","","",""
"1083","img/90_300.png","70","image-keyboard-response","117","137899","0.0-6.0-1.55","VIDE","2","m","rechts","23","","","self","f","90","true"
"null","<div style=""font-size:60px;"">+</div>","null","html-keyboard-response","118","138305","0.0-6.0-0.56","VIDE","2","m","rechts","23","","fixation","","","",""
"671","img/L60_180.png","70","image-keyboard-response","119","138989","0.0-6.0-1.56","VIDE","2","m","rechts","23","","","self","f","60","true"
"null","<div style=""font-size:60px;"">+</div>","null","html-keyboard-response","120","139352","0.0-6.0-0.57","VIDE","2","m","rechts","23","","fixation","","","",""
"628","img/120_150.png","70","image-keyboard-response","121","139989","0.0-6.0-1.57","VIDE","2","m","rechts","23","","","self","f","120","true"
"null","<div style=""font-size:60px;"">+</div>","null","html-keyboard-response","122","140446","0.0-6.0-0.58","VIDE","2","m","rechts","23","","fixation","","","",""
"670","img/150_180.png","70","image-keyboard-response","123","141126","0.0-6.0-1.58","VIDE","2","m","rechts","23","","","self","j","150","false"
"null","<div style=""font-size:60px;"">+</div>","null","html-keyboard-response","124","141649","0.0-6.0-0.59","VIDE","2","m","rechts","23","","fixation","","","",""
"754","img/L120_180.png","70","image-keyboard-response","125","142409","0.0-6.0-1.59","VIDE","2","m","rechts","23","","","self","f","120","true"
"null","<div style=""font-size:60px;"">+</div>","null","html-keyboard-response","126","142821","0.0-6.0-0.60","VIDE","2","m","rechts","23","","fixation","","","",""
"601","img/0_120.png","74","image-keyboard-response","127","143431","0.0-6.0-1.60","VIDE","2","m","rechts","23","","","self","j","0","true"
"null","<div style=""font-size:60px;"">+</div>","null","html-keyboard-response","128","143742","0.0-6.0-0.61","VIDE","2","m","rechts","23","","fixation","","","",""
"749","img/90_60.png","74","image-keyboard-response","129","144501","0.0-6.0-1.61","VIDE","2","m","rechts","23","","","self","j","90","true"
"null","<div style=""font-size:60px;"">+</div>","null","html-keyboard-response","130","145024","0.0-6.0-0.62","VIDE","2","m","rechts","23","","fixation","","","",""
"1490","img/150_60.png","70","image-keyboard-response","131","146528","0.0-6.0-1.62","VIDE","2","m","rechts","23","","","self","f","150","true"
"null","<div style=""font-size:60px;"">+</div>","null","html-keyboard-response","132","146991","0.0-6.0-0.63","VIDE","2","m","rechts","23","","fixation","","","",""
"1056","img/30_90.png","74","image-keyboard-response","133","148057","0.0-6.0-1.63","VIDE","2","m","rechts","23","","","self","j","30","true"
"null","<div style=""font-size:60px;"">+</div>","null","html-keyboard-response","134","148369","0.0-6.0-0.64","VIDE","2","m","rechts","23","","fixation","","","",""
"656","img/0_240.png","70","image-keyboard-response","135","149035","0.0-6.0-1.64","VIDE","2","m","rechts","23","","","self","f","0","true"
"null","<div style=""font-size:60px;"">+</div>","null","html-keyboard-response","136","149462","0.0-6.0-0.65","VIDE","2","m","rechts","23","","fixation","","","",""
"878","img/60_90.png","74","image-keyboard-response","137","150351","0.0-6.0-1.65","VIDE","2","m","rechts","23","","","self","j","60","true"
"null","<div style=""font-size:60px;"">+</div>","null","html-keyboard-response","138","150868","0.0-6.0-0.66","VIDE","2","m","rechts","23","","fixation","","","",""
"800","img/60_270.png","70","image-keyboard-response","139","151677","0.0-6.0-1.66","VIDE","2","m","rechts","23","","","self","f","60","true"
"null","<div style=""font-size:60px;"">+</div>","null","html-keyboard-response","140","152134","0.0-6.0-0.67","VIDE","2","m","rechts","23","","fixation","","","",""
"714","img/60_180.png","74","image-keyboard-response","141","152859","0.0-6.0-1.67","VIDE","2","m","rechts","23","","","self","j","60","true"
"null","<div style=""font-size:60px;"">+</div>","null","html-keyboard-response","142","153165","0.0-6.0-0.68","VIDE","2","m","rechts","23","","fixation","","","",""
"830","img/30_120.png","74","image-keyboard-response","143","154008","0.0-6.0-1.68","VIDE","2","m","rechts","23","","","self","j","30","true"
"null","<div style=""font-size:60px;"">+</div>","null","html-keyboard-response","144","154540","0.0-6.0-0.69","VIDE","2","m","rechts","23","","fixation","","","",""
"700","img/60_330.png","70","image-keyboard-response","145","155254","0.0-6.0-1.69","VIDE","2","m","rechts","23","","","self","f","60","true"
"null","<div style=""font-size:60px;"">+</div>","null","html-keyboard-response","146","155681","0.0-6.0-0.70","VIDE","2","m","rechts","23","","fixation","","","",""
"507","img/0_330.png","70","image-keyboard-response","147","156201","0.0-6.0-1.70","VIDE","2","m","rechts","23","","","self","f","0","true"
"null","<div style=""font-size:60px;"">+</div>","null","html-keyboard-response","148","156681","0.0-6.0-0.71","VIDE","2","m","rechts","23","","fixation","","","",""
"647","img/90_180.png","74","image-keyboard-response","149","157338","0.0-6.0-1.71","VIDE","2","m","rechts","23","","","self","j","90","true"
"null","<div style=""font-size:60px;"">+</div>","null","html-keyboard-response","150","157712","0.0-6.0-0.72","VIDE","2","m","rechts","23","","fixation","","","",""
"740","img/150_270.png","74","image-keyboard-response","151","158462","0.0-6.0-1.72","VIDE","2","m","rechts","23","","","self","j","150","true"
"null","<div style=""font-size:60px;"">+</div>","null","html-keyboard-response","152","158979","0.0-6.0-0.73","VIDE","2","m","rechts","23","","fixation","","","",""
"722","img/30_270.png","70","image-keyboard-response","153","159711","0.0-6.0-1.73","VIDE","2","m","rechts","23","","","self","f","30","true"
"null","<div style=""font-size:60px;"">+</div>","null","html-keyboard-response","154","160088","0.0-6.0-0.74","VIDE","2","m","rechts","23","","fixation","","","",""
"556","img/30_300.png","70","image-keyboard-response","155","160654","0.0-6.0-1.74","VIDE","2","m","rechts","23","","","self","f","30","true"
"null","<div style=""font-size:60px;"">+</div>","null","html-keyboard-response","156","161167","0.0-6.0-0.75","VIDE","2","m","rechts","23","","fixation","","","",""
"514","img/0_90.png","74","image-keyboard-response","157","161690","0.0-6.0-1.75","VIDE","2","m","rechts","23","","","self","j","0","true"
"null","<div style=""font-size:60px;"">+</div>","null","html-keyboard-response","158","162012","0.0-6.0-0.76","VIDE","2","m","rechts","23","","fixation","","","",""
"608","img/0_270.png","70","image-keyboard-response","159","162635","0.0-6.0-1.76","VIDE","2","m","rechts","23","","","self","f","0","true"
"null","<div style=""font-size:60px;"">+</div>","null","html-keyboard-response","160","163151","0.0-6.0-0.77","VIDE","2","m","rechts","23","","fixation","","","",""
"484","img/120_180.png","74","image-keyboard-response","161","163647","0.0-6.0-1.77","VIDE","2","m","rechts","23","","","self","j","120","true"
"null","<div style=""font-size:60px;"">+</div>","null","html-keyboard-response","162","164120","0.0-6.0-0.78","VIDE","2","m","rechts","23","","fixation","","","",""
"635","img/60_150.png","70","image-keyboard-response","163","164765","0.0-6.0-1.78","VIDE","2","m","rechts","23","","","self","f","60","true"
"null","<div style=""font-size:60px;"">+</div>","null","html-keyboard-response","164","165245","0.0-6.0-0.79","VIDE","2","m","rechts","23","","fixation","","","",""
"473","img/L30_180.png","70","image-keyboard-response","165","165730","0.0-6.0-1.79","VIDE","2","m","rechts","23","","","self","f","30","true"
"null","<div style=""font-size:60px;"">+</div>","null","html-keyboard-response","166","166041","0.0-6.0-0.80","VIDE","2","m","rechts","23","","fixation","","","",""
"589","img/120_270.png","74","image-keyboard-response","167","166640","0.0-6.0-1.80","VIDE","2","m","rechts","23","","","self","j","120","true"
"null","<div style=""font-size:60px;"">+</div>","null","html-keyboard-response","168","166964","0.0-6.0-0.81","VIDE","2","m","rechts","23","","fixation","","","",""
"698","img/30_60.png","74","image-keyboard-response","169","167675","0.0-6.0-1.81","VIDE","2","m","rechts","23","","","self","j","30","true"
"null","<div style=""font-size:60px;"">+</div>","null","html-keyboard-response","170","168103","0.0-6.0-0.82","VIDE","2","m","rechts","23","","fixation","","","",""
"541","img/0_300.png","70","image-keyboard-response","171","168653","0.0-6.0-1.82","VIDE","2","m","rechts","23","","","self","f","0","true"
"null","<div style=""font-size:60px;"">+</div>","null","html-keyboard-response","172","168966","0.0-6.0-0.83","VIDE","2","m","rechts","23","","fixation","","","",""
"884","img/150_300.png","70","image-keyboard-response","173","169859","0.0-6.0-1.83","VIDE","2","m","rechts","23","","","self","j","150","false"
"null","<div style=""font-size:60px;"">+</div>","null","html-keyboard-response","174","170371","0.0-6.0-0.84","VIDE","2","m","rechts","23","","fixation","","","",""
"811","img/90_210.png","74","image-keyboard-response","175","171197","0.0-6.0-1.84","VIDE","2","m","rechts","23","","","self","j","90","true"
"null","<div style=""font-size:60px;"">+</div>","null","html-keyboard-response","176","171513","0.0-6.0-0.85","VIDE","2","m","rechts","23","","fixation","","","",""
"1237","img/120_330.png","74","image-keyboard-response","177","172763","0.0-6.0-1.85","VIDE","2","m","rechts","23","","","self","f","120","false"
"null","<div style=""font-size:60px;"">+</div>","null","html-keyboard-response","178","173138","0.0-6.0-0.86","VIDE","2","m","rechts","23","","fixation","","","",""
"792","img/L90_180.png","70","image-keyboard-response","179","173943","0.0-6.0-1.86","VIDE","2","m","rechts","23","","","self","f","90","true"
"null","<div style=""font-size:60px;"">+</div>","null","html-keyboard-response","180","174402","0.0-6.0-0.87","VIDE","2","m","rechts","23","","fixation","","","",""
"764","img/30_180.png","74","image-keyboard-response","181","175181","0.0-6.0-1.87","VIDE","2","m","rechts","23","","","self","j","30","true"
"null","<div style=""font-size:60px;"">+</div>","null","html-keyboard-response","182","175496","0.0-6.0-0.88","VIDE","2","m","rechts","23","","fixation","","","",""
"986","img/120_90.png","70","image-keyboard-response","183","176495","0.0-6.0-1.88","VIDE","2","m","rechts","23","","","self","f","120","true"
"null","<div style=""font-size:60px;"">+</div>","null","html-keyboard-response","184","176949","0.0-6.0-0.89","VIDE","2","m","rechts","23","","fixation","","","",""
"640","img/0_210.png","70","image-keyboard-response","185","177599","0.0-6.0-1.89","VIDE","2","m","rechts","23","","","self","f","0","true"
"null","<div style=""font-size:60px;"">+</div>","null","html-keyboard-response","186","177902","0.0-6.0-0.90","VIDE","2","m","rechts","23","","fixation","","","",""
"843","img/60_210.png","74","image-keyboard-response","187","178758","0.0-6.0-1.90","VIDE","2","m","rechts","23","","","self","j","60","true"
"null","<div style=""font-size:60px;"">+</div>","null","html-keyboard-response","188","179217","0.0-6.0-0.91","VIDE","2","m","rechts","23","","fixation","","","",""
"586","img/0_150.png","74","image-keyboard-response","189","179815","0.0-6.0-1.91","VIDE","2","m","rechts","23","","","self","j","0","true"
"null","<div style=""font-size:60px;"">+</div>","null","html-keyboard-response","190","180123","0.0-6.0-0.92","VIDE","2","m","rechts","23","","fixation","","","",""
"703","img/60_30.png","74","image-keyboard-response","191","180838","0.0-6.0-1.92","VIDE","2","m","rechts","23","","","self","j","60","true"
"null","<div style=""font-size:60px;"">+</div>","null","html-keyboard-response","192","181146","0.0-6.0-0.93","VIDE","2","m","rechts","23","","fixation","","","",""
"781","img/90_330.png","70","image-keyboard-response","193","181942","0.0-6.0-1.93","VIDE","2","m","rechts","23","","","self","f","90","true"
"null","<div style=""font-size:60px;"">+</div>","null","html-keyboard-response","194","182272","0.0-6.0-0.94","VIDE","2","m","rechts","23","","fixation","","","",""
"770","img/90_150.png","70","image-keyboard-response","195","183055","0.0-6.0-1.94","VIDE","2","m","rechts","23","","","self","f","90","true"
"null","<div style=""font-size:60px;"">+</div>","null","html-keyboard-response","196","183459","0.0-6.0-0.95","VIDE","2","m","rechts","23","","fixation","","","",""
"570","img/0_60.png","74","image-keyboard-response","197","184044","0.0-6.0-1.95","VIDE","2","m","rechts","23","","","self","j","0","true"
"null","<div style=""font-size:60px;"">+</div>","null","html-keyboard-response","198","184506","0.0-6.0-0.96","VIDE","2","m","rechts","23","","fixation","","","",""
"744","img/90_240.png","74","image-keyboard-response","199","185260","0.0-6.0-1.96","VIDE","2","m","rechts","23","","","self","j","90","true"
"null","<div style=""font-size:60px;"">+</div>","null","html-keyboard-response","200","185584","0.0-6.0-0.97","VIDE","2","m","rechts","23","","fixation","","","",""
"1317","img/120_30.png","74","image-keyboard-response","201","186915","0.0-6.0-1.97","VIDE","2","m","rechts","23","","","self","j","120","true"
"null","<div style=""font-size:60px;"">+</div>","null","html-keyboard-response","202","187287","0.0-6.0-0.98","VIDE","2","m","rechts","23","","fixation","","","",""
"873","img/90_120.png","70","image-keyboard-response","203","188176","0.0-6.0-1.98","VIDE","2","m","rechts","23","","","self","f","90","true"
"null","<div style=""font-size:60px;"">+</div>","null","html-keyboard-response","204","188679","0.0-6.0-0.99","VIDE","2","m","rechts","23","","fixation","","","",""
"963","img/30_240.png","70","image-keyboard-response","205","189649","0.0-6.0-1.99","VIDE","2","m","rechts","23","","","self","f","30","true"
"null","<div style=""font-size:60px;"">+</div>","null","html-keyboard-response","206","190179","0.0-6.0-0.100","VIDE","2","m","rechts","23","","fixation","","","",""
"1411","img/150_240.png","74","image-keyboard-response","207","191603","0.0-6.0-1.100","VIDE","2","m","rechts","23","","","self","j","150","true"
"null","<div style=""font-size:60px;"">+</div>","null","html-keyboard-response","208","191914","0.0-6.0-0.101","VIDE","2","m","rechts","23","","fixation","","","",""
"545","img/120_210.png","74","image-keyboard-response","209","192471","0.0-6.0-1.101","VIDE","2","m","rechts","23","","","self","j","120","true"
"null","<div style=""font-size:60px;"">+</div>","null","html-keyboard-response","210","192836","0.0-6.0-0.102","VIDE","2","m","rechts","23","","fixation","","","",""
"716","img/0_30.png","74","image-keyboard-response","211","193562","0.0-6.0-1.102","VIDE","2","m","rechts","23","","","self","j","0","true"
"null","<div style=""font-size:60px;"">+</div>","null","html-keyboard-response","212","194024","0.0-6.0-0.103","VIDE","2","m","rechts","23","","fixation","","","",""
"853","img/150_120.png","74","image-keyboard-response","213","194891","0.0-6.0-1.103","VIDE","2","m","rechts","23","","","self","f","150","false"
"null","<div style=""font-size:60px;"">+</div>","null","html-keyboard-response","214","195398","0.0-6.0-0.104","VIDE","2","m","rechts","23","","fixation","","","",""
"901","img/120_90.png","70","image-keyboard-response","215","196308","0.0-6.0-1.104","VIDE","2","m","rechts","23","","","self","f","120","true"
"null","<div style=""font-size:60px;"">+</div>","null","html-keyboard-response","216","196616","0.0-6.0-0.105","VIDE","2","m","rechts","23","","fixation","","","",""
"774","img/0_300.png","70","image-keyboard-response","217","197400","0.0-6.0-1.105","VIDE","2","m","rechts","23","","","self","f","0","true"
"null","<div style=""font-size:60px;"">+</div>","null","html-keyboard-response","218","197757","0.0-6.0-0.106","VIDE","2","m","rechts","23","","fixation","","","",""
"1085","img/120_330.png","70","image-keyboard-response","219","198850","0.0-6.0-1.106","VIDE","2","m","rechts","23","","","self","f","120","true"
"null","<div style=""font-size:60px;"">+</div>","null","html-keyboard-response","220","199259","0.0-6.0-0.107","VIDE","2","m","rechts","23","","fixation","","","",""
"955","img/90_150.png","70","image-keyboard-response","221","200223","0.0-6.0-1.107","VIDE","2","m","rechts","23","","","self","f","90","true"
"null","<div style=""font-size:60px;"">+</div>","null","html-keyboard-response","222","200743","0.0-6.0-0.108","VIDE","2","m","rechts","23","","fixation","","","",""
"1245","img/30_300.png","70","image-keyboard-response","223","202001","0.0-6.0-1.108","VIDE","2","m","rechts","23","","","self","f","30","true"
"null","<div style=""font-size:60px;"">+</div>","null","html-keyboard-response","224","202509","0.0-6.0-0.109","VIDE","2","m","rechts","23","","fixation","","","",""
"785","img/60_30.png","74","image-keyboard-response","225","203304","0.0-6.0-1.109","VIDE","2","m","rechts","23","","","self","j","60","true"
"null","<div style=""font-size:60px;"">+</div>","null","html-keyboard-response","226","203634","0.0-6.0-0.110","VIDE","2","m","rechts","23","","fixation","","","",""
"1137","img/60_330.png","70","image-keyboard-response","227","204779","0.0-6.0-1.110","VIDE","2","m","rechts","23","","","self","f","60","true"
"null","<div style=""font-size:60px;"">+</div>","null","html-keyboard-response","228","205290","0.0-6.0-0.111","VIDE","2","m","rechts","23","","fixation","","","",""
"1210","img/90_60.png","70","image-keyboard-response","229","206512","0.0-6.0-1.111","VIDE","2","m","rechts","23","","","self","j","90","false"
"null","<div style=""font-size:60px;"">+</div>","null","html-keyboard-response","230","206914","0.0-6.0-0.112","VIDE","2","m","rechts","23","","fixation","","","",""
"960","img/120_210.png","74","image-keyboard-response","231","207884","0.0-6.0-1.112","VIDE","2","m","rechts","23","","","self","j","120","true"
"null","<div style=""font-size:60px;"">+</div>","null","html-keyboard-response","232","208399","0.0-6.0-0.113","VIDE","2","m","rechts","23","","fixation","","","",""
"713","img/0_90.png","74","image-keyboard-response","233","209123","0.0-6.0-1.113","VIDE","2","m","rechts","23","","","self","j","0","true"
"null","<div style=""font-size:60px;"">+</div>","null","html-keyboard-response","234","209431","0.0-6.0-0.114","VIDE","2","m","rechts","23","","fixation","","","",""
"637","img/0_270.png","70","image-keyboard-response","235","210078","0.0-6.0-1.114","VIDE","2","m","rechts","23","","","self","f","0","true"
"null","<div style=""font-size:60px;"">+</div>","null","html-keyboard-response","236","210539","0.0-6.0-0.115","VIDE","2","m","rechts","23","","fixation","","","",""
"942","img/60_90.png","70","image-keyboard-response","237","211494","0.0-6.0-1.115","VIDE","2","m","rechts","23","","","self","j","60","false"
"null","<div style=""font-size:60px;"">+</div>","null","html-keyboard-response","238","211961","0.0-6.0-0.116","VIDE","2","m","rechts","23","","fixation","","","",""
"612","img/0_30.png","74","image-keyboard-response","239","212585","0.0-6.0-1.116","VIDE","2","m","rechts","23","","","self","j","0","true"
"null","<div style=""font-size:60px;"">+</div>","null","html-keyboard-response","240","213102","0.0-6.0-0.117","VIDE","2","m","rechts","23","","fixation","","","",""
"948","img/150_300.png","74","image-keyboard-response","241","214060","0.0-6.0-1.117","VIDE","2","m","rechts","23","","","self","j","150","true"
"null","<div style=""font-size:60px;"">+</div>","null","html-keyboard-response","242","214463","0.0-6.0-0.118","VIDE","2","m","rechts","23","","fixation","","","",""
"779","img/0_150.png","74","image-keyboard-response","243","215253","0.0-6.0-1.118","VIDE","2","m","rechts","23","","","self","j","0","true"
"null","<div style=""font-size:60px;"">+</div>","null","html-keyboard-response","244","215760","0.0-6.0-0.119","VIDE","2","m","rechts","23","","fixation","","","",""
"525","img/0_240.png","74","image-keyboard-response","245","216299","0.0-6.0-1.119","VIDE","2","m","rechts","23","","","self","f","0","false"
"null","<div style=""font-size:60px;"">+</div>","null","html-keyboard-response","246","216766","0.0-6.0-0.120","VIDE","2","m","rechts","23","","fixation","","","",""
"1494","img/60_210.png","74","image-keyboard-response","247","218268","0.0-6.0-1.120","VIDE","2","m","rechts","23","","","self","j","60","true"
"null","<div style=""font-size:60px;"">+</div>","null","html-keyboard-response","248","218687","0.0-6.0-0.121","VIDE","2","m","rechts","23","","fixation","","","",""
"1120","img/L120_180.png","70","image-keyboard-response","249","219821","0.0-6.0-1.121","VIDE","2","m","rechts","23","","","self","f","120","true"
"null","<div style=""font-size:60px;"">+</div>","null","html-keyboard-response","250","220125","0.0-6.0-0.122","VIDE","2","m","rechts","23","","fixation","","","",""
"1250","img/30_180.png","74","image-keyboard-response","251","221384","0.0-6.0-1.122","VIDE","2","m","rechts","23","","","self","j","30","true"
"null","<div style=""font-size:60px;"">+</div>","null","html-keyboard-response","252","221859","0.0-6.0-0.123","VIDE","2","m","rechts","23","","fixation","","","",""
"1169","img/90_300.png","70","image-keyboard-response","253","223038","0.0-6.0-1.123","VIDE","2","m","rechts","23","","","self","f","90","true"
"null","<div style=""font-size:60px;"">+</div>","null","html-keyboard-response","254","223345","0.0-6.0-0.124","VIDE","2","m","rechts","23","","fixation","","","",""
"1109","img/60_150.png","70","image-keyboard-response","255","224467","0.0-6.0-1.124","VIDE","2","m","rechts","23","","","self","f","60","true"
"null","<div style=""font-size:60px;"">+</div>","null","html-keyboard-response","256","224830","0.0-6.0-0.125","VIDE","2","m","rechts","23","","fixation","","","",""
"1461","img/L60_180.png","70","image-keyboard-response","257","226301","0.0-6.0-1.125","VIDE","2","m","rechts","23","","","self","f","60","true"
"null","<div style=""font-size:60px;"">+</div>","null","html-keyboard-response","258","226783","0.0-6.0-0.126","VIDE","2","m","rechts","23","","fixation","","","",""
"698","img/90_180.png","74","image-keyboard-response","259","227493","0.0-6.0-1.126","VIDE","2","m","rechts","23","","","self","j","90","true"
"null","<div style=""font-size:60px;"">+</div>","null","html-keyboard-response","260","227860","0.0-6.0-0.127","VIDE","2","m","rechts","23","","fixation","","","",""
"1243","img/150_60.png","70","image-keyboard-response","261","229114","0.0-6.0-1.127","VIDE","2","m","rechts","23","","","self","f","150","true"
"null","<div style=""font-size:60px;"">+</div>","null","html-keyboard-response","262","229470","0.0-6.0-0.128","VIDE","2","m","rechts","23","","fixation","","","",""
"1409","img/120_270.png","74","image-keyboard-response","263","230892","0.0-6.0-1.128","VIDE","2","m","rechts","23","","","self","j","120","true"
"null","<div style=""font-size:60px;"">+</div>","null","html-keyboard-response","264","231345","0.0-6.0-0.129","VIDE","2","m","rechts","23","","fixation","","","",""
"669","img/0_120.png","74","image-keyboard-response","265","232027","0.0-6.0-1.129","VIDE","2","m","rechts","23","","","self","j","0","true"
"null","<div style=""font-size:60px;"">+</div>","null","html-keyboard-response","266","232392","0.0-6.0-0.130","VIDE","2","m","rechts","23","","fixation","","","",""
"762","img/150_120.png","70","image-keyboard-response","267","233164","0.0-6.0-1.130","VIDE","2","m","rechts","23","","","self","f","150","true"
"null","<div style=""font-size:60px;"">+</div>","null","html-keyboard-response","268","233674","0.0-6.0-0.131","VIDE","2","m","rechts","23","","fixation","","","",""
"763","img/L150_180.png","70","image-keyboard-response","269","234446","0.0-6.0-1.131","VIDE","2","m","rechts","23","","","self","f","150","true"
"null","<div style=""font-size:60px;"">+</div>","null","html-keyboard-response","270","234753","0.0-6.0-0.132","VIDE","2","m","rechts","23","","fixation","","","",""
"1416","img/30_240.png","70","image-keyboard-response","271","236179","0.0-6.0-1.132","VIDE","2","m","rechts","23","","","self","f","30","true"
"null","<div style=""font-size:60px;"">+</div>","null","html-keyboard-response","272","236690","0.0-6.0-0.133","VIDE","2","m","rechts","23","","fixation","","","",""
"1194","img/150_90.png","70","image-keyboard-response","273","237899","0.0-6.0-1.133","VIDE","2","m","rechts","23","","","self","f","150","true"
"null","<div style=""font-size:60px;"">+</div>","null","html-keyboard-response","274","238361","0.0-6.0-0.134","VIDE","2","m","rechts","23","","fixation","","","",""
"1003","img/90_120.png","70","image-keyboard-response","275","239374","0.0-6.0-1.134","VIDE","2","m","rechts","23","","","self","f","90","true"
"null","<div style=""font-size:60px;"">+</div>","null","html-keyboard-response","276","239877","0.0-6.0-0.135","VIDE","2","m","rechts","23","","fixation","","","",""
"731","img/30_120.png","70","image-keyboard-response","277","240620","0.0-6.0-1.135","VIDE","2","m","rechts","23","","","self","j","30","false"
"null","<div style=""font-size:60px;"">+</div>","null","html-keyboard-response","278","241048","0.0-6.0-0.136","VIDE","2","m","rechts","23","","fixation","","","",""
"868","img/90_240.png","74","image-keyboard-response","279","241927","0.0-6.0-1.136","VIDE","2","m","rechts","23","","","self","j","90","true"
"null","<div style=""font-size:60px;"">+</div>","null","html-keyboard-response","280","242439","0.0-6.0-0.137","VIDE","2","m","rechts","23","","fixation","","","",""
"795","img/120_180.png","74","image-keyboard-response","281","243244","0.0-6.0-1.137","VIDE","2","m","rechts","23","","","self","j","120","true"
"null","<div style=""font-size:60px;"">+</div>","null","html-keyboard-response","282","243660","0.0-6.0-0.138","VIDE","2","m","rechts","23","","fixation","","","",""
"1219","img/120_30.png","74","image-keyboard-response","283","244887","0.0-6.0-1.138","VIDE","2","m","rechts","23","","","self","j","120","true"
"null","<div style=""font-size:60px;"">+</div>","null","html-keyboard-response","284","245396","0.0-6.0-0.139","VIDE","2","m","rechts","23","","fixation","","","",""
"933","img/30_60.png","74","image-keyboard-response","285","246337","0.0-6.0-1.139","VIDE","2","m","rechts","23","","","self","j","30","true"
"null","<div style=""font-size:60px;"">+</div>","null","html-keyboard-response","286","246801","0.0-6.0-0.140","VIDE","2","m","rechts","23","","fixation","","","",""
"828","img/60_180.png","74","image-keyboard-response","287","247643","0.0-6.0-1.140","VIDE","2","m","rechts","23","","","self","j","60","true"
"null","<div style=""font-size:60px;"">+</div>","null","html-keyboard-response","288","247980","0.0-6.0-0.141","VIDE","2","m","rechts","23","","fixation","","","",""
"845","img/L30_180.png","70","image-keyboard-response","289","248835","0.0-6.0-1.141","VIDE","2","m","rechts","23","","","self","f","30","true"
"null","<div style=""font-size:60px;"">+</div>","null","html-keyboard-response","290","249315","0.0-6.0-0.142","VIDE","2","m","rechts","23","","fixation","","","",""
"778","img/120_150.png","70","image-keyboard-response","291","250106","0.0-6.0-1.142","VIDE","2","m","rechts","23","","","self","f","120","true"
"null","<div style=""font-size:60px;"">+</div>","null","html-keyboard-response","292","250535","0.0-6.0-0.143","VIDE","2","m","rechts","23","","fixation","","","",""
"727","img/30_90.png","74","image-keyboard-response","293","251275","0.0-6.0-1.143","VIDE","2","m","rechts","23","","","self","j","30","true"
"null","<div style=""font-size:60px;"">+</div>","null","html-keyboard-response","294","251597","0.0-6.0-0.144","VIDE","2","m","rechts","23","","fixation","","","",""
"1097","img/90_330.png","70","image-keyboard-response","295","252704","0.0-6.0-1.144","VIDE","2","m","rechts","23","","","self","f","90","true"
"null","<div style=""font-size:60px;"">+</div>","null","html-keyboard-response","296","253019","0.0-6.0-0.145","VIDE","2","m","rechts","23","","fixation","","","",""
"717","img/0_210.png","70","image-keyboard-response","297","253751","0.0-6.0-1.145","VIDE","2","m","rechts","23","","","self","f","0","true"
"null","<div style=""font-size:60px;"">+</div>","null","html-keyboard-response","298","254162","0.0-6.0-0.146","VIDE","2","m","rechts","23","","fixation","","","",""
"577","img/0_330.png","70","image-keyboard-response","299","254753","0.0-6.0-1.146","VIDE","2","m","rechts","23","","","self","f","0","true"
"null","<div style=""font-size:60px;"">+</div>","null","html-keyboard-response","300","255115","0.0-6.0-0.147","VIDE","2","m","rechts","23","","fixation","","","",""
"670","img/90_210.png","74","image-keyboard-response","301","255798","0.0-6.0-1.147","VIDE","2","m","rechts","23","","","self","j","90","true"
"null","<div style=""font-size:60px;"">+</div>","null","html-keyboard-response","302","256177","0.0-6.0-0.148","VIDE","2","m","rechts","23","","fixation","","","",""
"627","img/150_180.png","74","image-keyboard-response","303","256819","0.0-6.0-1.148","VIDE","2","m","rechts","23","","","self","j","150","true"
"null","<div style=""font-size:60px;"">+</div>","null","html-keyboard-response","304","257130","0.0-6.0-0.149","VIDE","2","m","rechts","23","","fixation","","","",""
"769","img/30_270.png","70","image-keyboard-response","305","257914","0.0-6.0-1.149","VIDE","2","m","rechts","23","","","self","f","30","true"
"null","<div style=""font-size:60px;"">+</div>","null","html-keyboard-response","306","258443","0.0-6.0-0.150","VIDE","2","m","rechts","23","","fixation","","","",""
"681","img/150_270.png","74","image-keyboard-response","307","259139","0.0-6.0-1.150","VIDE","2","m","rechts","23","","","self","j","150","true"
"null","<div style=""font-size:60px;"">+</div>","null","html-keyboard-response","308","259505","0.0-6.0-0.151","VIDE","2","m","rechts","23","","fixation","","","",""
"983","img/60_270.png","74","image-keyboard-response","309","260501","0.0-6.0-1.151","VIDE","2","m","rechts","23","","","self","f","60","false"
"null","<div style=""font-size:60px;"">+</div>","null","html-keyboard-response","310","260974","0.0-6.0-0.152","VIDE","2","m","rechts","23","","fixation","","","",""
"721","img/150_240.png","74","image-keyboard-response","311","261705","0.0-6.0-1.152","VIDE","2","m","rechts","23","","","self","j","150","true"
"null","<div style=""font-size:60px;"">+</div>","null","html-keyboard-response","312","262067","0.0-6.0-0.153","VIDE","2","m","rechts","23","","fixation","","","",""
"670","img/L90_180.png","70","image-keyboard-response","313","262751","0.0-6.0-1.153","VIDE","2","m","rechts","23","","","self","f","90","true"
"null","<div style=""font-size:60px;"">+</div>","null","html-keyboard-response","314","263176","0.0-6.0-0.154","VIDE","2","m","rechts","23","","fixation","","","",""
"755","img/90_30.png","74","image-keyboard-response","315","263944","0.0-6.0-1.154","VIDE","2","m","rechts","23","","","self","j","90","true"
"null","<div style=""font-size:60px;"">+</div>","null","html-keyboard-response","316","264257","0.0-6.0-0.155","VIDE","2","m","rechts","23","","fixation","","","",""
"674","img/0_60.png","74","image-keyboard-response","317","264944","0.0-6.0-1.155","VIDE","2","m","rechts","23","","","self","j","0","true"
"null","<div style=""font-size:60px;"">+</div>","null","html-keyboard-response","318","265304","0.0-6.0-0.156","VIDE","2","m","rechts","23","","fixation","","","",""
"633","img/0_240.png","70","image-keyboard-response","319","265946","0.0-6.0-1.156","VIDE","2","m","rechts","23","","","self","f","0","true"
"null","<div style=""font-size:60px;"">+</div>","null","html-keyboard-response","320","266272","0.0-6.0-0.157","VIDE","2","m","rechts","23","","fixation","","","",""
"721","img/L150_180.png","70","image-keyboard-response","321","267003","0.0-6.0-1.157","VIDE","2","m","rechts","23","","","self","f","150","true"
"null","<div style=""font-size:60px;"">+</div>","null","html-keyboard-response","322","267506","0.0-6.0-0.158","VIDE","2","m","rechts","23","","fixation","","","",""
"917","img/90_150.png","70","image-keyboard-response","323","268433","0.0-6.0-1.158","VIDE","2","m","rechts","23","","","self","f","90","true"
"null","<div style=""font-size:60px;"">+</div>","null","html-keyboard-response","324","268850","0.0-6.0-0.159","VIDE","2","m","rechts","23","","fixation","","","",""
"684","img/90_180.png","74","image-keyboard-response","325","269545","0.0-6.0-1.159","VIDE","2","m","rechts","23","","","self","j","90","true"
"null","<div style=""font-size:60px;"">+</div>","null","html-keyboard-response","326","269898","0.0-6.0-0.160","VIDE","2","m","rechts","23","","fixation","","","",""
"855","img/90_330.png","70","image-keyboard-response","327","270762","0.0-6.0-1.160","VIDE","2","m","rechts","23","","","self","f","90","true"
"null","<div style=""font-size:60px;"">+</div>","null","html-keyboard-response","328","271272","0.0-6.0-0.161","VIDE","2","m","rechts","23","","fixation","","","",""
"818","img/90_210.png","70","image-keyboard-response","329","272100","0.0-6.0-1.161","VIDE","2","m","rechts","23","","","self","j","90","false"
"null","<div style=""font-size:60px;"">+</div>","null","html-keyboard-response","330","272569","0.0-6.0-0.162","VIDE","2","m","rechts","23","","fixation","","","",""
"644","img/0_90.png","74","image-keyboard-response","331","273226","0.0-6.0-1.162","VIDE","2","m","rechts","23","","","self","j","0","true"
"null","<div style=""font-size:60px;"">+</div>","null","html-keyboard-response","332","273649","0.0-6.0-0.163","VIDE","2","m","rechts","23","","fixation","","","",""
"780","img/90_60.png","74","image-keyboard-response","333","274440","0.0-6.0-1.163","VIDE","2","m","rechts","23","","","self","j","90","true"
"null","<div style=""font-size:60px;"">+</div>","null","html-keyboard-response","334","274821","0.0-6.0-0.164","VIDE","2","m","rechts","23","","fixation","","","",""
"703","img/120_150.png","74","image-keyboard-response","335","275532","0.0-6.0-1.164","VIDE","2","m","rechts","23","","","self","f","120","false"
"null","<div style=""font-size:60px;"">+</div>","null","html-keyboard-response","336","275852","0.0-6.0-0.165","VIDE","2","m","rechts","23","","fixation","","","",""
"906","img/30_240.png","70","image-keyboard-response","337","276769","0.0-6.0-1.165","VIDE","2","m","rechts","23","","","self","f","30","true"
"null","<div style=""font-size:60px;"">+</div>","null","html-keyboard-response","338","277274","0.0-6.0-0.166","VIDE","2","m","rechts","23","","fixation","","","",""
"903","img/90_30.png","74","image-keyboard-response","339","278187","0.0-6.0-1.166","VIDE","2","m","rechts","23","","","self","j","90","true"
"null","<div style=""font-size:60px;"">+</div>","null","html-keyboard-response","340","278601","0.0-6.0-0.167","VIDE","2","m","rechts","23","","fixation","","","",""
"618","img/0_150.png","74","image-keyboard-response","341","279232","0.0-6.0-1.167","VIDE","2","m","rechts","23","","","self","j","0","true"
"null","<div style=""font-size:60px;"">+</div>","null","html-keyboard-response","342","279601","0.0-6.0-0.168","VIDE","2","m","rechts","23","","fixation","","","",""
"634","img/0_210.png","70","image-keyboard-response","343","280248","0.0-6.0-1.168","VIDE","2","m","rechts","23","","","self","f","0","true"
"null","<div style=""font-size:60px;"">+</div>","null","html-keyboard-response","344","280554","0.0-6.0-0.169","VIDE","2","m","rechts","23","","fixation","","","",""
"905","img/90_300.png","70","image-keyboard-response","345","281472","0.0-6.0-1.169","VIDE","2","m","rechts","23","","","self","f","90","true"
"null","<div style=""font-size:60px;"">+</div>","null","html-keyboard-response","346","281898","0.0-6.0-0.170","VIDE","2","m","rechts","23","","fixation","","","",""
"885","img/30_300.png","70","image-keyboard-response","347","282798","0.0-6.0-1.170","VIDE","2","m","rechts","23","","","self","f","30","true"
"null","<div style=""font-size:60px;"">+</div>","null","html-keyboard-response","348","283102","0.0-6.0-0.171","VIDE","2","m","rechts","23","","fixation","","","",""
"993","img/150_90.png","70","image-keyboard-response","349","284105","0.0-6.0-1.171","VIDE","2","m","rechts","23","","","self","f","150","true"
"null","<div style=""font-size:60px;"">+</div>","null","html-keyboard-response","350","284557","0.0-6.0-0.172","VIDE","2","m","rechts","23","","fixation","","","",""
"618","img/L90_180.png","70","image-keyboard-response","351","285185","0.0-6.0-1.172","VIDE","2","m","rechts","23","","","self","f","90","true"
"null","<div style=""font-size:60px;"">+</div>","null","html-keyboard-response","352","285696","0.0-6.0-0.173","VIDE","2","m","rechts","23","","fixation","","","",""
"1144","img/30_180.png","74","image-keyboard-response","353","286849","0.0-6.0-1.173","VIDE","2","m","rechts","23","","","self","j","30","true"
"null","<div style=""font-size:60px;"">+</div>","null","html-keyboard-response","354","287206","0.0-6.0-0.174","VIDE","2","m","rechts","23","","fixation","","","",""
"804","img/150_120.png","70","image-keyboard-response","355","288020","0.0-6.0-1.174","VIDE","2","m","rechts","23","","","self","f","150","true"
"null","<div style=""font-size:60px;"">+</div>","null","html-keyboard-response","356","288393","0.0-6.0-0.175","VIDE","2","m","rechts","23","","fixation","","","",""
"853","img/60_150.png","70","image-keyboard-response","357","289256","0.0-6.0-1.175","VIDE","2","m","rechts","23","","","self","f","60","true"
"null","<div style=""font-size:60px;"">+</div>","null","html-keyboard-response","358","289722","0.0-6.0-0.176","VIDE","2","m","rechts","23","","fixation","","","",""
"589","img/0_300.png","70","image-keyboard-response","359","290326","0.0-6.0-1.176","VIDE","2","m","rechts","23","","","self","f","0","true"
"null","<div style=""font-size:60px;"">+</div>","null","html-keyboard-response","360","290752","0.0-6.0-0.177","VIDE","2","m","rechts","23","","fixation","","","",""
"801","img/150_180.png","74","image-keyboard-response","361","291563","0.0-6.0-1.177","VIDE","2","m","rechts","23","","","self","j","150","true"
"null","<div style=""font-size:60px;"">+</div>","null","html-keyboard-response","362","292035","0.0-6.0-0.178","VIDE","2","m","rechts","23","","fixation","","","",""
"1574","img/90_240.png","74","image-keyboard-response","363","293622","0.0-6.0-1.178","VIDE","2","m","rechts","23","","","self","j","90","true"
"null","<div style=""font-size:60px;"">+</div>","null","html-keyboard-response","364","294130","0.0-6.0-0.179","VIDE","2","m","rechts","23","","fixation","","","",""
"1007","img/120_210.png","74","image-keyboard-response","365","295150","0.0-6.0-1.179","VIDE","2","m","rechts","23","","","self","j","120","true"
"null","<div style=""font-size:60px;"">+</div>","null","html-keyboard-response","366","295661","0.0-6.0-0.180","VIDE","2","m","rechts","23","","fixation","","","",""
"801","img/L60_180.png","70","image-keyboard-response","367","296477","0.0-6.0-1.180","VIDE","2","m","rechts","23","","","self","f","60","true"
"null","<div style=""font-size:60px;"">+</div>","null","html-keyboard-response","368","296785","0.0-6.0-0.181","VIDE","2","m","rechts","23","","fixation","","","",""
"828","img/60_90.png","74","image-keyboard-response","369","297616","0.0-6.0-1.181","VIDE","2","m","rechts","23","","","self","j","60","true"
"null","<div style=""font-size:60px;"">+</div>","null","html-keyboard-response","370","298020","0.0-6.0-0.182","VIDE","2","m","rechts","23","","fixation","","","",""
"1026","img/0_330.png","70","image-keyboard-response","371","299056","0.0-6.0-1.182","VIDE","2","m","rechts","23","","","self","f","0","true"
"null","<div style=""font-size:60px;"">+</div>","null","html-keyboard-response","372","299473","0.0-6.0-0.183","VIDE","2","m","rechts","23","","fixation","","","",""
"952","img/60_330.png","70","image-keyboard-response","373","300439","0.0-6.0-1.183","VIDE","2","m","rechts","23","","","self","f","60","true"
"null","<div style=""font-size:60px;"">+</div>","null","html-keyboard-response","374","300848","0.0-6.0-0.184","VIDE","2","m","rechts","23","","fixation","","","",""
"861","img/120_90.png","70","image-keyboard-response","375","301723","0.0-6.0-1.184","VIDE","2","m","rechts","23","","","self","f","120","true"
"null","<div style=""font-size:60px;"">+</div>","null","html-keyboard-response","376","302129","0.0-6.0-0.185","VIDE","2","m","rechts","23","","fixation","","","",""
"480","img/120_30.png","70","image-keyboard-response","377","302622","0.0-6.0-1.185","VIDE","2","m","rechts","23","","","self","j","120","false"
"null","<div style=""font-size:60px;"">+</div>","null","html-keyboard-response","378","302941","0.0-6.0-0.186","VIDE","2","m","rechts","23","","fixation","","","",""
"657","img/0_30.png","74","image-keyboard-response","379","303611","0.0-6.0-1.186","VIDE","2","m","rechts","23","","","self","j","0","true"
"null","<div style=""font-size:60px;"">+</div>","null","html-keyboard-response","380","303990","0.0-6.0-0.187","VIDE","2","m","rechts","23","","fixation","","","",""
"1397","img/120_330.png","70","image-keyboard-response","381","305401","0.0-6.0-1.187","VIDE","2","m","rechts","23","","","self","f","120","true"
"null","<div style=""font-size:60px;"">+</div>","null","html-keyboard-response","382","305865","0.0-6.0-0.188","VIDE","2","m","rechts","23","","fixation","","","",""
"1766","img/150_240.png","74","image-keyboard-response","383","307641","0.0-6.0-1.188","VIDE","2","m","rechts","23","","","self","j","150","true"
"null","<div style=""font-size:60px;"">+</div>","null","html-keyboard-response","384","308005","0.0-6.0-0.189","VIDE","2","m","rechts","23","","fixation","","","",""
"715","img/0_60.png","74","image-keyboard-response","385","308730","0.0-6.0-1.189","VIDE","2","m","rechts","23","","","self","j","0","true"
"null","<div style=""font-size:60px;"">+</div>","null","html-keyboard-response","386","309053","0.0-6.0-0.190","VIDE","2","m","rechts","23","","fixation","","","",""
"760","img/150_270.png","74","image-keyboard-response","387","309822","0.0-6.0-1.190","VIDE","2","m","rechts","23","","","self","j","150","true"
"null","<div style=""font-size:60px;"">+</div>","null","html-keyboard-response","388","310225","0.0-6.0-0.191","VIDE","2","m","rechts","23","","fixation","","","",""
"657","img/30_270.png","74","image-keyboard-response","389","310891","0.0-6.0-1.191","VIDE","2","m","rechts","23","","","self","f","30","false"
"null","<div style=""font-size:60px;"">+</div>","null","html-keyboard-response","390","311365","0.0-6.0-0.192","VIDE","2","m","rechts","23","","fixation","","","",""
"1614","img/150_300.png","74","image-keyboard-response","391","312993","0.0-6.0-1.192","VIDE","2","m","rechts","23","","","self","j","150","true"
"null","<div style=""font-size:60px;"">+</div>","null","html-keyboard-response","392","313349","0.0-6.0-0.193","VIDE","2","m","rechts","23","","fixation","","","",""
"733","img/0_270.png","70","image-keyboard-response","393","314096","0.0-6.0-1.193","VIDE","2","m","rechts","23","","","self","f","0","true"
"null","<div style=""font-size:60px;"">+</div>","null","html-keyboard-response","394","314397","0.0-6.0-0.194","VIDE","2","m","rechts","23","","fixation","","","",""
"575","img/0_120.png","74","image-keyboard-response","395","314985","0.0-6.0-1.194","VIDE","2","m","rechts","23","","","self","j","0","true"
"null","<div style=""font-size:60px;"">+</div>","null","html-keyboard-response","396","315288","0.0-6.0-0.195","VIDE","2","m","rechts","23","","fixation","","","",""
"762","img/90_120.png","70","image-keyboard-response","397","316066","0.0-6.0-1.195","VIDE","2","m","rechts","23","","","self","f","90","true"
"null","<div style=""font-size:60px;"">+</div>","null","html-keyboard-response","398","316429","0.0-6.0-0.196","VIDE","2","m","rechts","23","","fixation","","","",""
"843","img/60_270.png","70","image-keyboard-response","399","317282","0.0-6.0-1.196","VIDE","2","m","rechts","23","","","self","f","60","true"
"null","<div style=""font-size:60px;"">+</div>","null","html-keyboard-response","400","317741","0.0-6.0-0.197","VIDE","2","m","rechts","23","","fixation","","","",""
"572","img/120_270.png","70","image-keyboard-response","401","318327","0.0-6.0-1.197","VIDE","2","m","rechts","23","","","self","j","120","false"
"null","<div style=""font-size:60px;"">+</div>","null","html-keyboard-response","402","318788","0.0-6.0-0.198","VIDE","2","m","rechts","23","","fixation","","","",""
"1003","img/30_120.png","74","image-keyboard-response","403","319801","0.0-6.0-1.198","VIDE","2","m","rechts","23","","","self","j","30","true"
"null","<div style=""font-size:60px;"">+</div>","null","html-keyboard-response","404","320256","0.0-6.0-0.199","VIDE","2","m","rechts","23","","fixation","","","",""
"857","img/L30_180.png","70","image-keyboard-response","405","321127","0.0-6.0-1.199","VIDE","2","m","rechts","23","","","self","f","30","true"
"null","<div style=""font-size:60px;"">+</div>","null","html-keyboard-response","406","321507","0.0-6.0-0.200","VIDE","2","m","rechts","23","","fixation","","","",""
"793","img/30_90.png","74","image-keyboard-response","407","322310","0.0-6.0-1.200","VIDE","2","m","rechts","23","","","self","j","30","true"
"null","<div style=""font-size:60px;"">+</div>","null","html-keyboard-response","408","322618","0.0-6.0-0.201","VIDE","2","m","rechts","23","","fixation","","","",""
"801","img/120_180.png","74","image-keyboard-response","409","323434","0.0-6.0-1.201","VIDE","2","m","rechts","23","","","self","j","120","true"
"null","<div style=""font-size:60px;"">+</div>","null","html-keyboard-response","410","323790","0.0-6.0-0.202","VIDE","2","m","rechts","23","","fixation","","","",""
"848","img/L120_180.png","70","image-keyboard-response","411","324651","0.0-6.0-1.202","VIDE","2","m","rechts","23","","","self","f","120","true"
"null","<div style=""font-size:60px;"">+</div>","null","html-keyboard-response","412","324977","0.0-6.0-0.203","VIDE","2","m","rechts","23","","fixation","","","",""
"931","img/60_210.png","74","image-keyboard-response","413","325921","0.0-6.0-1.203","VIDE","2","m","rechts","23","","","self","j","60","true"
"null","<div style=""font-size:60px;"">+</div>","null","html-keyboard-response","414","326273","0.0-6.0-0.204","VIDE","2","m","rechts","23","","fixation","","","",""
"670","img/60_30.png","74","image-keyboard-response","415","326956","0.0-6.0-1.204","VIDE","2","m","rechts","23","","","self","j","60","true"
"null","<div style=""font-size:60px;"">+</div>","null","html-keyboard-response","416","327320","0.0-6.0-0.205","VIDE","2","m","rechts","23","","fixation","","","",""
"579","img/60_180.png","74","image-keyboard-response","417","327912","0.0-6.0-1.205","VIDE","2","m","rechts","23","","","self","j","60","true"
"null","<div style=""font-size:60px;"">+</div>","null","html-keyboard-response","418","328241","0.0-6.0-0.206","VIDE","2","m","rechts","23","","fixation","","","",""
"1289","img/150_60.png","70","image-keyboard-response","419","329544","0.0-6.0-1.206","VIDE","2","m","rechts","23","","","self","f","150","true"
"null","<div style=""font-size:60px;"">+</div>","null","html-keyboard-response","420","330009","0.0-6.0-0.207","VIDE","2","m","rechts","23","","fixation","","","",""
"758","img/30_60.png","74","image-keyboard-response","421","330782","0.0-6.0-1.207","VIDE","2","m","rechts","23","","","self","j","30","true"
"8729","<p>Du hast in 90% der Versuche korrekt entschieden.</p><p>Deine durchschnittliche Reaktionszeit war  869ms.</p><p>Dr&uuml;cke eine beliebige Taste, um die Session zu beenden. Vielen Dank!</p>","32","html-keyboard-response","422","339516","0.0-7.0","VIDE","2","m","rechts","23","","","","","",""
