"rt","stimulus","key_press","trial_type","trial_index","time_elapsed","internal_node_id","subject","session","sex","handedness","age","responses","test_part","condition","correct_response","angle","correct"
"1502","<p>Mental Rotation Experiment.</p> <p>Dr&uuml;cke eine beliebige Taste, um anzufangen.</p>","13","html-keyboard-response","0","1519","0.0-0.0","VIDE","1","m","rechts","23","","","","","",""
"3838","","","survey-text","1","5361","0.0-1.0","VIDE","1","m","rechts","23","{""Q0"":""VIDE""}","","","","",""
"11410","","","survey-text","2","16771","0.0-2.0","VIDE","1","m","rechts","23","{""Q0"":""1""}","","","","",""
"10686","","","survey-multi-choice","3","27471","0.0-3.0","VIDE","1","m","rechts","23","{""Q0"":""m"",""Q1"":""rechts""}","","","","",""
"2980","","","survey-text","4","30453","0.0-4.0","VIDE","1","m","rechts","23","{""Q0"":""23""}","","","","",""
"26632","<p> Stell dir vor, dass du vor einem runden Tisch stehst, auf dem sich ein blauer Ball am Tischrand befindet. Entlang des Tischrands ist jeweils ein verschieden langer Pfeil. Nun bewegst du dich entlang dieses Pfeils bis an seine Spitze. Wenn du am Ende des Pfeils angekommen bist, schau zur Tischmitte. </p> <img src='img/90_180.png'></img> <br> <p>Entscheide dann, ob der Ball von deiner neuen (vorgestellten) Position links oder rechts von dir liegt.</p> <p>Dr&uuml;cke die <strong>'f'</strong>-Taste f&uuml;r links, die <strong>'j'</strong>-Taste f&uuml;r rechts.</p> <br><p> Das Bild wird jeweils 1 Sekunde lang pr&auml;sentiert. Du hast 3 Sekunden Zeit eine Entscheidung zu treffen.</p>","74","html-keyboard-response","5","57093","0.0-5.0","VIDE","1","m","rechts","23","","","","","",""
"null","<div style=""font-size:60px;"">+</div>","null","html-keyboard-response","6","58575","0.0-6.0-0.0","VIDE","1","m","rechts","23","","fixation","","","",""
"1971","img/60_150.png","70","image-keyboard-response","7","60570","0.0-6.0-1.0","VIDE","1","m","rechts","23","","","self","f","60","true"
"null","<div style=""font-size:60px;"">+</div>","null","html-keyboard-response","8","60926","0.0-6.0-0.1","VIDE","1","m","rechts","23","","fixation","","","",""
"1534","img/L60_180.png","70","image-keyboard-response","9","62478","0.0-6.0-1.1","VIDE","1","m","rechts","23","","","self","f","60","true"
"null","<div style=""font-size:60px;"">+</div>","null","html-keyboard-response","10","62956","0.0-6.0-0.2","VIDE","1","m","rechts","23","","fixation","","","",""
"997","img/0_210.png","70","image-keyboard-response","11","63972","0.0-6.0-1.2","VIDE","1","m","rechts","23","","","self","f","0","true"
"null","<div style=""font-size:60px;"">+</div>","null","html-keyboard-response","12","64331","0.0-6.0-0.3","VIDE","1","m","rechts","23","","fixation","","","",""
"1797","img/150_240.png","74","image-keyboard-response","13","66145","0.0-6.0-1.3","VIDE","1","m","rechts","23","","","self","j","150","true"
"null","<div style=""font-size:60px;"">+</div>","null","html-keyboard-response","14","66655","0.0-6.0-0.4","VIDE","1","m","rechts","23","","fixation","","","",""
"1431","img/L90_180.png","70","image-keyboard-response","15","68103","0.0-6.0-1.4","VIDE","1","m","rechts","23","","","self","f","90","true"
"null","<div style=""font-size:60px;"">+</div>","null","html-keyboard-response","16","68467","0.0-6.0-0.5","VIDE","1","m","rechts","23","","fixation","","","",""
"1132","img/150_180.png","74","image-keyboard-response","17","69619","0.0-6.0-1.5","VIDE","1","m","rechts","23","","","self","j","150","true"
"null","<div style=""font-size:60px;"">+</div>","null","html-keyboard-response","18","70139","0.0-6.0-0.6","VIDE","1","m","rechts","23","","fixation","","","",""
"1355","img/0_300.png","70","image-keyboard-response","19","71512","0.0-6.0-1.6","VIDE","1","m","rechts","23","","","self","f","0","true"
"null","<div style=""font-size:60px;"">+</div>","null","html-keyboard-response","20","72045","0.0-6.0-0.7","VIDE","1","m","rechts","23","","fixation","","","",""
"1012","img/L30_180.png","70","image-keyboard-response","21","73076","0.0-6.0-1.7","VIDE","1","m","rechts","23","","","self","f","30","true"
"null","<div style=""font-size:60px;"">+</div>","null","html-keyboard-response","22","73591","0.0-6.0-0.8","VIDE","1","m","rechts","23","","fixation","","","",""
"1355","img/60_180.png","74","image-keyboard-response","23","74967","0.0-6.0-1.8","VIDE","1","m","rechts","23","","","self","j","60","true"
"null","<div style=""font-size:60px;"">+</div>","null","html-keyboard-response","24","75421","0.0-6.0-0.9","VIDE","1","m","rechts","23","","fixation","","","",""
"1529","img/60_90.png","74","image-keyboard-response","25","76969","0.0-6.0-1.9","VIDE","1","m","rechts","23","","","self","j","60","true"
"null","<div style=""font-size:60px;"">+</div>","null","html-keyboard-response","26","77421","0.0-6.0-0.10","VIDE","1","m","rechts","23","","fixation","","","",""
"1498","img/90_60.png","74","image-keyboard-response","27","78937","0.0-6.0-1.10","VIDE","1","m","rechts","23","","","self","j","90","true"
"null","<div style=""font-size:60px;"">+</div>","null","html-keyboard-response","28","79249","0.0-6.0-0.11","VIDE","1","m","rechts","23","","fixation","","","",""
"1661","img/90_240.png","74","image-keyboard-response","29","80928","0.0-6.0-1.11","VIDE","1","m","rechts","23","","","self","j","90","true"
"null","<div style=""font-size:60px;"">+</div>","null","html-keyboard-response","30","81437","0.0-6.0-0.12","VIDE","1","m","rechts","23","","fixation","","","",""
"1148","img/120_150.png","70","image-keyboard-response","31","82604","0.0-6.0-1.12","VIDE","1","m","rechts","23","","","self","f","120","true"
"null","<div style=""font-size:60px;"">+</div>","null","html-keyboard-response","32","82967","0.0-6.0-0.13","VIDE","1","m","rechts","23","","fixation","","","",""
"1172","img/120_30.png","74","image-keyboard-response","33","84157","0.0-6.0-1.13","VIDE","1","m","rechts","23","","","self","j","120","true"
"null","<div style=""font-size:60px;"">+</div>","null","html-keyboard-response","34","84513","0.0-6.0-0.14","VIDE","1","m","rechts","23","","fixation","","","",""
"1311","img/90_210.png","74","image-keyboard-response","35","85845","0.0-6.0-1.14","VIDE","1","m","rechts","23","","","self","j","90","true"
"null","<div style=""font-size:60px;"">+</div>","null","html-keyboard-response","36","86298","0.0-6.0-0.15","VIDE","1","m","rechts","23","","fixation","","","",""
"797","img/90_180.png","74","image-keyboard-response","37","87105","0.0-6.0-1.15","VIDE","1","m","rechts","23","","","self","j","90","true"
"null","<div style=""font-size:60px;"">+</div>","null","html-keyboard-response","38","87608","0.0-6.0-0.16","VIDE","1","m","rechts","23","","fixation","","","",""
"1677","img/150_120.png","70","image-keyboard-response","39","89299","0.0-6.0-1.16","VIDE","1","m","rechts","23","","","self","f","150","true"
"null","<div style=""font-size:60px;"">+</div>","null","html-keyboard-response","40","89671","0.0-6.0-0.17","VIDE","1","m","rechts","23","","fixation","","","",""
"1038","img/120_90.png","70","image-keyboard-response","41","90727","0.0-6.0-1.17","VIDE","1","m","rechts","23","","","self","f","120","true"
"null","<div style=""font-size:60px;"">+</div>","null","html-keyboard-response","42","91093","0.0-6.0-0.18","VIDE","1","m","rechts","23","","fixation","","","",""
"819","img/0_120.png","74","image-keyboard-response","43","91931","0.0-6.0-1.18","VIDE","1","m","rechts","23","","","self","j","0","true"
"null","<div style=""font-size:60px;"">+</div>","null","html-keyboard-response","44","92343","0.0-6.0-0.19","VIDE","1","m","rechts","23","","fixation","","","",""
"1233","img/30_120.png","74","image-keyboard-response","45","93595","0.0-6.0-1.19","VIDE","1","m","rechts","23","","","self","j","30","true"
"null","<div style=""font-size:60px;"">+</div>","null","html-keyboard-response","46","94109","0.0-6.0-0.20","VIDE","1","m","rechts","23","","fixation","","","",""
"1056","img/120_180.png","74","image-keyboard-response","47","95183","0.0-6.0-1.20","VIDE","1","m","rechts","23","","","self","j","120","true"
"null","<div style=""font-size:60px;"">+</div>","null","html-keyboard-response","48","95656","0.0-6.0-0.21","VIDE","1","m","rechts","23","","fixation","","","",""
"971","img/0_330.png","70","image-keyboard-response","49","96645","0.0-6.0-1.21","VIDE","1","m","rechts","23","","","self","f","0","true"
"null","<div style=""font-size:60px;"">+</div>","null","html-keyboard-response","50","97125","0.0-6.0-0.22","VIDE","1","m","rechts","23","","fixation","","","",""
"1123","img/60_30.png","74","image-keyboard-response","51","98265","0.0-6.0-1.22","VIDE","1","m","rechts","23","","","self","j","60","true"
"null","<div style=""font-size:60px;"">+</div>","null","html-keyboard-response","52","98624","0.0-6.0-0.23","VIDE","1","m","rechts","23","","fixation","","","",""
"846","img/0_60.png","74","image-keyboard-response","53","99480","0.0-6.0-1.23","VIDE","1","m","rechts","23","","","self","j","0","true"
"null","<div style=""font-size:60px;"">+</div>","null","html-keyboard-response","54","99998","0.0-6.0-0.24","VIDE","1","m","rechts","23","","fixation","","","",""
"779","img/0_240.png","70","image-keyboard-response","55","100796","0.0-6.0-1.24","VIDE","1","m","rechts","23","","","self","f","0","true"
"null","<div style=""font-size:60px;"">+</div>","null","html-keyboard-response","56","101314","0.0-6.0-0.25","VIDE","1","m","rechts","23","","fixation","","","",""
"1017","img/120_210.png","70","image-keyboard-response","57","102349","0.0-6.0-1.25","VIDE","1","m","rechts","23","","","self","j","120","false"
"null","<div style=""font-size:60px;"">+</div>","null","html-keyboard-response","58","102656","0.0-6.0-0.26","VIDE","1","m","rechts","23","","fixation","","","",""
"1191","img/150_90.png","74","image-keyboard-response","59","103868","0.0-6.0-1.26","VIDE","1","m","rechts","23","","","self","f","150","false"
"null","<div style=""font-size:60px;"">+</div>","null","html-keyboard-response","60","104297","0.0-6.0-0.27","VIDE","1","m","rechts","23","","fixation","","","",""
"1276","img/0_30.png","74","image-keyboard-response","61","105580","0.0-6.0-1.27","VIDE","1","m","rechts","23","","","self","j","0","true"
"null","<div style=""font-size:60px;"">+</div>","null","html-keyboard-response","62","106049","0.0-6.0-0.28","VIDE","1","m","rechts","23","","fixation","","","",""
"1016","img/0_150.png","74","image-keyboard-response","63","107085","0.0-6.0-1.28","VIDE","1","m","rechts","23","","","self","j","0","true"
"null","<div style=""font-size:60px;"">+</div>","null","html-keyboard-response","64","107548","0.0-6.0-0.29","VIDE","1","m","rechts","23","","fixation","","","",""
"1261","img/90_150.png","70","image-keyboard-response","65","108828","0.0-6.0-1.29","VIDE","1","m","rechts","23","","","self","f","90","true"
"null","<div style=""font-size:60px;"">+</div>","null","html-keyboard-response","66","109203","0.0-6.0-0.30","VIDE","1","m","rechts","23","","fixation","","","",""
"1319","img/60_330.png","70","image-keyboard-response","67","110539","0.0-6.0-1.30","VIDE","1","m","rechts","23","","","self","f","60","true"
"null","<div style=""font-size:60px;"">+</div>","null","html-keyboard-response","68","110971","0.0-6.0-0.31","VIDE","1","m","rechts","23","","fixation","","","",""
"1296","img/150_270.png","70","image-keyboard-response","69","112294","0.0-6.0-1.31","VIDE","1","m","rechts","23","","","self","j","150","false"
"null","<div style=""font-size:60px;"">+</div>","null","html-keyboard-response","70","112751","0.0-6.0-0.32","VIDE","1","m","rechts","23","","fixation","","","",""
"987","img/30_60.png","74","image-keyboard-response","71","113757","0.0-6.0-1.32","VIDE","1","m","rechts","23","","","self","j","30","true"
"null","<div style=""font-size:60px;"">+</div>","null","html-keyboard-response","72","114065","0.0-6.0-0.33","VIDE","1","m","rechts","23","","fixation","","","",""
"1800","img/60_210.png","70","image-keyboard-response","73","115883","0.0-6.0-1.33","VIDE","1","m","rechts","23","","","self","j","60","false"
"null","<div style=""font-size:60px;"">+</div>","null","html-keyboard-response","74","116190","0.0-6.0-0.34","VIDE","1","m","rechts","23","","fixation","","","",""
"1426","img/120_330.png","74","image-keyboard-response","75","117637","0.0-6.0-1.34","VIDE","1","m","rechts","23","","","self","f","120","false"
"null","<div style=""font-size:60px;"">+</div>","null","html-keyboard-response","76","118048","0.0-6.0-0.35","VIDE","1","m","rechts","23","","fixation","","","",""
"1277","img/120_270.png","74","image-keyboard-response","77","119337","0.0-6.0-1.35","VIDE","1","m","rechts","23","","","self","j","120","true"
"null","<div style=""font-size:60px;"">+</div>","null","html-keyboard-response","78","119768","0.0-6.0-0.36","VIDE","1","m","rechts","23","","fixation","","","",""
"831","img/0_270.png","70","image-keyboard-response","79","120617","0.0-6.0-1.36","VIDE","1","m","rechts","23","","","self","f","0","true"
"null","<div style=""font-size:60px;"">+</div>","null","html-keyboard-response","80","121144","0.0-6.0-0.37","VIDE","1","m","rechts","23","","fixation","","","",""
"1399","img/30_270.png","70","image-keyboard-response","81","122565","0.0-6.0-1.37","VIDE","1","m","rechts","23","","","self","f","30","true"
"null","<div style=""font-size:60px;"">+</div>","null","html-keyboard-response","82","122931","0.0-6.0-0.38","VIDE","1","m","rechts","23","","fixation","","","",""
"1123","img/90_30.png","74","image-keyboard-response","83","124072","0.0-6.0-1.38","VIDE","1","m","rechts","23","","","self","j","90","true"
"null","<div style=""font-size:60px;"">+</div>","null","html-keyboard-response","84","124602","0.0-6.0-0.39","VIDE","1","m","rechts","23","","fixation","","","",""
"859","img/0_90.png","74","image-keyboard-response","85","125479","0.0-6.0-1.39","VIDE","1","m","rechts","23","","","self","j","0","true"
"null","<div style=""font-size:60px;"">+</div>","null","html-keyboard-response","86","125789","0.0-6.0-0.40","VIDE","1","m","rechts","23","","fixation","","","",""
"1164","img/90_300.png","70","image-keyboard-response","87","126972","0.0-6.0-1.40","VIDE","1","m","rechts","23","","","self","f","90","true"
"null","<div style=""font-size:60px;"">+</div>","null","html-keyboard-response","88","127478","0.0-6.0-0.41","VIDE","1","m","rechts","23","","fixation","","","",""
"1841","img/L150_180.png","70","image-keyboard-response","89","129337","0.0-6.0-1.41","VIDE","1","m","rechts","23","","","self","f","150","true"
"null","<div style=""font-size:60px;"">+</div>","null","html-keyboard-response","90","129805","0.0-6.0-0.42","VIDE","1","m","rechts","23","","fixation","","","",""
"1676","img/30_180.png","74","image-keyboard-response","91","131498","0.0-6.0-1.42","VIDE","1","m","rechts","23","","","self","j","30","true"
"null","<div style=""font-size:60px;"">+</div>","null","html-keyboard-response","92","131962","0.0-6.0-0.43","VIDE","1","m","rechts","23","","fixation","","","",""
"1486","img/60_270.png","70","image-keyboard-response","93","133466","0.0-6.0-1.43","VIDE","1","m","rechts","23","","","self","f","60","true"
"null","<div style=""font-size:60px;"">+</div>","null","html-keyboard-response","94","133822","0.0-6.0-0.44","VIDE","1","m","rechts","23","","fixation","","","",""
"1910","img/L120_180.png","70","image-keyboard-response","95","135751","0.0-6.0-1.44","VIDE","1","m","rechts","23","","","self","f","120","true"
"null","<div style=""font-size:60px;"">+</div>","null","html-keyboard-response","96","136119","0.0-6.0-0.45","VIDE","1","m","rechts","23","","fixation","","","",""
"1122","img/30_90.png","74","image-keyboard-response","97","137259","0.0-6.0-1.45","VIDE","1","m","rechts","23","","","self","j","30","true"
"null","<div style=""font-size:60px;"">+</div>","null","html-keyboard-response","98","137572","0.0-6.0-0.46","VIDE","1","m","rechts","23","","fixation","","","",""
"1592","img/90_120.png","70","image-keyboard-response","99","139183","0.0-6.0-1.46","VIDE","1","m","rechts","23","","","self","f","90","true"
"null","<div style=""font-size:60px;"">+</div>","null","html-keyboard-response","100","139649","0.0-6.0-0.47","VIDE","1","m","rechts","23","","fixation","","","",""
"1382","img/30_300.png","70","image-keyboard-response","101","141049","0.0-6.0-1.47","VIDE","1","m","rechts","23","","","self","f","30","true"
"null","<div style=""font-size:60px;"">+</div>","null","html-keyboard-response","102","141353","0.0-6.0-0.48","VIDE","1","m","rechts","23","","fixation","","","",""
"1613","img/150_300.png","74","image-keyboard-response","103","142996","0.0-6.0-1.48","VIDE","1","m","rechts","23","","","self","j","150","true"
"null","<div style=""font-size:60px;"">+</div>","null","html-keyboard-response","104","143308","0.0-6.0-0.49","VIDE","1","m","rechts","23","","fixation","","","",""
"1560","img/90_330.png","70","image-keyboard-response","105","144886","0.0-6.0-1.49","VIDE","1","m","rechts","23","","","self","f","90","true"
"null","<div style=""font-size:60px;"">+</div>","null","html-keyboard-response","106","145417","0.0-6.0-0.50","VIDE","1","m","rechts","23","","fixation","","","",""
"1645","img/30_240.png","70","image-keyboard-response","107","147080","0.0-6.0-1.50","VIDE","1","m","rechts","23","","","self","f","30","true"
"null","<div style=""font-size:60px;"">+</div>","null","html-keyboard-response","108","147433","0.0-6.0-0.51","VIDE","1","m","rechts","23","","fixation","","","",""
"1373","img/150_60.png","70","image-keyboard-response","109","148822","0.0-6.0-1.51","VIDE","1","m","rechts","23","","","self","f","150","true"
"null","<div style=""font-size:60px;"">+</div>","null","html-keyboard-response","110","149197","0.0-6.0-0.52","VIDE","1","m","rechts","23","","fixation","","","",""
"1426","img/150_90.png","70","image-keyboard-response","111","150633","0.0-6.0-1.52","VIDE","1","m","rechts","23","","","self","f","150","true"
"null","<div style=""font-size:60px;"">+</div>","null","html-keyboard-response","112","151059","0.0-6.0-0.53","VIDE","1","m","rechts","23","","fixation","","","",""
"1151","img/90_150.png","70","image-keyboard-response","113","152220","0.0-6.0-1.53","VIDE","1","m","rechts","23","","","self","f","90","true"
"null","<div style=""font-size:60px;"">+</div>","null","html-keyboard-response","114","152685","0.0-6.0-0.54","VIDE","1","m","rechts","23","","fixation","","","",""
"909","img/0_300.png","70","image-keyboard-response","115","153604","0.0-6.0-1.54","VIDE","1","m","rechts","23","","","self","f","0","true"
"null","<div style=""font-size:60px;"">+</div>","null","html-keyboard-response","116","154011","0.0-6.0-0.55","VIDE","1","m","rechts","23","","fixation","","","",""
"921","img/0_60.png","74","image-keyboard-response","117","154943","0.0-6.0-1.55","VIDE","1","m","rechts","23","","","self","j","0","true"
"null","<div style=""font-size:60px;"">+</div>","null","html-keyboard-response","118","155309","0.0-6.0-0.56","VIDE","1","m","rechts","23","","fixation","","","",""
"1197","img/0_120.png","74","image-keyboard-response","119","156518","0.0-6.0-1.56","VIDE","1","m","rechts","23","","","self","j","0","true"
"null","<div style=""font-size:60px;"">+</div>","null","html-keyboard-response","120","156996","0.0-6.0-0.57","VIDE","1","m","rechts","23","","fixation","","","",""
"1365","img/120_90.png","70","image-keyboard-response","121","158374","0.0-6.0-1.57","VIDE","1","m","rechts","23","","","self","f","120","true"
"null","<div style=""font-size:60px;"">+</div>","null","html-keyboard-response","122","158806","0.0-6.0-0.58","VIDE","1","m","rechts","23","","fixation","","","",""
"1146","img/150_300.png","70","image-keyboard-response","123","159962","0.0-6.0-1.58","VIDE","1","m","rechts","23","","","self","j","150","false"
"null","<div style=""font-size:60px;"">+</div>","null","html-keyboard-response","124","160373","0.0-6.0-0.59","VIDE","1","m","rechts","23","","fixation","","","",""
"1311","img/90_330.png","70","image-keyboard-response","125","161693","0.0-6.0-1.59","VIDE","1","m","rechts","23","","","self","f","90","true"
"null","<div style=""font-size:60px;"">+</div>","null","html-keyboard-response","126","161998","0.0-6.0-0.60","VIDE","1","m","rechts","23","","fixation","","","",""
"1191","img/90_180.png","74","image-keyboard-response","127","163202","0.0-6.0-1.60","VIDE","1","m","rechts","23","","","self","j","90","true"
"null","<div style=""font-size:60px;"">+</div>","null","html-keyboard-response","128","163607","0.0-6.0-0.61","VIDE","1","m","rechts","23","","fixation","","","",""
"905","img/120_150.png","70","image-keyboard-response","129","164528","0.0-6.0-1.61","VIDE","1","m","rechts","23","","","self","f","120","true"
"null","<div style=""font-size:60px;"">+</div>","null","html-keyboard-response","130","164981","0.0-6.0-0.62","VIDE","1","m","rechts","23","","fixation","","","",""
"899","img/30_240.png","70","image-keyboard-response","131","165890","0.0-6.0-1.62","VIDE","1","m","rechts","23","","","self","f","30","true"
"null","<div style=""font-size:60px;"">+</div>","null","html-keyboard-response","132","166357","0.0-6.0-0.63","VIDE","1","m","rechts","23","","fixation","","","",""
"866","img/0_210.png","70","image-keyboard-response","133","167239","0.0-6.0-1.63","VIDE","1","m","rechts","23","","","self","f","0","true"
"null","<div style=""font-size:60px;"">+</div>","null","html-keyboard-response","134","167762","0.0-6.0-0.64","VIDE","1","m","rechts","23","","fixation","","","",""
"1006","img/60_90.png","74","image-keyboard-response","135","168781","0.0-6.0-1.64","VIDE","1","m","rechts","23","","","self","j","60","true"
"null","<div style=""font-size:60px;"">+</div>","null","html-keyboard-response","136","169310","0.0-6.0-0.65","VIDE","1","m","rechts","23","","fixation","","","",""
"1081","img/60_270.png","70","image-keyboard-response","137","170399","0.0-6.0-1.65","VIDE","1","m","rechts","23","","","self","f","60","true"
"null","<div style=""font-size:60px;"">+</div>","null","html-keyboard-response","138","170750","0.0-6.0-0.66","VIDE","1","m","rechts","23","","fixation","","","",""
"1271","img/60_180.png","74","image-keyboard-response","139","172033","0.0-6.0-1.66","VIDE","1","m","rechts","23","","","self","j","60","true"
"null","<div style=""font-size:60px;"">+</div>","null","html-keyboard-response","140","172342","0.0-6.0-0.67","VIDE","1","m","rechts","23","","fixation","","","",""
"1323","img/90_300.png","74","image-keyboard-response","141","173676","0.0-6.0-1.67","VIDE","1","m","rechts","23","","","self","f","90","false"
"null","<div style=""font-size:60px;"">+</div>","null","html-keyboard-response","142","174187","0.0-6.0-0.68","VIDE","1","m","rechts","23","","fixation","","","",""
"1324","img/30_90.png","74","image-keyboard-response","143","175521","0.0-6.0-1.68","VIDE","1","m","rechts","23","","","self","j","30","true"
"null","<div style=""font-size:60px;"">+</div>","null","html-keyboard-response","144","175983","0.0-6.0-0.69","VIDE","1","m","rechts","23","","fixation","","","",""
"1344","img/60_150.png","70","image-keyboard-response","145","177342","0.0-6.0-1.69","VIDE","1","m","rechts","23","","","self","f","60","true"
"null","<div style=""font-size:60px;"">+</div>","null","html-keyboard-response","146","177795","0.0-6.0-0.70","VIDE","1","m","rechts","23","","fixation","","","",""
"1381","img/90_240.png","74","image-keyboard-response","147","179188","0.0-6.0-1.70","VIDE","1","m","rechts","23","","","self","j","90","true"
"null","<div style=""font-size:60px;"">+</div>","null","html-keyboard-response","148","179498","0.0-6.0-0.71","VIDE","1","m","rechts","23","","fixation","","","",""
"1284","img/0_30.png","74","image-keyboard-response","149","180796","0.0-6.0-1.71","VIDE","1","m","rechts","23","","","self","j","0","true"
"null","<div style=""font-size:60px;"">+</div>","null","html-keyboard-response","150","181219","0.0-6.0-0.72","VIDE","1","m","rechts","23","","fixation","","","",""
"1154","img/30_60.png","74","image-keyboard-response","151","182382","0.0-6.0-1.72","VIDE","1","m","rechts","23","","","self","j","30","true"
"null","<div style=""font-size:60px;"">+</div>","null","html-keyboard-response","152","182750","0.0-6.0-0.73","VIDE","1","m","rechts","23","","fixation","","","",""
"925","img/60_30.png","74","image-keyboard-response","153","183688","0.0-6.0-1.73","VIDE","1","m","rechts","23","","","self","j","60","true"
"null","<div style=""font-size:60px;"">+</div>","null","html-keyboard-response","154","184203","0.0-6.0-0.74","VIDE","1","m","rechts","23","","fixation","","","",""
"1071","img/0_270.png","70","image-keyboard-response","155","185285","0.0-6.0-1.74","VIDE","1","m","rechts","23","","","self","f","0","true"
"null","<div style=""font-size:60px;"">+</div>","null","html-keyboard-response","156","185703","0.0-6.0-0.75","VIDE","1","m","rechts","23","","fixation","","","",""
"1034","img/120_330.png","74","image-keyboard-response","157","186747","0.0-6.0-1.75","VIDE","1","m","rechts","23","","","self","f","120","false"
"null","<div style=""font-size:60px;"">+</div>","null","html-keyboard-response","158","187063","0.0-6.0-0.76","VIDE","1","m","rechts","23","","fixation","","","",""
"1362","img/30_180.png","74","image-keyboard-response","159","188435","0.0-6.0-1.76","VIDE","1","m","rechts","23","","","self","j","30","true"
"null","<div style=""font-size:60px;"">+</div>","null","html-keyboard-response","160","188906","0.0-6.0-0.77","VIDE","1","m","rechts","23","","fixation","","","",""
"1305","img/120_180.png","74","image-keyboard-response","161","190223","0.0-6.0-1.77","VIDE","1","m","rechts","23","","","self","j","120","true"
"null","<div style=""font-size:60px;"">+</div>","null","html-keyboard-response","162","190547","0.0-6.0-0.78","VIDE","1","m","rechts","23","","fixation","","","",""
"1306","img/60_330.png","70","image-keyboard-response","163","191867","0.0-6.0-1.78","VIDE","1","m","rechts","23","","","self","f","60","true"
"null","<div style=""font-size:60px;"">+</div>","null","html-keyboard-response","164","192226","0.0-6.0-0.79","VIDE","1","m","rechts","23","","fixation","","","",""
"1155","img/120_210.png","74","image-keyboard-response","165","193396","0.0-6.0-1.79","VIDE","1","m","rechts","23","","","self","j","120","true"
"null","<div style=""font-size:60px;"">+</div>","null","html-keyboard-response","166","193727","0.0-6.0-0.80","VIDE","1","m","rechts","23","","fixation","","","",""
"1021","img/60_210.png","74","image-keyboard-response","167","194759","0.0-6.0-1.80","VIDE","1","m","rechts","23","","","self","j","60","true"
"null","<div style=""font-size:60px;"">+</div>","null","html-keyboard-response","168","195282","0.0-6.0-0.81","VIDE","1","m","rechts","23","","fixation","","","",""
"844","img/0_330.png","70","image-keyboard-response","169","196139","0.0-6.0-1.81","VIDE","1","m","rechts","23","","","self","f","0","true"
"null","<div style=""font-size:60px;"">+</div>","null","html-keyboard-response","170","196595","0.0-6.0-0.82","VIDE","1","m","rechts","23","","fixation","","","",""
"1022","img/30_300.png","70","image-keyboard-response","171","197627","0.0-6.0-1.82","VIDE","1","m","rechts","23","","","self","f","30","true"
"null","<div style=""font-size:60px;"">+</div>","null","html-keyboard-response","172","198078","0.0-6.0-0.83","VIDE","1","m","rechts","23","","fixation","","","",""
"1256","img/150_120.png","74","image-keyboard-response","173","199348","0.0-6.0-1.83","VIDE","1","m","rechts","23","","","self","f","150","false"
"null","<div style=""font-size:60px;"">+</div>","null","html-keyboard-response","174","199751","0.0-6.0-0.84","VIDE","1","m","rechts","23","","fixation","","","",""
"1575","img/150_270.png","74","image-keyboard-response","175","201340","0.0-6.0-1.84","VIDE","1","m","rechts","23","","","self","j","150","true"
"null","<div style=""font-size:60px;"">+</div>","null","html-keyboard-response","176","201764","0.0-6.0-0.85","VIDE","1","m","rechts","23","","fixation","","","",""
"1461","img/30_120.png","74","image-keyboard-response","177","203240","0.0-6.0-1.85","VIDE","1","m","rechts","23","","","self","j","30","true"
"null","<div style=""font-size:60px;"">+</div>","null","html-keyboard-response","178","203764","0.0-6.0-0.86","VIDE","1","m","rechts","23","","fixation","","","",""
"1897","img/L120_180.png","70","image-keyboard-response","179","205673","0.0-6.0-1.86","VIDE","1","m","rechts","23","","","self","f","120","true"
"null","<div style=""font-size:60px;"">+</div>","null","html-keyboard-response","180","206203","0.0-6.0-0.87","VIDE","1","m","rechts","23","","fixation","","","",""
"1423","img/90_60.png","74","image-keyboard-response","181","207638","0.0-6.0-1.87","VIDE","1","m","rechts","23","","","self","j","90","true"
"null","<div style=""font-size:60px;"">+</div>","null","html-keyboard-response","182","207998","0.0-6.0-0.88","VIDE","1","m","rechts","23","","fixation","","","",""
"1359","img/120_30.png","74","image-keyboard-response","183","209370","0.0-6.0-1.88","VIDE","1","m","rechts","23","","","self","j","120","true"
"null","<div style=""font-size:60px;"">+</div>","null","html-keyboard-response","184","209796","0.0-6.0-0.89","VIDE","1","m","rechts","23","","fixation","","","",""
"877","img/0_240.png","70","image-keyboard-response","185","210686","0.0-6.0-1.89","VIDE","1","m","rechts","23","","","self","f","0","true"
"null","<div style=""font-size:60px;"">+</div>","null","html-keyboard-response","186","211190","0.0-6.0-0.90","VIDE","1","m","rechts","23","","fixation","","","",""
"1316","img/30_270.png","70","image-keyboard-response","187","212519","0.0-6.0-1.90","VIDE","1","m","rechts","23","","","self","f","30","true"
"null","<div style=""font-size:60px;"">+</div>","null","html-keyboard-response","188","212892","0.0-6.0-0.91","VIDE","1","m","rechts","23","","fixation","","","",""
"1384","img/L90_180.png","70","image-keyboard-response","189","214288","0.0-6.0-1.91","VIDE","1","m","rechts","23","","","self","f","90","true"
"null","<div style=""font-size:60px;"">+</div>","null","html-keyboard-response","190","214719","0.0-6.0-0.92","VIDE","1","m","rechts","23","","fixation","","","",""
"1660","img/150_240.png","74","image-keyboard-response","191","216392","0.0-6.0-1.92","VIDE","1","m","rechts","23","","","self","j","150","true"
"null","<div style=""font-size:60px;"">+</div>","null","html-keyboard-response","192","216845","0.0-6.0-0.93","VIDE","1","m","rechts","23","","fixation","","","",""
"985","img/0_150.png","74","image-keyboard-response","193","217842","0.0-6.0-1.93","VIDE","1","m","rechts","23","","","self","j","0","true"
"null","<div style=""font-size:60px;"">+</div>","null","html-keyboard-response","194","218297","0.0-6.0-0.94","VIDE","1","m","rechts","23","","fixation","","","",""
"1552","img/150_60.png","70","image-keyboard-response","195","219857","0.0-6.0-1.94","VIDE","1","m","rechts","23","","","self","f","150","true"
"null","<div style=""font-size:60px;"">+</div>","null","html-keyboard-response","196","220269","0.0-6.0-0.95","VIDE","1","m","rechts","23","","fixation","","","",""
"1308","img/90_120.png","70","image-keyboard-response","197","221589","0.0-6.0-1.95","VIDE","1","m","rechts","23","","","self","f","90","true"
"null","<div style=""font-size:60px;"">+</div>","null","html-keyboard-response","198","222002","0.0-6.0-0.96","VIDE","1","m","rechts","23","","fixation","","","",""
"1013","img/0_90.png","74","image-keyboard-response","199","223030","0.0-6.0-1.96","VIDE","1","m","rechts","23","","","self","j","0","true"
"null","<div style=""font-size:60px;"">+</div>","null","html-keyboard-response","200","223392","0.0-6.0-0.97","VIDE","1","m","rechts","23","","fixation","","","",""
"1162","img/L150_180.png","70","image-keyboard-response","201","224568","0.0-6.0-1.97","VIDE","1","m","rechts","23","","","self","f","150","true"
"null","<div style=""font-size:60px;"">+</div>","null","html-keyboard-response","202","225033","0.0-6.0-0.98","VIDE","1","m","rechts","23","","fixation","","","",""
"1002","img/150_180.png","74","image-keyboard-response","203","226043","0.0-6.0-1.98","VIDE","1","m","rechts","23","","","self","j","150","true"
"null","<div style=""font-size:60px;"">+</div>","null","html-keyboard-response","204","226503","0.0-6.0-0.99","VIDE","1","m","rechts","23","","fixation","","","",""
"1621","img/90_210.png","74","image-keyboard-response","205","228137","0.0-6.0-1.99","VIDE","1","m","rechts","23","","","self","j","90","true"
"null","<div style=""font-size:60px;"">+</div>","null","html-keyboard-response","206","228502","0.0-6.0-0.100","VIDE","1","m","rechts","23","","fixation","","","",""
"1330","img/90_30.png","74","image-keyboard-response","207","229845","0.0-6.0-1.100","VIDE","1","m","rechts","23","","","self","j","90","true"
"null","<div style=""font-size:60px;"">+</div>","null","html-keyboard-response","208","230204","0.0-6.0-0.101","VIDE","1","m","rechts","23","","fixation","","","",""
"1980","img/120_270.png","74","image-keyboard-response","209","232197","0.0-6.0-1.101","VIDE","1","m","rechts","23","","","self","j","120","true"
"null","<div style=""font-size:60px;"">+</div>","null","html-keyboard-response","210","232660","0.0-6.0-0.102","VIDE","1","m","rechts","23","","fixation","","","",""
"1190","img/L30_180.png","70","image-keyboard-response","211","233863","0.0-6.0-1.102","VIDE","1","m","rechts","23","","","self","f","30","true"
"null","<div style=""font-size:60px;"">+</div>","null","html-keyboard-response","212","234239","0.0-6.0-0.103","VIDE","1","m","rechts","23","","fixation","","","",""
"971","img/L60_180.png","70","image-keyboard-response","213","235223","0.0-6.0-1.103","VIDE","1","m","rechts","23","","","self","f","60","true"
"null","<div style=""font-size:60px;"">+</div>","null","html-keyboard-response","214","235551","0.0-6.0-0.104","VIDE","1","m","rechts","23","","fixation","","","",""
"1563","img/90_180.png","74","image-keyboard-response","215","237126","0.0-6.0-1.104","VIDE","1","m","rechts","23","","","self","j","90","true"
"null","<div style=""font-size:60px;"">+</div>","null","html-keyboard-response","216","237597","0.0-6.0-0.105","VIDE","1","m","rechts","23","","fixation","","","",""
"1297","img/30_300.png","70","image-keyboard-response","217","238903","0.0-6.0-1.105","VIDE","1","m","rechts","23","","","self","f","30","true"
"null","<div style=""font-size:60px;"">+</div>","null","html-keyboard-response","218","239222","0.0-6.0-0.106","VIDE","1","m","rechts","23","","fixation","","","",""
"964","img/0_210.png","70","image-keyboard-response","219","240197","0.0-6.0-1.106","VIDE","1","m","rechts","23","","","self","f","0","true"
"null","<div style=""font-size:60px;"">+</div>","null","html-keyboard-response","220","240599","0.0-6.0-0.107","VIDE","1","m","rechts","23","","fixation","","","",""
"1513","img/150_60.png","74","image-keyboard-response","221","242121","0.0-6.0-1.107","VIDE","1","m","rechts","23","","","self","f","150","false"
"null","<div style=""font-size:60px;"">+</div>","null","html-keyboard-response","222","242647","0.0-6.0-0.108","VIDE","1","m","rechts","23","","fixation","","","",""
"1161","img/L120_180.png","70","image-keyboard-response","223","243820","0.0-6.0-1.108","VIDE","1","m","rechts","23","","","self","f","120","true"
"null","<div style=""font-size:60px;"">+</div>","null","html-keyboard-response","224","244225","0.0-6.0-0.109","VIDE","1","m","rechts","23","","fixation","","","",""
"1375","img/150_240.png","74","image-keyboard-response","225","245608","0.0-6.0-1.109","VIDE","1","m","rechts","23","","","self","j","150","true"
"null","<div style=""font-size:60px;"">+</div>","null","html-keyboard-response","226","246021","0.0-6.0-0.110","VIDE","1","m","rechts","23","","fixation","","","",""
"1215","img/30_90.png","74","image-keyboard-response","227","247249","0.0-6.0-1.110","VIDE","1","m","rechts","23","","","self","j","30","true"
"null","<div style=""font-size:60px;"">+</div>","null","html-keyboard-response","228","247755","0.0-6.0-0.111","VIDE","1","m","rechts","23","","fixation","","","",""
"1399","img/150_180.png","74","image-keyboard-response","229","249163","0.0-6.0-1.111","VIDE","1","m","rechts","23","","","self","j","150","true"
"null","<div style=""font-size:60px;"">+</div>","null","html-keyboard-response","230","249692","0.0-6.0-0.112","VIDE","1","m","rechts","23","","fixation","","","",""
"1387","img/120_210.png","74","image-keyboard-response","231","251085","0.0-6.0-1.112","VIDE","1","m","rechts","23","","","self","j","120","true"
"null","<div style=""font-size:60px;"">+</div>","null","html-keyboard-response","232","251616","0.0-6.0-0.113","VIDE","1","m","rechts","23","","fixation","","","",""
"1428","img/60_330.png","70","image-keyboard-response","233","253054","0.0-6.0-1.113","VIDE","1","m","rechts","23","","","self","f","60","true"
"null","<div style=""font-size:60px;"">+</div>","null","html-keyboard-response","234","253460","0.0-6.0-0.114","VIDE","1","m","rechts","23","","fixation","","","",""
"960","img/0_90.png","74","image-keyboard-response","235","254429","0.0-6.0-1.114","VIDE","1","m","rechts","23","","","self","j","0","true"
"null","<div style=""font-size:60px;"">+</div>","null","html-keyboard-response","236","254945","0.0-6.0-0.115","VIDE","1","m","rechts","23","","fixation","","","",""
"1397","img/L30_180.png","70","image-keyboard-response","237","256352","0.0-6.0-1.115","VIDE","1","m","rechts","23","","","self","f","30","true"
"null","<div style=""font-size:60px;"">+</div>","null","html-keyboard-response","238","256773","0.0-6.0-0.116","VIDE","1","m","rechts","23","","fixation","","","",""
"1085","img/30_60.png","74","image-keyboard-response","239","257870","0.0-6.0-1.116","VIDE","1","m","rechts","23","","","self","j","30","true"
"null","<div style=""font-size:60px;"">+</div>","null","html-keyboard-response","240","258226","0.0-6.0-0.117","VIDE","1","m","rechts","23","","fixation","","","",""
"1322","img/120_30.png","74","image-keyboard-response","241","259559","0.0-6.0-1.117","VIDE","1","m","rechts","23","","","self","j","120","true"
"null","<div style=""font-size:60px;"">+</div>","null","html-keyboard-response","242","259881","0.0-6.0-0.118","VIDE","1","m","rechts","23","","fixation","","","",""
"1479","img/90_210.png","74","image-keyboard-response","243","261370","0.0-6.0-1.118","VIDE","1","m","rechts","23","","","self","j","90","true"
"null","<div style=""font-size:60px;"">+</div>","null","html-keyboard-response","244","261680","0.0-6.0-0.119","VIDE","1","m","rechts","23","","fixation","","","",""
"1158","img/0_240.png","70","image-keyboard-response","245","262844","0.0-6.0-1.119","VIDE","1","m","rechts","23","","","self","f","0","true"
"null","<div style=""font-size:60px;"">+</div>","null","html-keyboard-response","246","263301","0.0-6.0-0.120","VIDE","1","m","rechts","23","","fixation","","","",""
"1452","img/90_300.png","70","image-keyboard-response","247","264767","0.0-6.0-1.120","VIDE","1","m","rechts","23","","","self","f","90","true"
"null","<div style=""font-size:60px;"">+</div>","null","html-keyboard-response","248","265223","0.0-6.0-0.121","VIDE","1","m","rechts","23","","fixation","","","",""
"1322","img/60_210.png","74","image-keyboard-response","249","266556","0.0-6.0-1.121","VIDE","1","m","rechts","23","","","self","j","60","true"
"null","<div style=""font-size:60px;"">+</div>","null","html-keyboard-response","250","267024","0.0-6.0-0.122","VIDE","1","m","rechts","23","","fixation","","","",""
"1208","img/60_150.png","70","image-keyboard-response","251","268243","0.0-6.0-1.122","VIDE","1","m","rechts","23","","","self","f","60","true"
"null","<div style=""font-size:60px;"">+</div>","null","html-keyboard-response","252","268557","0.0-6.0-0.123","VIDE","1","m","rechts","23","","fixation","","","",""
"1337","img/60_180.png","74","image-keyboard-response","253","269909","0.0-6.0-1.123","VIDE","1","m","rechts","23","","","self","j","60","true"
"null","<div style=""font-size:60px;"">+</div>","null","html-keyboard-response","254","270275","0.0-6.0-0.124","VIDE","1","m","rechts","23","","fixation","","","",""
"1367","img/150_120.png","70","image-keyboard-response","255","271652","0.0-6.0-1.124","VIDE","1","m","rechts","23","","","self","f","150","true"
"null","<div style=""font-size:60px;"">+</div>","null","html-keyboard-response","256","272056","0.0-6.0-0.125","VIDE","1","m","rechts","23","","fixation","","","",""
"1172","img/30_120.png","74","image-keyboard-response","257","273239","0.0-6.0-1.125","VIDE","1","m","rechts","23","","","self","j","30","true"
"null","<div style=""font-size:60px;"">+</div>","null","html-keyboard-response","258","273712","0.0-6.0-0.126","VIDE","1","m","rechts","23","","fixation","","","",""
"915","img/L60_180.png","70","image-keyboard-response","259","274634","0.0-6.0-1.126","VIDE","1","m","rechts","23","","","self","f","60","true"
"null","<div style=""font-size:60px;"">+</div>","null","html-keyboard-response","260","275010","0.0-6.0-0.127","VIDE","1","m","rechts","23","","fixation","","","",""
"1027","img/0_120.png","74","image-keyboard-response","261","276052","0.0-6.0-1.127","VIDE","1","m","rechts","23","","","self","j","0","true"
"null","<div style=""font-size:60px;"">+</div>","null","html-keyboard-response","262","276433","0.0-6.0-0.128","VIDE","1","m","rechts","23","","fixation","","","",""
"1160","img/90_60.png","74","image-keyboard-response","263","277603","0.0-6.0-1.128","VIDE","1","m","rechts","23","","","self","j","90","true"
"null","<div style=""font-size:60px;"">+</div>","null","html-keyboard-response","264","278121","0.0-6.0-0.129","VIDE","1","m","rechts","23","","fixation","","","",""
"779","img/0_150.png","74","image-keyboard-response","265","278909","0.0-6.0-1.129","VIDE","1","m","rechts","23","","","self","j","0","true"
"null","<div style=""font-size:60px;"">+</div>","null","html-keyboard-response","266","279215","0.0-6.0-0.130","VIDE","1","m","rechts","23","","fixation","","","",""
"1761","img/150_300.png","74","image-keyboard-response","267","280989","0.0-6.0-1.130","VIDE","1","m","rechts","23","","","self","j","150","true"
"null","<div style=""font-size:60px;"">+</div>","null","html-keyboard-response","268","281496","0.0-6.0-0.131","VIDE","1","m","rechts","23","","fixation","","","",""
"1409","img/30_270.png","70","image-keyboard-response","269","282914","0.0-6.0-1.131","VIDE","1","m","rechts","23","","","self","f","30","true"
"null","<div style=""font-size:60px;"">+</div>","null","html-keyboard-response","270","283418","0.0-6.0-0.132","VIDE","1","m","rechts","23","","fixation","","","",""
"1460","img/30_240.png","70","image-keyboard-response","271","284891","0.0-6.0-1.132","VIDE","1","m","rechts","23","","","self","f","30","true"
"null","<div style=""font-size:60px;"">+</div>","null","html-keyboard-response","272","285215","0.0-6.0-0.133","VIDE","1","m","rechts","23","","fixation","","","",""
"1186","img/90_150.png","70","image-keyboard-response","273","286413","0.0-6.0-1.133","VIDE","1","m","rechts","23","","","self","f","90","true"
"null","<div style=""font-size:60px;"">+</div>","null","html-keyboard-response","274","286732","0.0-6.0-0.134","VIDE","1","m","rechts","23","","fixation","","","",""
"970","img/120_150.png","70","image-keyboard-response","275","287706","0.0-6.0-1.134","VIDE","1","m","rechts","23","","","self","f","120","true"
"null","<div style=""font-size:60px;"">+</div>","null","html-keyboard-response","276","288013","0.0-6.0-0.135","VIDE","1","m","rechts","23","","fixation","","","",""
"1356","img/120_180.png","74","image-keyboard-response","277","289382","0.0-6.0-1.135","VIDE","1","m","rechts","23","","","self","j","120","true"
"null","<div style=""font-size:60px;"">+</div>","null","html-keyboard-response","278","289747","0.0-6.0-0.136","VIDE","1","m","rechts","23","","fixation","","","",""
"1524","img/60_30.png","74","image-keyboard-response","279","291284","0.0-6.0-1.136","VIDE","1","m","rechts","23","","","self","j","60","true"
"null","<div style=""font-size:60px;"">+</div>","null","html-keyboard-response","280","291638","0.0-6.0-0.137","VIDE","1","m","rechts","23","","fixation","","","",""
"1363","img/90_240.png","74","image-keyboard-response","281","293015","0.0-6.0-1.137","VIDE","1","m","rechts","23","","","self","j","90","true"
"null","<div style=""font-size:60px;"">+</div>","null","html-keyboard-response","282","293481","0.0-6.0-0.138","VIDE","1","m","rechts","23","","fixation","","","",""
"963","img/0_30.png","74","image-keyboard-response","283","294457","0.0-6.0-1.138","VIDE","1","m","rechts","23","","","self","j","0","true"
"null","<div style=""font-size:60px;"">+</div>","null","html-keyboard-response","284","294888","0.0-6.0-0.139","VIDE","1","m","rechts","23","","fixation","","","",""
"1287","img/60_90.png","74","image-keyboard-response","285","296189","0.0-6.0-1.139","VIDE","1","m","rechts","23","","","self","j","60","true"
"null","<div style=""font-size:60px;"">+</div>","null","html-keyboard-response","286","296545","0.0-6.0-0.140","VIDE","1","m","rechts","23","","fixation","","","",""
"838","img/0_270.png","70","image-keyboard-response","287","297392","0.0-6.0-1.140","VIDE","1","m","rechts","23","","","self","f","0","true"
"null","<div style=""font-size:60px;"">+</div>","null","html-keyboard-response","288","297899","0.0-6.0-0.141","VIDE","1","m","rechts","23","","fixation","","","",""
"1597","img/90_330.png","70","image-keyboard-response","289","299509","0.0-6.0-1.141","VIDE","1","m","rechts","23","","","self","f","90","true"
"null","<div style=""font-size:60px;"">+</div>","null","html-keyboard-response","290","299914","0.0-6.0-0.142","VIDE","1","m","rechts","23","","fixation","","","",""
"1324","img/150_270.png","74","image-keyboard-response","291","301251","0.0-6.0-1.142","VIDE","1","m","rechts","23","","","self","j","150","true"
"null","<div style=""font-size:60px;"">+</div>","null","html-keyboard-response","292","301733","0.0-6.0-0.143","VIDE","1","m","rechts","23","","fixation","","","",""
"1526","img/L90_180.png","70","image-keyboard-response","293","303266","0.0-6.0-1.143","VIDE","1","m","rechts","23","","","self","f","90","true"
"null","<div style=""font-size:60px;"">+</div>","null","html-keyboard-response","294","303686","0.0-6.0-0.144","VIDE","1","m","rechts","23","","fixation","","","",""
"1062","img/90_120.png","70","image-keyboard-response","295","304760","0.0-6.0-1.144","VIDE","1","m","rechts","23","","","self","f","90","true"
"null","<div style=""font-size:60px;"">+</div>","null","html-keyboard-response","296","305279","0.0-6.0-0.145","VIDE","1","m","rechts","23","","fixation","","","",""
"898","img/120_330.png","74","image-keyboard-response","297","306191","0.0-6.0-1.145","VIDE","1","m","rechts","23","","","self","f","120","false"
"null","<div style=""font-size:60px;"">+</div>","null","html-keyboard-response","298","306561","0.0-6.0-0.146","VIDE","1","m","rechts","23","","fixation","","","",""
"1427","img/30_180.png","74","image-keyboard-response","299","308001","0.0-6.0-1.146","VIDE","1","m","rechts","23","","","self","j","30","true"
"null","<div style=""font-size:60px;"">+</div>","null","html-keyboard-response","300","308373","0.0-6.0-0.147","VIDE","1","m","rechts","23","","fixation","","","",""
"1384","img/L150_180.png","70","image-keyboard-response","301","309767","0.0-6.0-1.147","VIDE","1","m","rechts","23","","","self","f","150","true"
"null","<div style=""font-size:60px;"">+</div>","null","html-keyboard-response","302","310249","0.0-6.0-0.148","VIDE","1","m","rechts","23","","fixation","","","",""
"1535","img/120_270.png","74","image-keyboard-response","303","311794","0.0-6.0-1.148","VIDE","1","m","rechts","23","","","self","j","120","true"
"null","<div style=""font-size:60px;"">+</div>","null","html-keyboard-response","304","312219","0.0-6.0-0.149","VIDE","1","m","rechts","23","","fixation","","","",""
"1056","img/0_300.png","70","image-keyboard-response","305","313288","0.0-6.0-1.149","VIDE","1","m","rechts","23","","","self","f","0","true"
"null","<div style=""font-size:60px;"">+</div>","null","html-keyboard-response","306","313798","0.0-6.0-0.150","VIDE","1","m","rechts","23","","fixation","","","",""
"1321","img/150_90.png","74","image-keyboard-response","307","315132","0.0-6.0-1.150","VIDE","1","m","rechts","23","","","self","f","150","false"
"null","<div style=""font-size:60px;"">+</div>","null","html-keyboard-response","308","315594","0.0-6.0-0.151","VIDE","1","m","rechts","23","","fixation","","","",""
"1179","img/120_90.png","70","image-keyboard-response","309","316787","0.0-6.0-1.151","VIDE","1","m","rechts","23","","","self","f","120","true"
"null","<div style=""font-size:60px;"">+</div>","null","html-keyboard-response","310","317297","0.0-6.0-0.152","VIDE","1","m","rechts","23","","fixation","","","",""
"1288","img/60_270.png","70","image-keyboard-response","311","318598","0.0-6.0-1.152","VIDE","1","m","rechts","23","","","self","f","60","true"
"null","<div style=""font-size:60px;"">+</div>","null","html-keyboard-response","312","318953","0.0-6.0-0.153","VIDE","1","m","rechts","23","","fixation","","","",""
"810","img/0_330.png","70","image-keyboard-response","313","319779","0.0-6.0-1.153","VIDE","1","m","rechts","23","","","self","f","0","true"
"null","<div style=""font-size:60px;"">+</div>","null","html-keyboard-response","314","320141","0.0-6.0-0.154","VIDE","1","m","rechts","23","","fixation","","","",""
"753","img/0_60.png","74","image-keyboard-response","315","320907","0.0-6.0-1.154","VIDE","1","m","rechts","23","","","self","j","0","true"
"null","<div style=""font-size:60px;"">+</div>","null","html-keyboard-response","316","321283","0.0-6.0-0.155","VIDE","1","m","rechts","23","","fixation","","","",""
"1151","img/90_30.png","74","image-keyboard-response","317","322445","0.0-6.0-1.155","VIDE","1","m","rechts","23","","","self","j","90","true"
"null","<div style=""font-size:60px;"">+</div>","null","html-keyboard-response","318","322971","0.0-6.0-0.156","VIDE","1","m","rechts","23","","fixation","","","",""
"848","img/90_120.png","74","image-keyboard-response","319","323832","0.0-6.0-1.156","VIDE","1","m","rechts","23","","","self","f","90","false"
"null","<div style=""font-size:60px;"">+</div>","null","html-keyboard-response","320","324236","0.0-6.0-0.157","VIDE","1","m","rechts","23","","fixation","","","",""
"1010","img/30_120.png","74","image-keyboard-response","321","325259","0.0-6.0-1.157","VIDE","1","m","rechts","23","","","self","j","30","true"
"null","<div style=""font-size:60px;"">+</div>","null","html-keyboard-response","322","325628","0.0-6.0-0.158","VIDE","1","m","rechts","23","","fixation","","","",""
"1216","img/150_180.png","74","image-keyboard-response","323","326857","0.0-6.0-1.158","VIDE","1","m","rechts","23","","","self","j","150","true"
"null","<div style=""font-size:60px;"">+</div>","null","html-keyboard-response","324","327266","0.0-6.0-0.159","VIDE","1","m","rechts","23","","fixation","","","",""
"1841","img/150_270.png","74","image-keyboard-response","325","329119","0.0-6.0-1.159","VIDE","1","m","rechts","23","","","self","j","150","true"
"null","<div style=""font-size:60px;"">+</div>","null","html-keyboard-response","326","329422","0.0-6.0-0.160","VIDE","1","m","rechts","23","","fixation","","","",""
"1269","img/150_240.png","74","image-keyboard-response","327","330704","0.0-6.0-1.160","VIDE","1","m","rechts","23","","","self","j","150","true"
"null","<div style=""font-size:60px;"">+</div>","null","html-keyboard-response","328","331082","0.0-6.0-0.161","VIDE","1","m","rechts","23","","fixation","","","",""
"963","img/60_90.png","74","image-keyboard-response","329","332054","0.0-6.0-1.161","VIDE","1","m","rechts","23","","","self","j","60","true"
"null","<div style=""font-size:60px;"">+</div>","null","html-keyboard-response","330","332523","0.0-6.0-0.162","VIDE","1","m","rechts","23","","fixation","","","",""
"1509","img/60_150.png","70","image-keyboard-response","331","334044","0.0-6.0-1.162","VIDE","1","m","rechts","23","","","self","f","60","true"
"null","<div style=""font-size:60px;"">+</div>","null","html-keyboard-response","332","334570","0.0-6.0-0.163","VIDE","1","m","rechts","23","","fixation","","","",""
"1030","img/90_30.png","74","image-keyboard-response","333","335608","0.0-6.0-1.163","VIDE","1","m","rechts","23","","","self","j","90","true"
"null","<div style=""font-size:60px;"">+</div>","null","html-keyboard-response","334","336116","0.0-6.0-0.164","VIDE","1","m","rechts","23","","fixation","","","",""
"1056","img/120_270.png","74","image-keyboard-response","335","337184","0.0-6.0-1.164","VIDE","1","m","rechts","23","","","self","j","120","true"
"null","<div style=""font-size:60px;"">+</div>","null","html-keyboard-response","336","337600","0.0-6.0-0.165","VIDE","1","m","rechts","23","","fixation","","","",""
"868","img/30_60.png","74","image-keyboard-response","337","338478","0.0-6.0-1.165","VIDE","1","m","rechts","23","","","self","j","30","true"
"null","<div style=""font-size:60px;"">+</div>","null","html-keyboard-response","338","338898","0.0-6.0-0.166","VIDE","1","m","rechts","23","","fixation","","","",""
"906","img/L150_180.png","70","image-keyboard-response","339","339816","0.0-6.0-1.166","VIDE","1","m","rechts","23","","","self","f","150","true"
"null","<div style=""font-size:60px;"">+</div>","null","html-keyboard-response","340","340273","0.0-6.0-0.167","VIDE","1","m","rechts","23","","fixation","","","",""
"891","img/120_210.png","74","image-keyboard-response","341","341178","0.0-6.0-1.167","VIDE","1","m","rechts","23","","","self","j","120","true"
"null","<div style=""font-size:60px;"">+</div>","null","html-keyboard-response","342","341680","0.0-6.0-0.168","VIDE","1","m","rechts","23","","fixation","","","",""
"925","img/150_120.png","74","image-keyboard-response","343","342620","0.0-6.0-1.168","VIDE","1","m","rechts","23","","","self","f","150","false"
"null","<div style=""font-size:60px;"">+</div>","null","html-keyboard-response","344","342931","0.0-6.0-0.169","VIDE","1","m","rechts","23","","fixation","","","",""
"1138","img/30_240.png","70","image-keyboard-response","345","344079","0.0-6.0-1.169","VIDE","1","m","rechts","23","","","self","f","30","true"
"null","<div style=""font-size:60px;"">+</div>","null","html-keyboard-response","346","344586","0.0-6.0-0.170","VIDE","1","m","rechts","23","","fixation","","","",""
"1130","img/90_180.png","74","image-keyboard-response","347","345723","0.0-6.0-1.170","VIDE","1","m","rechts","23","","","self","j","90","true"
"null","<div style=""font-size:60px;"">+</div>","null","html-keyboard-response","348","346134","0.0-6.0-0.171","VIDE","1","m","rechts","23","","fixation","","","",""
"749","img/120_180.png","74","image-keyboard-response","349","346893","0.0-6.0-1.171","VIDE","1","m","rechts","23","","","self","j","120","true"
"null","<div style=""font-size:60px;"">+</div>","null","html-keyboard-response","350","347243","0.0-6.0-0.172","VIDE","1","m","rechts","23","","fixation","","","",""
"823","img/0_300.png","70","image-keyboard-response","351","348075","0.0-6.0-1.172","VIDE","1","m","rechts","23","","","self","f","0","true"
"null","<div style=""font-size:60px;"">+</div>","null","html-keyboard-response","352","348539","0.0-6.0-0.173","VIDE","1","m","rechts","23","","fixation","","","",""
"786","img/0_30.png","74","image-keyboard-response","353","349336","0.0-6.0-1.173","VIDE","1","m","rechts","23","","","self","j","0","true"
"null","<div style=""font-size:60px;"">+</div>","null","html-keyboard-response","354","349649","0.0-6.0-0.174","VIDE","1","m","rechts","23","","fixation","","","",""
"823","img/0_120.png","74","image-keyboard-response","355","350482","0.0-6.0-1.174","VIDE","1","m","rechts","23","","","self","j","0","true"
"null","<div style=""font-size:60px;"">+</div>","null","html-keyboard-response","356","350994","0.0-6.0-0.175","VIDE","1","m","rechts","23","","fixation","","","",""
"1735","img/30_270.png","70","image-keyboard-response","357","352743","0.0-6.0-1.175","VIDE","1","m","rechts","23","","","self","f","30","true"
"null","<div style=""font-size:60px;"">+</div>","null","html-keyboard-response","358","353244","0.0-6.0-0.176","VIDE","1","m","rechts","23","","fixation","","","",""
"1307","img/150_60.png","70","image-keyboard-response","359","354565","0.0-6.0-1.176","VIDE","1","m","rechts","23","","","self","f","150","true"
"null","<div style=""font-size:60px;"">+</div>","null","html-keyboard-response","360","354994","0.0-6.0-0.177","VIDE","1","m","rechts","23","","fixation","","","",""
"1149","img/90_150.png","70","image-keyboard-response","361","356153","0.0-6.0-1.177","VIDE","1","m","rechts","23","","","self","f","90","true"
"null","<div style=""font-size:60px;"">+</div>","null","html-keyboard-response","362","356479","0.0-6.0-0.178","VIDE","1","m","rechts","23","","fixation","","","",""
"736","img/L90_180.png","70","image-keyboard-response","363","357232","0.0-6.0-1.178","VIDE","1","m","rechts","23","","","self","f","90","true"
"null","<div style=""font-size:60px;"">+</div>","null","html-keyboard-response","364","357556","0.0-6.0-0.179","VIDE","1","m","rechts","23","","fixation","","","",""
"1035","img/120_150.png","70","image-keyboard-response","365","358604","0.0-6.0-1.179","VIDE","1","m","rechts","23","","","self","f","120","true"
"null","<div style=""font-size:60px;"">+</div>","null","html-keyboard-response","366","359010","0.0-6.0-0.180","VIDE","1","m","rechts","23","","fixation","","","",""
"763","img/L30_180.png","70","image-keyboard-response","367","359786","0.0-6.0-1.180","VIDE","1","m","rechts","23","","","self","f","30","true"
"null","<div style=""font-size:60px;"">+</div>","null","html-keyboard-response","368","360292","0.0-6.0-0.181","VIDE","1","m","rechts","23","","fixation","","","",""
"721","img/0_270.png","70","image-keyboard-response","369","361024","0.0-6.0-1.181","VIDE","1","m","rechts","23","","","self","f","0","true"
"null","<div style=""font-size:60px;"">+</div>","null","html-keyboard-response","370","361526","0.0-6.0-0.182","VIDE","1","m","rechts","23","","fixation","","","",""
"1397","img/90_300.png","70","image-keyboard-response","371","362936","0.0-6.0-1.182","VIDE","1","m","rechts","23","","","self","f","90","true"
"null","<div style=""font-size:60px;"">+</div>","null","html-keyboard-response","372","363339","0.0-6.0-0.183","VIDE","1","m","rechts","23","","fixation","","","",""
"1443","img/30_180.png","74","image-keyboard-response","373","364793","0.0-6.0-1.183","VIDE","1","m","rechts","23","","","self","j","30","true"
"null","<div style=""font-size:60px;"">+</div>","null","html-keyboard-response","374","365199","0.0-6.0-0.184","VIDE","1","m","rechts","23","","fixation","","","",""
"1619","img/90_330.png","70","image-keyboard-response","375","366829","0.0-6.0-1.184","VIDE","1","m","rechts","23","","","self","f","90","true"
"null","<div style=""font-size:60px;"">+</div>","null","html-keyboard-response","376","367344","0.0-6.0-0.185","VIDE","1","m","rechts","23","","fixation","","","",""
"1373","img/60_330.png","70","image-keyboard-response","377","368730","0.0-6.0-1.185","VIDE","1","m","rechts","23","","","self","f","60","true"
"null","<div style=""font-size:60px;"">+</div>","null","html-keyboard-response","378","369203","0.0-6.0-0.186","VIDE","1","m","rechts","23","","fixation","","","",""
"931","img/30_300.png","70","image-keyboard-response","379","370149","0.0-6.0-1.186","VIDE","1","m","rechts","23","","","self","f","30","true"
"null","<div style=""font-size:60px;"">+</div>","null","html-keyboard-response","380","370625","0.0-6.0-0.187","VIDE","1","m","rechts","23","","fixation","","","",""
"930","img/0_330.png","70","image-keyboard-response","381","371564","0.0-6.0-1.187","VIDE","1","m","rechts","23","","","self","f","0","true"
"null","<div style=""font-size:60px;"">+</div>","null","html-keyboard-response","382","372078","0.0-6.0-0.188","VIDE","1","m","rechts","23","","fixation","","","",""
"1139","img/0_150.png","74","image-keyboard-response","383","373231","0.0-6.0-1.188","VIDE","1","m","rechts","23","","","self","j","0","true"
"null","<div style=""font-size:60px;"">+</div>","null","html-keyboard-response","384","373608","0.0-6.0-0.189","VIDE","1","m","rechts","23","","fixation","","","",""
"1228","img/L120_180.png","70","image-keyboard-response","385","374850","0.0-6.0-1.189","VIDE","1","m","rechts","23","","","self","f","120","true"
"null","<div style=""font-size:60px;"">+</div>","null","html-keyboard-response","386","375156","0.0-6.0-0.190","VIDE","1","m","rechts","23","","fixation","","","",""
"1290","img/60_180.png","74","image-keyboard-response","387","376460","0.0-6.0-1.190","VIDE","1","m","rechts","23","","","self","j","60","true"
"null","<div style=""font-size:60px;"">+</div>","null","html-keyboard-response","388","376969","0.0-6.0-0.191","VIDE","1","m","rechts","23","","fixation","","","",""
"1296","img/150_300.png","74","image-keyboard-response","389","378279","0.0-6.0-1.191","VIDE","1","m","rechts","23","","","self","j","150","true"
"null","<div style=""font-size:60px;"">+</div>","null","html-keyboard-response","390","378656","0.0-6.0-0.192","VIDE","1","m","rechts","23","","fixation","","","",""
"814","img/0_90.png","74","image-keyboard-response","391","379486","0.0-6.0-1.192","VIDE","1","m","rechts","23","","","self","j","0","true"
"null","<div style=""font-size:60px;"">+</div>","null","html-keyboard-response","392","379954","0.0-6.0-0.193","VIDE","1","m","rechts","23","","fixation","","","",""
"1082","img/60_30.png","74","image-keyboard-response","393","381049","0.0-6.0-1.193","VIDE","1","m","rechts","23","","","self","j","60","true"
"null","<div style=""font-size:60px;"">+</div>","null","html-keyboard-response","394","381578","0.0-6.0-0.194","VIDE","1","m","rechts","23","","fixation","","","",""
"811","img/0_60.png","74","image-keyboard-response","395","382399","0.0-6.0-1.194","VIDE","1","m","rechts","23","","","self","j","0","true"
"null","<div style=""font-size:60px;"">+</div>","null","html-keyboard-response","396","382813","0.0-6.0-0.195","VIDE","1","m","rechts","23","","fixation","","","",""
"1443","img/120_330.png","70","image-keyboard-response","397","384266","0.0-6.0-1.195","VIDE","1","m","rechts","23","","","self","f","120","true"
"null","<div style=""font-size:60px;"">+</div>","null","html-keyboard-response","398","384734","0.0-6.0-0.196","VIDE","1","m","rechts","23","","fixation","","","",""
"772","img/0_240.png","70","image-keyboard-response","399","385515","0.0-6.0-1.196","VIDE","1","m","rechts","23","","","self","f","0","true"
"null","<div style=""font-size:60px;"">+</div>","null","html-keyboard-response","400","385829","0.0-6.0-0.197","VIDE","1","m","rechts","23","","fixation","","","",""
"1180","img/60_210.png","74","image-keyboard-response","401","387022","0.0-6.0-1.197","VIDE","1","m","rechts","23","","","self","j","60","true"
"null","<div style=""font-size:60px;"">+</div>","null","html-keyboard-response","402","387344","0.0-6.0-0.198","VIDE","1","m","rechts","23","","fixation","","","",""
"889","img/90_240.png","74","image-keyboard-response","403","388248","0.0-6.0-1.198","VIDE","1","m","rechts","23","","","self","j","90","true"
"null","<div style=""font-size:60px;"">+</div>","null","html-keyboard-response","404","388658","0.0-6.0-0.199","VIDE","1","m","rechts","23","","fixation","","","",""
"1071","img/120_30.png","70","image-keyboard-response","405","389743","0.0-6.0-1.199","VIDE","1","m","rechts","23","","","self","j","120","false"
"null","<div style=""font-size:60px;"">+</div>","null","html-keyboard-response","406","390096","0.0-6.0-0.200","VIDE","1","m","rechts","23","","fixation","","","",""
"1026","img/60_270.png","74","image-keyboard-response","407","391132","0.0-6.0-1.200","VIDE","1","m","rechts","23","","","self","f","60","false"
"null","<div style=""font-size:60px;"">+</div>","null","html-keyboard-response","408","391503","0.0-6.0-0.201","VIDE","1","m","rechts","23","","fixation","","","",""
"998","img/L60_180.png","70","image-keyboard-response","409","392513","0.0-6.0-1.201","VIDE","1","m","rechts","23","","","self","f","60","true"
"null","<div style=""font-size:60px;"">+</div>","null","html-keyboard-response","410","392846","0.0-6.0-0.202","VIDE","1","m","rechts","23","","fixation","","","",""
"947","img/30_90.png","74","image-keyboard-response","411","393806","0.0-6.0-1.202","VIDE","1","m","rechts","23","","","self","j","30","true"
"null","<div style=""font-size:60px;"">+</div>","null","html-keyboard-response","412","394236","0.0-6.0-0.203","VIDE","1","m","rechts","23","","fixation","","","",""
"1008","img/90_210.png","74","image-keyboard-response","413","395257","0.0-6.0-1.203","VIDE","1","m","rechts","23","","","self","j","90","true"
"null","<div style=""font-size:60px;"">+</div>","null","html-keyboard-response","414","395630","0.0-6.0-0.204","VIDE","1","m","rechts","23","","fixation","","","",""
"924","img/120_90.png","74","image-keyboard-response","415","396564","0.0-6.0-1.204","VIDE","1","m","rechts","23","","","self","f","120","false"
"null","<div style=""font-size:60px;"">+</div>","null","html-keyboard-response","416","396879","0.0-6.0-0.205","VIDE","1","m","rechts","23","","fixation","","","",""
"763","img/0_210.png","70","image-keyboard-response","417","397654","0.0-6.0-1.205","VIDE","1","m","rechts","23","","","self","f","0","true"
"null","<div style=""font-size:60px;"">+</div>","null","html-keyboard-response","418","398035","0.0-6.0-0.206","VIDE","1","m","rechts","23","","fixation","","","",""
"1058","img/150_90.png","70","image-keyboard-response","419","399106","0.0-6.0-1.206","VIDE","1","m","rechts","23","","","self","f","150","true"
"null","<div style=""font-size:60px;"">+</div>","null","html-keyboard-response","420","399565","0.0-6.0-0.207","VIDE","1","m","rechts","23","","fixation","","","",""
"897","img/90_60.png","74","image-keyboard-response","421","400478","0.0-6.0-1.207","VIDE","1","m","rechts","23","","","self","j","90","true"
"21362","<p>Du hast in 89% der Versuche korrekt entschieden.</p><p>Deine durchschnittliche Reaktionszeit war  1214ms.</p><p>Dr&uuml;cke eine beliebige Taste, um die Session zu beenden. Vielen Dank!</p>","32","html-keyboard-response","422","421847","0.0-7.0","VIDE","1","m","rechts","23","","","","","",""
