"rt","stimulus","key_press","trial_type","trial_index","time_elapsed","internal_node_id","subject","session","sex","handedness","age","responses","test_part","condition","correct_response","angle","correct"
"5476","<p>Mental Rotation Experiment.</p> <p>Dr&uuml;cke eine beliebige Taste, um anzufangen.</p>","32","html-keyboard-response","0","5514","0.0-0.0","VIDE","3","m","rechts","23","","","","","",""
"5347","","","survey-text","1","10865","0.0-1.0","VIDE","3","m","rechts","23","{""Q0"":""VIDE""}","","","","",""
"6107","","","survey-text","2","16973","0.0-2.0","VIDE","3","m","rechts","23","{""Q0"":""3""}","","","","",""
"6767","","","survey-multi-choice","3","23747","0.0-3.0","VIDE","3","m","rechts","23","{""Q0"":""m"",""Q1"":""rechts""}","","","","",""
"2775","","","survey-text","4","26526","0.0-4.0","VIDE","3","m","rechts","23","{""Q0"":""23""}","","","","",""
"44188","<p> Stell dir vor, dass du vor einem runden Tisch stehst, auf dem sich ein blauer Ball am Tischrand befindet. Entlang des Tischrands ist jeweils ein verschieden langer Pfeil. Nun bewegst du dich entlang dieses Pfeils bis an seine Spitze. Wenn du am Ende des Pfeils angekommen bist, schau zur Tischmitte. </p> <img src='img/90_180.png'></img> <br> <p>Entscheide dann, ob der Ball von deiner neuen (vorgestellten) Position links oder rechts von dir liegt.</p> <p>Dr&uuml;cke die <strong>'f'</strong>-Taste f&uuml;r links, die <strong>'j'</strong>-Taste f&uuml;r rechts.</p> <br><p> Das Bild wird jeweils 1 Sekunde lang pr&auml;sentiert. Du hast 3 Sekunden Zeit eine Entscheidung zu treffen.</p>","74","html-keyboard-response","5","70724","0.0-5.0","VIDE","3","m","rechts","23","","","","","",""
"null","<div style=""font-size:60px;"">+</div>","null","html-keyboard-response","6","72157","0.0-6.0-0.0","VIDE","3","m","rechts","23","","fixation","","","",""
"1222","img/120_270.png","74","image-keyboard-response","7","73400","0.0-6.0-1.0","VIDE","3","m","rechts","23","","","self","j","120","true"
"null","<div style=""font-size:60px;"">+</div>","null","html-keyboard-response","8","73881","0.0-6.0-0.1","VIDE","3","m","rechts","23","","fixation","","","",""
"656","img/0_30.png","74","image-keyboard-response","9","74555","0.0-6.0-1.1","VIDE","3","m","rechts","23","","","self","j","0","true"
"null","<div style=""font-size:60px;"">+</div>","null","html-keyboard-response","10","75085","0.0-6.0-0.2","VIDE","3","m","rechts","23","","fixation","","","",""
"632","img/150_180.png","74","image-keyboard-response","11","75735","0.0-6.0-1.2","VIDE","3","m","rechts","23","","","self","j","150","true"
"null","<div style=""font-size:60px;"">+</div>","null","html-keyboard-response","12","76147","0.0-6.0-0.3","VIDE","3","m","rechts","23","","fixation","","","",""
"819","img/150_240.png","74","image-keyboard-response","13","76982","0.0-6.0-1.3","VIDE","3","m","rechts","23","","","self","j","150","true"
"null","<div style=""font-size:60px;"">+</div>","null","html-keyboard-response","14","77287","0.0-6.0-0.4","VIDE","3","m","rechts","23","","fixation","","","",""
"1221","img/150_60.png","70","image-keyboard-response","15","78526","0.0-6.0-1.4","VIDE","3","m","rechts","23","","","self","f","150","true"
"null","<div style=""font-size:60px;"">+</div>","null","html-keyboard-response","16","78881","0.0-6.0-0.5","VIDE","3","m","rechts","23","","fixation","","","",""
"910","img/90_30.png","74","image-keyboard-response","17","79809","0.0-6.0-1.5","VIDE","3","m","rechts","23","","","self","j","90","true"
"null","<div style=""font-size:60px;"">+</div>","null","html-keyboard-response","18","80180","0.0-6.0-0.6","VIDE","3","m","rechts","23","","fixation","","","",""
"883","img/120_150.png","70","image-keyboard-response","19","81080","0.0-6.0-1.6","VIDE","3","m","rechts","23","","","self","f","120","true"
"null","<div style=""font-size:60px;"">+</div>","null","html-keyboard-response","20","81397","0.0-6.0-0.7","VIDE","3","m","rechts","23","","fixation","","","",""
"1127","img/30_240.png","74","image-keyboard-response","21","82543","0.0-6.0-1.7","VIDE","3","m","rechts","23","","","self","f","30","false"
"null","<div style=""font-size:60px;"">+</div>","null","html-keyboard-response","22","82852","0.0-6.0-0.8","VIDE","3","m","rechts","23","","fixation","","","",""
"968","img/150_300.png","74","image-keyboard-response","23","83838","0.0-6.0-1.8","VIDE","3","m","rechts","23","","","self","j","150","true"
"null","<div style=""font-size:60px;"">+</div>","null","html-keyboard-response","24","84241","0.0-6.0-0.9","VIDE","3","m","rechts","23","","fixation","","","",""
"781","img/60_180.png","74","image-keyboard-response","25","85040","0.0-6.0-1.9","VIDE","3","m","rechts","23","","","self","j","60","true"
"null","<div style=""font-size:60px;"">+</div>","null","html-keyboard-response","26","85350","0.0-6.0-0.10","VIDE","3","m","rechts","23","","fixation","","","",""
"1065","img/60_30.png","74","image-keyboard-response","27","86434","0.0-6.0-1.10","VIDE","3","m","rechts","23","","","self","j","60","true"
"null","<div style=""font-size:60px;"">+</div>","null","html-keyboard-response","28","86851","0.0-6.0-0.11","VIDE","3","m","rechts","23","","fixation","","","",""
"1286","img/90_240.png","74","image-keyboard-response","29","88155","0.0-6.0-1.11","VIDE","3","m","rechts","23","","","self","j","90","true"
"null","<div style=""font-size:60px;"">+</div>","null","html-keyboard-response","30","88508","0.0-6.0-0.12","VIDE","3","m","rechts","23","","fixation","","","",""
"800","img/L30_180.png","70","image-keyboard-response","31","89327","0.0-6.0-1.12","VIDE","3","m","rechts","23","","","self","f","30","true"
"null","<div style=""font-size:60px;"">+</div>","null","html-keyboard-response","32","89837","0.0-6.0-0.13","VIDE","3","m","rechts","23","","fixation","","","",""
"710","img/0_240.png","70","image-keyboard-response","33","90564","0.0-6.0-1.13","VIDE","3","m","rechts","23","","","self","f","0","true"
"null","<div style=""font-size:60px;"">+</div>","null","html-keyboard-response","34","90868","0.0-6.0-0.14","VIDE","3","m","rechts","23","","fixation","","","",""
"1013","img/30_180.png","74","image-keyboard-response","35","91902","0.0-6.0-1.14","VIDE","3","m","rechts","23","","","self","j","30","true"
"null","<div style=""font-size:60px;"">+</div>","null","html-keyboard-response","36","92369","0.0-6.0-0.15","VIDE","3","m","rechts","23","","fixation","","","",""
"913","img/90_120.png","70","image-keyboard-response","37","93297","0.0-6.0-1.15","VIDE","3","m","rechts","23","","","self","f","90","true"
"null","<div style=""font-size:60px;"">+</div>","null","html-keyboard-response","38","93648","0.0-6.0-0.16","VIDE","3","m","rechts","23","","fixation","","","",""
"853","img/30_90.png","74","image-keyboard-response","39","94525","0.0-6.0-1.16","VIDE","3","m","rechts","23","","","self","j","30","true"
"null","<div style=""font-size:60px;"">+</div>","null","html-keyboard-response","40","94835","0.0-6.0-0.17","VIDE","3","m","rechts","23","","fixation","","","",""
"1019","img/60_270.png","74","image-keyboard-response","41","95874","0.0-6.0-1.17","VIDE","3","m","rechts","23","","","self","f","60","false"
"null","<div style=""font-size:60px;"">+</div>","null","html-keyboard-response","42","96305","0.0-6.0-0.18","VIDE","3","m","rechts","23","","fixation","","","",""
"833","img/30_60.png","74","image-keyboard-response","43","97157","0.0-6.0-1.18","VIDE","3","m","rechts","23","","","self","j","30","true"
"null","<div style=""font-size:60px;"">+</div>","null","html-keyboard-response","44","97587","0.0-6.0-0.19","VIDE","3","m","rechts","23","","fixation","","","",""
"1373","img/120_330.png","70","image-keyboard-response","45","98977","0.0-6.0-1.19","VIDE","3","m","rechts","23","","","self","f","120","true"
"null","<div style=""font-size:60px;"">+</div>","null","html-keyboard-response","46","99384","0.0-6.0-0.20","VIDE","3","m","rechts","23","","fixation","","","",""
"1276","img/90_60.png","70","image-keyboard-response","47","100678","0.0-6.0-1.20","VIDE","3","m","rechts","23","","","self","j","90","false"
"null","<div style=""font-size:60px;"">+</div>","null","html-keyboard-response","48","101181","0.0-6.0-0.21","VIDE","3","m","rechts","23","","fixation","","","",""
"1256","img/L120_180.png","70","image-keyboard-response","49","102444","0.0-6.0-1.21","VIDE","3","m","rechts","23","","","self","f","120","true"
"null","<div style=""font-size:60px;"">+</div>","null","html-keyboard-response","50","102869","0.0-6.0-0.22","VIDE","3","m","rechts","23","","fixation","","","",""
"1033","img/L150_180.png","70","image-keyboard-response","51","103919","0.0-6.0-1.22","VIDE","3","m","rechts","23","","","self","f","150","true"
"null","<div style=""font-size:60px;"">+</div>","null","html-keyboard-response","52","104385","0.0-6.0-0.23","VIDE","3","m","rechts","23","","fixation","","","",""
"708","img/0_90.png","74","image-keyboard-response","53","105110","0.0-6.0-1.23","VIDE","3","m","rechts","23","","","self","j","0","true"
"null","<div style=""font-size:60px;"">+</div>","null","html-keyboard-response","54","105515","0.0-6.0-0.24","VIDE","3","m","rechts","23","","fixation","","","",""
"851","img/60_210.png","74","image-keyboard-response","55","106382","0.0-6.0-1.24","VIDE","3","m","rechts","23","","","self","j","60","true"
"null","<div style=""font-size:60px;"">+</div>","null","html-keyboard-response","56","106734","0.0-6.0-0.25","VIDE","3","m","rechts","23","","fixation","","","",""
"744","img/0_120.png","74","image-keyboard-response","57","107496","0.0-6.0-1.25","VIDE","3","m","rechts","23","","","self","j","0","true"
"null","<div style=""font-size:60px;"">+</div>","null","html-keyboard-response","58","107952","0.0-6.0-0.26","VIDE","3","m","rechts","23","","fixation","","","",""
"659","img/0_210.png","70","image-keyboard-response","59","108622","0.0-6.0-1.26","VIDE","3","m","rechts","23","","","self","f","0","true"
"null","<div style=""font-size:60px;"">+</div>","null","html-keyboard-response","60","108999","0.0-6.0-0.27","VIDE","3","m","rechts","23","","fixation","","","",""
"1000","img/60_330.png","70","image-keyboard-response","61","110016","0.0-6.0-1.27","VIDE","3","m","rechts","23","","","self","f","60","true"
"null","<div style=""font-size:60px;"">+</div>","null","html-keyboard-response","62","110467","0.0-6.0-0.28","VIDE","3","m","rechts","23","","fixation","","","",""
"773","img/90_180.png","70","image-keyboard-response","63","111253","0.0-6.0-1.28","VIDE","3","m","rechts","23","","","self","j","90","false"
"null","<div style=""font-size:60px;"">+</div>","null","html-keyboard-response","64","111718","0.0-6.0-0.29","VIDE","3","m","rechts","23","","fixation","","","",""
"1104","img/0_330.png","70","image-keyboard-response","65","112839","0.0-6.0-1.29","VIDE","3","m","rechts","23","","","self","f","0","true"
"null","<div style=""font-size:60px;"">+</div>","null","html-keyboard-response","66","113296","0.0-6.0-0.30","VIDE","3","m","rechts","23","","fixation","","","",""
"749","img/0_270.png","70","image-keyboard-response","67","114066","0.0-6.0-1.30","VIDE","3","m","rechts","23","","","self","f","0","true"
"null","<div style=""font-size:60px;"">+</div>","null","html-keyboard-response","68","114578","0.0-6.0-0.31","VIDE","3","m","rechts","23","","fixation","","","",""
"1145","img/120_30.png","70","image-keyboard-response","69","115742","0.0-6.0-1.31","VIDE","3","m","rechts","23","","","self","j","120","false"
"null","<div style=""font-size:60px;"">+</div>","null","html-keyboard-response","70","116064","0.0-6.0-0.32","VIDE","3","m","rechts","23","","fixation","","","",""
"918","img/60_150.png","70","image-keyboard-response","71","117001","0.0-6.0-1.32","VIDE","3","m","rechts","23","","","self","f","60","true"
"null","<div style=""font-size:60px;"">+</div>","null","html-keyboard-response","72","117330","0.0-6.0-0.33","VIDE","3","m","rechts","23","","fixation","","","",""
"1026","img/L90_180.png","70","image-keyboard-response","73","118375","0.0-6.0-1.33","VIDE","3","m","rechts","23","","","self","f","90","true"
"null","<div style=""font-size:60px;"">+</div>","null","html-keyboard-response","74","118891","0.0-6.0-0.34","VIDE","3","m","rechts","23","","fixation","","","",""
"974","img/30_300.png","70","image-keyboard-response","75","119882","0.0-6.0-1.34","VIDE","3","m","rechts","23","","","self","f","30","true"
"null","<div style=""font-size:60px;"">+</div>","null","html-keyboard-response","76","120189","0.0-6.0-0.35","VIDE","3","m","rechts","23","","fixation","","","",""
"1316","img/150_120.png","70","image-keyboard-response","77","121523","0.0-6.0-1.35","VIDE","3","m","rechts","23","","","self","f","150","true"
"null","<div style=""font-size:60px;"">+</div>","null","html-keyboard-response","78","121891","0.0-6.0-0.36","VIDE","3","m","rechts","23","","fixation","","","",""
"978","img/120_180.png","74","image-keyboard-response","79","122886","0.0-6.0-1.36","VIDE","3","m","rechts","23","","","self","j","120","true"
"null","<div style=""font-size:60px;"">+</div>","null","html-keyboard-response","80","123314","0.0-6.0-0.37","VIDE","3","m","rechts","23","","fixation","","","",""
"969","img/90_330.png","70","image-keyboard-response","81","124302","0.0-6.0-1.37","VIDE","3","m","rechts","23","","","self","f","90","true"
"null","<div style=""font-size:60px;"">+</div>","null","html-keyboard-response","82","124769","0.0-6.0-0.38","VIDE","3","m","rechts","23","","fixation","","","",""
"866","img/90_210.png","74","image-keyboard-response","83","125655","0.0-6.0-1.38","VIDE","3","m","rechts","23","","","self","j","90","true"
"null","<div style=""font-size:60px;"">+</div>","null","html-keyboard-response","84","126173","0.0-6.0-0.39","VIDE","3","m","rechts","23","","fixation","","","",""
"1160","img/120_90.png","70","image-keyboard-response","85","127352","0.0-6.0-1.39","VIDE","3","m","rechts","23","","","self","f","120","true"
"null","<div style=""font-size:60px;"">+</div>","null","html-keyboard-response","86","127815","0.0-6.0-0.40","VIDE","3","m","rechts","23","","fixation","","","",""
"676","img/0_300.png","70","image-keyboard-response","87","128510","0.0-6.0-1.40","VIDE","3","m","rechts","23","","","self","f","0","true"
"null","<div style=""font-size:60px;"">+</div>","null","html-keyboard-response","88","128925","0.0-6.0-0.41","VIDE","3","m","rechts","23","","fixation","","","",""
"804","img/30_120.png","74","image-keyboard-response","89","129748","0.0-6.0-1.41","VIDE","3","m","rechts","23","","","self","j","30","true"
"null","<div style=""font-size:60px;"">+</div>","null","html-keyboard-response","90","130268","0.0-6.0-0.42","VIDE","3","m","rechts","23","","fixation","","","",""
"1286","img/150_270.png","74","image-keyboard-response","91","131570","0.0-6.0-1.42","VIDE","3","m","rechts","23","","","self","j","150","true"
"null","<div style=""font-size:60px;"">+</div>","null","html-keyboard-response","92","132034","0.0-6.0-0.43","VIDE","3","m","rechts","23","","fixation","","","",""
"801","img/60_90.png","74","image-keyboard-response","93","132852","0.0-6.0-1.43","VIDE","3","m","rechts","23","","","self","j","60","true"
"null","<div style=""font-size:60px;"">+</div>","null","html-keyboard-response","94","133207","0.0-6.0-0.44","VIDE","3","m","rechts","23","","fixation","","","",""
"754","img/0_150.png","74","image-keyboard-response","95","133977","0.0-6.0-1.44","VIDE","3","m","rechts","23","","","self","j","0","true"
"null","<div style=""font-size:60px;"">+</div>","null","html-keyboard-response","96","134393","0.0-6.0-0.45","VIDE","3","m","rechts","23","","fixation","","","",""
"995","img/30_270.png","70","image-keyboard-response","97","135406","0.0-6.0-1.45","VIDE","3","m","rechts","23","","","self","f","30","true"
"null","<div style=""font-size:60px;"">+</div>","null","html-keyboard-response","98","135925","0.0-6.0-0.46","VIDE","3","m","rechts","23","","fixation","","","",""
"914","img/90_300.png","70","image-keyboard-response","99","136859","0.0-6.0-1.46","VIDE","3","m","rechts","23","","","self","f","90","true"
"null","<div style=""font-size:60px;"">+</div>","null","html-keyboard-response","100","137175","0.0-6.0-0.47","VIDE","3","m","rechts","23","","fixation","","","",""
"701","img/0_60.png","74","image-keyboard-response","101","137895","0.0-6.0-1.47","VIDE","3","m","rechts","23","","","self","j","0","true"
"null","<div style=""font-size:60px;"">+</div>","null","html-keyboard-response","102","138300","0.0-6.0-0.48","VIDE","3","m","rechts","23","","fixation","","","",""
"901","img/120_210.png","74","image-keyboard-response","103","139222","0.0-6.0-1.48","VIDE","3","m","rechts","23","","","self","j","120","true"
"null","<div style=""font-size:60px;"">+</div>","null","html-keyboard-response","104","139691","0.0-6.0-0.49","VIDE","3","m","rechts","23","","fixation","","","",""
"939","img/150_90.png","70","image-keyboard-response","105","140648","0.0-6.0-1.49","VIDE","3","m","rechts","23","","","self","f","150","true"
"null","<div style=""font-size:60px;"">+</div>","null","html-keyboard-response","106","141066","0.0-6.0-0.50","VIDE","3","m","rechts","23","","fixation","","","",""
"861","img/L60_180.png","70","image-keyboard-response","107","141943","0.0-6.0-1.50","VIDE","3","m","rechts","23","","","self","f","60","true"
"null","<div style=""font-size:60px;"">+</div>","null","html-keyboard-response","108","142408","0.0-6.0-0.51","VIDE","3","m","rechts","23","","fixation","","","",""
"674","img/90_150.png","70","image-keyboard-response","109","143102","0.0-6.0-1.51","VIDE","3","m","rechts","23","","","self","f","90","true"
"null","<div style=""font-size:60px;"">+</div>","null","html-keyboard-response","110","143409","0.0-6.0-0.52","VIDE","3","m","rechts","23","","fixation","","","",""
"753","img/60_90.png","74","image-keyboard-response","111","144172","0.0-6.0-1.52","VIDE","3","m","rechts","23","","","self","j","60","true"
"null","<div style=""font-size:60px;"">+</div>","null","html-keyboard-response","112","144581","0.0-6.0-0.53","VIDE","3","m","rechts","23","","fixation","","","",""
"880","img/120_150.png","70","image-keyboard-response","113","145476","0.0-6.0-1.53","VIDE","3","m","rechts","23","","","self","f","120","true"
"null","<div style=""font-size:60px;"">+</div>","null","html-keyboard-response","114","145847","0.0-6.0-0.54","VIDE","3","m","rechts","23","","fixation","","","",""
"991","img/90_330.png","74","image-keyboard-response","115","146848","0.0-6.0-1.54","VIDE","3","m","rechts","23","","","self","f","90","false"
"null","<div style=""font-size:60px;"">+</div>","null","html-keyboard-response","116","147363","0.0-6.0-0.55","VIDE","3","m","rechts","23","","fixation","","","",""
"787","img/150_180.png","74","image-keyboard-response","117","148164","0.0-6.0-1.55","VIDE","3","m","rechts","23","","","self","j","150","true"
"null","<div style=""font-size:60px;"">+</div>","null","html-keyboard-response","118","148535","0.0-6.0-0.56","VIDE","3","m","rechts","23","","fixation","","","",""
"970","img/150_90.png","70","image-keyboard-response","119","149515","0.0-6.0-1.56","VIDE","3","m","rechts","23","","","self","f","150","true"
"null","<div style=""font-size:60px;"">+</div>","null","html-keyboard-response","120","149942","0.0-6.0-0.57","VIDE","3","m","rechts","23","","fixation","","","",""
"931","img/150_60.png","70","image-keyboard-response","121","150887","0.0-6.0-1.57","VIDE","3","m","rechts","23","","","self","f","150","true"
"null","<div style=""font-size:60px;"">+</div>","null","html-keyboard-response","122","151207","0.0-6.0-0.58","VIDE","3","m","rechts","23","","fixation","","","",""
"658","img/90_150.png","70","image-keyboard-response","123","151876","0.0-6.0-1.58","VIDE","3","m","rechts","23","","","self","f","90","true"
"null","<div style=""font-size:60px;"">+</div>","null","html-keyboard-response","124","152346","0.0-6.0-0.59","VIDE","3","m","rechts","23","","fixation","","","",""
"932","img/L30_180.png","70","image-keyboard-response","125","153293","0.0-6.0-1.59","VIDE","3","m","rechts","23","","","self","f","30","true"
"null","<div style=""font-size:60px;"">+</div>","null","html-keyboard-response","126","153675","0.0-6.0-0.60","VIDE","3","m","rechts","23","","fixation","","","",""
"892","img/30_270.png","70","image-keyboard-response","127","154578","0.0-6.0-1.60","VIDE","3","m","rechts","23","","","self","f","30","true"
"null","<div style=""font-size:60px;"">+</div>","null","html-keyboard-response","128","154897","0.0-6.0-0.61","VIDE","3","m","rechts","23","","fixation","","","",""
"941","img/30_300.png","70","image-keyboard-response","129","155848","0.0-6.0-1.61","VIDE","3","m","rechts","23","","","self","f","30","true"
"null","<div style=""font-size:60px;"">+</div>","null","html-keyboard-response","130","156302","0.0-6.0-0.62","VIDE","3","m","rechts","23","","fixation","","","",""
"1319","img/60_180.png","74","image-keyboard-response","131","157638","0.0-6.0-1.62","VIDE","3","m","rechts","23","","","self","j","60","true"
"null","<div style=""font-size:60px;"">+</div>","null","html-keyboard-response","132","157943","0.0-6.0-0.63","VIDE","3","m","rechts","23","","fixation","","","",""
"963","img/90_30.png","74","image-keyboard-response","133","158919","0.0-6.0-1.63","VIDE","3","m","rechts","23","","","self","j","90","true"
"null","<div style=""font-size:60px;"">+</div>","null","html-keyboard-response","134","159380","0.0-6.0-0.64","VIDE","3","m","rechts","23","","fixation","","","",""
"956","img/90_120.png","70","image-keyboard-response","135","160349","0.0-6.0-1.64","VIDE","3","m","rechts","23","","","self","f","90","true"
"null","<div style=""font-size:60px;"">+</div>","null","html-keyboard-response","136","160756","0.0-6.0-0.65","VIDE","3","m","rechts","23","","fixation","","","",""
"709","img/30_120.png","70","image-keyboard-response","137","161474","0.0-6.0-1.65","VIDE","3","m","rechts","23","","","self","j","30","false"
"null","<div style=""font-size:60px;"">+</div>","null","html-keyboard-response","138","161848","0.0-6.0-0.66","VIDE","3","m","rechts","23","","fixation","","","",""
"607","img/0_150.png","74","image-keyboard-response","139","162465","0.0-6.0-1.66","VIDE","3","m","rechts","23","","","self","j","0","true"
"null","<div style=""font-size:60px;"">+</div>","null","html-keyboard-response","140","162834","0.0-6.0-0.67","VIDE","3","m","rechts","23","","fixation","","","",""
"667","img/0_300.png","70","image-keyboard-response","141","163510","0.0-6.0-1.67","VIDE","3","m","rechts","23","","","self","f","0","true"
"null","<div style=""font-size:60px;"">+</div>","null","html-keyboard-response","142","163911","0.0-6.0-0.68","VIDE","3","m","rechts","23","","fixation","","","",""
"790","img/30_60.png","74","image-keyboard-response","143","164714","0.0-6.0-1.68","VIDE","3","m","rechts","23","","","self","j","30","true"
"null","<div style=""font-size:60px;"">+</div>","null","html-keyboard-response","144","165227","0.0-6.0-0.69","VIDE","3","m","rechts","23","","fixation","","","",""
"1142","img/120_30.png","74","image-keyboard-response","145","166378","0.0-6.0-1.69","VIDE","3","m","rechts","23","","","self","j","120","true"
"null","<div style=""font-size:60px;"">+</div>","null","html-keyboard-response","146","166882","0.0-6.0-0.70","VIDE","3","m","rechts","23","","fixation","","","",""
"868","img/90_180.png","74","image-keyboard-response","147","167764","0.0-6.0-1.70","VIDE","3","m","rechts","23","","","self","j","90","true"
"null","<div style=""font-size:60px;"">+</div>","null","html-keyboard-response","148","168179","0.0-6.0-0.71","VIDE","3","m","rechts","23","","fixation","","","",""
"1109","img/60_330.png","70","image-keyboard-response","149","169301","0.0-6.0-1.71","VIDE","3","m","rechts","23","","","self","f","60","true"
"null","<div style=""font-size:60px;"">+</div>","null","html-keyboard-response","150","169757","0.0-6.0-0.72","VIDE","3","m","rechts","23","","fixation","","","",""
"727","img/0_270.png","70","image-keyboard-response","151","170497","0.0-6.0-1.72","VIDE","3","m","rechts","23","","","self","f","0","true"
"null","<div style=""font-size:60px;"">+</div>","null","html-keyboard-response","152","170929","0.0-6.0-0.73","VIDE","3","m","rechts","23","","fixation","","","",""
"861","img/60_150.png","70","image-keyboard-response","153","171800","0.0-6.0-1.73","VIDE","3","m","rechts","23","","","self","f","60","true"
"null","<div style=""font-size:60px;"">+</div>","null","html-keyboard-response","154","172163","0.0-6.0-0.74","VIDE","3","m","rechts","23","","fixation","","","",""
"874","img/0_210.png","70","image-keyboard-response","155","173051","0.0-6.0-1.74","VIDE","3","m","rechts","23","","","self","f","0","true"
"null","<div style=""font-size:60px;"">+</div>","null","html-keyboard-response","156","173460","0.0-6.0-0.75","VIDE","3","m","rechts","23","","fixation","","","",""
"738","img/60_210.png","74","image-keyboard-response","157","174209","0.0-6.0-1.75","VIDE","3","m","rechts","23","","","self","j","60","true"
"null","<div style=""font-size:60px;"">+</div>","null","html-keyboard-response","158","174570","0.0-6.0-0.76","VIDE","3","m","rechts","23","","fixation","","","",""
"721","img/L60_180.png","70","image-keyboard-response","159","175300","0.0-6.0-1.76","VIDE","3","m","rechts","23","","","self","f","60","true"
"null","<div style=""font-size:60px;"">+</div>","null","html-keyboard-response","160","175727","0.0-6.0-0.77","VIDE","3","m","rechts","23","","fixation","","","",""
"833","img/150_120.png","70","image-keyboard-response","161","176571","0.0-6.0-1.77","VIDE","3","m","rechts","23","","","self","f","150","true"
"null","<div style=""font-size:60px;"">+</div>","null","html-keyboard-response","162","176941","0.0-6.0-0.78","VIDE","3","m","rechts","23","","fixation","","","",""
"1172","img/150_270.png","74","image-keyboard-response","163","178124","0.0-6.0-1.78","VIDE","3","m","rechts","23","","","self","j","150","true"
"null","<div style=""font-size:60px;"">+</div>","null","html-keyboard-response","164","178596","0.0-6.0-0.79","VIDE","3","m","rechts","23","","fixation","","","",""
"643","img/0_60.png","74","image-keyboard-response","165","179248","0.0-6.0-1.79","VIDE","3","m","rechts","23","","","self","j","0","true"
"null","<div style=""font-size:60px;"">+</div>","null","html-keyboard-response","166","179581","0.0-6.0-0.80","VIDE","3","m","rechts","23","","fixation","","","",""
"1004","img/90_60.png","74","image-keyboard-response","167","180599","0.0-6.0-1.80","VIDE","3","m","rechts","23","","","self","j","90","true"
"null","<div style=""font-size:60px;"">+</div>","null","html-keyboard-response","168","181002","0.0-6.0-0.81","VIDE","3","m","rechts","23","","fixation","","","",""
"1377","img/120_330.png","70","image-keyboard-response","169","182388","0.0-6.0-1.81","VIDE","3","m","rechts","23","","","self","f","120","true"
"null","<div style=""font-size:60px;"">+</div>","null","html-keyboard-response","170","182908","0.0-6.0-0.82","VIDE","3","m","rechts","23","","fixation","","","",""
"693","img/0_30.png","74","image-keyboard-response","171","183613","0.0-6.0-1.82","VIDE","3","m","rechts","23","","","self","j","0","true"
"null","<div style=""font-size:60px;"">+</div>","null","html-keyboard-response","172","184033","0.0-6.0-0.83","VIDE","3","m","rechts","23","","fixation","","","",""
"1053","img/30_90.png","74","image-keyboard-response","173","185099","0.0-6.0-1.83","VIDE","3","m","rechts","23","","","self","j","30","true"
"null","<div style=""font-size:60px;"">+</div>","null","html-keyboard-response","174","185458","0.0-6.0-0.84","VIDE","3","m","rechts","23","","fixation","","","",""
"844","img/120_180.png","74","image-keyboard-response","175","186315","0.0-6.0-1.84","VIDE","3","m","rechts","23","","","self","j","120","true"
"null","<div style=""font-size:60px;"">+</div>","null","html-keyboard-response","176","186692","0.0-6.0-0.85","VIDE","3","m","rechts","23","","fixation","","","",""
"914","img/30_240.png","70","image-keyboard-response","177","187618","0.0-6.0-1.85","VIDE","3","m","rechts","23","","","self","f","30","true"
"null","<div style=""font-size:60px;"">+</div>","null","html-keyboard-response","178","188145","0.0-6.0-0.86","VIDE","3","m","rechts","23","","fixation","","","",""
"789","img/L120_180.png","70","image-keyboard-response","179","188947","0.0-6.0-1.86","VIDE","3","m","rechts","23","","","self","f","120","true"
"null","<div style=""font-size:60px;"">+</div>","null","html-keyboard-response","180","189426","0.0-6.0-0.87","VIDE","3","m","rechts","23","","fixation","","","",""
"541","img/L90_180.png","70","image-keyboard-response","181","189981","0.0-6.0-1.87","VIDE","3","m","rechts","23","","","self","f","90","true"
"null","<div style=""font-size:60px;"">+</div>","null","html-keyboard-response","182","190410","0.0-6.0-0.88","VIDE","3","m","rechts","23","","fixation","","","",""
"775","img/30_180.png","74","image-keyboard-response","183","191198","0.0-6.0-1.88","VIDE","3","m","rechts","23","","","self","j","30","true"
"null","<div style=""font-size:60px;"">+</div>","null","html-keyboard-response","184","191674","0.0-6.0-0.89","VIDE","3","m","rechts","23","","fixation","","","",""
"1016","img/120_270.png","74","image-keyboard-response","185","192704","0.0-6.0-1.89","VIDE","3","m","rechts","23","","","self","j","120","true"
"null","<div style=""font-size:60px;"">+</div>","null","html-keyboard-response","186","193081","0.0-6.0-0.90","VIDE","3","m","rechts","23","","fixation","","","",""
"757","img/0_240.png","70","image-keyboard-response","187","193852","0.0-6.0-1.90","VIDE","3","m","rechts","23","","","self","f","0","true"
"null","<div style=""font-size:60px;"">+</div>","null","html-keyboard-response","188","194159","0.0-6.0-0.91","VIDE","3","m","rechts","23","","fixation","","","",""
"1086","img/120_90.png","70","image-keyboard-response","189","195258","0.0-6.0-1.91","VIDE","3","m","rechts","23","","","self","f","120","true"
"null","<div style=""font-size:60px;"">+</div>","null","html-keyboard-response","190","195725","0.0-6.0-0.92","VIDE","3","m","rechts","23","","fixation","","","",""
"994","img/90_210.png","74","image-keyboard-response","191","196733","0.0-6.0-1.92","VIDE","3","m","rechts","23","","","self","j","90","true"
"null","<div style=""font-size:60px;"">+</div>","null","html-keyboard-response","192","197209","0.0-6.0-0.93","VIDE","3","m","rechts","23","","fixation","","","",""
"927","img/150_240.png","74","image-keyboard-response","193","198149","0.0-6.0-1.93","VIDE","3","m","rechts","23","","","self","j","150","true"
"null","<div style=""font-size:60px;"">+</div>","null","html-keyboard-response","194","198661","0.0-6.0-0.94","VIDE","3","m","rechts","23","","fixation","","","",""
"749","img/120_210.png","74","image-keyboard-response","195","199421","0.0-6.0-1.94","VIDE","3","m","rechts","23","","","self","j","120","true"
"null","<div style=""font-size:60px;"">+</div>","null","html-keyboard-response","196","199880","0.0-6.0-0.95","VIDE","3","m","rechts","23","","fixation","","","",""
"1167","img/90_300.png","70","image-keyboard-response","197","201060","0.0-6.0-1.95","VIDE","3","m","rechts","23","","","self","f","90","true"
"null","<div style=""font-size:60px;"">+</div>","null","html-keyboard-response","198","201380","0.0-6.0-0.96","VIDE","3","m","rechts","23","","fixation","","","",""
"795","img/90_240.png","74","image-keyboard-response","199","202188","0.0-6.0-1.96","VIDE","3","m","rechts","23","","","self","j","90","true"
"null","<div style=""font-size:60px;"">+</div>","null","html-keyboard-response","200","202709","0.0-6.0-0.97","VIDE","3","m","rechts","23","","fixation","","","",""
"828","img/L150_180.png","70","image-keyboard-response","201","203549","0.0-6.0-1.97","VIDE","3","m","rechts","23","","","self","f","150","true"
"null","<div style=""font-size:60px;"">+</div>","null","html-keyboard-response","202","204068","0.0-6.0-0.98","VIDE","3","m","rechts","23","","fixation","","","",""
"706","img/0_120.png","74","image-keyboard-response","203","204787","0.0-6.0-1.98","VIDE","3","m","rechts","23","","","self","j","0","true"
"null","<div style=""font-size:60px;"">+</div>","null","html-keyboard-response","204","205147","0.0-6.0-0.99","VIDE","3","m","rechts","23","","fixation","","","",""
"1202","img/60_30.png","74","image-keyboard-response","205","206362","0.0-6.0-1.99","VIDE","3","m","rechts","23","","","self","j","60","true"
"null","<div style=""font-size:60px;"">+</div>","null","html-keyboard-response","206","206772","0.0-6.0-0.100","VIDE","3","m","rechts","23","","fixation","","","",""
"1019","img/60_270.png","74","image-keyboard-response","207","207804","0.0-6.0-1.100","VIDE","3","m","rechts","23","","","self","f","60","false"
"null","<div style=""font-size:60px;"">+</div>","null","html-keyboard-response","208","208319","0.0-6.0-0.101","VIDE","3","m","rechts","23","","fixation","","","",""
"684","img/0_90.png","74","image-keyboard-response","209","209016","0.0-6.0-1.101","VIDE","3","m","rechts","23","","","self","j","0","true"
"null","<div style=""font-size:60px;"">+</div>","null","html-keyboard-response","210","209491","0.0-6.0-0.102","VIDE","3","m","rechts","23","","fixation","","","",""
"1088","img/150_300.png","74","image-keyboard-response","211","210592","0.0-6.0-1.102","VIDE","3","m","rechts","23","","","self","j","150","true"
"null","<div style=""font-size:60px;"">+</div>","null","html-keyboard-response","212","211116","0.0-6.0-0.103","VIDE","3","m","rechts","23","","fixation","","","",""
"735","img/0_330.png","70","image-keyboard-response","213","211863","0.0-6.0-1.103","VIDE","3","m","rechts","23","","","self","f","0","true"
"null","<div style=""font-size:60px;"">+</div>","null","html-keyboard-response","214","212229","0.0-6.0-0.104","VIDE","3","m","rechts","23","","fixation","","","",""
"948","img/30_300.png","70","image-keyboard-response","215","213192","0.0-6.0-1.104","VIDE","3","m","rechts","23","","","self","f","30","true"
"null","<div style=""font-size:60px;"">+</div>","null","html-keyboard-response","216","213605","0.0-6.0-0.105","VIDE","3","m","rechts","23","","fixation","","","",""
"688","img/0_300.png","70","image-keyboard-response","217","214305","0.0-6.0-1.105","VIDE","3","m","rechts","23","","","self","f","0","true"
"null","<div style=""font-size:60px;"">+</div>","null","html-keyboard-response","218","214761","0.0-6.0-0.106","VIDE","3","m","rechts","23","","fixation","","","",""
"970","img/90_330.png","70","image-keyboard-response","219","215746","0.0-6.0-1.106","VIDE","3","m","rechts","23","","","self","f","90","true"
"null","<div style=""font-size:60px;"">+</div>","null","html-keyboard-response","220","216073","0.0-6.0-0.107","VIDE","3","m","rechts","23","","fixation","","","",""
"889","img/150_120.png","70","image-keyboard-response","221","216971","0.0-6.0-1.107","VIDE","3","m","rechts","23","","","self","f","150","true"
"null","<div style=""font-size:60px;"">+</div>","null","html-keyboard-response","222","217339","0.0-6.0-0.108","VIDE","3","m","rechts","23","","fixation","","","",""
"881","img/120_210.png","74","image-keyboard-response","223","218229","0.0-6.0-1.108","VIDE","3","m","rechts","23","","","self","j","120","true"
"null","<div style=""font-size:60px;"">+</div>","null","html-keyboard-response","224","218683","0.0-6.0-0.109","VIDE","3","m","rechts","23","","fixation","","","",""
"908","img/90_30.png","74","image-keyboard-response","225","219603","0.0-6.0-1.109","VIDE","3","m","rechts","23","","","self","j","90","true"
"null","<div style=""font-size:60px;"">+</div>","null","html-keyboard-response","226","219978","0.0-6.0-0.110","VIDE","3","m","rechts","23","","fixation","","","",""
"619","img/L60_180.png","74","image-keyboard-response","227","220605","0.0-6.0-1.110","VIDE","3","m","rechts","23","","","self","f","60","false"
"null","<div style=""font-size:60px;"">+</div>","null","html-keyboard-response","228","220963","0.0-6.0-0.111","VIDE","3","m","rechts","23","","fixation","","","",""
"618","img/0_150.png","74","image-keyboard-response","229","221595","0.0-6.0-1.111","VIDE","3","m","rechts","23","","","self","j","0","true"
"null","<div style=""font-size:60px;"">+</div>","null","html-keyboard-response","230","222011","0.0-6.0-0.112","VIDE","3","m","rechts","23","","fixation","","","",""
"579","img/0_120.png","74","image-keyboard-response","231","222595","0.0-6.0-1.112","VIDE","3","m","rechts","23","","","self","j","0","true"
"null","<div style=""font-size:60px;"">+</div>","null","html-keyboard-response","232","223010","0.0-6.0-0.113","VIDE","3","m","rechts","23","","fixation","","","",""
"907","img/60_30.png","74","image-keyboard-response","233","223923","0.0-6.0-1.113","VIDE","3","m","rechts","23","","","self","j","60","true"
"null","<div style=""font-size:60px;"">+</div>","null","html-keyboard-response","234","224401","0.0-6.0-0.114","VIDE","3","m","rechts","23","","fixation","","","",""
"894","img/120_150.png","70","image-keyboard-response","235","225307","0.0-6.0-1.114","VIDE","3","m","rechts","23","","","self","f","120","true"
"null","<div style=""font-size:60px;"">+</div>","null","html-keyboard-response","236","225729","0.0-6.0-0.115","VIDE","3","m","rechts","23","","fixation","","","",""
"676","img/90_180.png","74","image-keyboard-response","237","226419","0.0-6.0-1.115","VIDE","3","m","rechts","23","","","self","j","90","true"
"null","<div style=""font-size:60px;"">+</div>","null","html-keyboard-response","238","226776","0.0-6.0-0.116","VIDE","3","m","rechts","23","","fixation","","","",""
"1037","img/120_30.png","74","image-keyboard-response","239","227828","0.0-6.0-1.116","VIDE","3","m","rechts","23","","","self","j","120","true"
"null","<div style=""font-size:60px;"">+</div>","null","html-keyboard-response","240","228197","0.0-6.0-0.117","VIDE","3","m","rechts","23","","fixation","","","",""
"940","img/90_150.png","70","image-keyboard-response","241","229142","0.0-6.0-1.117","VIDE","3","m","rechts","23","","","self","f","90","true"
"null","<div style=""font-size:60px;"">+</div>","null","html-keyboard-response","242","229448","0.0-6.0-0.118","VIDE","3","m","rechts","23","","fixation","","","",""
"830","img/150_270.png","74","image-keyboard-response","243","230292","0.0-6.0-1.118","VIDE","3","m","rechts","23","","","self","j","150","true"
"null","<div style=""font-size:60px;"">+</div>","null","html-keyboard-response","244","230668","0.0-6.0-0.119","VIDE","3","m","rechts","23","","fixation","","","",""
"884","img/60_270.png","70","image-keyboard-response","245","231561","0.0-6.0-1.119","VIDE","3","m","rechts","23","","","self","f","60","true"
"null","<div style=""font-size:60px;"">+</div>","null","html-keyboard-response","246","231934","0.0-6.0-0.120","VIDE","3","m","rechts","23","","fixation","","","",""
"887","img/90_300.png","70","image-keyboard-response","247","232831","0.0-6.0-1.120","VIDE","3","m","rechts","23","","","self","f","90","true"
"null","<div style=""font-size:60px;"">+</div>","null","html-keyboard-response","248","233246","0.0-6.0-0.121","VIDE","3","m","rechts","23","","fixation","","","",""
"903","img/30_240.png","70","image-keyboard-response","249","234159","0.0-6.0-1.121","VIDE","3","m","rechts","23","","","self","f","30","true"
"null","<div style=""font-size:60px;"">+</div>","null","html-keyboard-response","250","234575","0.0-6.0-0.122","VIDE","3","m","rechts","23","","fixation","","","",""
"597","img/60_210.png","70","image-keyboard-response","251","235185","0.0-6.0-1.122","VIDE","3","m","rechts","23","","","self","j","60","false"
"null","<div style=""font-size:60px;"">+</div>","null","html-keyboard-response","252","235652","0.0-6.0-0.123","VIDE","3","m","rechts","23","","fixation","","","",""
"949","img/120_330.png","70","image-keyboard-response","253","236614","0.0-6.0-1.123","VIDE","3","m","rechts","23","","","self","f","120","true"
"null","<div style=""font-size:60px;"">+</div>","null","html-keyboard-response","254","237137","0.0-6.0-0.124","VIDE","3","m","rechts","23","","fixation","","","",""
"1026","img/120_180.png","74","image-keyboard-response","255","238176","0.0-6.0-1.124","VIDE","3","m","rechts","23","","","self","j","120","true"
"null","<div style=""font-size:60px;"">+</div>","null","html-keyboard-response","256","238683","0.0-6.0-0.125","VIDE","3","m","rechts","23","","fixation","","","",""
"771","img/30_60.png","74","image-keyboard-response","257","239467","0.0-6.0-1.125","VIDE","3","m","rechts","23","","","self","j","30","true"
"null","<div style=""font-size:60px;"">+</div>","null","html-keyboard-response","258","239778","0.0-6.0-0.126","VIDE","3","m","rechts","23","","fixation","","","",""
"664","img/30_270.png","74","image-keyboard-response","259","240458","0.0-6.0-1.126","VIDE","3","m","rechts","23","","","self","f","30","false"
"null","<div style=""font-size:60px;"">+</div>","null","html-keyboard-response","260","240889","0.0-6.0-0.127","VIDE","3","m","rechts","23","","fixation","","","",""
"762","img/60_90.png","74","image-keyboard-response","261","241665","0.0-6.0-1.127","VIDE","3","m","rechts","23","","","self","j","60","true"
"null","<div style=""font-size:60px;"">+</div>","null","html-keyboard-response","262","241997","0.0-6.0-0.128","VIDE","3","m","rechts","23","","fixation","","","",""
"919","img/90_60.png","74","image-keyboard-response","263","242925","0.0-6.0-1.128","VIDE","3","m","rechts","23","","","self","j","90","true"
"null","<div style=""font-size:60px;"">+</div>","null","html-keyboard-response","264","243232","0.0-6.0-0.129","VIDE","3","m","rechts","23","","fixation","","","",""
"651","img/0_270.png","70","image-keyboard-response","265","243891","0.0-6.0-1.129","VIDE","3","m","rechts","23","","","self","f","0","true"
"null","<div style=""font-size:60px;"">+</div>","null","html-keyboard-response","266","244371","0.0-6.0-0.130","VIDE","3","m","rechts","23","","fixation","","","",""
"689","img/90_120.png","70","image-keyboard-response","267","245075","0.0-6.0-1.130","VIDE","3","m","rechts","23","","","self","f","90","true"
"null","<div style=""font-size:60px;"">+</div>","null","html-keyboard-response","268","245452","0.0-6.0-0.131","VIDE","3","m","rechts","23","","fixation","","","",""
"577","img/0_90.png","74","image-keyboard-response","269","246040","0.0-6.0-1.131","VIDE","3","m","rechts","23","","","self","j","0","true"
"null","<div style=""font-size:60px;"">+</div>","null","html-keyboard-response","270","246356","0.0-6.0-0.132","VIDE","3","m","rechts","23","","fixation","","","",""
"676","img/90_210.png","74","image-keyboard-response","271","247042","0.0-6.0-1.132","VIDE","3","m","rechts","23","","","self","j","90","true"
"null","<div style=""font-size:60px;"">+</div>","null","html-keyboard-response","272","247500","0.0-6.0-0.133","VIDE","3","m","rechts","23","","fixation","","","",""
"649","img/L90_180.png","70","image-keyboard-response","273","248163","0.0-6.0-1.133","VIDE","3","m","rechts","23","","","self","f","90","true"
"null","<div style=""font-size:60px;"">+</div>","null","html-keyboard-response","274","248579","0.0-6.0-0.134","VIDE","3","m","rechts","23","","fixation","","","",""
"835","img/30_120.png","74","image-keyboard-response","275","249428","0.0-6.0-1.134","VIDE","3","m","rechts","23","","","self","j","30","true"
"null","<div style=""font-size:60px;"">+</div>","null","html-keyboard-response","276","249750","0.0-6.0-0.135","VIDE","3","m","rechts","23","","fixation","","","",""
"574","img/30_90.png","74","image-keyboard-response","277","250337","0.0-6.0-1.135","VIDE","3","m","rechts","23","","","self","j","30","true"
"null","<div style=""font-size:60px;"">+</div>","null","html-keyboard-response","278","250859","0.0-6.0-0.136","VIDE","3","m","rechts","23","","fixation","","","",""
"715","img/L30_180.png","70","image-keyboard-response","279","251588","0.0-6.0-1.136","VIDE","3","m","rechts","23","","","self","f","30","true"
"null","<div style=""font-size:60px;"">+</div>","null","html-keyboard-response","280","252108","0.0-6.0-0.137","VIDE","3","m","rechts","23","","fixation","","","",""
"535","img/0_240.png","70","image-keyboard-response","281","252657","0.0-6.0-1.137","VIDE","3","m","rechts","23","","","self","f","0","true"
"null","<div style=""font-size:60px;"">+</div>","null","html-keyboard-response","282","253016","0.0-6.0-0.138","VIDE","3","m","rechts","23","","fixation","","","",""
"963","img/150_300.png","70","image-keyboard-response","283","253985","0.0-6.0-1.138","VIDE","3","m","rechts","23","","","self","j","150","false"
"null","<div style=""font-size:60px;"">+</div>","null","html-keyboard-response","284","254296","0.0-6.0-0.139","VIDE","3","m","rechts","23","","fixation","","","",""
"667","img/0_330.png","70","image-keyboard-response","285","254973","0.0-6.0-1.139","VIDE","3","m","rechts","23","","","self","f","0","true"
"null","<div style=""font-size:60px;"">+</div>","null","html-keyboard-response","286","255486","0.0-6.0-0.140","VIDE","3","m","rechts","23","","fixation","","","",""
"737","img/L150_180.png","70","image-keyboard-response","287","256233","0.0-6.0-1.140","VIDE","3","m","rechts","23","","","self","f","150","true"
"null","<div style=""font-size:60px;"">+</div>","null","html-keyboard-response","288","256565","0.0-6.0-0.141","VIDE","3","m","rechts","23","","fixation","","","",""
"914","img/60_150.png","70","image-keyboard-response","289","257493","0.0-6.0-1.141","VIDE","3","m","rechts","23","","","self","f","60","true"
"null","<div style=""font-size:60px;"">+</div>","null","html-keyboard-response","290","258017","0.0-6.0-0.142","VIDE","3","m","rechts","23","","fixation","","","",""
"649","img/0_60.png","74","image-keyboard-response","291","258675","0.0-6.0-1.142","VIDE","3","m","rechts","23","","","self","j","0","true"
"null","<div style=""font-size:60px;"">+</div>","null","html-keyboard-response","292","259144","0.0-6.0-0.143","VIDE","3","m","rechts","23","","fixation","","","",""
"835","img/30_180.png","74","image-keyboard-response","293","259990","0.0-6.0-1.143","VIDE","3","m","rechts","23","","","self","j","30","true"
"null","<div style=""font-size:60px;"">+</div>","null","html-keyboard-response","294","260470","0.0-6.0-0.144","VIDE","3","m","rechts","23","","fixation","","","",""
"971","img/120_90.png","70","image-keyboard-response","295","261458","0.0-6.0-1.144","VIDE","3","m","rechts","23","","","self","f","120","true"
"null","<div style=""font-size:60px;"">+</div>","null","html-keyboard-response","296","261969","0.0-6.0-0.145","VIDE","3","m","rechts","23","","fixation","","","",""
"785","img/150_240.png","74","image-keyboard-response","297","262770","0.0-6.0-1.145","VIDE","3","m","rechts","23","","","self","j","150","true"
"null","<div style=""font-size:60px;"">+</div>","null","html-keyboard-response","298","263127","0.0-6.0-0.146","VIDE","3","m","rechts","23","","fixation","","","",""
"870","img/120_270.png","70","image-keyboard-response","299","264008","0.0-6.0-1.146","VIDE","3","m","rechts","23","","","self","j","120","false"
"null","<div style=""font-size:60px;"">+</div>","null","html-keyboard-response","300","264376","0.0-6.0-0.147","VIDE","3","m","rechts","23","","fixation","","","",""
"1125","img/90_240.png","74","image-keyboard-response","301","265514","0.0-6.0-1.147","VIDE","3","m","rechts","23","","","self","j","90","true"
"null","<div style=""font-size:60px;"">+</div>","null","html-keyboard-response","302","266019","0.0-6.0-0.148","VIDE","3","m","rechts","23","","fixation","","","",""
"1152","img/60_330.png","70","image-keyboard-response","303","267181","0.0-6.0-1.148","VIDE","3","m","rechts","23","","","self","f","60","true"
"null","<div style=""font-size:60px;"">+</div>","null","html-keyboard-response","304","267549","0.0-6.0-0.149","VIDE","3","m","rechts","23","","fixation","","","",""
"1136","img/150_60.png","70","image-keyboard-response","305","268699","0.0-6.0-1.149","VIDE","3","m","rechts","23","","","self","f","150","true"
"null","<div style=""font-size:60px;"">+</div>","null","html-keyboard-response","306","269066","0.0-6.0-0.150","VIDE","3","m","rechts","23","","fixation","","","",""
"578","img/0_30.png","74","image-keyboard-response","307","269655","0.0-6.0-1.150","VIDE","3","m","rechts","23","","","self","j","0","true"
"null","<div style=""font-size:60px;"">+</div>","null","html-keyboard-response","308","269972","0.0-6.0-0.151","VIDE","3","m","rechts","23","","fixation","","","",""
"883","img/150_90.png","70","image-keyboard-response","309","270869","0.0-6.0-1.151","VIDE","3","m","rechts","23","","","self","f","150","true"
"null","<div style=""font-size:60px;"">+</div>","null","html-keyboard-response","310","271237","0.0-6.0-0.152","VIDE","3","m","rechts","23","","fixation","","","",""
"813","img/0_210.png","70","image-keyboard-response","311","272064","0.0-6.0-1.152","VIDE","3","m","rechts","23","","","self","f","0","true"
"null","<div style=""font-size:60px;"">+</div>","null","html-keyboard-response","312","272582","0.0-6.0-0.153","VIDE","3","m","rechts","23","","fixation","","","",""
"1112","img/150_180.png","74","image-keyboard-response","313","273707","0.0-6.0-1.153","VIDE","3","m","rechts","23","","","self","j","150","true"
"null","<div style=""font-size:60px;"">+</div>","null","html-keyboard-response","314","274112","0.0-6.0-0.154","VIDE","3","m","rechts","23","","fixation","","","",""
"717","img/L120_180.png","70","image-keyboard-response","315","274842","0.0-6.0-1.154","VIDE","3","m","rechts","23","","","self","f","120","true"
"null","<div style=""font-size:60px;"">+</div>","null","html-keyboard-response","316","275363","0.0-6.0-0.155","VIDE","3","m","rechts","23","","fixation","","","",""
"754","img/60_180.png","74","image-keyboard-response","317","276134","0.0-6.0-1.155","VIDE","3","m","rechts","23","","","self","j","60","true"
"null","<div style=""font-size:60px;"">+</div>","null","html-keyboard-response","318","276552","0.0-6.0-0.156","VIDE","3","m","rechts","23","","fixation","","","",""
"710","img/150_240.png","74","image-keyboard-response","319","277272","0.0-6.0-1.156","VIDE","3","m","rechts","23","","","self","j","150","true"
"null","<div style=""font-size:60px;"">+</div>","null","html-keyboard-response","320","277800","0.0-6.0-0.157","VIDE","3","m","rechts","23","","fixation","","","",""
"675","img/0_270.png","70","image-keyboard-response","321","278486","0.0-6.0-1.157","VIDE","3","m","rechts","23","","","self","f","0","true"
"null","<div style=""font-size:60px;"">+</div>","null","html-keyboard-response","322","278865","0.0-6.0-0.158","VIDE","3","m","rechts","23","","fixation","","","",""
"602","img/30_180.png","74","image-keyboard-response","323","279475","0.0-6.0-1.158","VIDE","3","m","rechts","23","","","self","j","30","true"
"null","<div style=""font-size:60px;"">+</div>","null","html-keyboard-response","324","279786","0.0-6.0-0.159","VIDE","3","m","rechts","23","","fixation","","","",""
"566","img/0_120.png","74","image-keyboard-response","325","280366","0.0-6.0-1.159","VIDE","3","m","rechts","23","","","self","j","0","true"
"null","<div style=""font-size:60px;"">+</div>","null","html-keyboard-response","326","280817","0.0-6.0-0.160","VIDE","3","m","rechts","23","","fixation","","","",""
"1199","img/150_300.png","74","image-keyboard-response","327","282029","0.0-6.0-1.160","VIDE","3","m","rechts","23","","","self","j","150","true"
"null","<div style=""font-size:60px;"">+</div>","null","html-keyboard-response","328","282396","0.0-6.0-0.161","VIDE","3","m","rechts","23","","fixation","","","",""
"689","img/90_330.png","74","image-keyboard-response","329","283099","0.0-6.0-1.161","VIDE","3","m","rechts","23","","","self","f","90","false"
"null","<div style=""font-size:60px;"">+</div>","null","html-keyboard-response","330","283482","0.0-6.0-0.162","VIDE","3","m","rechts","23","","fixation","","","",""
"831","img/150_120.png","70","image-keyboard-response","331","284328","0.0-6.0-1.162","VIDE","3","m","rechts","23","","","self","f","150","true"
"null","<div style=""font-size:60px;"">+</div>","null","html-keyboard-response","332","284850","0.0-6.0-0.163","VIDE","3","m","rechts","23","","fixation","","","",""
"610","img/120_30.png","70","image-keyboard-response","333","285473","0.0-6.0-1.163","VIDE","3","m","rechts","23","","","self","j","120","false"
"null","<div style=""font-size:60px;"">+</div>","null","html-keyboard-response","334","285898","0.0-6.0-0.164","VIDE","3","m","rechts","23","","fixation","","","",""
"685","img/90_30.png","74","image-keyboard-response","335","286596","0.0-6.0-1.164","VIDE","3","m","rechts","23","","","self","j","90","true"
"null","<div style=""font-size:60px;"">+</div>","null","html-keyboard-response","336","286975","0.0-6.0-0.165","VIDE","3","m","rechts","23","","fixation","","","",""
"702","img/30_120.png","74","image-keyboard-response","337","287690","0.0-6.0-1.165","VIDE","3","m","rechts","23","","","self","j","30","true"
"null","<div style=""font-size:60px;"">+</div>","null","html-keyboard-response","338","288099","0.0-6.0-0.166","VIDE","3","m","rechts","23","","fixation","","","",""
"915","img/60_330.png","70","image-keyboard-response","339","289025","0.0-6.0-1.166","VIDE","3","m","rechts","23","","","self","f","60","true"
"null","<div style=""font-size:60px;"">+</div>","null","html-keyboard-response","340","289506","0.0-6.0-0.167","VIDE","3","m","rechts","23","","fixation","","","",""
"1138","img/60_210.png","74","image-keyboard-response","341","290659","0.0-6.0-1.167","VIDE","3","m","rechts","23","","","self","j","60","true"
"null","<div style=""font-size:60px;"">+</div>","null","html-keyboard-response","342","290959","0.0-6.0-0.168","VIDE","3","m","rechts","23","","fixation","","","",""
"989","img/90_150.png","70","image-keyboard-response","343","291965","0.0-6.0-1.168","VIDE","3","m","rechts","23","","","self","f","90","true"
"null","<div style=""font-size:60px;"">+</div>","null","html-keyboard-response","344","292428","0.0-6.0-0.169","VIDE","3","m","rechts","23","","fixation","","","",""
"843","img/120_270.png","74","image-keyboard-response","345","293280","0.0-6.0-1.169","VIDE","3","m","rechts","23","","","self","j","120","true"
"null","<div style=""font-size:60px;"">+</div>","null","html-keyboard-response","346","293694","0.0-6.0-0.170","VIDE","3","m","rechts","23","","fixation","","","",""
"854","img/30_300.png","70","image-keyboard-response","347","294562","0.0-6.0-1.170","VIDE","3","m","rechts","23","","","self","f","30","true"
"null","<div style=""font-size:60px;"">+</div>","null","html-keyboard-response","348","294868","0.0-6.0-0.171","VIDE","3","m","rechts","23","","fixation","","","",""
"1046","img/150_180.png","74","image-keyboard-response","349","295924","0.0-6.0-1.171","VIDE","3","m","rechts","23","","","self","j","150","true"
"null","<div style=""font-size:60px;"">+</div>","null","html-keyboard-response","350","296398","0.0-6.0-0.172","VIDE","3","m","rechts","23","","fixation","","","",""
"652","img/60_180.png","74","image-keyboard-response","351","297060","0.0-6.0-1.172","VIDE","3","m","rechts","23","","","self","j","60","true"
"null","<div style=""font-size:60px;"">+</div>","null","html-keyboard-response","352","297586","0.0-6.0-0.173","VIDE","3","m","rechts","23","","fixation","","","",""
"622","img/0_240.png","70","image-keyboard-response","353","298218","0.0-6.0-1.173","VIDE","3","m","rechts","23","","","self","f","0","true"
"null","<div style=""font-size:60px;"">+</div>","null","html-keyboard-response","354","298700","0.0-6.0-0.174","VIDE","3","m","rechts","23","","fixation","","","",""
"665","img/90_180.png","74","image-keyboard-response","355","299378","0.0-6.0-1.174","VIDE","3","m","rechts","23","","","self","j","90","true"
"null","<div style=""font-size:60px;"">+</div>","null","html-keyboard-response","356","299804","0.0-6.0-0.175","VIDE","3","m","rechts","23","","fixation","","","",""
"734","img/120_90.png","70","image-keyboard-response","357","300548","0.0-6.0-1.175","VIDE","3","m","rechts","23","","","self","f","120","true"
"null","<div style=""font-size:60px;"">+</div>","null","html-keyboard-response","358","300913","0.0-6.0-0.176","VIDE","3","m","rechts","23","","fixation","","","",""
"737","img/90_240.png","74","image-keyboard-response","359","301661","0.0-6.0-1.176","VIDE","3","m","rechts","23","","","self","j","90","true"
"null","<div style=""font-size:60px;"">+</div>","null","html-keyboard-response","360","302163","0.0-6.0-0.177","VIDE","3","m","rechts","23","","fixation","","","",""
"714","img/30_90.png","74","image-keyboard-response","361","302887","0.0-6.0-1.177","VIDE","3","m","rechts","23","","","self","j","30","true"
"null","<div style=""font-size:60px;"">+</div>","null","html-keyboard-response","362","303196","0.0-6.0-0.178","VIDE","3","m","rechts","23","","fixation","","","",""
"750","img/60_150.png","70","image-keyboard-response","363","303958","0.0-6.0-1.178","VIDE","3","m","rechts","23","","","self","f","60","true"
"null","<div style=""font-size:60px;"">+</div>","null","html-keyboard-response","364","304319","0.0-6.0-0.179","VIDE","3","m","rechts","23","","fixation","","","",""
"610","img/0_330.png","70","image-keyboard-response","365","304934","0.0-6.0-1.179","VIDE","3","m","rechts","23","","","self","f","0","true"
"null","<div style=""font-size:60px;"">+</div>","null","html-keyboard-response","366","305245","0.0-6.0-0.180","VIDE","3","m","rechts","23","","fixation","","","",""
"854","img/150_60.png","70","image-keyboard-response","367","306107","0.0-6.0-1.180","VIDE","3","m","rechts","23","","","self","f","150","true"
"null","<div style=""font-size:60px;"">+</div>","null","html-keyboard-response","368","306526","0.0-6.0-0.181","VIDE","3","m","rechts","23","","fixation","","","",""
"612","img/60_90.png","70","image-keyboard-response","369","307151","0.0-6.0-1.181","VIDE","3","m","rechts","23","","","self","j","60","false"
"null","<div style=""font-size:60px;"">+</div>","null","html-keyboard-response","370","307681","0.0-6.0-0.182","VIDE","3","m","rechts","23","","fixation","","","",""
"763","img/90_210.png","74","image-keyboard-response","371","308457","0.0-6.0-1.182","VIDE","3","m","rechts","23","","","self","j","90","true"
"null","<div style=""font-size:60px;"">+</div>","null","html-keyboard-response","372","308977","0.0-6.0-0.183","VIDE","3","m","rechts","23","","fixation","","","",""
"682","img/L120_180.png","70","image-keyboard-response","373","309672","0.0-6.0-1.183","VIDE","3","m","rechts","23","","","self","f","120","true"
"null","<div style=""font-size:60px;"">+</div>","null","html-keyboard-response","374","310103","0.0-6.0-0.184","VIDE","3","m","rechts","23","","fixation","","","",""
"840","img/L30_180.png","70","image-keyboard-response","375","310952","0.0-6.0-1.184","VIDE","3","m","rechts","23","","","self","f","30","true"
"null","<div style=""font-size:60px;"">+</div>","null","html-keyboard-response","376","311275","0.0-6.0-0.185","VIDE","3","m","rechts","23","","fixation","","","",""
"824","img/90_120.png","70","image-keyboard-response","377","312112","0.0-6.0-1.185","VIDE","3","m","rechts","23","","","self","f","90","true"
"null","<div style=""font-size:60px;"">+</div>","null","html-keyboard-response","378","312635","0.0-6.0-0.186","VIDE","3","m","rechts","23","","fixation","","","",""
"601","img/L90_180.png","70","image-keyboard-response","379","313250","0.0-6.0-1.186","VIDE","3","m","rechts","23","","","self","f","90","true"
"null","<div style=""font-size:60px;"">+</div>","null","html-keyboard-response","380","313603","0.0-6.0-0.187","VIDE","3","m","rechts","23","","fixation","","","",""
"623","img/90_300.png","74","image-keyboard-response","381","314239","0.0-6.0-1.187","VIDE","3","m","rechts","23","","","self","f","90","false"
"null","<div style=""font-size:60px;"">+</div>","null","html-keyboard-response","382","314746","0.0-6.0-0.188","VIDE","3","m","rechts","23","","fixation","","","",""
"652","img/120_180.png","74","image-keyboard-response","383","315410","0.0-6.0-1.188","VIDE","3","m","rechts","23","","","self","j","120","true"
"null","<div style=""font-size:60px;"">+</div>","null","html-keyboard-response","384","315917","0.0-6.0-0.189","VIDE","3","m","rechts","23","","fixation","","","",""
"627","img/L150_180.png","70","image-keyboard-response","385","316557","0.0-6.0-1.189","VIDE","3","m","rechts","23","","","self","f","150","true"
"null","<div style=""font-size:60px;"">+</div>","null","html-keyboard-response","386","316871","0.0-6.0-0.190","VIDE","3","m","rechts","23","","fixation","","","",""
"630","img/0_300.png","74","image-keyboard-response","387","317514","0.0-6.0-1.190","VIDE","3","m","rechts","23","","","self","f","0","false"
"null","<div style=""font-size:60px;"">+</div>","null","html-keyboard-response","388","318027","0.0-6.0-0.191","VIDE","3","m","rechts","23","","fixation","","","",""
"672","img/150_270.png","74","image-keyboard-response","389","318705","0.0-6.0-1.191","VIDE","3","m","rechts","23","","","self","j","150","true"
"null","<div style=""font-size:60px;"">+</div>","null","html-keyboard-response","390","319211","0.0-6.0-0.192","VIDE","3","m","rechts","23","","fixation","","","",""
"763","img/60_30.png","74","image-keyboard-response","391","319989","0.0-6.0-1.192","VIDE","3","m","rechts","23","","","self","j","60","true"
"null","<div style=""font-size:60px;"">+</div>","null","html-keyboard-response","392","320514","0.0-6.0-0.193","VIDE","3","m","rechts","23","","fixation","","","",""
"676","img/0_60.png","74","image-keyboard-response","393","321203","0.0-6.0-1.193","VIDE","3","m","rechts","23","","","self","j","0","true"
"null","<div style=""font-size:60px;"">+</div>","null","html-keyboard-response","394","321558","0.0-6.0-0.194","VIDE","3","m","rechts","23","","fixation","","","",""
"691","img/0_150.png","74","image-keyboard-response","395","322262","0.0-6.0-1.194","VIDE","3","m","rechts","23","","","self","j","0","true"
"null","<div style=""font-size:60px;"">+</div>","null","html-keyboard-response","396","322591","0.0-6.0-0.195","VIDE","3","m","rechts","23","","fixation","","","",""
"597","img/0_30.png","74","image-keyboard-response","397","323206","0.0-6.0-1.195","VIDE","3","m","rechts","23","","","self","j","0","true"
"null","<div style=""font-size:60px;"">+</div>","null","html-keyboard-response","398","323558","0.0-6.0-0.196","VIDE","3","m","rechts","23","","fixation","","","",""
"593","img/0_210.png","70","image-keyboard-response","399","324163","0.0-6.0-1.196","VIDE","3","m","rechts","23","","","self","f","0","true"
"null","<div style=""font-size:60px;"">+</div>","null","html-keyboard-response","400","324622","0.0-6.0-0.197","VIDE","3","m","rechts","23","","fixation","","","",""
"695","img/30_240.png","70","image-keyboard-response","401","325331","0.0-6.0-1.197","VIDE","3","m","rechts","23","","","self","f","30","true"
"null","<div style=""font-size:60px;"">+</div>","null","html-keyboard-response","402","325638","0.0-6.0-0.198","VIDE","3","m","rechts","23","","fixation","","","",""
"682","img/120_210.png","74","image-keyboard-response","403","326333","0.0-6.0-1.198","VIDE","3","m","rechts","23","","","self","j","120","true"
"null","<div style=""font-size:60px;"">+</div>","null","html-keyboard-response","404","326700","0.0-6.0-0.199","VIDE","3","m","rechts","23","","fixation","","","",""
"1116","img/120_330.png","70","image-keyboard-response","405","327830","0.0-6.0-1.199","VIDE","3","m","rechts","23","","","self","f","120","true"
"null","<div style=""font-size:60px;"">+</div>","null","html-keyboard-response","406","328340","0.0-6.0-0.200","VIDE","3","m","rechts","23","","fixation","","","",""
"602","img/0_90.png","74","image-keyboard-response","407","328955","0.0-6.0-1.200","VIDE","3","m","rechts","23","","","self","j","0","true"
"null","<div style=""font-size:60px;"">+</div>","null","html-keyboard-response","408","329276","0.0-6.0-0.201","VIDE","3","m","rechts","23","","fixation","","","",""
"923","img/60_270.png","70","image-keyboard-response","409","330215","0.0-6.0-1.201","VIDE","3","m","rechts","23","","","self","f","60","true"
"null","<div style=""font-size:60px;"">+</div>","null","html-keyboard-response","410","330670","0.0-6.0-0.202","VIDE","3","m","rechts","23","","fixation","","","",""
"870","img/90_60.png","74","image-keyboard-response","411","331553","0.0-6.0-1.202","VIDE","3","m","rechts","23","","","self","j","90","true"
"null","<div style=""font-size:60px;"">+</div>","null","html-keyboard-response","412","331982","0.0-6.0-0.203","VIDE","3","m","rechts","23","","fixation","","","",""
"1465","img/150_90.png","70","image-keyboard-response","413","333463","0.0-6.0-1.203","VIDE","3","m","rechts","23","","","self","f","150","true"
"null","<div style=""font-size:60px;"">+</div>","null","html-keyboard-response","414","333826","0.0-6.0-0.204","VIDE","3","m","rechts","23","","fixation","","","",""
"796","img/120_150.png","70","image-keyboard-response","415","334635","0.0-6.0-1.204","VIDE","3","m","rechts","23","","","self","f","120","true"
"null","<div style=""font-size:60px;"">+</div>","null","html-keyboard-response","416","335140","0.0-6.0-0.205","VIDE","3","m","rechts","23","","fixation","","","",""
"610","img/L60_180.png","70","image-keyboard-response","417","335761","0.0-6.0-1.205","VIDE","3","m","rechts","23","","","self","f","60","true"
"null","<div style=""font-size:60px;"">+</div>","null","html-keyboard-response","418","336185","0.0-6.0-0.206","VIDE","3","m","rechts","23","","fixation","","","",""
"719","img/30_270.png","70","image-keyboard-response","419","336919","0.0-6.0-1.206","VIDE","3","m","rechts","23","","","self","f","30","true"
"null","<div style=""font-size:60px;"">+</div>","null","html-keyboard-response","420","337372","0.0-6.0-0.207","VIDE","3","m","rechts","23","","fixation","","","",""
"759","img/30_60.png","74","image-keyboard-response","421","338146","0.0-6.0-1.207","VIDE","3","m","rechts","23","","","self","j","30","true"
"8861","<p>Du hast in 89% der Versuche korrekt entschieden.</p><p>Deine durchschnittliche Reaktionszeit war  852ms.</p><p>Dr&uuml;cke eine beliebige Taste, um die Session zu beenden. Vielen Dank!</p>","32","html-keyboard-response","422","347014","0.0-7.0","VIDE","3","m","rechts","23","","","","","",""
