"rt","stimulus","key_press","trial_type","trial_index","time_elapsed","internal_node_id","subject","session","sex","handedness","age","responses","test_part","condition","correct_response","angle","correct"
"1173","<p>Mental Rotation Experiment.</p> <p>Dr&uuml;cke eine beliebige Taste, um anzufangen.</p>","13","html-keyboard-response","0","1208","0.0-0.0","VIDE","4","m","rechts","23","","","","","",""
"3494","","","survey-text","1","4704","0.0-1.0","VIDE","4","m","rechts","23","{""Q0"":""VIDE""}","","","","",""
"2663","","","survey-text","2","7370","0.0-2.0","VIDE","4","m","rechts","23","{""Q0"":""4""}","","","","",""
"6202","","","survey-multi-choice","3","13580","0.0-3.0","VIDE","4","m","rechts","23","{""Q0"":""m"",""Q1"":""rechts""}","","","","",""
"3205","","","survey-text","4","16786","0.0-4.0","VIDE","4","m","rechts","23","{""Q0"":""23""}","","","","",""
"96459","<p> Stell dir vor, dass du vor einem runden Tisch stehst, auf dem sich ein blauer Ball am Tischrand befindet. Entlang des Tischrands ist jeweils ein verschieden langer Pfeil. Nun bewegst du dich entlang dieses Pfeils bis an seine Spitze. Wenn du am Ende des Pfeils angekommen bist, schau zur Tischmitte. </p> <img src='img/90_180.png'></img> <br> <p>Entscheide dann, ob der Ball von deiner neuen (vorgestellten) Position links oder rechts von dir liegt.</p> <p>Dr&uuml;cke die <strong>'f'</strong>-Taste f&uuml;r links, die <strong>'j'</strong>-Taste f&uuml;r rechts.</p> <br><p> Das Bild wird jeweils 1 Sekunde lang pr&auml;sentiert. Du hast 3 Sekunden Zeit eine Entscheidung zu treffen.</p>","74","html-keyboard-response","5","113263","0.0-5.0","VIDE","4","m","rechts","23","","","","","",""
"null","<div style=""font-size:60px;"">+</div>","null","html-keyboard-response","6","114697","0.0-6.0-0.0","VIDE","4","m","rechts","23","","fixation","","","",""
"1426","img/120_180.png","74","image-keyboard-response","7","116144","0.0-6.0-1.0","VIDE","4","m","rechts","23","","","self","j","120","true"
"null","<div style=""font-size:60px;"">+</div>","null","html-keyboard-response","8","116466","0.0-6.0-0.1","VIDE","4","m","rechts","23","","fixation","","","",""
"1531","img/150_300.png","74","image-keyboard-response","9","118016","0.0-6.0-1.1","VIDE","4","m","rechts","23","","","self","j","150","true"
"null","<div style=""font-size:60px;"">+</div>","null","html-keyboard-response","10","118439","0.0-6.0-0.2","VIDE","4","m","rechts","23","","fixation","","","",""
"966","img/90_120.png","70","image-keyboard-response","11","119423","0.0-6.0-1.2","VIDE","4","m","rechts","23","","","self","f","90","true"
"null","<div style=""font-size:60px;"">+</div>","null","html-keyboard-response","12","119885","0.0-6.0-0.3","VIDE","4","m","rechts","23","","fixation","","","",""
"894","img/150_240.png","74","image-keyboard-response","13","120795","0.0-6.0-1.3","VIDE","4","m","rechts","23","","","self","j","150","true"
"null","<div style=""font-size:60px;"">+</div>","null","html-keyboard-response","14","121102","0.0-6.0-0.4","VIDE","4","m","rechts","23","","fixation","","","",""
"900","img/90_30.png","74","image-keyboard-response","15","122022","0.0-6.0-1.4","VIDE","4","m","rechts","23","","","self","j","90","true"
"null","<div style=""font-size:60px;"">+</div>","null","html-keyboard-response","16","122384","0.0-6.0-0.5","VIDE","4","m","rechts","23","","fixation","","","",""
"913","img/30_90.png","74","image-keyboard-response","17","123314","0.0-6.0-1.5","VIDE","4","m","rechts","23","","","self","j","30","true"
"null","<div style=""font-size:60px;"">+</div>","null","html-keyboard-response","18","123721","0.0-6.0-0.6","VIDE","4","m","rechts","23","","fixation","","","",""
"961","img/90_210.png","74","image-keyboard-response","19","124699","0.0-6.0-1.6","VIDE","4","m","rechts","23","","","self","j","90","true"
"null","<div style=""font-size:60px;"">+</div>","null","html-keyboard-response","20","125206","0.0-6.0-0.7","VIDE","4","m","rechts","23","","fixation","","","",""
"675","img/0_330.png","70","image-keyboard-response","21","125899","0.0-6.0-1.7","VIDE","4","m","rechts","23","","","self","f","0","true"
"null","<div style=""font-size:60px;"">+</div>","null","html-keyboard-response","22","126408","0.0-6.0-0.8","VIDE","4","m","rechts","23","","fixation","","","",""
"829","img/90_150.png","70","image-keyboard-response","23","127254","0.0-6.0-1.8","VIDE","4","m","rechts","23","","","self","f","90","true"
"null","<div style=""font-size:60px;"">+</div>","null","html-keyboard-response","24","127611","0.0-6.0-0.9","VIDE","4","m","rechts","23","","fixation","","","",""
"1009","img/120_30.png","74","image-keyboard-response","25","128635","0.0-6.0-1.9","VIDE","4","m","rechts","23","","","self","j","120","true"
"null","<div style=""font-size:60px;"">+</div>","null","html-keyboard-response","26","129094","0.0-6.0-0.10","VIDE","4","m","rechts","23","","fixation","","","",""
"965","img/60_180.png","74","image-keyboard-response","27","130076","0.0-6.0-1.10","VIDE","4","m","rechts","23","","","self","j","60","true"
"null","<div style=""font-size:60px;"">+</div>","null","html-keyboard-response","28","130595","0.0-6.0-0.11","VIDE","4","m","rechts","23","","fixation","","","",""
"971","img/30_300.png","74","image-keyboard-response","29","131583","0.0-6.0-1.11","VIDE","4","m","rechts","23","","","self","f","30","false"
"null","<div style=""font-size:60px;"">+</div>","null","html-keyboard-response","30","132000","0.0-6.0-0.12","VIDE","4","m","rechts","23","","fixation","","","",""
"844","img/0_300.png","70","image-keyboard-response","31","132864","0.0-6.0-1.12","VIDE","4","m","rechts","23","","","self","f","0","true"
"null","<div style=""font-size:60px;"">+</div>","null","html-keyboard-response","32","133316","0.0-6.0-0.13","VIDE","4","m","rechts","23","","fixation","","","",""
"950","img/150_120.png","70","image-keyboard-response","33","134284","0.0-6.0-1.13","VIDE","4","m","rechts","23","","","self","f","150","true"
"null","<div style=""font-size:60px;"">+</div>","null","html-keyboard-response","34","134737","0.0-6.0-0.14","VIDE","4","m","rechts","23","","fixation","","","",""
"1029","img/90_180.png","74","image-keyboard-response","35","135781","0.0-6.0-1.14","VIDE","4","m","rechts","23","","","self","j","90","true"
"null","<div style=""font-size:60px;"">+</div>","null","html-keyboard-response","36","136253","0.0-6.0-0.15","VIDE","4","m","rechts","23","","fixation","","","",""
"1017","img/60_150.png","70","image-keyboard-response","37","137288","0.0-6.0-1.15","VIDE","4","m","rechts","23","","","self","f","60","true"
"null","<div style=""font-size:60px;"">+</div>","null","html-keyboard-response","38","137799","0.0-6.0-0.16","VIDE","4","m","rechts","23","","fixation","","","",""
"793","img/120_210.png","74","image-keyboard-response","39","138616","0.0-6.0-1.16","VIDE","4","m","rechts","23","","","self","j","120","true"
"null","<div style=""font-size:60px;"">+</div>","null","html-keyboard-response","40","139128","0.0-6.0-0.17","VIDE","4","m","rechts","23","","fixation","","","",""
"964","img/120_90.png","70","image-keyboard-response","41","140110","0.0-6.0-1.17","VIDE","4","m","rechts","23","","","self","f","120","true"
"null","<div style=""font-size:60px;"">+</div>","null","html-keyboard-response","42","140581","0.0-6.0-0.18","VIDE","4","m","rechts","23","","fixation","","","",""
"840","img/L60_180.png","70","image-keyboard-response","43","141440","0.0-6.0-1.18","VIDE","4","m","rechts","23","","","self","f","60","true"
"null","<div style=""font-size:60px;"">+</div>","null","html-keyboard-response","44","141752","0.0-6.0-0.19","VIDE","4","m","rechts","23","","fixation","","","",""
"861","img/60_30.png","74","image-keyboard-response","45","142632","0.0-6.0-1.19","VIDE","4","m","rechts","23","","","self","j","60","true"
"null","<div style=""font-size:60px;"">+</div>","null","html-keyboard-response","46","143005","0.0-6.0-0.20","VIDE","4","m","rechts","23","","fixation","","","",""
"1149","img/150_90.png","70","image-keyboard-response","47","144172","0.0-6.0-1.20","VIDE","4","m","rechts","23","","","self","f","150","true"
"null","<div style=""font-size:60px;"">+</div>","null","html-keyboard-response","48","144488","0.0-6.0-0.21","VIDE","4","m","rechts","23","","fixation","","","",""
"858","img/30_60.png","74","image-keyboard-response","49","145366","0.0-6.0-1.21","VIDE","4","m","rechts","23","","","self","j","30","true"
"null","<div style=""font-size:60px;"">+</div>","null","html-keyboard-response","50","145691","0.0-6.0-0.22","VIDE","4","m","rechts","23","","fixation","","","",""
"915","img/30_240.png","70","image-keyboard-response","51","146626","0.0-6.0-1.22","VIDE","4","m","rechts","23","","","self","f","30","true"
"null","<div style=""font-size:60px;"">+</div>","null","html-keyboard-response","52","147052","0.0-6.0-0.23","VIDE","4","m","rechts","23","","fixation","","","",""
"954","img/60_330.png","70","image-keyboard-response","53","148022","0.0-6.0-1.23","VIDE","4","m","rechts","23","","","self","f","60","true"
"null","<div style=""font-size:60px;"">+</div>","null","html-keyboard-response","54","148505","0.0-6.0-0.24","VIDE","4","m","rechts","23","","fixation","","","",""
"905","img/120_270.png","74","image-keyboard-response","55","149427","0.0-6.0-1.24","VIDE","4","m","rechts","23","","","self","j","120","true"
"null","<div style=""font-size:60px;"">+</div>","null","html-keyboard-response","56","149958","0.0-6.0-0.25","VIDE","4","m","rechts","23","","fixation","","","",""
"642","img/0_150.png","74","image-keyboard-response","57","150620","0.0-6.0-1.25","VIDE","4","m","rechts","23","","","self","j","0","true"
"null","<div style=""font-size:60px;"">+</div>","null","html-keyboard-response","58","150925","0.0-6.0-0.26","VIDE","4","m","rechts","23","","fixation","","","",""
"611","img/30_120.png","74","image-keyboard-response","59","151553","0.0-6.0-1.26","VIDE","4","m","rechts","23","","","self","j","30","true"
"null","<div style=""font-size:60px;"">+</div>","null","html-keyboard-response","60","152066","0.0-6.0-0.27","VIDE","4","m","rechts","23","","fixation","","","",""
"628","img/0_210.png","70","image-keyboard-response","61","152700","0.0-6.0-1.27","VIDE","4","m","rechts","23","","","self","f","0","true"
"null","<div style=""font-size:60px;"">+</div>","null","html-keyboard-response","62","153007","0.0-6.0-0.28","VIDE","4","m","rechts","23","","fixation","","","",""
"1016","img/L150_180.png","70","image-keyboard-response","63","154040","0.0-6.0-1.28","VIDE","4","m","rechts","23","","","self","f","150","true"
"null","<div style=""font-size:60px;"">+</div>","null","html-keyboard-response","64","154397","0.0-6.0-0.29","VIDE","4","m","rechts","23","","fixation","","","",""
"614","img/0_60.png","74","image-keyboard-response","65","155029","0.0-6.0-1.29","VIDE","4","m","rechts","23","","","self","j","0","true"
"null","<div style=""font-size:60px;"">+</div>","null","html-keyboard-response","66","155490","0.0-6.0-0.30","VIDE","4","m","rechts","23","","fixation","","","",""
"1005","img/150_60.png","74","image-keyboard-response","67","156515","0.0-6.0-1.30","VIDE","4","m","rechts","23","","","self","f","150","false"
"null","<div style=""font-size:60px;"">+</div>","null","html-keyboard-response","68","156879","0.0-6.0-0.31","VIDE","4","m","rechts","23","","fixation","","","",""
"843","img/30_180.png","74","image-keyboard-response","69","157739","0.0-6.0-1.31","VIDE","4","m","rechts","23","","","self","j","30","true"
"null","<div style=""font-size:60px;"">+</div>","null","html-keyboard-response","70","158191","0.0-6.0-0.32","VIDE","4","m","rechts","23","","fixation","","","",""
"960","img/30_270.png","70","image-keyboard-response","71","159170","0.0-6.0-1.32","VIDE","4","m","rechts","23","","","self","f","30","true"
"null","<div style=""font-size:60px;"">+</div>","null","html-keyboard-response","72","159487","0.0-6.0-0.33","VIDE","4","m","rechts","23","","fixation","","","",""
"654","img/120_150.png","70","image-keyboard-response","73","160159","0.0-6.0-1.33","VIDE","4","m","rechts","23","","","self","f","120","true"
"null","<div style=""font-size:60px;"">+</div>","null","html-keyboard-response","74","160582","0.0-6.0-0.34","VIDE","4","m","rechts","23","","fixation","","","",""
"910","img/90_240.png","74","image-keyboard-response","75","161509","0.0-6.0-1.34","VIDE","4","m","rechts","23","","","self","j","90","true"
"null","<div style=""font-size:60px;"">+</div>","null","html-keyboard-response","76","162020","0.0-6.0-0.35","VIDE","4","m","rechts","23","","fixation","","","",""
"676","img/0_240.png","70","image-keyboard-response","77","162713","0.0-6.0-1.35","VIDE","4","m","rechts","23","","","self","f","0","true"
"null","<div style=""font-size:60px;"">+</div>","null","html-keyboard-response","78","163193","0.0-6.0-0.36","VIDE","4","m","rechts","23","","fixation","","","",""
"801","img/150_270.png","74","image-keyboard-response","79","164029","0.0-6.0-1.36","VIDE","4","m","rechts","23","","","self","j","150","true"
"null","<div style=""font-size:60px;"">+</div>","null","html-keyboard-response","80","164505","0.0-6.0-0.37","VIDE","4","m","rechts","23","","fixation","","","",""
"819","img/L30_180.png","70","image-keyboard-response","81","165345","0.0-6.0-1.37","VIDE","4","m","rechts","23","","","self","f","30","true"
"null","<div style=""font-size:60px;"">+</div>","null","html-keyboard-response","82","165676","0.0-6.0-0.38","VIDE","4","m","rechts","23","","fixation","","","",""
"878","img/90_300.png","70","image-keyboard-response","83","166573","0.0-6.0-1.38","VIDE","4","m","rechts","23","","","self","f","90","true"
"null","<div style=""font-size:60px;"">+</div>","null","html-keyboard-response","84","166927","0.0-6.0-0.39","VIDE","4","m","rechts","23","","fixation","","","",""
"1167","img/120_330.png","70","image-keyboard-response","85","168111","0.0-6.0-1.39","VIDE","4","m","rechts","23","","","self","f","120","true"
"null","<div style=""font-size:60px;"">+</div>","null","html-keyboard-response","86","168613","0.0-6.0-0.40","VIDE","4","m","rechts","23","","fixation","","","",""
"1104","img/60_90.png","74","image-keyboard-response","87","169734","0.0-6.0-1.40","VIDE","4","m","rechts","23","","","self","j","60","true"
"null","<div style=""font-size:60px;"">+</div>","null","html-keyboard-response","88","170050","0.0-6.0-0.41","VIDE","4","m","rechts","23","","fixation","","","",""
"699","img/0_90.png","74","image-keyboard-response","89","170768","0.0-6.0-1.41","VIDE","4","m","rechts","23","","","self","j","0","true"
"null","<div style=""font-size:60px;"">+</div>","null","html-keyboard-response","90","171286","0.0-6.0-0.42","VIDE","4","m","rechts","23","","fixation","","","",""
"936","img/150_180.png","74","image-keyboard-response","91","172241","0.0-6.0-1.42","VIDE","4","m","rechts","23","","","self","j","150","true"
"null","<div style=""font-size:60px;"">+</div>","null","html-keyboard-response","92","172708","0.0-6.0-0.43","VIDE","4","m","rechts","23","","fixation","","","",""
"652","img/0_30.png","74","image-keyboard-response","93","173378","0.0-6.0-1.43","VIDE","4","m","rechts","23","","","self","j","0","true"
"null","<div style=""font-size:60px;"">+</div>","null","html-keyboard-response","94","173802","0.0-6.0-0.44","VIDE","4","m","rechts","23","","fixation","","","",""
"840","img/L90_180.png","70","image-keyboard-response","95","174661","0.0-6.0-1.44","VIDE","4","m","rechts","23","","","self","f","90","true"
"null","<div style=""font-size:60px;"">+</div>","null","html-keyboard-response","96","174975","0.0-6.0-0.45","VIDE","4","m","rechts","23","","fixation","","","",""
"702","img/0_120.png","74","image-keyboard-response","97","175695","0.0-6.0-1.45","VIDE","4","m","rechts","23","","","self","j","0","true"
"null","<div style=""font-size:60px;"">+</div>","null","html-keyboard-response","98","176162","0.0-6.0-0.46","VIDE","4","m","rechts","23","","fixation","","","",""
"789","img/90_60.png","74","image-keyboard-response","99","176967","0.0-6.0-1.46","VIDE","4","m","rechts","23","","","self","j","90","true"
"null","<div style=""font-size:60px;"">+</div>","null","html-keyboard-response","100","177332","0.0-6.0-0.47","VIDE","4","m","rechts","23","","fixation","","","",""
"1033","img/60_270.png","70","image-keyboard-response","101","178384","0.0-6.0-1.47","VIDE","4","m","rechts","23","","","self","f","60","true"
"null","<div style=""font-size:60px;"">+</div>","null","html-keyboard-response","102","178708","0.0-6.0-0.48","VIDE","4","m","rechts","23","","fixation","","","",""
"811","img/60_210.png","74","image-keyboard-response","103","179544","0.0-6.0-1.48","VIDE","4","m","rechts","23","","","self","j","60","true"
"null","<div style=""font-size:60px;"">+</div>","null","html-keyboard-response","104","179959","0.0-6.0-0.49","VIDE","4","m","rechts","23","","fixation","","","",""
"635","img/0_270.png","70","image-keyboard-response","105","180612","0.0-6.0-1.49","VIDE","4","m","rechts","23","","","self","f","0","true"
"null","<div style=""font-size:60px;"">+</div>","null","html-keyboard-response","106","180942","0.0-6.0-0.50","VIDE","4","m","rechts","23","","fixation","","","",""
"1069","img/90_330.png","70","image-keyboard-response","107","182019","0.0-6.0-1.50","VIDE","4","m","rechts","23","","","self","f","90","true"
"null","<div style=""font-size:60px;"">+</div>","null","html-keyboard-response","108","182488","0.0-6.0-0.51","VIDE","4","m","rechts","23","","fixation","","","",""
"916","img/L120_180.png","70","image-keyboard-response","109","183425","0.0-6.0-1.51","VIDE","4","m","rechts","23","","","self","f","120","true"
"null","<div style=""font-size:60px;"">+</div>","null","html-keyboard-response","110","183896","0.0-6.0-0.52","VIDE","4","m","rechts","23","","fixation","","","",""
"839","img/150_300.png","74","image-keyboard-response","111","184742","0.0-6.0-1.52","VIDE","4","m","rechts","23","","","self","j","150","true"
"null","<div style=""font-size:60px;"">+</div>","null","html-keyboard-response","112","185100","0.0-6.0-0.53","VIDE","4","m","rechts","23","","fixation","","","",""
"766","img/0_270.png","70","image-keyboard-response","113","185876","0.0-6.0-1.53","VIDE","4","m","rechts","23","","","self","f","0","true"
"null","<div style=""font-size:60px;"">+</div>","null","html-keyboard-response","114","186239","0.0-6.0-0.54","VIDE","4","m","rechts","23","","fixation","","","",""
"793","img/120_90.png","70","image-keyboard-response","115","187046","0.0-6.0-1.54","VIDE","4","m","rechts","23","","","self","f","120","true"
"null","<div style=""font-size:60px;"">+</div>","null","html-keyboard-response","116","187475","0.0-6.0-0.55","VIDE","4","m","rechts","23","","fixation","","","",""
"587","img/0_30.png","74","image-keyboard-response","117","188071","0.0-6.0-1.55","VIDE","4","m","rechts","23","","","self","j","0","true"
"null","<div style=""font-size:60px;"">+</div>","null","html-keyboard-response","118","188475","0.0-6.0-0.56","VIDE","4","m","rechts","23","","fixation","","","",""
"630","img/0_300.png","70","image-keyboard-response","119","189118","0.0-6.0-1.56","VIDE","4","m","rechts","23","","","self","f","0","true"
"null","<div style=""font-size:60px;"">+</div>","null","html-keyboard-response","120","189648","0.0-6.0-0.57","VIDE","4","m","rechts","23","","fixation","","","",""
"1035","img/120_330.png","70","image-keyboard-response","121","190691","0.0-6.0-1.57","VIDE","4","m","rechts","23","","","self","f","120","true"
"null","<div style=""font-size:60px;"">+</div>","null","html-keyboard-response","122","191193","0.0-6.0-0.58","VIDE","4","m","rechts","23","","fixation","","","",""
"1061","img/60_150.png","70","image-keyboard-response","123","192267","0.0-6.0-1.58","VIDE","4","m","rechts","23","","","self","f","60","true"
"null","<div style=""font-size:60px;"">+</div>","null","html-keyboard-response","124","192570","0.0-6.0-0.59","VIDE","4","m","rechts","23","","fixation","","","",""
"765","img/0_150.png","74","image-keyboard-response","125","193347","0.0-6.0-1.59","VIDE","4","m","rechts","23","","","self","j","0","true"
"null","<div style=""font-size:60px;"">+</div>","null","html-keyboard-response","126","193726","0.0-6.0-0.60","VIDE","4","m","rechts","23","","fixation","","","",""
"961","img/30_270.png","70","image-keyboard-response","127","194698","0.0-6.0-1.60","VIDE","4","m","rechts","23","","","self","f","30","true"
"null","<div style=""font-size:60px;"">+</div>","null","html-keyboard-response","128","195211","0.0-6.0-0.61","VIDE","4","m","rechts","23","","fixation","","","",""
"1083","img/120_30.png","74","image-keyboard-response","129","196306","0.0-6.0-1.61","VIDE","4","m","rechts","23","","","self","j","120","true"
"null","<div style=""font-size:60px;"">+</div>","null","html-keyboard-response","130","196821","0.0-6.0-0.62","VIDE","4","m","rechts","23","","fixation","","","",""
"911","img/90_180.png","74","image-keyboard-response","131","197746","0.0-6.0-1.62","VIDE","4","m","rechts","23","","","self","j","90","true"
"null","<div style=""font-size:60px;"">+</div>","null","html-keyboard-response","132","198198","0.0-6.0-0.63","VIDE","4","m","rechts","23","","fixation","","","",""
"775","img/60_270.png","70","image-keyboard-response","133","198981","0.0-6.0-1.63","VIDE","4","m","rechts","23","","","self","f","60","true"
"null","<div style=""font-size:60px;"">+</div>","null","html-keyboard-response","134","199306","0.0-6.0-0.64","VIDE","4","m","rechts","23","","fixation","","","",""
"1127","img/30_240.png","74","image-keyboard-response","135","200447","0.0-6.0-1.64","VIDE","4","m","rechts","23","","","self","f","30","false"
"null","<div style=""font-size:60px;"">+</div>","null","html-keyboard-response","136","200823","0.0-6.0-0.65","VIDE","4","m","rechts","23","","fixation","","","",""
"682","img/0_60.png","74","image-keyboard-response","137","201514","0.0-6.0-1.65","VIDE","4","m","rechts","23","","","self","j","0","true"
"null","<div style=""font-size:60px;"">+</div>","null","html-keyboard-response","138","201837","0.0-6.0-0.66","VIDE","4","m","rechts","23","","fixation","","","",""
"1026","img/90_300.png","70","image-keyboard-response","139","202873","0.0-6.0-1.66","VIDE","4","m","rechts","23","","","self","f","90","true"
"null","<div style=""font-size:60px;"">+</div>","null","html-keyboard-response","140","203228","0.0-6.0-0.67","VIDE","4","m","rechts","23","","fixation","","","",""
"1445","img/150_240.png","74","image-keyboard-response","141","204687","0.0-6.0-1.67","VIDE","4","m","rechts","23","","","self","j","150","true"
"null","<div style=""font-size:60px;"">+</div>","null","html-keyboard-response","142","205212","0.0-6.0-0.68","VIDE","4","m","rechts","23","","fixation","","","",""
"790","img/120_210.png","74","image-keyboard-response","143","206016","0.0-6.0-1.68","VIDE","4","m","rechts","23","","","self","j","120","true"
"null","<div style=""font-size:60px;"">+</div>","null","html-keyboard-response","144","206368","0.0-6.0-0.69","VIDE","4","m","rechts","23","","fixation","","","",""
"931","img/90_60.png","74","image-keyboard-response","145","207309","0.0-6.0-1.69","VIDE","4","m","rechts","23","","","self","j","90","true"
"null","<div style=""font-size:60px;"">+</div>","null","html-keyboard-response","146","207777","0.0-6.0-0.70","VIDE","4","m","rechts","23","","fixation","","","",""
"780","img/60_30.png","74","image-keyboard-response","147","208569","0.0-6.0-1.70","VIDE","4","m","rechts","23","","","self","j","60","true"
"null","<div style=""font-size:60px;"">+</div>","null","html-keyboard-response","148","209089","0.0-6.0-0.71","VIDE","4","m","rechts","23","","fixation","","","",""
"860","img/30_60.png","74","image-keyboard-response","149","209962","0.0-6.0-1.71","VIDE","4","m","rechts","23","","","self","j","30","true"
"null","<div style=""font-size:60px;"">+</div>","null","html-keyboard-response","150","210323","0.0-6.0-0.72","VIDE","4","m","rechts","23","","fixation","","","",""
"1113","img/120_270.png","74","image-keyboard-response","151","211449","0.0-6.0-1.72","VIDE","4","m","rechts","23","","","self","j","120","true"
"null","<div style=""font-size:60px;"">+</div>","null","html-keyboard-response","152","211901","0.0-6.0-0.73","VIDE","4","m","rechts","23","","fixation","","","",""
"836","img/L30_180.png","70","image-keyboard-response","153","212742","0.0-6.0-1.73","VIDE","4","m","rechts","23","","","self","f","30","true"
"null","<div style=""font-size:60px;"">+</div>","null","html-keyboard-response","154","213105","0.0-6.0-0.74","VIDE","4","m","rechts","23","","fixation","","","",""
"942","img/90_150.png","70","image-keyboard-response","155","214059","0.0-6.0-1.74","VIDE","4","m","rechts","23","","","self","f","90","true"
"null","<div style=""font-size:60px;"">+</div>","null","html-keyboard-response","156","214370","0.0-6.0-0.75","VIDE","4","m","rechts","23","","fixation","","","",""
"850","img/60_210.png","74","image-keyboard-response","157","215228","0.0-6.0-1.75","VIDE","4","m","rechts","23","","","self","j","60","true"
"null","<div style=""font-size:60px;"">+</div>","null","html-keyboard-response","158","215698","0.0-6.0-0.76","VIDE","4","m","rechts","23","","fixation","","","",""
"688","img/90_120.png","70","image-keyboard-response","159","216399","0.0-6.0-1.76","VIDE","4","m","rechts","23","","","self","f","90","true"
"null","<div style=""font-size:60px;"">+</div>","null","html-keyboard-response","160","216854","0.0-6.0-0.77","VIDE","4","m","rechts","23","","fixation","","","",""
"675","img/L150_180.png","70","image-keyboard-response","161","217547","0.0-6.0-1.77","VIDE","4","m","rechts","23","","","self","f","150","true"
"null","<div style=""font-size:60px;"">+</div>","null","html-keyboard-response","162","217964","0.0-6.0-0.78","VIDE","4","m","rechts","23","","fixation","","","",""
"574","img/0_120.png","74","image-keyboard-response","163","218547","0.0-6.0-1.78","VIDE","4","m","rechts","23","","","self","j","0","true"
"null","<div style=""font-size:60px;"">+</div>","null","html-keyboard-response","164","218916","0.0-6.0-0.79","VIDE","4","m","rechts","23","","fixation","","","",""
"646","img/0_330.png","70","image-keyboard-response","165","219572","0.0-6.0-1.79","VIDE","4","m","rechts","23","","","self","f","0","true"
"null","<div style=""font-size:60px;"">+</div>","null","html-keyboard-response","166","220027","0.0-6.0-0.80","VIDE","4","m","rechts","23","","fixation","","","",""
"827","img/L90_180.png","70","image-keyboard-response","167","220866","0.0-6.0-1.80","VIDE","4","m","rechts","23","","","self","f","90","true"
"null","<div style=""font-size:60px;"">+</div>","null","html-keyboard-response","168","221323","0.0-6.0-0.81","VIDE","4","m","rechts","23","","fixation","","","",""
"879","img/30_300.png","70","image-keyboard-response","169","222215","0.0-6.0-1.81","VIDE","4","m","rechts","23","","","self","f","30","true"
"null","<div style=""font-size:60px;"">+</div>","null","html-keyboard-response","170","222669","0.0-6.0-0.82","VIDE","4","m","rechts","23","","fixation","","","",""
"668","img/90_30.png","74","image-keyboard-response","171","223349","0.0-6.0-1.82","VIDE","4","m","rechts","23","","","self","j","90","true"
"null","<div style=""font-size:60px;"">+</div>","null","html-keyboard-response","172","223777","0.0-6.0-0.83","VIDE","4","m","rechts","23","","fixation","","","",""
"1665","img/150_60.png","70","image-keyboard-response","173","225456","0.0-6.0-1.83","VIDE","4","m","rechts","23","","","self","f","150","true"
"null","<div style=""font-size:60px;"">+</div>","null","html-keyboard-response","174","225762","0.0-6.0-0.84","VIDE","4","m","rechts","23","","fixation","","","",""
"838","img/150_120.png","70","image-keyboard-response","175","226613","0.0-6.0-1.84","VIDE","4","m","rechts","23","","","self","f","150","true"
"null","<div style=""font-size:60px;"">+</div>","null","html-keyboard-response","176","227126","0.0-6.0-0.85","VIDE","4","m","rechts","23","","fixation","","","",""
"666","img/0_210.png","70","image-keyboard-response","177","227807","0.0-6.0-1.85","VIDE","4","m","rechts","23","","","self","f","0","true"
"null","<div style=""font-size:60px;"">+</div>","null","html-keyboard-response","178","228232","0.0-6.0-0.86","VIDE","4","m","rechts","23","","fixation","","","",""
"697","img/90_210.png","74","image-keyboard-response","179","228942","0.0-6.0-1.86","VIDE","4","m","rechts","23","","","self","j","90","true"
"null","<div style=""font-size:60px;"">+</div>","null","html-keyboard-response","180","229371","0.0-6.0-0.87","VIDE","4","m","rechts","23","","fixation","","","",""
"649","img/0_90.png","74","image-keyboard-response","181","230033","0.0-6.0-1.87","VIDE","4","m","rechts","23","","","self","j","0","true"
"null","<div style=""font-size:60px;"">+</div>","null","html-keyboard-response","182","230340","0.0-6.0-0.88","VIDE","4","m","rechts","23","","fixation","","","",""
"1019","img/60_90.png","74","image-keyboard-response","183","231375","0.0-6.0-1.88","VIDE","4","m","rechts","23","","","self","j","60","true"
"null","<div style=""font-size:60px;"">+</div>","null","html-keyboard-response","184","231825","0.0-6.0-0.89","VIDE","4","m","rechts","23","","fixation","","","",""
"717","img/150_180.png","74","image-keyboard-response","185","232554","0.0-6.0-1.89","VIDE","4","m","rechts","23","","","self","j","150","true"
"null","<div style=""font-size:60px;"">+</div>","null","html-keyboard-response","186","232964","0.0-6.0-0.90","VIDE","4","m","rechts","23","","fixation","","","",""
"656","img/150_270.png","74","image-keyboard-response","187","233634","0.0-6.0-1.90","VIDE","4","m","rechts","23","","","self","j","150","true"
"null","<div style=""font-size:60px;"">+</div>","null","html-keyboard-response","188","233997","0.0-6.0-0.91","VIDE","4","m","rechts","23","","fixation","","","",""
"717","img/0_240.png","70","image-keyboard-response","189","234726","0.0-6.0-1.91","VIDE","4","m","rechts","23","","","self","f","0","true"
"null","<div style=""font-size:60px;"">+</div>","null","html-keyboard-response","190","235044","0.0-6.0-0.92","VIDE","4","m","rechts","23","","fixation","","","",""
"703","img/120_150.png","70","image-keyboard-response","191","235760","0.0-6.0-1.92","VIDE","4","m","rechts","23","","","self","f","120","true"
"null","<div style=""font-size:60px;"">+</div>","null","html-keyboard-response","192","236075","0.0-6.0-0.93","VIDE","4","m","rechts","23","","fixation","","","",""
"730","img/90_240.png","74","image-keyboard-response","193","236817","0.0-6.0-1.93","VIDE","4","m","rechts","23","","","self","j","90","true"
"null","<div style=""font-size:60px;"">+</div>","null","html-keyboard-response","194","237137","0.0-6.0-0.94","VIDE","4","m","rechts","23","","fixation","","","",""
"747","img/60_330.png","70","image-keyboard-response","195","237897","0.0-6.0-1.94","VIDE","4","m","rechts","23","","","self","f","60","true"
"null","<div style=""font-size:60px;"">+</div>","null","html-keyboard-response","196","238373","0.0-6.0-0.95","VIDE","4","m","rechts","23","","fixation","","","",""
"928","img/30_120.png","74","image-keyboard-response","197","239316","0.0-6.0-1.95","VIDE","4","m","rechts","23","","","self","j","30","true"
"null","<div style=""font-size:60px;"">+</div>","null","html-keyboard-response","198","239827","0.0-6.0-0.96","VIDE","4","m","rechts","23","","fixation","","","",""
"693","img/120_180.png","74","image-keyboard-response","199","240531","0.0-6.0-1.96","VIDE","4","m","rechts","23","","","self","j","120","true"
"null","<div style=""font-size:60px;"">+</div>","null","html-keyboard-response","200","240951","0.0-6.0-0.97","VIDE","4","m","rechts","23","","fixation","","","",""
"590","img/30_90.png","74","image-keyboard-response","201","241555","0.0-6.0-1.97","VIDE","4","m","rechts","23","","","self","j","30","true"
"null","<div style=""font-size:60px;"">+</div>","null","html-keyboard-response","202","241920","0.0-6.0-0.98","VIDE","4","m","rechts","23","","fixation","","","",""
"740","img/60_180.png","74","image-keyboard-response","203","242668","0.0-6.0-1.98","VIDE","4","m","rechts","23","","","self","j","60","true"
"null","<div style=""font-size:60px;"">+</div>","null","html-keyboard-response","204","243139","0.0-6.0-0.99","VIDE","4","m","rechts","23","","fixation","","","",""
"632","img/L120_180.png","70","image-keyboard-response","205","243782","0.0-6.0-1.99","VIDE","4","m","rechts","23","","","self","f","120","true"
"null","<div style=""font-size:60px;"">+</div>","null","html-keyboard-response","206","244092","0.0-6.0-0.100","VIDE","4","m","rechts","23","","fixation","","","",""
"1130","img/150_90.png","70","image-keyboard-response","207","245235","0.0-6.0-1.100","VIDE","4","m","rechts","23","","","self","f","150","true"
"null","<div style=""font-size:60px;"">+</div>","null","html-keyboard-response","208","245591","0.0-6.0-0.101","VIDE","4","m","rechts","23","","fixation","","","",""
"879","img/30_180.png","74","image-keyboard-response","209","246483","0.0-6.0-1.101","VIDE","4","m","rechts","23","","","self","j","30","true"
"null","<div style=""font-size:60px;"">+</div>","null","html-keyboard-response","210","246842","0.0-6.0-0.102","VIDE","4","m","rechts","23","","fixation","","","",""
"931","img/90_330.png","70","image-keyboard-response","211","247786","0.0-6.0-1.102","VIDE","4","m","rechts","23","","","self","f","90","true"
"null","<div style=""font-size:60px;"">+</div>","null","html-keyboard-response","212","248312","0.0-6.0-0.103","VIDE","4","m","rechts","23","","fixation","","","",""
"726","img/L60_180.png","70","image-keyboard-response","213","249049","0.0-6.0-1.103","VIDE","4","m","rechts","23","","","self","f","60","true"
"null","<div style=""font-size:60px;"">+</div>","null","html-keyboard-response","214","249405","0.0-6.0-0.104","VIDE","4","m","rechts","23","","fixation","","","",""
"834","img/90_330.png","70","image-keyboard-response","215","250250","0.0-6.0-1.104","VIDE","4","m","rechts","23","","","self","f","90","true"
"null","<div style=""font-size:60px;"">+</div>","null","html-keyboard-response","216","250561","0.0-6.0-0.105","VIDE","4","m","rechts","23","","fixation","","","",""
"689","img/90_180.png","74","image-keyboard-response","217","251264","0.0-6.0-1.105","VIDE","4","m","rechts","23","","","self","j","90","true"
"null","<div style=""font-size:60px;"">+</div>","null","html-keyboard-response","218","251734","0.0-6.0-0.106","VIDE","4","m","rechts","23","","fixation","","","",""
"686","img/30_270.png","70","image-keyboard-response","219","252433","0.0-6.0-1.106","VIDE","4","m","rechts","23","","","self","f","30","true"
"null","<div style=""font-size:60px;"">+</div>","null","html-keyboard-response","220","252798","0.0-6.0-0.107","VIDE","4","m","rechts","23","","fixation","","","",""
"728","img/150_120.png","70","image-keyboard-response","221","253535","0.0-6.0-1.107","VIDE","4","m","rechts","23","","","self","f","150","true"
"null","<div style=""font-size:60px;"">+</div>","null","html-keyboard-response","222","254048","0.0-6.0-0.108","VIDE","4","m","rechts","23","","fixation","","","",""
"829","img/30_60.png","74","image-keyboard-response","223","254890","0.0-6.0-1.108","VIDE","4","m","rechts","23","","","self","j","30","true"
"null","<div style=""font-size:60px;"">+</div>","null","html-keyboard-response","224","255219","0.0-6.0-0.109","VIDE","4","m","rechts","23","","fixation","","","",""
"734","img/120_210.png","74","image-keyboard-response","225","255966","0.0-6.0-1.109","VIDE","4","m","rechts","23","","","self","j","120","true"
"null","<div style=""font-size:60px;"">+</div>","null","html-keyboard-response","226","256297","0.0-6.0-0.110","VIDE","4","m","rechts","23","","fixation","","","",""
"825","img/120_330.png","70","image-keyboard-response","227","257136","0.0-6.0-1.110","VIDE","4","m","rechts","23","","","self","f","120","true"
"null","<div style=""font-size:60px;"">+</div>","null","html-keyboard-response","228","257595","0.0-6.0-0.111","VIDE","4","m","rechts","23","","fixation","","","",""
"1018","img/150_270.png","70","image-keyboard-response","229","258621","0.0-6.0-1.111","VIDE","4","m","rechts","23","","","self","j","150","false"
"null","<div style=""font-size:60px;"">+</div>","null","html-keyboard-response","230","259001","0.0-6.0-0.112","VIDE","4","m","rechts","23","","fixation","","","",""
"651","img/0_270.png","70","image-keyboard-response","231","259667","0.0-6.0-1.112","VIDE","4","m","rechts","23","","","self","f","0","true"
"null","<div style=""font-size:60px;"">+</div>","null","html-keyboard-response","232","260094","0.0-6.0-0.113","VIDE","4","m","rechts","23","","fixation","","","",""
"882","img/120_150.png","70","image-keyboard-response","233","260984","0.0-6.0-1.113","VIDE","4","m","rechts","23","","","self","f","120","true"
"null","<div style=""font-size:60px;"">+</div>","null","html-keyboard-response","234","261438","0.0-6.0-0.114","VIDE","4","m","rechts","23","","fixation","","","",""
"601","img/0_300.png","70","image-keyboard-response","235","262052","0.0-6.0-1.114","VIDE","4","m","rechts","23","","","self","f","0","true"
"null","<div style=""font-size:60px;"">+</div>","null","html-keyboard-response","236","262579","0.0-6.0-0.115","VIDE","4","m","rechts","23","","fixation","","","",""
"839","img/30_90.png","74","image-keyboard-response","237","263427","0.0-6.0-1.115","VIDE","4","m","rechts","23","","","self","j","30","true"
"null","<div style=""font-size:60px;"">+</div>","null","html-keyboard-response","238","263830","0.0-6.0-0.116","VIDE","4","m","rechts","23","","fixation","","","",""
"1385","img/150_90.png","70","image-keyboard-response","239","265223","0.0-6.0-1.116","VIDE","4","m","rechts","23","","","self","f","150","true"
"null","<div style=""font-size:60px;"">+</div>","null","html-keyboard-response","240","265642","0.0-6.0-0.117","VIDE","4","m","rechts","23","","fixation","","","",""
"711","img/90_240.png","74","image-keyboard-response","241","266362","0.0-6.0-1.117","VIDE","4","m","rechts","23","","","self","j","90","true"
"null","<div style=""font-size:60px;"">+</div>","null","html-keyboard-response","242","266890","0.0-6.0-0.118","VIDE","4","m","rechts","23","","fixation","","","",""
"824","img/30_300.png","70","image-keyboard-response","243","267721","0.0-6.0-1.118","VIDE","4","m","rechts","23","","","self","f","30","true"
"null","<div style=""font-size:60px;"">+</div>","null","html-keyboard-response","244","268239","0.0-6.0-0.119","VIDE","4","m","rechts","23","","fixation","","","",""
"611","img/0_90.png","74","image-keyboard-response","245","268859","0.0-6.0-1.119","VIDE","4","m","rechts","23","","","self","j","0","true"
"null","<div style=""font-size:60px;"">+</div>","null","html-keyboard-response","246","269364","0.0-6.0-0.120","VIDE","4","m","rechts","23","","fixation","","","",""
"824","img/90_210.png","74","image-keyboard-response","247","270197","0.0-6.0-1.120","VIDE","4","m","rechts","23","","","self","j","90","true"
"null","<div style=""font-size:60px;"">+</div>","null","html-keyboard-response","248","270503","0.0-6.0-0.121","VIDE","4","m","rechts","23","","fixation","","","",""
"592","img/0_60.png","74","image-keyboard-response","249","271107","0.0-6.0-1.121","VIDE","4","m","rechts","23","","","self","j","0","true"
"null","<div style=""font-size:60px;"">+</div>","null","html-keyboard-response","250","271612","0.0-6.0-0.122","VIDE","4","m","rechts","23","","fixation","","","",""
"606","img/0_150.png","74","image-keyboard-response","251","272222","0.0-6.0-1.122","VIDE","4","m","rechts","23","","","self","j","0","true"
"null","<div style=""font-size:60px;"">+</div>","null","html-keyboard-response","252","272596","0.0-6.0-0.123","VIDE","4","m","rechts","23","","fixation","","","",""
"705","img/150_240.png","74","image-keyboard-response","253","273314","0.0-6.0-1.123","VIDE","4","m","rechts","23","","","self","j","150","true"
"null","<div style=""font-size:60px;"">+</div>","null","html-keyboard-response","254","273768","0.0-6.0-0.124","VIDE","4","m","rechts","23","","fixation","","","",""
"610","img/0_120.png","74","image-keyboard-response","255","274391","0.0-6.0-1.124","VIDE","4","m","rechts","23","","","self","j","0","true"
"null","<div style=""font-size:60px;"">+</div>","null","html-keyboard-response","256","274924","0.0-6.0-0.125","VIDE","4","m","rechts","23","","fixation","","","",""
"799","img/120_270.png","74","image-keyboard-response","257","275732","0.0-6.0-1.125","VIDE","4","m","rechts","23","","","self","j","120","true"
"null","<div style=""font-size:60px;"">+</div>","null","html-keyboard-response","258","276206","0.0-6.0-0.126","VIDE","4","m","rechts","23","","fixation","","","",""
"799","img/60_330.png","70","image-keyboard-response","259","277014","0.0-6.0-1.126","VIDE","4","m","rechts","23","","","self","f","60","true"
"null","<div style=""font-size:60px;"">+</div>","null","html-keyboard-response","260","277331","0.0-6.0-0.127","VIDE","4","m","rechts","23","","fixation","","","",""
"806","img/30_240.png","70","image-keyboard-response","261","278152","0.0-6.0-1.127","VIDE","4","m","rechts","23","","","self","f","30","true"
"null","<div style=""font-size:60px;"">+</div>","null","html-keyboard-response","262","278504","0.0-6.0-0.128","VIDE","4","m","rechts","23","","fixation","","","",""
"949","img/L150_180.png","70","image-keyboard-response","263","279466","0.0-6.0-1.128","VIDE","4","m","rechts","23","","","self","f","150","true"
"null","<div style=""font-size:60px;"">+</div>","null","html-keyboard-response","264","279786","0.0-6.0-0.129","VIDE","4","m","rechts","23","","fixation","","","",""
"639","img/0_210.png","70","image-keyboard-response","265","280435","0.0-6.0-1.129","VIDE","4","m","rechts","23","","","self","f","0","true"
"null","<div style=""font-size:60px;"">+</div>","null","html-keyboard-response","266","280802","0.0-6.0-0.130","VIDE","4","m","rechts","23","","fixation","","","",""
"833","img/L30_180.png","70","image-keyboard-response","267","281648","0.0-6.0-1.130","VIDE","4","m","rechts","23","","","self","f","30","true"
"null","<div style=""font-size:60px;"">+</div>","null","html-keyboard-response","268","282019","0.0-6.0-0.131","VIDE","4","m","rechts","23","","fixation","","","",""
"1211","img/150_60.png","70","image-keyboard-response","269","283244","0.0-6.0-1.131","VIDE","4","m","rechts","23","","","self","f","150","true"
"null","<div style=""font-size:60px;"">+</div>","null","html-keyboard-response","270","283707","0.0-6.0-0.132","VIDE","4","m","rechts","23","","fixation","","","",""
"957","img/90_300.png","70","image-keyboard-response","271","284677","0.0-6.0-1.132","VIDE","4","m","rechts","23","","","self","f","90","true"
"null","<div style=""font-size:60px;"">+</div>","null","html-keyboard-response","272","285192","0.0-6.0-0.133","VIDE","4","m","rechts","23","","fixation","","","",""
"574","img/0_330.png","70","image-keyboard-response","273","285778","0.0-6.0-1.133","VIDE","4","m","rechts","23","","","self","f","0","true"
"null","<div style=""font-size:60px;"">+</div>","null","html-keyboard-response","274","286192","0.0-6.0-0.134","VIDE","4","m","rechts","23","","fixation","","","",""
"633","img/0_240.png","70","image-keyboard-response","275","286836","0.0-6.0-1.134","VIDE","4","m","rechts","23","","","self","f","0","true"
"null","<div style=""font-size:60px;"">+</div>","null","html-keyboard-response","276","287144","0.0-6.0-0.135","VIDE","4","m","rechts","23","","fixation","","","",""
"737","img/60_30.png","74","image-keyboard-response","277","287895","0.0-6.0-1.135","VIDE","4","m","rechts","23","","","self","j","60","true"
"null","<div style=""font-size:60px;"">+</div>","null","html-keyboard-response","278","288256","0.0-6.0-0.136","VIDE","4","m","rechts","23","","fixation","","","",""
"707","img/L60_180.png","70","image-keyboard-response","279","288974","0.0-6.0-1.136","VIDE","4","m","rechts","23","","","self","f","60","true"
"null","<div style=""font-size:60px;"">+</div>","null","html-keyboard-response","280","289349","0.0-6.0-0.137","VIDE","4","m","rechts","23","","fixation","","","",""
"714","img/90_120.png","70","image-keyboard-response","281","290076","0.0-6.0-1.137","VIDE","4","m","rechts","23","","","self","f","90","true"
"null","<div style=""font-size:60px;"">+</div>","null","html-keyboard-response","282","290459","0.0-6.0-0.138","VIDE","4","m","rechts","23","","fixation","","","",""
"574","img/30_120.png","70","image-keyboard-response","283","291044","0.0-6.0-1.138","VIDE","4","m","rechts","23","","","self","j","30","false"
"null","<div style=""font-size:60px;"">+</div>","null","html-keyboard-response","284","291552","0.0-6.0-0.139","VIDE","4","m","rechts","23","","fixation","","","",""
"799","img/60_180.png","74","image-keyboard-response","285","292361","0.0-6.0-1.139","VIDE","4","m","rechts","23","","","self","j","60","true"
"null","<div style=""font-size:60px;"">+</div>","null","html-keyboard-response","286","292739","0.0-6.0-0.140","VIDE","4","m","rechts","23","","fixation","","","",""
"1419","img/120_90.png","70","image-keyboard-response","287","294172","0.0-6.0-1.140","VIDE","4","m","rechts","23","","","self","f","120","true"
"null","<div style=""font-size:60px;"">+</div>","null","html-keyboard-response","288","294630","0.0-6.0-0.141","VIDE","4","m","rechts","23","","fixation","","","",""
"697","img/60_210.png","74","image-keyboard-response","289","295344","0.0-6.0-1.141","VIDE","4","m","rechts","23","","","self","j","60","true"
"null","<div style=""font-size:60px;"">+</div>","null","html-keyboard-response","290","295864","0.0-6.0-0.142","VIDE","4","m","rechts","23","","fixation","","","",""
"814","img/60_150.png","70","image-keyboard-response","291","296691","0.0-6.0-1.142","VIDE","4","m","rechts","23","","","self","f","60","true"
"null","<div style=""font-size:60px;"">+</div>","null","html-keyboard-response","292","297208","0.0-6.0-0.143","VIDE","4","m","rechts","23","","fixation","","","",""
"685","img/60_90.png","74","image-keyboard-response","293","297907","0.0-6.0-1.143","VIDE","4","m","rechts","23","","","self","j","60","true"
"null","<div style=""font-size:60px;"">+</div>","null","html-keyboard-response","294","298208","0.0-6.0-0.144","VIDE","4","m","rechts","23","","fixation","","","",""
"1160","img/90_60.png","74","image-keyboard-response","295","299381","0.0-6.0-1.144","VIDE","4","m","rechts","23","","","self","j","90","true"
"null","<div style=""font-size:60px;"">+</div>","null","html-keyboard-response","296","299707","0.0-6.0-0.145","VIDE","4","m","rechts","23","","fixation","","","",""
"1190","img/120_30.png","74","image-keyboard-response","297","300911","0.0-6.0-1.145","VIDE","4","m","rechts","23","","","self","j","120","true"
"null","<div style=""font-size:60px;"">+</div>","null","html-keyboard-response","298","301362","0.0-6.0-0.146","VIDE","4","m","rechts","23","","fixation","","","",""
"1177","img/120_180.png","74","image-keyboard-response","299","302552","0.0-6.0-1.146","VIDE","4","m","rechts","23","","","self","j","120","true"
"null","<div style=""font-size:60px;"">+</div>","null","html-keyboard-response","300","302972","0.0-6.0-0.147","VIDE","4","m","rechts","23","","fixation","","","",""
"608","img/0_30.png","74","image-keyboard-response","301","303589","0.0-6.0-1.147","VIDE","4","m","rechts","23","","","self","j","0","true"
"null","<div style=""font-size:60px;"">+</div>","null","html-keyboard-response","302","304113","0.0-6.0-0.148","VIDE","4","m","rechts","23","","fixation","","","",""
"815","img/30_180.png","74","image-keyboard-response","303","304938","0.0-6.0-1.148","VIDE","4","m","rechts","23","","","self","j","30","true"
"null","<div style=""font-size:60px;"">+</div>","null","html-keyboard-response","304","305254","0.0-6.0-0.149","VIDE","4","m","rechts","23","","fixation","","","",""
"1088","img/60_270.png","74","image-keyboard-response","305","306356","0.0-6.0-1.149","VIDE","4","m","rechts","23","","","self","f","60","false"
"null","<div style=""font-size:60px;"">+</div>","null","html-keyboard-response","306","306879","0.0-6.0-0.150","VIDE","4","m","rechts","23","","fixation","","","",""
"1274","img/150_300.png","74","image-keyboard-response","307","308166","0.0-6.0-1.150","VIDE","4","m","rechts","23","","","self","j","150","true"
"null","<div style=""font-size:60px;"">+</div>","null","html-keyboard-response","308","308474","0.0-6.0-0.151","VIDE","4","m","rechts","23","","fixation","","","",""
"1232","img/90_30.png","74","image-keyboard-response","309","309719","0.0-6.0-1.151","VIDE","4","m","rechts","23","","","self","j","90","true"
"null","<div style=""font-size:60px;"">+</div>","null","html-keyboard-response","310","310193","0.0-6.0-0.152","VIDE","4","m","rechts","23","","fixation","","","",""
"931","img/90_150.png","70","image-keyboard-response","311","311136","0.0-6.0-1.152","VIDE","4","m","rechts","23","","","self","f","90","true"
"null","<div style=""font-size:60px;"">+</div>","null","html-keyboard-response","312","311553","0.0-6.0-0.153","VIDE","4","m","rechts","23","","fixation","","","",""
"965","img/L120_180.png","70","image-keyboard-response","313","312531","0.0-6.0-1.153","VIDE","4","m","rechts","23","","","self","f","120","true"
"null","<div style=""font-size:60px;"">+</div>","null","html-keyboard-response","314","312849","0.0-6.0-0.154","VIDE","4","m","rechts","23","","fixation","","","",""
"759","img/L90_180.png","70","image-keyboard-response","315","313622","0.0-6.0-1.154","VIDE","4","m","rechts","23","","","self","f","90","true"
"null","<div style=""font-size:60px;"">+</div>","null","html-keyboard-response","316","314005","0.0-6.0-0.155","VIDE","4","m","rechts","23","","fixation","","","",""
"893","img/150_180.png","74","image-keyboard-response","317","314906","0.0-6.0-1.155","VIDE","4","m","rechts","23","","","self","j","150","true"
"null","<div style=""font-size:60px;"">+</div>","null","html-keyboard-response","318","315208","0.0-6.0-0.156","VIDE","4","m","rechts","23","","fixation","","","",""
"628","img/60_180.png","74","image-keyboard-response","319","315850","0.0-6.0-1.156","VIDE","4","m","rechts","23","","","self","j","60","true"
"null","<div style=""font-size:60px;"">+</div>","null","html-keyboard-response","320","316319","0.0-6.0-0.157","VIDE","4","m","rechts","23","","fixation","","","",""
"637","img/60_90.png","74","image-keyboard-response","321","316964","0.0-6.0-1.157","VIDE","4","m","rechts","23","","","self","j","60","true"
"null","<div style=""font-size:60px;"">+</div>","null","html-keyboard-response","322","317474","0.0-6.0-0.158","VIDE","4","m","rechts","23","","fixation","","","",""
"941","img/150_120.png","70","image-keyboard-response","323","318427","0.0-6.0-1.158","VIDE","4","m","rechts","23","","","self","f","150","true"
"null","<div style=""font-size:60px;"">+</div>","null","html-keyboard-response","324","318849","0.0-6.0-0.159","VIDE","4","m","rechts","23","","fixation","","","",""
"863","img/90_150.png","70","image-keyboard-response","325","319721","0.0-6.0-1.159","VIDE","4","m","rechts","23","","","self","f","90","true"
"null","<div style=""font-size:60px;"">+</div>","null","html-keyboard-response","326","320145","0.0-6.0-0.160","VIDE","4","m","rechts","23","","fixation","","","",""
"613","img/90_120.png","70","image-keyboard-response","327","320767","0.0-6.0-1.160","VIDE","4","m","rechts","23","","","self","f","90","true"
"null","<div style=""font-size:60px;"">+</div>","null","html-keyboard-response","328","321083","0.0-6.0-0.161","VIDE","4","m","rechts","23","","fixation","","","",""
"654","img/L120_180.png","70","image-keyboard-response","329","321746","0.0-6.0-1.161","VIDE","4","m","rechts","23","","","self","f","120","true"
"null","<div style=""font-size:60px;"">+</div>","null","html-keyboard-response","330","322271","0.0-6.0-0.162","VIDE","4","m","rechts","23","","fixation","","","",""
"631","img/90_210.png","74","image-keyboard-response","331","322914","0.0-6.0-1.162","VIDE","4","m","rechts","23","","","self","j","90","true"
"null","<div style=""font-size:60px;"">+</div>","null","html-keyboard-response","332","323396","0.0-6.0-0.163","VIDE","4","m","rechts","23","","fixation","","","",""
"620","img/120_150.png","70","image-keyboard-response","333","324029","0.0-6.0-1.163","VIDE","4","m","rechts","23","","","self","f","120","true"
"null","<div style=""font-size:60px;"">+</div>","null","html-keyboard-response","334","324395","0.0-6.0-0.164","VIDE","4","m","rechts","23","","fixation","","","",""
"655","img/30_90.png","74","image-keyboard-response","335","325063","0.0-6.0-1.164","VIDE","4","m","rechts","23","","","self","j","30","true"
"null","<div style=""font-size:60px;"">+</div>","null","html-keyboard-response","336","325473","0.0-6.0-0.165","VIDE","4","m","rechts","23","","fixation","","","",""
"748","img/30_300.png","70","image-keyboard-response","337","326235","0.0-6.0-1.165","VIDE","4","m","rechts","23","","","self","f","30","true"
"null","<div style=""font-size:60px;"">+</div>","null","html-keyboard-response","338","326693","0.0-6.0-0.166","VIDE","4","m","rechts","23","","fixation","","","",""
"961","img/120_30.png","74","image-keyboard-response","339","327663","0.0-6.0-1.166","VIDE","4","m","rechts","23","","","self","j","120","true"
"null","<div style=""font-size:60px;"">+</div>","null","html-keyboard-response","340","328117","0.0-6.0-0.167","VIDE","4","m","rechts","23","","fixation","","","",""
"940","img/150_240.png","74","image-keyboard-response","341","329070","0.0-6.0-1.167","VIDE","4","m","rechts","23","","","self","j","150","true"
"null","<div style=""font-size:60px;"">+</div>","null","html-keyboard-response","342","329537","0.0-6.0-0.168","VIDE","4","m","rechts","23","","fixation","","","",""
"591","img/150_180.png","74","image-keyboard-response","343","330140","0.0-6.0-1.168","VIDE","4","m","rechts","23","","","self","j","150","true"
"null","<div style=""font-size:60px;"">+</div>","null","html-keyboard-response","344","330554","0.0-6.0-0.169","VIDE","4","m","rechts","23","","fixation","","","",""
"672","img/0_120.png","74","image-keyboard-response","345","331241","0.0-6.0-1.169","VIDE","4","m","rechts","23","","","self","j","0","true"
"null","<div style=""font-size:60px;"">+</div>","null","html-keyboard-response","346","331708","0.0-6.0-0.170","VIDE","4","m","rechts","23","","fixation","","","",""
"721","img/L60_180.png","70","image-keyboard-response","347","332444","0.0-6.0-1.170","VIDE","4","m","rechts","23","","","self","f","60","true"
"null","<div style=""font-size:60px;"">+</div>","null","html-keyboard-response","348","332959","0.0-6.0-0.171","VIDE","4","m","rechts","23","","fixation","","","",""
"494","img/0_90.png","74","image-keyboard-response","349","333468","0.0-6.0-1.171","VIDE","4","m","rechts","23","","","self","j","0","true"
"null","<div style=""font-size:60px;"">+</div>","null","html-keyboard-response","350","333881","0.0-6.0-0.172","VIDE","4","m","rechts","23","","fixation","","","",""
"611","img/60_30.png","74","image-keyboard-response","351","334503","0.0-6.0-1.172","VIDE","4","m","rechts","23","","","self","j","60","true"
"null","<div style=""font-size:60px;"">+</div>","null","html-keyboard-response","352","334830","0.0-6.0-0.173","VIDE","4","m","rechts","23","","fixation","","","",""
"1549","img/120_330.png","70","image-keyboard-response","353","336392","0.0-6.0-1.173","VIDE","4","m","rechts","23","","","self","f","120","true"
"null","<div style=""font-size:60px;"">+</div>","null","html-keyboard-response","354","336845","0.0-6.0-0.174","VIDE","4","m","rechts","23","","fixation","","","",""
"1347","img/150_300.png","74","image-keyboard-response","355","338204","0.0-6.0-1.174","VIDE","4","m","rechts","23","","","self","j","150","true"
"null","<div style=""font-size:60px;"">+</div>","null","html-keyboard-response","356","338580","0.0-6.0-0.175","VIDE","4","m","rechts","23","","fixation","","","",""
"1323","img/60_270.png","70","image-keyboard-response","357","339912","0.0-6.0-1.175","VIDE","4","m","rechts","23","","","self","f","60","true"
"null","<div style=""font-size:60px;"">+</div>","null","html-keyboard-response","358","340283","0.0-6.0-0.176","VIDE","4","m","rechts","23","","fixation","","","",""
"923","img/150_90.png","70","image-keyboard-response","359","341219","0.0-6.0-1.176","VIDE","4","m","rechts","23","","","self","f","150","true"
"null","<div style=""font-size:60px;"">+</div>","null","html-keyboard-response","360","341643","0.0-6.0-0.177","VIDE","4","m","rechts","23","","fixation","","","",""
"701","img/0_300.png","70","image-keyboard-response","361","342356","0.0-6.0-1.177","VIDE","4","m","rechts","23","","","self","f","0","true"
"null","<div style=""font-size:60px;"">+</div>","null","html-keyboard-response","362","342863","0.0-6.0-0.178","VIDE","4","m","rechts","23","","fixation","","","",""
"863","img/90_300.png","70","image-keyboard-response","363","343739","0.0-6.0-1.178","VIDE","4","m","rechts","23","","","self","f","90","true"
"null","<div style=""font-size:60px;"">+</div>","null","html-keyboard-response","364","344113","0.0-6.0-0.179","VIDE","4","m","rechts","23","","fixation","","","",""
"806","img/30_60.png","74","image-keyboard-response","365","344932","0.0-6.0-1.179","VIDE","4","m","rechts","23","","","self","j","30","true"
"null","<div style=""font-size:60px;"">+</div>","null","html-keyboard-response","366","345238","0.0-6.0-0.180","VIDE","4","m","rechts","23","","fixation","","","",""
"741","img/120_90.png","70","image-keyboard-response","367","345989","0.0-6.0-1.180","VIDE","4","m","rechts","23","","","self","f","120","true"
"null","<div style=""font-size:60px;"">+</div>","null","html-keyboard-response","368","346518","0.0-6.0-0.181","VIDE","4","m","rechts","23","","fixation","","","",""
"722","img/120_180.png","74","image-keyboard-response","369","347250","0.0-6.0-1.181","VIDE","4","m","rechts","23","","","self","j","120","true"
"null","<div style=""font-size:60px;"">+</div>","null","html-keyboard-response","370","347613","0.0-6.0-0.182","VIDE","4","m","rechts","23","","fixation","","","",""
"624","img/0_150.png","74","image-keyboard-response","371","348250","0.0-6.0-1.182","VIDE","4","m","rechts","23","","","self","j","0","true"
"null","<div style=""font-size:60px;"">+</div>","null","html-keyboard-response","372","348550","0.0-6.0-0.183","VIDE","4","m","rechts","23","","fixation","","","",""
"659","img/30_180.png","74","image-keyboard-response","373","349218","0.0-6.0-1.183","VIDE","4","m","rechts","23","","","self","j","30","true"
"null","<div style=""font-size:60px;"">+</div>","null","html-keyboard-response","374","349629","0.0-6.0-0.184","VIDE","4","m","rechts","23","","fixation","","","",""
"778","img/30_270.png","70","image-keyboard-response","375","350421","0.0-6.0-1.184","VIDE","4","m","rechts","23","","","self","f","30","true"
"null","<div style=""font-size:60px;"">+</div>","null","html-keyboard-response","376","350942","0.0-6.0-0.185","VIDE","4","m","rechts","23","","fixation","","","",""
"785","img/120_270.png","74","image-keyboard-response","377","351739","0.0-6.0-1.185","VIDE","4","m","rechts","23","","","self","j","120","true"
"null","<div style=""font-size:60px;"">+</div>","null","html-keyboard-response","378","352159","0.0-6.0-0.186","VIDE","4","m","rechts","23","","fixation","","","",""
"941","img/90_60.png","74","image-keyboard-response","379","353111","0.0-6.0-1.186","VIDE","4","m","rechts","23","","","self","j","90","true"
"null","<div style=""font-size:60px;"">+</div>","null","html-keyboard-response","380","353427","0.0-6.0-0.187","VIDE","4","m","rechts","23","","fixation","","","",""
"811","img/90_30.png","74","image-keyboard-response","381","354248","0.0-6.0-1.187","VIDE","4","m","rechts","23","","","self","j","90","true"
"null","<div style=""font-size:60px;"">+</div>","null","html-keyboard-response","382","354678","0.0-6.0-0.188","VIDE","4","m","rechts","23","","fixation","","","",""
"727","img/90_240.png","74","image-keyboard-response","383","355417","0.0-6.0-1.188","VIDE","4","m","rechts","23","","","self","j","90","true"
"null","<div style=""font-size:60px;"">+</div>","null","html-keyboard-response","384","355739","0.0-6.0-0.189","VIDE","4","m","rechts","23","","fixation","","","",""
"701","img/30_120.png","74","image-keyboard-response","385","356453","0.0-6.0-1.189","VIDE","4","m","rechts","23","","","self","j","30","true"
"null","<div style=""font-size:60px;"">+</div>","null","html-keyboard-response","386","356817","0.0-6.0-0.190","VIDE","4","m","rechts","23","","fixation","","","",""
"612","img/120_210.png","74","image-keyboard-response","387","357443","0.0-6.0-1.190","VIDE","4","m","rechts","23","","","self","j","120","true"
"null","<div style=""font-size:60px;"">+</div>","null","html-keyboard-response","388","357959","0.0-6.0-0.191","VIDE","4","m","rechts","23","","fixation","","","",""
"853","img/30_240.png","70","image-keyboard-response","389","358825","0.0-6.0-1.191","VIDE","4","m","rechts","23","","","self","f","30","true"
"null","<div style=""font-size:60px;"">+</div>","null","html-keyboard-response","390","359193","0.0-6.0-0.192","VIDE","4","m","rechts","23","","fixation","","","",""
"674","img/0_330.png","70","image-keyboard-response","391","359882","0.0-6.0-1.192","VIDE","4","m","rechts","23","","","self","f","0","true"
"null","<div style=""font-size:60px;"">+</div>","null","html-keyboard-response","392","360286","0.0-6.0-0.193","VIDE","4","m","rechts","23","","fixation","","","",""
"538","img/0_210.png","70","image-keyboard-response","393","360838","0.0-6.0-1.193","VIDE","4","m","rechts","23","","","self","f","0","true"
"null","<div style=""font-size:60px;"">+</div>","null","html-keyboard-response","394","361193","0.0-6.0-0.194","VIDE","4","m","rechts","23","","fixation","","","",""
"510","img/0_240.png","70","image-keyboard-response","395","361716","0.0-6.0-1.194","VIDE","4","m","rechts","23","","","self","f","0","true"
"null","<div style=""font-size:60px;"">+</div>","null","html-keyboard-response","396","362145","0.0-6.0-0.195","VIDE","4","m","rechts","23","","fixation","","","",""
"581","img/L30_180.png","70","image-keyboard-response","397","362742","0.0-6.0-1.195","VIDE","4","m","rechts","23","","","self","f","30","true"
"null","<div style=""font-size:60px;"">+</div>","null","html-keyboard-response","398","363163","0.0-6.0-0.196","VIDE","4","m","rechts","23","","fixation","","","",""
"702","img/90_330.png","70","image-keyboard-response","399","363877","0.0-6.0-1.196","VIDE","4","m","rechts","23","","","self","f","90","true"
"null","<div style=""font-size:60px;"">+</div>","null","html-keyboard-response","400","364397","0.0-6.0-0.197","VIDE","4","m","rechts","23","","fixation","","","",""
"457","img/60_330.png","70","image-keyboard-response","401","364868","0.0-6.0-1.197","VIDE","4","m","rechts","23","","","self","f","60","true"
"null","<div style=""font-size:60px;"">+</div>","null","html-keyboard-response","402","365397","0.0-6.0-0.198","VIDE","4","m","rechts","23","","fixation","","","",""
"662","img/90_180.png","74","image-keyboard-response","403","366072","0.0-6.0-1.198","VIDE","4","m","rechts","23","","","self","j","90","true"
"null","<div style=""font-size:60px;"">+</div>","null","html-keyboard-response","404","366475","0.0-6.0-0.199","VIDE","4","m","rechts","23","","fixation","","","",""
"1180","img/150_60.png","70","image-keyboard-response","405","367668","0.0-6.0-1.199","VIDE","4","m","rechts","23","","","self","f","150","true"
"null","<div style=""font-size:60px;"">+</div>","null","html-keyboard-response","406","368037","0.0-6.0-0.200","VIDE","4","m","rechts","23","","fixation","","","",""
"604","img/0_30.png","74","image-keyboard-response","407","368648","0.0-6.0-1.200","VIDE","4","m","rechts","23","","","self","j","0","true"
"null","<div style=""font-size:60px;"">+</div>","null","html-keyboard-response","408","369178","0.0-6.0-0.201","VIDE","4","m","rechts","23","","fixation","","","",""
"603","img/0_270.png","70","image-keyboard-response","409","369795","0.0-6.0-1.201","VIDE","4","m","rechts","23","","","self","f","0","true"
"null","<div style=""font-size:60px;"">+</div>","null","html-keyboard-response","410","370115","0.0-6.0-0.202","VIDE","4","m","rechts","23","","fixation","","","",""
"745","img/60_150.png","70","image-keyboard-response","411","370876","0.0-6.0-1.202","VIDE","4","m","rechts","23","","","self","f","60","true"
"null","<div style=""font-size:60px;"">+</div>","null","html-keyboard-response","412","371245","0.0-6.0-0.203","VIDE","4","m","rechts","23","","fixation","","","",""
"718","img/L150_180.png","70","image-keyboard-response","413","371977","0.0-6.0-1.203","VIDE","4","m","rechts","23","","","self","f","150","true"
"null","<div style=""font-size:60px;"">+</div>","null","html-keyboard-response","414","372292","0.0-6.0-0.204","VIDE","4","m","rechts","23","","fixation","","","",""
"629","img/0_60.png","74","image-keyboard-response","415","372935","0.0-6.0-1.204","VIDE","4","m","rechts","23","","","self","j","0","true"
"null","<div style=""font-size:60px;"">+</div>","null","html-keyboard-response","416","373401","0.0-6.0-0.205","VIDE","4","m","rechts","23","","fixation","","","",""
"824","img/150_270.png","74","image-keyboard-response","417","374239","0.0-6.0-1.205","VIDE","4","m","rechts","23","","","self","j","150","true"
"null","<div style=""font-size:60px;"">+</div>","null","html-keyboard-response","418","374620","0.0-6.0-0.206","VIDE","4","m","rechts","23","","fixation","","","",""
"718","img/L90_180.png","70","image-keyboard-response","419","375353","0.0-6.0-1.206","VIDE","4","m","rechts","23","","","self","f","90","true"
"null","<div style=""font-size:60px;"">+</div>","null","html-keyboard-response","420","375776","0.0-6.0-0.207","VIDE","4","m","rechts","23","","fixation","","","",""
"755","img/60_210.png","74","image-keyboard-response","421","376546","0.0-6.0-1.207","VIDE","4","m","rechts","23","","","self","j","60","true"
"6671","<p>Du hast in 94% der Versuche korrekt entschieden.</p><p>Deine durchschnittliche Reaktionszeit war  828ms.</p><p>Dr&uuml;cke eine beliebige Taste, um die Session zu beenden. Vielen Dank!</p>","32","html-keyboard-response","422","383221","0.0-7.0","VIDE","4","m","rechts","23","","","","","",""
