"rt","stimulus","key_press","trial_type","trial_index","time_elapsed","internal_node_id","subject","session","sex","handedness","age","responses","test_part","condition","correct_response","angle","correct"
"1180","<p>Mental Rotation Experiment.</p> <p>Dr&uuml;cke eine beliebige Taste, um anzufangen.</p>","72","html-keyboard-response","0","1184","0.0-0.0","LABU","4","f","rechts","24","","","","","",""
"3004","","","survey-text","1","4190","0.0-1.0","LABU","4","f","rechts","24","{""Q0"":""LABU""}","","","","",""
"2756","","","survey-text","2","6946","0.0-2.0","LABU","4","f","rechts","24","{""Q0"":""4""}","","","","",""
"3238","","","survey-multi-choice","3","10186","0.0-3.0","LABU","4","f","rechts","24","{""Q0"":""f"",""Q1"":""rechts""}","","","","",""
"2421","","","survey-text","4","12608","0.0-4.0","LABU","4","f","rechts","24","{""Q0"":""24""}","","","","",""
"59475","<p>Stell dir vor, dass du vor einem runden Tisch stehst, auf dem sich ein blauer Ball am Tischrand befindet. Entlang des Tischrands ist jeweils ein verschieden langer Pfeil. Nun bleibst du an deinem Platz vor dem Tisch und rotierst den Tisch entlang des Pfeils (gleiche Richtung und Länge). </p> <img src='img/30_180.png'></img> <br><p> Nachdem du diese (vorgestellte) Rotation durchgef&uuml;hrt hast, schau in Richtung der Tischmitte, und entscheide dann, ob der Ball links oder rechts von dir liegt.</p> <p>Dr&uuml;cke die <strong>'f'</strong>-Taste f&uuml;r links, die <strong>'j'</strong>-Taste f&uuml;r rechts.</p><br><p> Das Bild wird jeweils 1 Sekunde lang pr&auml;sentiert. Du hast 3 Sekunden Zeit eine Entscheidung zu treffen.</p>","74","html-keyboard-response","5","72084","0.0-5.0","LABU","4","f","rechts","24","","","","","",""
"null","<div style=""font-size:60px;"">+</div>","null","html-keyboard-response","6","73490","0.0-6.0-0.0","LABU","4","f","rechts","24","","fixation","","","",""
"983","img/90_300.png","74","image-keyboard-response","7","74474","0.0-6.0-1.0","LABU","4","f","rechts","24","","","object","j","90","true"
"null","<div style=""font-size:60px;"">+</div>","null","html-keyboard-response","8","74826","0.0-6.0-0.1","LABU","4","f","rechts","24","","fixation","","","",""
"723","img/0_30.png","74","image-keyboard-response","9","75551","0.0-6.0-1.1","LABU","4","f","rechts","24","","","object","j","0","true"
"null","<div style=""font-size:60px;"">+</div>","null","html-keyboard-response","10","75952","0.0-6.0-0.2","LABU","4","f","rechts","24","","fixation","","","",""
"758","img/30_240.png","70","image-keyboard-response","11","76713","0.0-6.0-1.2","LABU","4","f","rechts","24","","","object","f","30","true"
"null","<div style=""font-size:60px;"">+</div>","null","html-keyboard-response","12","77115","0.0-6.0-0.3","LABU","4","f","rechts","24","","fixation","","","",""
"819","img/L60_180.png","74","image-keyboard-response","13","77936","0.0-6.0-1.3","LABU","4","f","rechts","24","","","object","j","60","true"
"null","<div style=""font-size:60px;"">+</div>","null","html-keyboard-response","14","78386","0.0-6.0-0.4","LABU","4","f","rechts","24","","fixation","","","",""
"703","img/30_270.png","70","image-keyboard-response","15","79090","0.0-6.0-1.4","LABU","4","f","rechts","24","","","object","f","30","true"
"null","<div style=""font-size:60px;"">+</div>","null","html-keyboard-response","16","79592","0.0-6.0-0.5","LABU","4","f","rechts","24","","fixation","","","",""
"685","img/90_120.png","74","image-keyboard-response","17","80279","0.0-6.0-1.5","LABU","4","f","rechts","24","","","object","j","90","true"
"null","<div style=""font-size:60px;"">+</div>","null","html-keyboard-response","18","80781","0.0-6.0-0.6","LABU","4","f","rechts","24","","fixation","","","",""
"654","img/0_120.png","74","image-keyboard-response","19","81436","0.0-6.0-1.6","LABU","4","f","rechts","24","","","object","j","0","true"
"null","<div style=""font-size:60px;"">+</div>","null","html-keyboard-response","20","81938","0.0-6.0-0.7","LABU","4","f","rechts","24","","fixation","","","",""
"828","img/90_60.png","70","image-keyboard-response","21","82767","0.0-6.0-1.7","LABU","4","f","rechts","24","","","object","f","90","true"
"null","<div style=""font-size:60px;"">+</div>","null","html-keyboard-response","22","83218","0.0-6.0-0.8","LABU","4","f","rechts","24","","fixation","","","",""
"690","img/120_330.png","74","image-keyboard-response","23","83910","0.0-6.0-1.8","LABU","4","f","rechts","24","","","object","j","120","true"
"null","<div style=""font-size:60px;"">+</div>","null","html-keyboard-response","24","84311","0.0-6.0-0.9","LABU","4","f","rechts","24","","fixation","","","",""
"906","img/120_180.png","70","image-keyboard-response","25","85219","0.0-6.0-1.9","LABU","4","f","rechts","24","","","object","f","120","true"
"null","<div style=""font-size:60px;"">+</div>","null","html-keyboard-response","26","85570","0.0-6.0-0.10","LABU","4","f","rechts","24","","fixation","","","",""
"784","img/L150_180.png","74","image-keyboard-response","27","86355","0.0-6.0-1.10","LABU","4","f","rechts","24","","","object","j","150","true"
"null","<div style=""font-size:60px;"">+</div>","null","html-keyboard-response","28","86807","0.0-6.0-0.11","LABU","4","f","rechts","24","","fixation","","","",""
"683","img/0_90.png","74","image-keyboard-response","29","87491","0.0-6.0-1.11","LABU","4","f","rechts","24","","","object","j","0","true"
"null","<div style=""font-size:60px;"">+</div>","null","html-keyboard-response","30","87793","0.0-6.0-0.12","LABU","4","f","rechts","24","","fixation","","","",""
"773","img/120_150.png","74","image-keyboard-response","31","88567","0.0-6.0-1.12","LABU","4","f","rechts","24","","","object","j","120","true"
"null","<div style=""font-size:60px;"">+</div>","null","html-keyboard-response","32","88969","0.0-6.0-0.13","LABU","4","f","rechts","24","","fixation","","","",""
"721","img/90_210.png","70","image-keyboard-response","33","89691","0.0-6.0-1.13","LABU","4","f","rechts","24","","","object","f","90","true"
"null","<div style=""font-size:60px;"">+</div>","null","html-keyboard-response","34","90093","0.0-6.0-0.14","LABU","4","f","rechts","24","","fixation","","","",""
"801","img/90_30.png","70","image-keyboard-response","35","90895","0.0-6.0-1.14","LABU","4","f","rechts","24","","","object","f","90","true"
"null","<div style=""font-size:60px;"">+</div>","null","html-keyboard-response","36","91397","0.0-6.0-0.15","LABU","4","f","rechts","24","","fixation","","","",""
"709","img/60_330.png","74","image-keyboard-response","37","92107","0.0-6.0-1.15","LABU","4","f","rechts","24","","","object","j","60","true"
"null","<div style=""font-size:60px;"">+</div>","null","html-keyboard-response","38","92409","0.0-6.0-0.16","LABU","4","f","rechts","24","","fixation","","","",""
"657","img/0_60.png","74","image-keyboard-response","39","93067","0.0-6.0-1.16","LABU","4","f","rechts","24","","","object","j","0","true"
"null","<div style=""font-size:60px;"">+</div>","null","html-keyboard-response","40","93419","0.0-6.0-0.17","LABU","4","f","rechts","24","","fixation","","","",""
"690","img/60_30.png","70","image-keyboard-response","41","94109","0.0-6.0-1.17","LABU","4","f","rechts","24","","","object","f","60","true"
"null","<div style=""font-size:60px;"">+</div>","null","html-keyboard-response","42","94461","0.0-6.0-0.18","LABU","4","f","rechts","24","","fixation","","","",""
"997","img/30_300.png","70","image-keyboard-response","43","95459","0.0-6.0-1.18","LABU","4","f","rechts","24","","","object","f","30","true"
"null","<div style=""font-size:60px;"">+</div>","null","html-keyboard-response","44","95911","0.0-6.0-0.19","LABU","4","f","rechts","24","","fixation","","","",""
"991","img/30_90.png","74","image-keyboard-response","45","96903","0.0-6.0-1.19","LABU","4","f","rechts","24","","","object","j","30","true"
"null","<div style=""font-size:60px;"">+</div>","null","html-keyboard-response","46","97405","0.0-6.0-0.20","LABU","4","f","rechts","24","","fixation","","","",""
"840","img/60_270.png","70","image-keyboard-response","47","98246","0.0-6.0-1.20","LABU","4","f","rechts","24","","","object","f","60","true"
"null","<div style=""font-size:60px;"">+</div>","null","html-keyboard-response","48","98597","0.0-6.0-0.21","LABU","4","f","rechts","24","","fixation","","","",""
"920","img/120_90.png","74","image-keyboard-response","49","99518","0.0-6.0-1.21","LABU","4","f","rechts","24","","","object","f","120","false"
"null","<div style=""font-size:60px;"">+</div>","null","html-keyboard-response","50","99820","0.0-6.0-0.22","LABU","4","f","rechts","24","","fixation","","","",""
"756","img/L30_180.png","74","image-keyboard-response","51","100577","0.0-6.0-1.22","LABU","4","f","rechts","24","","","object","j","30","true"
"null","<div style=""font-size:60px;"">+</div>","null","html-keyboard-response","52","100979","0.0-6.0-0.23","LABU","4","f","rechts","24","","fixation","","","",""
"561","img/30_120.png","74","image-keyboard-response","53","101541","0.0-6.0-1.23","LABU","4","f","rechts","24","","","object","j","30","true"
"null","<div style=""font-size:60px;"">+</div>","null","html-keyboard-response","54","101843","0.0-6.0-0.24","LABU","4","f","rechts","24","","fixation","","","",""
"763","img/90_180.png","70","image-keyboard-response","55","102607","0.0-6.0-1.24","LABU","4","f","rechts","24","","","object","f","90","true"
"null","<div style=""font-size:60px;"">+</div>","null","html-keyboard-response","56","102959","0.0-6.0-0.25","LABU","4","f","rechts","24","","fixation","","","",""
"679","img/150_270.png","70","image-keyboard-response","57","103639","0.0-6.0-1.25","LABU","4","f","rechts","24","","","object","j","150","false"
"null","<div style=""font-size:60px;"">+</div>","null","html-keyboard-response","58","104041","0.0-6.0-0.26","LABU","4","f","rechts","24","","fixation","","","",""
"737","img/90_330.png","74","image-keyboard-response","59","104779","0.0-6.0-1.26","LABU","4","f","rechts","24","","","object","j","90","true"
"null","<div style=""font-size:60px;"">+</div>","null","html-keyboard-response","60","105281","0.0-6.0-0.27","LABU","4","f","rechts","24","","fixation","","","",""
"699","img/60_210.png","70","image-keyboard-response","61","105980","0.0-6.0-1.27","LABU","4","f","rechts","24","","","object","f","60","true"
"null","<div style=""font-size:60px;"">+</div>","null","html-keyboard-response","62","106381","0.0-6.0-0.28","LABU","4","f","rechts","24","","fixation","","","",""
"760","img/L90_180.png","74","image-keyboard-response","63","107142","0.0-6.0-1.28","LABU","4","f","rechts","24","","","object","j","90","true"
"null","<div style=""font-size:60px;"">+</div>","null","html-keyboard-response","64","107594","0.0-6.0-0.29","LABU","4","f","rechts","24","","fixation","","","",""
"767","img/150_120.png","74","image-keyboard-response","65","108362","0.0-6.0-1.29","LABU","4","f","rechts","24","","","object","f","150","false"
"null","<div style=""font-size:60px;"">+</div>","null","html-keyboard-response","66","108814","0.0-6.0-0.30","LABU","4","f","rechts","24","","fixation","","","",""
"742","img/60_150.png","74","image-keyboard-response","67","109558","0.0-6.0-1.30","LABU","4","f","rechts","24","","","object","j","60","true"
"null","<div style=""font-size:60px;"">+</div>","null","html-keyboard-response","68","110059","0.0-6.0-0.31","LABU","4","f","rechts","24","","fixation","","","",""
"557","img/90_150.png","74","image-keyboard-response","69","110618","0.0-6.0-1.31","LABU","4","f","rechts","24","","","object","j","90","true"
"null","<div style=""font-size:60px;"">+</div>","null","html-keyboard-response","70","111119","0.0-6.0-0.32","LABU","4","f","rechts","24","","fixation","","","",""
"732","img/0_210.png","70","image-keyboard-response","71","111853","0.0-6.0-1.32","LABU","4","f","rechts","24","","","object","f","0","true"
"null","<div style=""font-size:60px;"">+</div>","null","html-keyboard-response","72","112154","0.0-6.0-0.33","LABU","4","f","rechts","24","","fixation","","","",""
"1300","img/60_180.png","70","image-keyboard-response","73","113455","0.0-6.0-1.33","LABU","4","f","rechts","24","","","object","f","60","true"
"null","<div style=""font-size:60px;"">+</div>","null","html-keyboard-response","74","113756","0.0-6.0-0.34","LABU","4","f","rechts","24","","fixation","","","",""
"673","img/0_240.png","70","image-keyboard-response","75","114430","0.0-6.0-1.34","LABU","4","f","rechts","24","","","object","f","0","true"
"null","<div style=""font-size:60px;"">+</div>","null","html-keyboard-response","76","114832","0.0-6.0-0.35","LABU","4","f","rechts","24","","fixation","","","",""
"649","img/150_90.png","74","image-keyboard-response","77","115481","0.0-6.0-1.35","LABU","4","f","rechts","24","","","object","f","150","false"
"null","<div style=""font-size:60px;"">+</div>","null","html-keyboard-response","78","115782","0.0-6.0-0.36","LABU","4","f","rechts","24","","fixation","","","",""
"712","img/120_210.png","70","image-keyboard-response","79","116496","0.0-6.0-1.36","LABU","4","f","rechts","24","","","object","f","120","true"
"null","<div style=""font-size:60px;"">+</div>","null","html-keyboard-response","80","116897","0.0-6.0-0.37","LABU","4","f","rechts","24","","fixation","","","",""
"703","img/0_300.png","70","image-keyboard-response","81","117601","0.0-6.0-1.37","LABU","4","f","rechts","24","","","object","f","0","true"
"null","<div style=""font-size:60px;"">+</div>","null","html-keyboard-response","82","118003","0.0-6.0-0.38","LABU","4","f","rechts","24","","fixation","","","",""
"1076","img/150_60.png","70","image-keyboard-response","83","119080","0.0-6.0-1.38","LABU","4","f","rechts","24","","","object","f","150","true"
"null","<div style=""font-size:60px;"">+</div>","null","html-keyboard-response","84","119432","0.0-6.0-0.39","LABU","4","f","rechts","24","","fixation","","","",""
"788","img/150_300.png","74","image-keyboard-response","85","120220","0.0-6.0-1.39","LABU","4","f","rechts","24","","","object","j","150","true"
"null","<div style=""font-size:60px;"">+</div>","null","html-keyboard-response","86","120621","0.0-6.0-0.40","LABU","4","f","rechts","24","","fixation","","","",""
"864","img/30_60.png","74","image-keyboard-response","87","121486","0.0-6.0-1.40","LABU","4","f","rechts","24","","","object","j","30","true"
"null","<div style=""font-size:60px;"">+</div>","null","html-keyboard-response","88","121937","0.0-6.0-0.41","LABU","4","f","rechts","24","","fixation","","","",""
"629","img/0_150.png","74","image-keyboard-response","89","122567","0.0-6.0-1.41","LABU","4","f","rechts","24","","","object","j","0","true"
"null","<div style=""font-size:60px;"">+</div>","null","html-keyboard-response","90","122919","0.0-6.0-0.42","LABU","4","f","rechts","24","","fixation","","","",""
"856","img/150_240.png","70","image-keyboard-response","91","123776","0.0-6.0-1.42","LABU","4","f","rechts","24","","","object","j","150","false"
"null","<div style=""font-size:60px;"">+</div>","null","html-keyboard-response","92","124128","0.0-6.0-0.43","LABU","4","f","rechts","24","","fixation","","","",""
"1024","img/120_270.png","70","image-keyboard-response","93","125153","0.0-6.0-1.43","LABU","4","f","rechts","24","","","object","j","120","false"
"null","<div style=""font-size:60px;"">+</div>","null","html-keyboard-response","94","125455","0.0-6.0-0.44","LABU","4","f","rechts","24","","fixation","","","",""
"1005","img/30_180.png","70","image-keyboard-response","95","126462","0.0-6.0-1.44","LABU","4","f","rechts","24","","","object","f","30","true"
"null","<div style=""font-size:60px;"">+</div>","null","html-keyboard-response","96","126763","0.0-6.0-0.45","LABU","4","f","rechts","24","","fixation","","","",""
"673","img/L120_180.png","74","image-keyboard-response","97","127436","0.0-6.0-1.45","LABU","4","f","rechts","24","","","object","j","120","true"
"null","<div style=""font-size:60px;"">+</div>","null","html-keyboard-response","98","127938","0.0-6.0-0.46","LABU","4","f","rechts","24","","fixation","","","",""
"665","img/60_90.png","74","image-keyboard-response","99","128604","0.0-6.0-1.46","LABU","4","f","rechts","24","","","object","j","60","true"
"null","<div style=""font-size:60px;"">+</div>","null","html-keyboard-response","100","129056","0.0-6.0-0.47","LABU","4","f","rechts","24","","fixation","","","",""
"796","img/120_30.png","70","image-keyboard-response","101","129853","0.0-6.0-1.47","LABU","4","f","rechts","24","","","object","f","120","true"
"null","<div style=""font-size:60px;"">+</div>","null","html-keyboard-response","102","130255","0.0-6.0-0.48","LABU","4","f","rechts","24","","fixation","","","",""
"622","img/90_240.png","70","image-keyboard-response","103","130878","0.0-6.0-1.48","LABU","4","f","rechts","24","","","object","f","90","true"
"null","<div style=""font-size:60px;"">+</div>","null","html-keyboard-response","104","131180","0.0-6.0-0.49","LABU","4","f","rechts","24","","fixation","","","",""
"1074","img/150_180.png","70","image-keyboard-response","105","132255","0.0-6.0-1.49","LABU","4","f","rechts","24","","","object","f","150","true"
"null","<div style=""font-size:60px;"">+</div>","null","html-keyboard-response","106","132607","0.0-6.0-0.50","LABU","4","f","rechts","24","","fixation","","","",""
"719","img/0_270.png","70","image-keyboard-response","107","133328","0.0-6.0-1.50","LABU","4","f","rechts","24","","","object","f","0","true"
"null","<div style=""font-size:60px;"">+</div>","null","html-keyboard-response","108","133829","0.0-6.0-0.51","LABU","4","f","rechts","24","","fixation","","","",""
"576","img/0_330.png","70","image-keyboard-response","109","134406","0.0-6.0-1.51","LABU","4","f","rechts","24","","","object","f","0","true"
"null","<div style=""font-size:60px;"">+</div>","null","html-keyboard-response","110","134708","0.0-6.0-0.52","LABU","4","f","rechts","24","","fixation","","","",""
"822","img/L30_180.png","74","image-keyboard-response","111","135531","0.0-6.0-1.52","LABU","4","f","rechts","24","","","object","j","30","true"
"null","<div style=""font-size:60px;"">+</div>","null","html-keyboard-response","112","135933","0.0-6.0-0.53","LABU","4","f","rechts","24","","fixation","","","",""
"817","img/30_120.png","74","image-keyboard-response","113","136750","0.0-6.0-1.53","LABU","4","f","rechts","24","","","object","j","30","true"
"null","<div style=""font-size:60px;"">+</div>","null","html-keyboard-response","114","137252","0.0-6.0-0.54","LABU","4","f","rechts","24","","fixation","","","",""
"705","img/60_90.png","74","image-keyboard-response","115","137957","0.0-6.0-1.54","LABU","4","f","rechts","24","","","object","j","60","true"
"null","<div style=""font-size:60px;"">+</div>","null","html-keyboard-response","116","138258","0.0-6.0-0.55","LABU","4","f","rechts","24","","fixation","","","",""
"958","img/150_300.png","74","image-keyboard-response","117","139216","0.0-6.0-1.55","LABU","4","f","rechts","24","","","object","j","150","true"
"null","<div style=""font-size:60px;"">+</div>","null","html-keyboard-response","118","139518","0.0-6.0-0.56","LABU","4","f","rechts","24","","fixation","","","",""
"638","img/90_210.png","70","image-keyboard-response","119","140156","0.0-6.0-1.56","LABU","4","f","rechts","24","","","object","f","90","true"
"null","<div style=""font-size:60px;"">+</div>","null","html-keyboard-response","120","140658","0.0-6.0-0.57","LABU","4","f","rechts","24","","fixation","","","",""
"516","img/0_240.png","70","image-keyboard-response","121","141174","0.0-6.0-1.57","LABU","4","f","rechts","24","","","object","f","0","true"
"null","<div style=""font-size:60px;"">+</div>","null","html-keyboard-response","122","141475","0.0-6.0-0.58","LABU","4","f","rechts","24","","fixation","","","",""
"656","img/30_240.png","70","image-keyboard-response","123","142132","0.0-6.0-1.58","LABU","4","f","rechts","24","","","object","f","30","true"
"null","<div style=""font-size:60px;"">+</div>","null","html-keyboard-response","124","142534","0.0-6.0-0.59","LABU","4","f","rechts","24","","fixation","","","",""
"537","img/60_270.png","70","image-keyboard-response","125","143071","0.0-6.0-1.59","LABU","4","f","rechts","24","","","object","f","60","true"
"null","<div style=""font-size:60px;"">+</div>","null","html-keyboard-response","126","143523","0.0-6.0-0.60","LABU","4","f","rechts","24","","fixation","","","",""
"839","img/60_30.png","70","image-keyboard-response","127","144362","0.0-6.0-1.60","LABU","4","f","rechts","24","","","object","f","60","true"
"null","<div style=""font-size:60px;"">+</div>","null","html-keyboard-response","128","144814","0.0-6.0-0.61","LABU","4","f","rechts","24","","fixation","","","",""
"700","img/90_240.png","70","image-keyboard-response","129","145514","0.0-6.0-1.61","LABU","4","f","rechts","24","","","object","f","90","true"
"null","<div style=""font-size:60px;"">+</div>","null","html-keyboard-response","130","145816","0.0-6.0-0.62","LABU","4","f","rechts","24","","fixation","","","",""
"750","img/30_90.png","74","image-keyboard-response","131","146566","0.0-6.0-1.62","LABU","4","f","rechts","24","","","object","j","30","true"
"null","<div style=""font-size:60px;"">+</div>","null","html-keyboard-response","132","147018","0.0-6.0-0.63","LABU","4","f","rechts","24","","fixation","","","",""
"929","img/120_150.png","74","image-keyboard-response","133","147947","0.0-6.0-1.63","LABU","4","f","rechts","24","","","object","j","120","true"
"null","<div style=""font-size:60px;"">+</div>","null","html-keyboard-response","134","148299","0.0-6.0-0.64","LABU","4","f","rechts","24","","fixation","","","",""
"890","img/0_120.png","74","image-keyboard-response","135","149189","0.0-6.0-1.64","LABU","4","f","rechts","24","","","object","j","0","true"
"null","<div style=""font-size:60px;"">+</div>","null","html-keyboard-response","136","149641","0.0-6.0-0.65","LABU","4","f","rechts","24","","fixation","","","",""
"620","img/90_120.png","74","image-keyboard-response","137","150262","0.0-6.0-1.65","LABU","4","f","rechts","24","","","object","j","90","true"
"null","<div style=""font-size:60px;"">+</div>","null","html-keyboard-response","138","150664","0.0-6.0-0.66","LABU","4","f","rechts","24","","fixation","","","",""
"634","img/0_90.png","74","image-keyboard-response","139","151298","0.0-6.0-1.66","LABU","4","f","rechts","24","","","object","j","0","true"
"null","<div style=""font-size:60px;"">+</div>","null","html-keyboard-response","140","151599","0.0-6.0-0.67","LABU","4","f","rechts","24","","fixation","","","",""
"616","img/150_240.png","70","image-keyboard-response","141","152215","0.0-6.0-1.67","LABU","4","f","rechts","24","","","object","j","150","false"
"null","<div style=""font-size:60px;"">+</div>","null","html-keyboard-response","142","152667","0.0-6.0-0.68","LABU","4","f","rechts","24","","fixation","","","",""
"962","img/30_60.png","74","image-keyboard-response","143","153630","0.0-6.0-1.68","LABU","4","f","rechts","24","","","object","j","30","true"
"null","<div style=""font-size:60px;"">+</div>","null","html-keyboard-response","144","153932","0.0-6.0-0.69","LABU","4","f","rechts","24","","fixation","","","",""
"618","img/30_270.png","70","image-keyboard-response","145","154551","0.0-6.0-1.69","LABU","4","f","rechts","24","","","object","f","30","true"
"null","<div style=""font-size:60px;"">+</div>","null","html-keyboard-response","146","154903","0.0-6.0-0.70","LABU","4","f","rechts","24","","fixation","","","",""
"683","img/90_150.png","74","image-keyboard-response","147","155587","0.0-6.0-1.70","LABU","4","f","rechts","24","","","object","j","90","true"
"null","<div style=""font-size:60px;"">+</div>","null","html-keyboard-response","148","155989","0.0-6.0-0.71","LABU","4","f","rechts","24","","fixation","","","",""
"684","img/150_180.png","70","image-keyboard-response","149","156674","0.0-6.0-1.71","LABU","4","f","rechts","24","","","object","f","150","true"
"null","<div style=""font-size:60px;"">+</div>","null","html-keyboard-response","150","157176","0.0-6.0-0.72","LABU","4","f","rechts","24","","fixation","","","",""
"1073","img/120_30.png","70","image-keyboard-response","151","158250","0.0-6.0-1.72","LABU","4","f","rechts","24","","","object","f","120","true"
"null","<div style=""font-size:60px;"">+</div>","null","html-keyboard-response","152","158651","0.0-6.0-0.73","LABU","4","f","rechts","24","","fixation","","","",""
"681","img/0_210.png","70","image-keyboard-response","153","159333","0.0-6.0-1.73","LABU","4","f","rechts","24","","","object","f","0","true"
"null","<div style=""font-size:60px;"">+</div>","null","html-keyboard-response","154","159635","0.0-6.0-0.74","LABU","4","f","rechts","24","","fixation","","","",""
"793","img/120_330.png","74","image-keyboard-response","155","160429","0.0-6.0-1.74","LABU","4","f","rechts","24","","","object","j","120","true"
"null","<div style=""font-size:60px;"">+</div>","null","html-keyboard-response","156","160781","0.0-6.0-0.75","LABU","4","f","rechts","24","","fixation","","","",""
"954","img/L60_180.png","70","image-keyboard-response","157","161736","0.0-6.0-1.75","LABU","4","f","rechts","24","","","object","j","60","false"
"null","<div style=""font-size:60px;"">+</div>","null","html-keyboard-response","158","162038","0.0-6.0-0.76","LABU","4","f","rechts","24","","fixation","","","",""
"1403","img/120_180.png","70","image-keyboard-response","159","163442","0.0-6.0-1.76","LABU","4","f","rechts","24","","","object","f","120","true"
"null","<div style=""font-size:60px;"">+</div>","null","html-keyboard-response","160","163743","0.0-6.0-0.77","LABU","4","f","rechts","24","","fixation","","","",""
"788","img/120_90.png","74","image-keyboard-response","161","164532","0.0-6.0-1.77","LABU","4","f","rechts","24","","","object","f","120","false"
"null","<div style=""font-size:60px;"">+</div>","null","html-keyboard-response","162","165034","0.0-6.0-0.78","LABU","4","f","rechts","24","","fixation","","","",""
"763","img/150_120.png","74","image-keyboard-response","163","165797","0.0-6.0-1.78","LABU","4","f","rechts","24","","","object","f","150","false"
"null","<div style=""font-size:60px;"">+</div>","null","html-keyboard-response","164","166149","0.0-6.0-0.79","LABU","4","f","rechts","24","","fixation","","","",""
"713","img/90_30.png","70","image-keyboard-response","165","166863","0.0-6.0-1.79","LABU","4","f","rechts","24","","","object","f","90","true"
"null","<div style=""font-size:60px;"">+</div>","null","html-keyboard-response","166","167265","0.0-6.0-0.80","LABU","4","f","rechts","24","","fixation","","","",""
"1747","img/0_270.png","70","image-keyboard-response","167","169013","0.0-6.0-1.80","LABU","4","f","rechts","24","","","object","f","0","true"
"null","<div style=""font-size:60px;"">+</div>","null","html-keyboard-response","168","169365","0.0-6.0-0.81","LABU","4","f","rechts","24","","fixation","","","",""
"946","img/150_60.png","70","image-keyboard-response","169","170312","0.0-6.0-1.81","LABU","4","f","rechts","24","","","object","f","150","true"
"null","<div style=""font-size:60px;"">+</div>","null","html-keyboard-response","170","170764","0.0-6.0-0.82","LABU","4","f","rechts","24","","fixation","","","",""
"767","img/30_300.png","70","image-keyboard-response","171","171532","0.0-6.0-1.82","LABU","4","f","rechts","24","","","object","f","30","true"
"null","<div style=""font-size:60px;"">+</div>","null","html-keyboard-response","172","171884","0.0-6.0-0.83","LABU","4","f","rechts","24","","fixation","","","",""
"664","img/120_270.png","70","image-keyboard-response","173","172549","0.0-6.0-1.83","LABU","4","f","rechts","24","","","object","j","120","false"
"null","<div style=""font-size:60px;"">+</div>","null","html-keyboard-response","174","173051","0.0-6.0-0.84","LABU","4","f","rechts","24","","fixation","","","",""
"990","img/60_180.png","70","image-keyboard-response","175","174041","0.0-6.0-1.84","LABU","4","f","rechts","24","","","object","f","60","true"
"null","<div style=""font-size:60px;"">+</div>","null","html-keyboard-response","176","174343","0.0-6.0-0.85","LABU","4","f","rechts","24","","fixation","","","",""
"849","img/90_180.png","70","image-keyboard-response","177","175192","0.0-6.0-1.85","LABU","4","f","rechts","24","","","object","f","90","true"
"null","<div style=""font-size:60px;"">+</div>","null","html-keyboard-response","178","175494","0.0-6.0-0.86","LABU","4","f","rechts","24","","fixation","","","",""
"847","img/60_150.png","74","image-keyboard-response","179","176341","0.0-6.0-1.86","LABU","4","f","rechts","24","","","object","j","60","true"
"null","<div style=""font-size:60px;"">+</div>","null","html-keyboard-response","180","176693","0.0-6.0-0.87","LABU","4","f","rechts","24","","fixation","","","",""
"749","img/120_210.png","70","image-keyboard-response","181","177443","0.0-6.0-1.87","LABU","4","f","rechts","24","","","object","f","120","true"
"null","<div style=""font-size:60px;"">+</div>","null","html-keyboard-response","182","177845","0.0-6.0-0.88","LABU","4","f","rechts","24","","fixation","","","",""
"683","img/150_90.png","74","image-keyboard-response","183","178529","0.0-6.0-1.88","LABU","4","f","rechts","24","","","object","f","150","false"
"null","<div style=""font-size:60px;"">+</div>","null","html-keyboard-response","184","179030","0.0-6.0-0.89","LABU","4","f","rechts","24","","fixation","","","",""
"805","img/90_330.png","74","image-keyboard-response","185","179836","0.0-6.0-1.89","LABU","4","f","rechts","24","","","object","j","90","true"
"null","<div style=""font-size:60px;"">+</div>","null","html-keyboard-response","186","180288","0.0-6.0-0.90","LABU","4","f","rechts","24","","fixation","","","",""
"610","img/0_30.png","74","image-keyboard-response","187","180899","0.0-6.0-1.90","LABU","4","f","rechts","24","","","object","j","0","true"
"null","<div style=""font-size:60px;"">+</div>","null","html-keyboard-response","188","181401","0.0-6.0-0.91","LABU","4","f","rechts","24","","fixation","","","",""
"711","img/0_300.png","70","image-keyboard-response","189","182112","0.0-6.0-1.91","LABU","4","f","rechts","24","","","object","f","0","true"
"null","<div style=""font-size:60px;"">+</div>","null","html-keyboard-response","190","182564","0.0-6.0-0.92","LABU","4","f","rechts","24","","fixation","","","",""
"1071","img/L120_180.png","74","image-keyboard-response","191","183635","0.0-6.0-1.92","LABU","4","f","rechts","24","","","object","j","120","true"
"null","<div style=""font-size:60px;"">+</div>","null","html-keyboard-response","192","184037","0.0-6.0-0.93","LABU","4","f","rechts","24","","fixation","","","",""
"946","img/90_60.png","70","image-keyboard-response","193","184983","0.0-6.0-1.93","LABU","4","f","rechts","24","","","object","f","90","true"
"null","<div style=""font-size:60px;"">+</div>","null","html-keyboard-response","194","185434","0.0-6.0-0.94","LABU","4","f","rechts","24","","fixation","","","",""
"1124","img/60_210.png","70","image-keyboard-response","195","186559","0.0-6.0-1.94","LABU","4","f","rechts","24","","","object","f","60","true"
"null","<div style=""font-size:60px;"">+</div>","null","html-keyboard-response","196","186911","0.0-6.0-0.95","LABU","4","f","rechts","24","","fixation","","","",""
"1090","img/90_300.png","74","image-keyboard-response","197","188002","0.0-6.0-1.95","LABU","4","f","rechts","24","","","object","j","90","true"
"null","<div style=""font-size:60px;"">+</div>","null","html-keyboard-response","198","188503","0.0-6.0-0.96","LABU","4","f","rechts","24","","fixation","","","",""
"767","img/30_180.png","70","image-keyboard-response","199","189271","0.0-6.0-1.96","LABU","4","f","rechts","24","","","object","f","30","true"
"null","<div style=""font-size:60px;"">+</div>","null","html-keyboard-response","200","189722","0.0-6.0-0.97","LABU","4","f","rechts","24","","fixation","","","",""
"623","img/0_330.png","70","image-keyboard-response","201","190347","0.0-6.0-1.97","LABU","4","f","rechts","24","","","object","f","0","true"
"null","<div style=""font-size:60px;"">+</div>","null","html-keyboard-response","202","190848","0.0-6.0-0.98","LABU","4","f","rechts","24","","fixation","","","",""
"508","img/L150_180.png","70","image-keyboard-response","203","191358","0.0-6.0-1.98","LABU","4","f","rechts","24","","","object","j","150","false"
"null","<div style=""font-size:60px;"">+</div>","null","html-keyboard-response","204","191659","0.0-6.0-0.99","LABU","4","f","rechts","24","","fixation","","","",""
"1074","img/60_330.png","70","image-keyboard-response","205","192734","0.0-6.0-1.99","LABU","4","f","rechts","24","","","object","j","60","false"
"null","<div style=""font-size:60px;"">+</div>","null","html-keyboard-response","206","193236","0.0-6.0-0.100","LABU","4","f","rechts","24","","fixation","","","",""
"1075","img/0_150.png","74","image-keyboard-response","207","194311","0.0-6.0-1.100","LABU","4","f","rechts","24","","","object","j","0","true"
"null","<div style=""font-size:60px;"">+</div>","null","html-keyboard-response","208","194713","0.0-6.0-0.101","LABU","4","f","rechts","24","","fixation","","","",""
"609","img/0_60.png","74","image-keyboard-response","209","195322","0.0-6.0-1.101","LABU","4","f","rechts","24","","","object","j","0","true"
"null","<div style=""font-size:60px;"">+</div>","null","html-keyboard-response","210","195623","0.0-6.0-0.102","LABU","4","f","rechts","24","","fixation","","","",""
"867","img/L90_180.png","74","image-keyboard-response","211","196491","0.0-6.0-1.102","LABU","4","f","rechts","24","","","object","j","90","true"
"null","<div style=""font-size:60px;"">+</div>","null","html-keyboard-response","212","196942","0.0-6.0-0.103","LABU","4","f","rechts","24","","fixation","","","",""
"661","img/150_270.png","70","image-keyboard-response","213","197604","0.0-6.0-1.103","LABU","4","f","rechts","24","","","object","j","150","false"
"null","<div style=""font-size:60px;"">+</div>","null","html-keyboard-response","214","198056","0.0-6.0-0.104","LABU","4","f","rechts","24","","fixation","","","",""
"939","img/60_180.png","70","image-keyboard-response","215","198995","0.0-6.0-1.104","LABU","4","f","rechts","24","","","object","f","60","true"
"null","<div style=""font-size:60px;"">+</div>","null","html-keyboard-response","216","199447","0.0-6.0-0.105","LABU","4","f","rechts","24","","fixation","","","",""
"778","img/120_330.png","74","image-keyboard-response","217","200225","0.0-6.0-1.105","LABU","4","f","rechts","24","","","object","j","120","true"
"null","<div style=""font-size:60px;"">+</div>","null","html-keyboard-response","218","200526","0.0-6.0-0.106","LABU","4","f","rechts","24","","fixation","","","",""
"664","img/0_270.png","70","image-keyboard-response","219","201191","0.0-6.0-1.106","LABU","4","f","rechts","24","","","object","f","0","true"
"null","<div style=""font-size:60px;"">+</div>","null","html-keyboard-response","220","201493","0.0-6.0-0.107","LABU","4","f","rechts","24","","fixation","","","",""
"804","img/90_60.png","70","image-keyboard-response","221","202298","0.0-6.0-1.107","LABU","4","f","rechts","24","","","object","f","90","true"
"null","<div style=""font-size:60px;"">+</div>","null","html-keyboard-response","222","202648","0.0-6.0-0.108","LABU","4","f","rechts","24","","fixation","","","",""
"779","img/150_300.png","74","image-keyboard-response","223","203429","0.0-6.0-1.108","LABU","4","f","rechts","24","","","object","j","150","true"
"null","<div style=""font-size:60px;"">+</div>","null","html-keyboard-response","224","203780","0.0-6.0-0.109","LABU","4","f","rechts","24","","fixation","","","",""
"980","img/L150_180.png","74","image-keyboard-response","225","204761","0.0-6.0-1.109","LABU","4","f","rechts","24","","","object","j","150","true"
"null","<div style=""font-size:60px;"">+</div>","null","html-keyboard-response","226","205112","0.0-6.0-0.110","LABU","4","f","rechts","24","","fixation","","","",""
"889","img/60_90.png","74","image-keyboard-response","227","206003","0.0-6.0-1.110","LABU","4","f","rechts","24","","","object","j","60","true"
"null","<div style=""font-size:60px;"">+</div>","null","html-keyboard-response","228","206404","0.0-6.0-0.111","LABU","4","f","rechts","24","","fixation","","","",""
"704","img/30_120.png","74","image-keyboard-response","229","207110","0.0-6.0-1.111","LABU","4","f","rechts","24","","","object","j","30","true"
"null","<div style=""font-size:60px;"">+</div>","null","html-keyboard-response","230","207561","0.0-6.0-0.112","LABU","4","f","rechts","24","","fixation","","","",""
"668","img/30_270.png","70","image-keyboard-response","231","208230","0.0-6.0-1.112","LABU","4","f","rechts","24","","","object","f","30","true"
"null","<div style=""font-size:60px;"">+</div>","null","html-keyboard-response","232","208732","0.0-6.0-0.113","LABU","4","f","rechts","24","","fixation","","","",""
"1073","img/150_90.png","70","image-keyboard-response","233","209806","0.0-6.0-1.113","LABU","4","f","rechts","24","","","object","f","150","true"
"null","<div style=""font-size:60px;"">+</div>","null","html-keyboard-response","234","210258","0.0-6.0-0.114","LABU","4","f","rechts","24","","fixation","","","",""
"686","img/30_60.png","74","image-keyboard-response","235","210946","0.0-6.0-1.114","LABU","4","f","rechts","24","","","object","j","30","true"
"null","<div style=""font-size:60px;"">+</div>","null","html-keyboard-response","236","211347","0.0-6.0-0.115","LABU","4","f","rechts","24","","fixation","","","",""
"677","img/120_210.png","70","image-keyboard-response","237","212025","0.0-6.0-1.115","LABU","4","f","rechts","24","","","object","f","120","true"
"null","<div style=""font-size:60px;"">+</div>","null","html-keyboard-response","238","212427","0.0-6.0-0.116","LABU","4","f","rechts","24","","fixation","","","",""
"646","img/0_120.png","74","image-keyboard-response","239","213074","0.0-6.0-1.116","LABU","4","f","rechts","24","","","object","j","0","true"
"null","<div style=""font-size:60px;"">+</div>","null","html-keyboard-response","240","213376","0.0-6.0-0.117","LABU","4","f","rechts","24","","fixation","","","",""
"706","img/30_90.png","74","image-keyboard-response","241","214082","0.0-6.0-1.117","LABU","4","f","rechts","24","","","object","j","30","true"
"null","<div style=""font-size:60px;"">+</div>","null","html-keyboard-response","242","214383","0.0-6.0-0.118","LABU","4","f","rechts","24","","fixation","","","",""
"1083","img/90_180.png","70","image-keyboard-response","243","215466","0.0-6.0-1.118","LABU","4","f","rechts","24","","","object","f","90","true"
"null","<div style=""font-size:60px;"">+</div>","null","html-keyboard-response","244","215768","0.0-6.0-0.119","LABU","4","f","rechts","24","","fixation","","","",""
"816","img/90_150.png","74","image-keyboard-response","245","216586","0.0-6.0-1.119","LABU","4","f","rechts","24","","","object","j","90","true"
"null","<div style=""font-size:60px;"">+</div>","null","html-keyboard-response","246","217087","0.0-6.0-0.120","LABU","4","f","rechts","24","","fixation","","","",""
"715","img/0_240.png","70","image-keyboard-response","247","217803","0.0-6.0-1.120","LABU","4","f","rechts","24","","","object","f","0","true"
"null","<div style=""font-size:60px;"">+</div>","null","html-keyboard-response","248","218205","0.0-6.0-0.121","LABU","4","f","rechts","24","","fixation","","","",""
"656","img/90_120.png","74","image-keyboard-response","249","218862","0.0-6.0-1.121","LABU","4","f","rechts","24","","","object","j","90","true"
"null","<div style=""font-size:60px;"">+</div>","null","html-keyboard-response","250","219314","0.0-6.0-0.122","LABU","4","f","rechts","24","","fixation","","","",""
"663","img/120_150.png","74","image-keyboard-response","251","219978","0.0-6.0-1.122","LABU","4","f","rechts","24","","","object","j","120","true"
"null","<div style=""font-size:60px;"">+</div>","null","html-keyboard-response","252","220380","0.0-6.0-0.123","LABU","4","f","rechts","24","","fixation","","","",""
"639","img/90_210.png","70","image-keyboard-response","253","221020","0.0-6.0-1.123","LABU","4","f","rechts","24","","","object","f","90","true"
"null","<div style=""font-size:60px;"">+</div>","null","html-keyboard-response","254","221522","0.0-6.0-0.124","LABU","4","f","rechts","24","","fixation","","","",""
"738","img/30_240.png","70","image-keyboard-response","255","222261","0.0-6.0-1.124","LABU","4","f","rechts","24","","","object","f","30","true"
"null","<div style=""font-size:60px;"">+</div>","null","html-keyboard-response","256","222663","0.0-6.0-0.125","LABU","4","f","rechts","24","","fixation","","","",""
"740","img/90_330.png","74","image-keyboard-response","257","223403","0.0-6.0-1.125","LABU","4","f","rechts","24","","","object","j","90","true"
"null","<div style=""font-size:60px;"">+</div>","null","html-keyboard-response","258","223805","0.0-6.0-0.126","LABU","4","f","rechts","24","","fixation","","","",""
"688","img/60_210.png","70","image-keyboard-response","259","224494","0.0-6.0-1.126","LABU","4","f","rechts","24","","","object","f","60","true"
"null","<div style=""font-size:60px;"">+</div>","null","html-keyboard-response","260","224996","0.0-6.0-0.127","LABU","4","f","rechts","24","","fixation","","","",""
"641","img/150_120.png","74","image-keyboard-response","261","225637","0.0-6.0-1.127","LABU","4","f","rechts","24","","","object","f","150","false"
"null","<div style=""font-size:60px;"">+</div>","null","html-keyboard-response","262","226039","0.0-6.0-0.128","LABU","4","f","rechts","24","","fixation","","","",""
"1113","img/L60_180.png","70","image-keyboard-response","263","227153","0.0-6.0-1.128","LABU","4","f","rechts","24","","","object","j","60","false"
"null","<div style=""font-size:60px;"">+</div>","null","html-keyboard-response","264","227505","0.0-6.0-0.129","LABU","4","f","rechts","24","","fixation","","","",""
"834","img/150_180.png","70","image-keyboard-response","265","228339","0.0-6.0-1.129","LABU","4","f","rechts","24","","","object","f","150","true"
"null","<div style=""font-size:60px;"">+</div>","null","html-keyboard-response","266","228641","0.0-6.0-0.130","LABU","4","f","rechts","24","","fixation","","","",""
"705","img/120_90.png","74","image-keyboard-response","267","229347","0.0-6.0-1.130","LABU","4","f","rechts","24","","","object","f","120","false"
"null","<div style=""font-size:60px;"">+</div>","null","html-keyboard-response","268","229799","0.0-6.0-0.131","LABU","4","f","rechts","24","","fixation","","","",""
"782","img/60_30.png","70","image-keyboard-response","269","230582","0.0-6.0-1.131","LABU","4","f","rechts","24","","","object","f","60","true"
"null","<div style=""font-size:60px;"">+</div>","null","html-keyboard-response","270","231034","0.0-6.0-0.132","LABU","4","f","rechts","24","","fixation","","","",""
"708","img/90_240.png","70","image-keyboard-response","271","231743","0.0-6.0-1.132","LABU","4","f","rechts","24","","","object","f","90","true"
"null","<div style=""font-size:60px;"">+</div>","null","html-keyboard-response","272","232145","0.0-6.0-0.133","LABU","4","f","rechts","24","","fixation","","","",""
"514","img/0_60.png","74","image-keyboard-response","273","232659","0.0-6.0-1.133","LABU","4","f","rechts","24","","","object","j","0","true"
"null","<div style=""font-size:60px;"">+</div>","null","html-keyboard-response","274","232961","0.0-6.0-0.134","LABU","4","f","rechts","24","","fixation","","","",""
"627","img/150_270.png","70","image-keyboard-response","275","233588","0.0-6.0-1.134","LABU","4","f","rechts","24","","","object","j","150","false"
"null","<div style=""font-size:60px;"">+</div>","null","html-keyboard-response","276","233940","0.0-6.0-0.135","LABU","4","f","rechts","24","","fixation","","","",""
"738","img/L120_180.png","74","image-keyboard-response","277","234679","0.0-6.0-1.135","LABU","4","f","rechts","24","","","object","j","120","true"
"null","<div style=""font-size:60px;"">+</div>","null","html-keyboard-response","278","235181","0.0-6.0-0.136","LABU","4","f","rechts","24","","fixation","","","",""
"671","img/0_150.png","74","image-keyboard-response","279","235853","0.0-6.0-1.136","LABU","4","f","rechts","24","","","object","j","0","true"
"null","<div style=""font-size:60px;"">+</div>","null","html-keyboard-response","280","236205","0.0-6.0-0.137","LABU","4","f","rechts","24","","fixation","","","",""
"768","img/150_60.png","70","image-keyboard-response","281","236973","0.0-6.0-1.137","LABU","4","f","rechts","24","","","object","f","150","true"
"null","<div style=""font-size:60px;"">+</div>","null","html-keyboard-response","282","237275","0.0-6.0-0.138","LABU","4","f","rechts","24","","fixation","","","",""
"1083","img/60_330.png","74","image-keyboard-response","283","238358","0.0-6.0-1.138","LABU","4","f","rechts","24","","","object","j","60","true"
"null","<div style=""font-size:60px;"">+</div>","null","html-keyboard-response","284","238859","0.0-6.0-0.139","LABU","4","f","rechts","24","","fixation","","","",""
"988","img/60_270.png","70","image-keyboard-response","285","239848","0.0-6.0-1.139","LABU","4","f","rechts","24","","","object","f","60","true"
"null","<div style=""font-size:60px;"">+</div>","null","html-keyboard-response","286","240199","0.0-6.0-0.140","LABU","4","f","rechts","24","","fixation","","","",""
"908","img/120_270.png","70","image-keyboard-response","287","241108","0.0-6.0-1.140","LABU","4","f","rechts","24","","","object","j","120","false"
"null","<div style=""font-size:60px;"">+</div>","null","html-keyboard-response","288","241460","0.0-6.0-0.141","LABU","4","f","rechts","24","","fixation","","","",""
"728","img/0_90.png","74","image-keyboard-response","289","242188","0.0-6.0-1.141","LABU","4","f","rechts","24","","","object","j","0","true"
"null","<div style=""font-size:60px;"">+</div>","null","html-keyboard-response","290","242489","0.0-6.0-0.142","LABU","4","f","rechts","24","","fixation","","","",""
"711","img/120_30.png","70","image-keyboard-response","291","243201","0.0-6.0-1.142","LABU","4","f","rechts","24","","","object","f","120","true"
"null","<div style=""font-size:60px;"">+</div>","null","html-keyboard-response","292","243553","0.0-6.0-0.143","LABU","4","f","rechts","24","","fixation","","","",""
"699","img/90_300.png","74","image-keyboard-response","293","244252","0.0-6.0-1.143","LABU","4","f","rechts","24","","","object","j","90","true"
"null","<div style=""font-size:60px;"">+</div>","null","html-keyboard-response","294","244704","0.0-6.0-0.144","LABU","4","f","rechts","24","","fixation","","","",""
"930","img/L30_180.png","74","image-keyboard-response","295","245634","0.0-6.0-1.144","LABU","4","f","rechts","24","","","object","j","30","true"
"null","<div style=""font-size:60px;"">+</div>","null","html-keyboard-response","296","246036","0.0-6.0-0.145","LABU","4","f","rechts","24","","fixation","","","",""
"684","img/90_30.png","70","image-keyboard-response","297","246720","0.0-6.0-1.145","LABU","4","f","rechts","24","","","object","f","90","true"
"null","<div style=""font-size:60px;"">+</div>","null","html-keyboard-response","298","247071","0.0-6.0-0.146","LABU","4","f","rechts","24","","fixation","","","",""
"1309","img/150_240.png","70","image-keyboard-response","299","248382","0.0-6.0-1.146","LABU","4","f","rechts","24","","","object","j","150","false"
"null","<div style=""font-size:60px;"">+</div>","null","html-keyboard-response","300","248833","0.0-6.0-0.147","LABU","4","f","rechts","24","","fixation","","","",""
"614","img/0_30.png","74","image-keyboard-response","301","249448","0.0-6.0-1.147","LABU","4","f","rechts","24","","","object","j","0","true"
"null","<div style=""font-size:60px;"">+</div>","null","html-keyboard-response","302","249849","0.0-6.0-0.148","LABU","4","f","rechts","24","","fixation","","","",""
"733","img/120_180.png","70","image-keyboard-response","303","250584","0.0-6.0-1.148","LABU","4","f","rechts","24","","","object","f","120","true"
"null","<div style=""font-size:60px;"">+</div>","null","html-keyboard-response","304","250935","0.0-6.0-0.149","LABU","4","f","rechts","24","","fixation","","","",""
"895","img/0_300.png","70","image-keyboard-response","305","251831","0.0-6.0-1.149","LABU","4","f","rechts","24","","","object","f","0","true"
"null","<div style=""font-size:60px;"">+</div>","null","html-keyboard-response","306","252333","0.0-6.0-0.150","LABU","4","f","rechts","24","","fixation","","","",""
"805","img/60_150.png","74","image-keyboard-response","307","253139","0.0-6.0-1.150","LABU","4","f","rechts","24","","","object","j","60","true"
"null","<div style=""font-size:60px;"">+</div>","null","html-keyboard-response","308","253490","0.0-6.0-0.151","LABU","4","f","rechts","24","","fixation","","","",""
"1316","img/30_300.png","70","image-keyboard-response","309","254807","0.0-6.0-1.151","LABU","4","f","rechts","24","","","object","f","30","true"
"null","<div style=""font-size:60px;"">+</div>","null","html-keyboard-response","310","255158","0.0-6.0-0.152","LABU","4","f","rechts","24","","fixation","","","",""
"671","img/0_210.png","70","image-keyboard-response","311","255831","0.0-6.0-1.152","LABU","4","f","rechts","24","","","object","f","0","true"
"null","<div style=""font-size:60px;"">+</div>","null","html-keyboard-response","312","256132","0.0-6.0-0.153","LABU","4","f","rechts","24","","fixation","","","",""
"757","img/L90_180.png","74","image-keyboard-response","313","256891","0.0-6.0-1.153","LABU","4","f","rechts","24","","","object","j","90","true"
"null","<div style=""font-size:60px;"">+</div>","null","html-keyboard-response","314","257392","0.0-6.0-0.154","LABU","4","f","rechts","24","","fixation","","","",""
"571","img/0_330.png","70","image-keyboard-response","315","257965","0.0-6.0-1.154","LABU","4","f","rechts","24","","","object","f","0","true"
"null","<div style=""font-size:60px;"">+</div>","null","html-keyboard-response","316","258316","0.0-6.0-0.155","LABU","4","f","rechts","24","","fixation","","","",""
"917","img/30_180.png","70","image-keyboard-response","317","259235","0.0-6.0-1.155","LABU","4","f","rechts","24","","","object","f","30","true"
"null","<div style=""font-size:60px;"">+</div>","null","html-keyboard-response","318","259586","0.0-6.0-0.156","LABU","4","f","rechts","24","","fixation","","","",""
"651","img/0_300.png","70","image-keyboard-response","319","260238","0.0-6.0-1.156","LABU","4","f","rechts","24","","","object","f","0","true"
"null","<div style=""font-size:60px;"">+</div>","null","html-keyboard-response","320","260640","0.0-6.0-0.157","LABU","4","f","rechts","24","","fixation","","","",""
"501","img/0_150.png","70","image-keyboard-response","321","261143","0.0-6.0-1.157","LABU","4","f","rechts","24","","","object","j","0","false"
"null","<div style=""font-size:60px;"">+</div>","null","html-keyboard-response","322","261444","0.0-6.0-0.158","LABU","4","f","rechts","24","","fixation","","","",""
"967","img/30_120.png","74","image-keyboard-response","323","262412","0.0-6.0-1.158","LABU","4","f","rechts","24","","","object","j","30","true"
"null","<div style=""font-size:60px;"">+</div>","null","html-keyboard-response","324","262814","0.0-6.0-0.159","LABU","4","f","rechts","24","","fixation","","","",""
"703","img/120_180.png","70","image-keyboard-response","325","263518","0.0-6.0-1.159","LABU","4","f","rechts","24","","","object","f","120","true"
"null","<div style=""font-size:60px;"">+</div>","null","html-keyboard-response","326","263870","0.0-6.0-0.160","LABU","4","f","rechts","24","","fixation","","","",""
"671","img/0_240.png","70","image-keyboard-response","327","264541","0.0-6.0-1.160","LABU","4","f","rechts","24","","","object","f","0","true"
"null","<div style=""font-size:60px;"">+</div>","null","html-keyboard-response","328","264943","0.0-6.0-0.161","LABU","4","f","rechts","24","","fixation","","","",""
"848","img/120_30.png","70","image-keyboard-response","329","265792","0.0-6.0-1.161","LABU","4","f","rechts","24","","","object","f","120","true"
"null","<div style=""font-size:60px;"">+</div>","null","html-keyboard-response","330","266244","0.0-6.0-0.162","LABU","4","f","rechts","24","","fixation","","","",""
"645","img/0_270.png","70","image-keyboard-response","331","266890","0.0-6.0-1.162","LABU","4","f","rechts","24","","","object","f","0","true"
"null","<div style=""font-size:60px;"">+</div>","null","html-keyboard-response","332","267392","0.0-6.0-0.163","LABU","4","f","rechts","24","","fixation","","","",""
"860","img/90_300.png","74","image-keyboard-response","333","268253","0.0-6.0-1.163","LABU","4","f","rechts","24","","","object","j","90","true"
"null","<div style=""font-size:60px;"">+</div>","null","html-keyboard-response","334","268705","0.0-6.0-0.164","LABU","4","f","rechts","24","","fixation","","","",""
"757","img/L60_180.png","74","image-keyboard-response","335","269463","0.0-6.0-1.164","LABU","4","f","rechts","24","","","object","j","60","true"
"null","<div style=""font-size:60px;"">+</div>","null","html-keyboard-response","336","269765","0.0-6.0-0.165","LABU","4","f","rechts","24","","fixation","","","",""
"654","img/0_90.png","74","image-keyboard-response","337","270420","0.0-6.0-1.165","LABU","4","f","rechts","24","","","object","j","0","true"
"null","<div style=""font-size:60px;"">+</div>","null","html-keyboard-response","338","270921","0.0-6.0-0.166","LABU","4","f","rechts","24","","fixation","","","",""
"613","img/60_210.png","70","image-keyboard-response","339","271534","0.0-6.0-1.166","LABU","4","f","rechts","24","","","object","f","60","true"
"null","<div style=""font-size:60px;"">+</div>","null","html-keyboard-response","340","271886","0.0-6.0-0.167","LABU","4","f","rechts","24","","fixation","","","",""
"800","img/30_300.png","70","image-keyboard-response","341","272687","0.0-6.0-1.167","LABU","4","f","rechts","24","","","object","f","30","true"
"null","<div style=""font-size:60px;"">+</div>","null","html-keyboard-response","342","273089","0.0-6.0-0.168","LABU","4","f","rechts","24","","fixation","","","",""
"700","img/L30_180.png","74","image-keyboard-response","343","273790","0.0-6.0-1.168","LABU","4","f","rechts","24","","","object","j","30","true"
"null","<div style=""font-size:60px;"">+</div>","null","html-keyboard-response","344","274242","0.0-6.0-0.169","LABU","4","f","rechts","24","","fixation","","","",""
"612","img/60_270.png","70","image-keyboard-response","345","274855","0.0-6.0-1.169","LABU","4","f","rechts","24","","","object","f","60","true"
"null","<div style=""font-size:60px;"">+</div>","null","html-keyboard-response","346","275357","0.0-6.0-0.170","LABU","4","f","rechts","24","","fixation","","","",""
"601","img/0_210.png","70","image-keyboard-response","347","275958","0.0-6.0-1.170","LABU","4","f","rechts","24","","","object","f","0","true"
"null","<div style=""font-size:60px;"">+</div>","null","html-keyboard-response","348","276310","0.0-6.0-0.171","LABU","4","f","rechts","24","","fixation","","","",""
"702","img/150_270.png","70","image-keyboard-response","349","277012","0.0-6.0-1.171","LABU","4","f","rechts","24","","","object","j","150","false"
"null","<div style=""font-size:60px;"">+</div>","null","html-keyboard-response","350","277464","0.0-6.0-0.172","LABU","4","f","rechts","24","","fixation","","","",""
"692","img/L150_180.png","74","image-keyboard-response","351","278157","0.0-6.0-1.172","LABU","4","f","rechts","24","","","object","j","150","true"
"null","<div style=""font-size:60px;"">+</div>","null","html-keyboard-response","352","278659","0.0-6.0-0.173","LABU","4","f","rechts","24","","fixation","","","",""
"925","img/120_90.png","74","image-keyboard-response","353","279585","0.0-6.0-1.173","LABU","4","f","rechts","24","","","object","f","120","false"
"null","<div style=""font-size:60px;"">+</div>","null","html-keyboard-response","354","280037","0.0-6.0-0.174","LABU","4","f","rechts","24","","fixation","","","",""
"718","img/30_90.png","74","image-keyboard-response","355","280755","0.0-6.0-1.174","LABU","4","f","rechts","24","","","object","j","30","true"
"null","<div style=""font-size:60px;"">+</div>","null","html-keyboard-response","356","281157","0.0-6.0-0.175","LABU","4","f","rechts","24","","fixation","","","",""
"577","img/0_120.png","74","image-keyboard-response","357","281734","0.0-6.0-1.175","LABU","4","f","rechts","24","","","object","j","0","true"
"null","<div style=""font-size:60px;"">+</div>","null","html-keyboard-response","358","282035","0.0-6.0-0.176","LABU","4","f","rechts","24","","fixation","","","",""
"716","img/0_30.png","74","image-keyboard-response","359","282751","0.0-6.0-1.176","LABU","4","f","rechts","24","","","object","j","0","true"
"null","<div style=""font-size:60px;"">+</div>","null","html-keyboard-response","360","283103","0.0-6.0-0.177","LABU","4","f","rechts","24","","fixation","","","",""
"657","img/120_150.png","74","image-keyboard-response","361","283760","0.0-6.0-1.177","LABU","4","f","rechts","24","","","object","j","120","true"
"null","<div style=""font-size:60px;"">+</div>","null","html-keyboard-response","362","284062","0.0-6.0-0.178","LABU","4","f","rechts","24","","fixation","","","",""
"609","img/0_330.png","70","image-keyboard-response","363","284671","0.0-6.0-1.178","LABU","4","f","rechts","24","","","object","f","0","true"
"null","<div style=""font-size:60px;"">+</div>","null","html-keyboard-response","364","285173","0.0-6.0-0.179","LABU","4","f","rechts","24","","fixation","","","",""
"943","img/150_300.png","74","image-keyboard-response","365","286117","0.0-6.0-1.179","LABU","4","f","rechts","24","","","object","j","150","true"
"null","<div style=""font-size:60px;"">+</div>","null","html-keyboard-response","366","286519","0.0-6.0-0.180","LABU","4","f","rechts","24","","fixation","","","",""
"605","img/90_150.png","74","image-keyboard-response","367","287124","0.0-6.0-1.180","LABU","4","f","rechts","24","","","object","j","90","true"
"null","<div style=""font-size:60px;"">+</div>","null","html-keyboard-response","368","287425","0.0-6.0-0.181","LABU","4","f","rechts","24","","fixation","","","",""
"667","img/30_60.png","74","image-keyboard-response","369","288092","0.0-6.0-1.181","LABU","4","f","rechts","24","","","object","j","30","true"
"null","<div style=""font-size:60px;"">+</div>","null","html-keyboard-response","370","288543","0.0-6.0-0.182","LABU","4","f","rechts","24","","fixation","","","",""
"712","img/L90_180.png","74","image-keyboard-response","371","289256","0.0-6.0-1.182","LABU","4","f","rechts","24","","","object","j","90","true"
"null","<div style=""font-size:60px;"">+</div>","null","html-keyboard-response","372","289658","0.0-6.0-0.183","LABU","4","f","rechts","24","","fixation","","","",""
"660","img/120_270.png","70","image-keyboard-response","373","290320","0.0-6.0-1.183","LABU","4","f","rechts","24","","","object","j","120","false"
"null","<div style=""font-size:60px;"">+</div>","null","html-keyboard-response","374","290821","0.0-6.0-0.184","LABU","4","f","rechts","24","","fixation","","","",""
"635","img/60_150.png","74","image-keyboard-response","375","291456","0.0-6.0-1.184","LABU","4","f","rechts","24","","","object","j","60","true"
"null","<div style=""font-size:60px;"">+</div>","null","html-keyboard-response","376","291958","0.0-6.0-0.185","LABU","4","f","rechts","24","","fixation","","","",""
"685","img/150_120.png","74","image-keyboard-response","377","292643","0.0-6.0-1.185","LABU","4","f","rechts","24","","","object","f","150","false"
"null","<div style=""font-size:60px;"">+</div>","null","html-keyboard-response","378","293045","0.0-6.0-0.186","LABU","4","f","rechts","24","","fixation","","","",""
"902","img/90_240.png","70","image-keyboard-response","379","293947","0.0-6.0-1.186","LABU","4","f","rechts","24","","","object","f","90","true"
"null","<div style=""font-size:60px;"">+</div>","null","html-keyboard-response","380","294399","0.0-6.0-0.187","LABU","4","f","rechts","24","","fixation","","","",""
"632","img/L120_180.png","74","image-keyboard-response","381","295031","0.0-6.0-1.187","LABU","4","f","rechts","24","","","object","j","120","true"
"null","<div style=""font-size:60px;"">+</div>","null","html-keyboard-response","382","295432","0.0-6.0-0.188","LABU","4","f","rechts","24","","fixation","","","",""
"617","img/150_60.png","74","image-keyboard-response","383","296050","0.0-6.0-1.188","LABU","4","f","rechts","24","","","object","f","150","false"
"null","<div style=""font-size:60px;"">+</div>","null","html-keyboard-response","384","296551","0.0-6.0-0.189","LABU","4","f","rechts","24","","fixation","","","",""
"797","img/150_240.png","70","image-keyboard-response","385","297348","0.0-6.0-1.189","LABU","4","f","rechts","24","","","object","j","150","false"
"null","<div style=""font-size:60px;"">+</div>","null","html-keyboard-response","386","297748","0.0-6.0-0.190","LABU","4","f","rechts","24","","fixation","","","",""
"820","img/120_330.png","74","image-keyboard-response","387","298569","0.0-6.0-1.190","LABU","4","f","rechts","24","","","object","j","120","true"
"null","<div style=""font-size:60px;"">+</div>","null","html-keyboard-response","388","298920","0.0-6.0-0.191","LABU","4","f","rechts","24","","fixation","","","",""
"933","img/60_180.png","70","image-keyboard-response","389","299855","0.0-6.0-1.191","LABU","4","f","rechts","24","","","object","f","60","true"
"null","<div style=""font-size:60px;"">+</div>","null","html-keyboard-response","390","300256","0.0-6.0-0.192","LABU","4","f","rechts","24","","fixation","","","",""
"780","img/90_330.png","74","image-keyboard-response","391","301037","0.0-6.0-1.192","LABU","4","f","rechts","24","","","object","j","90","true"
"null","<div style=""font-size:60px;"">+</div>","null","html-keyboard-response","392","301489","0.0-6.0-0.193","LABU","4","f","rechts","24","","fixation","","","",""
"705","img/120_210.png","70","image-keyboard-response","393","302194","0.0-6.0-1.193","LABU","4","f","rechts","24","","","object","f","120","true"
"null","<div style=""font-size:60px;"">+</div>","null","html-keyboard-response","394","302596","0.0-6.0-0.194","LABU","4","f","rechts","24","","fixation","","","",""
"1592","img/90_120.png","74","image-keyboard-response","395","304189","0.0-6.0-1.194","LABU","4","f","rechts","24","","","object","j","90","true"
"null","<div style=""font-size:60px;"">+</div>","null","html-keyboard-response","396","304640","0.0-6.0-0.195","LABU","4","f","rechts","24","","fixation","","","",""
"764","img/150_180.png","70","image-keyboard-response","397","305405","0.0-6.0-1.195","LABU","4","f","rechts","24","","","object","f","150","true"
"null","<div style=""font-size:60px;"">+</div>","null","html-keyboard-response","398","305807","0.0-6.0-0.196","LABU","4","f","rechts","24","","fixation","","","",""
"674","img/90_210.png","70","image-keyboard-response","399","306482","0.0-6.0-1.196","LABU","4","f","rechts","24","","","object","f","90","true"
"null","<div style=""font-size:60px;"">+</div>","null","html-keyboard-response","400","306783","0.0-6.0-0.197","LABU","4","f","rechts","24","","fixation","","","",""
"696","img/60_90.png","74","image-keyboard-response","401","307480","0.0-6.0-1.197","LABU","4","f","rechts","24","","","object","j","60","true"
"null","<div style=""font-size:60px;"">+</div>","null","html-keyboard-response","402","307832","0.0-6.0-0.198","LABU","4","f","rechts","24","","fixation","","","",""
"751","img/60_330.png","74","image-keyboard-response","403","308585","0.0-6.0-1.198","LABU","4","f","rechts","24","","","object","j","60","true"
"null","<div style=""font-size:60px;"">+</div>","null","html-keyboard-response","404","309036","0.0-6.0-0.199","LABU","4","f","rechts","24","","fixation","","","",""
"927","img/90_180.png","70","image-keyboard-response","405","309964","0.0-6.0-1.199","LABU","4","f","rechts","24","","","object","f","90","true"
"null","<div style=""font-size:60px;"">+</div>","null","html-keyboard-response","406","310416","0.0-6.0-0.200","LABU","4","f","rechts","24","","fixation","","","",""
"698","img/90_30.png","70","image-keyboard-response","407","311116","0.0-6.0-1.200","LABU","4","f","rechts","24","","","object","f","90","true"
"null","<div style=""font-size:60px;"">+</div>","null","html-keyboard-response","408","311467","0.0-6.0-0.201","LABU","4","f","rechts","24","","fixation","","","",""
"932","img/30_270.png","70","image-keyboard-response","409","312401","0.0-6.0-1.201","LABU","4","f","rechts","24","","","object","f","30","true"
"null","<div style=""font-size:60px;"">+</div>","null","html-keyboard-response","410","312852","0.0-6.0-0.202","LABU","4","f","rechts","24","","fixation","","","",""
"696","img/60_30.png","74","image-keyboard-response","411","313550","0.0-6.0-1.202","LABU","4","f","rechts","24","","","object","f","60","false"
"null","<div style=""font-size:60px;"">+</div>","null","html-keyboard-response","412","313851","0.0-6.0-0.203","LABU","4","f","rechts","24","","fixation","","","",""
"1809","img/30_180.png","70","image-keyboard-response","413","315662","0.0-6.0-1.203","LABU","4","f","rechts","24","","","object","f","30","true"
"null","<div style=""font-size:60px;"">+</div>","null","html-keyboard-response","414","315963","0.0-6.0-0.204","LABU","4","f","rechts","24","","fixation","","","",""
"1377","img/150_90.png","70","image-keyboard-response","415","317341","0.0-6.0-1.204","LABU","4","f","rechts","24","","","object","f","150","true"
"null","<div style=""font-size:60px;"">+</div>","null","html-keyboard-response","416","317843","0.0-6.0-0.205","LABU","4","f","rechts","24","","fixation","","","",""
"978","img/90_60.png","70","image-keyboard-response","417","318822","0.0-6.0-1.205","LABU","4","f","rechts","24","","","object","f","90","true"
"null","<div style=""font-size:60px;"">+</div>","null","html-keyboard-response","418","319174","0.0-6.0-0.206","LABU","4","f","rechts","24","","fixation","","","",""
"1730","img/30_240.png","74","image-keyboard-response","419","320904","0.0-6.0-1.206","LABU","4","f","rechts","24","","","object","f","30","false"
"null","<div style=""font-size:60px;"">+</div>","null","html-keyboard-response","420","321205","0.0-6.0-0.207","LABU","4","f","rechts","24","","fixation","","","",""
"919","img/0_60.png","74","image-keyboard-response","421","322125","0.0-6.0-1.207","LABU","4","f","rechts","24","","","object","j","0","true"
"14349","<p>Du hast in 83% der Versuche korrekt entschieden.</p><p>Deine durchschnittliche Reaktionszeit war  796ms.</p><p>Dr&uuml;cke eine beliebige Taste, um die Session zu beenden. Vielen Dank!</p>","74","html-keyboard-response","422","336475","0.0-7.0","LABU","4","f","rechts","24","","","","","",""
