"rt","stimulus","key_press","trial_type","trial_index","time_elapsed","internal_node_id","subject","session","sex","handedness","age","responses","test_part","condition","correct_response","angle","correct"
"4036","<p>Mental Rotation Experiment.</p> <p>Dr&uuml;cke eine beliebige Taste, um anzufangen.</p>","87","html-keyboard-response","0","4038","0.0-0.0","LABU","2","f","rechts","24","","","","","",""
"3080","","","survey-text","1","7120","0.0-1.0","LABU","2","f","rechts","24","{""Q0"":""LABU""}","","","","",""
"2865","","","survey-text","2","9985","0.0-2.0","LABU","2","f","rechts","24","{""Q0"":""2""}","","","","",""
"3632","","","survey-multi-choice","3","13621","0.0-3.0","LABU","2","f","rechts","24","{""Q0"":""f"",""Q1"":""rechts""}","","","","",""
"2787","","","survey-text","4","16409","0.0-4.0","LABU","2","f","rechts","24","{""Q0"":""24""}","","","","",""
"458187","<p>Stell dir vor, dass du vor einem runden Tisch stehst, auf dem sich ein blauer Ball am Tischrand befindet. Entlang des Tischrands ist jeweils ein verschieden langer Pfeil. Nun bleibst du an deinem Platz vor dem Tisch und rotierst den Tisch entlang des Pfeils (gleiche Richtung und Länge). </p> <img src='img/30_180.png'></img> <br><p> Nachdem du diese (vorgestellte) Rotation durchgef&uuml;hrt hast, schau in Richtung der Tischmitte, und entscheide dann, ob der Ball links oder rechts von dir liegt.</p> <p>Dr&uuml;cke die <strong>'f'</strong>-Taste f&uuml;r links, die <strong>'j'</strong>-Taste f&uuml;r rechts.</p><br><p> Das Bild wird jeweils 1 Sekunde lang pr&auml;sentiert. Du hast 3 Sekunden Zeit eine Entscheidung zu treffen.</p>","74","html-keyboard-response","5","474597","0.0-5.0","LABU","2","f","rechts","24","","","","","",""
"null","<div style=""font-size:60px;"">+</div>","null","html-keyboard-response","6","476051","0.0-6.0-0.0","LABU","2","f","rechts","24","","fixation","","","",""
"847","img/150_60.png","70","image-keyboard-response","7","476901","0.0-6.0-1.0","LABU","2","f","rechts","24","","","object","f","150","true"
"null","<div style=""font-size:60px;"">+</div>","null","html-keyboard-response","8","477403","0.0-6.0-0.1","LABU","2","f","rechts","24","","fixation","","","",""
"1072","img/L150_180.png","74","image-keyboard-response","9","478476","0.0-6.0-1.1","LABU","2","f","rechts","24","","","object","j","150","true"
"null","<div style=""font-size:60px;"">+</div>","null","html-keyboard-response","10","478978","0.0-6.0-0.2","LABU","2","f","rechts","24","","fixation","","","",""
"948","img/90_30.png","70","image-keyboard-response","11","479927","0.0-6.0-1.2","LABU","2","f","rechts","24","","","object","f","90","true"
"null","<div style=""font-size:60px;"">+</div>","null","html-keyboard-response","12","480229","0.0-6.0-0.3","LABU","2","f","rechts","24","","fixation","","","",""
"1128","img/120_210.png","70","image-keyboard-response","13","481358","0.0-6.0-1.3","LABU","2","f","rechts","24","","","object","f","120","true"
"null","<div style=""font-size:60px;"">+</div>","null","html-keyboard-response","14","481710","0.0-6.0-0.4","LABU","2","f","rechts","24","","fixation","","","",""
"847","img/0_60.png","74","image-keyboard-response","15","482558","0.0-6.0-1.4","LABU","2","f","rechts","24","","","object","j","0","true"
"null","<div style=""font-size:60px;"">+</div>","null","html-keyboard-response","16","483060","0.0-6.0-0.5","LABU","2","f","rechts","24","","fixation","","","",""
"1227","img/150_270.png","74","image-keyboard-response","17","484288","0.0-6.0-1.5","LABU","2","f","rechts","24","","","object","j","150","true"
"null","<div style=""font-size:60px;"">+</div>","null","html-keyboard-response","18","484740","0.0-6.0-0.6","LABU","2","f","rechts","24","","fixation","","","",""
"850","img/L30_180.png","70","image-keyboard-response","19","485591","0.0-6.0-1.6","LABU","2","f","rechts","24","","","object","j","30","false"
"null","<div style=""font-size:60px;"">+</div>","null","html-keyboard-response","20","485892","0.0-6.0-0.7","LABU","2","f","rechts","24","","fixation","","","",""
"798","img/0_90.png","74","image-keyboard-response","21","486691","0.0-6.0-1.7","LABU","2","f","rechts","24","","","object","j","0","true"
"null","<div style=""font-size:60px;"">+</div>","null","html-keyboard-response","22","487093","0.0-6.0-0.8","LABU","2","f","rechts","24","","fixation","","","",""
"1164","img/90_150.png","74","image-keyboard-response","23","488258","0.0-6.0-1.8","LABU","2","f","rechts","24","","","object","j","90","true"
"null","<div style=""font-size:60px;"">+</div>","null","html-keyboard-response","24","488660","0.0-6.0-0.9","LABU","2","f","rechts","24","","fixation","","","",""
"1078","img/60_270.png","74","image-keyboard-response","25","489739","0.0-6.0-1.9","LABU","2","f","rechts","24","","","object","f","60","false"
"null","<div style=""font-size:60px;"">+</div>","null","html-keyboard-response","26","490041","0.0-6.0-0.10","LABU","2","f","rechts","24","","fixation","","","",""
"898","img/90_60.png","70","image-keyboard-response","27","490940","0.0-6.0-1.10","LABU","2","f","rechts","24","","","object","f","90","true"
"null","<div style=""font-size:60px;"">+</div>","null","html-keyboard-response","28","491292","0.0-6.0-0.11","LABU","2","f","rechts","24","","fixation","","","",""
"744","img/0_240.png","70","image-keyboard-response","29","492037","0.0-6.0-1.11","LABU","2","f","rechts","24","","","object","f","0","true"
"null","<div style=""font-size:60px;"">+</div>","null","html-keyboard-response","30","492539","0.0-6.0-0.12","LABU","2","f","rechts","24","","fixation","","","",""
"656","img/0_210.png","70","image-keyboard-response","31","493196","0.0-6.0-1.12","LABU","2","f","rechts","24","","","object","f","0","true"
"null","<div style=""font-size:60px;"">+</div>","null","html-keyboard-response","32","493597","0.0-6.0-0.13","LABU","2","f","rechts","24","","fixation","","","",""
"2018","img/30_180.png","70","image-keyboard-response","33","495616","0.0-6.0-1.13","LABU","2","f","rechts","24","","","object","f","30","true"
"null","<div style=""font-size:60px;"">+</div>","null","html-keyboard-response","34","496118","0.0-6.0-0.14","LABU","2","f","rechts","24","","fixation","","","",""
"1084","img/90_240.png","70","image-keyboard-response","35","497203","0.0-6.0-1.14","LABU","2","f","rechts","24","","","object","f","90","true"
"null","<div style=""font-size:60px;"">+</div>","null","html-keyboard-response","36","497655","0.0-6.0-0.15","LABU","2","f","rechts","24","","fixation","","","",""
"1119","img/120_330.png","74","image-keyboard-response","37","498775","0.0-6.0-1.15","LABU","2","f","rechts","24","","","object","j","120","true"
"null","<div style=""font-size:60px;"">+</div>","null","html-keyboard-response","38","499176","0.0-6.0-0.16","LABU","2","f","rechts","24","","fixation","","","",""
"1089","img/150_300.png","74","image-keyboard-response","39","500266","0.0-6.0-1.16","LABU","2","f","rechts","24","","","object","j","150","true"
"null","<div style=""font-size:60px;"">+</div>","null","html-keyboard-response","40","500767","0.0-6.0-0.17","LABU","2","f","rechts","24","","fixation","","","",""
"831","img/90_300.png","74","image-keyboard-response","41","501599","0.0-6.0-1.17","LABU","2","f","rechts","24","","","object","j","90","true"
"null","<div style=""font-size:60px;"">+</div>","null","html-keyboard-response","42","502051","0.0-6.0-0.18","LABU","2","f","rechts","24","","fixation","","","",""
"1275","img/L120_180.png","74","image-keyboard-response","43","503328","0.0-6.0-1.18","LABU","2","f","rechts","24","","","object","j","120","true"
"null","<div style=""font-size:60px;"">+</div>","null","html-keyboard-response","44","503779","0.0-6.0-0.19","LABU","2","f","rechts","24","","fixation","","","",""
"1648","img/L60_180.png","74","image-keyboard-response","45","505429","0.0-6.0-1.19","LABU","2","f","rechts","24","","","object","j","60","true"
"null","<div style=""font-size:60px;"">+</div>","null","html-keyboard-response","46","505929","0.0-6.0-0.20","LABU","2","f","rechts","24","","fixation","","","",""
"818","img/0_120.png","74","image-keyboard-response","47","506749","0.0-6.0-1.20","LABU","2","f","rechts","24","","","object","j","0","true"
"null","<div style=""font-size:60px;"">+</div>","null","html-keyboard-response","48","507101","0.0-6.0-0.21","LABU","2","f","rechts","24","","fixation","","","",""
"1535","img/30_90.png","70","image-keyboard-response","49","508637","0.0-6.0-1.21","LABU","2","f","rechts","24","","","object","j","30","false"
"null","<div style=""font-size:60px;"">+</div>","null","html-keyboard-response","50","509088","0.0-6.0-0.22","LABU","2","f","rechts","24","","fixation","","","",""
"1518","img/90_210.png","74","image-keyboard-response","51","510608","0.0-6.0-1.22","LABU","2","f","rechts","24","","","object","f","90","false"
"null","<div style=""font-size:60px;"">+</div>","null","html-keyboard-response","52","511109","0.0-6.0-0.23","LABU","2","f","rechts","24","","fixation","","","",""
"1329","img/60_210.png","70","image-keyboard-response","53","512440","0.0-6.0-1.23","LABU","2","f","rechts","24","","","object","f","60","true"
"null","<div style=""font-size:60px;"">+</div>","null","html-keyboard-response","54","512841","0.0-6.0-0.24","LABU","2","f","rechts","24","","fixation","","","",""
"1160","img/60_180.png","70","image-keyboard-response","55","514004","0.0-6.0-1.24","LABU","2","f","rechts","24","","","object","f","60","true"
"null","<div style=""font-size:60px;"">+</div>","null","html-keyboard-response","56","514455","0.0-6.0-0.25","LABU","2","f","rechts","24","","fixation","","","",""
"1231","img/150_120.png","70","image-keyboard-response","57","515688","0.0-6.0-1.25","LABU","2","f","rechts","24","","","object","f","150","true"
"null","<div style=""font-size:60px;"">+</div>","null","html-keyboard-response","58","516189","0.0-6.0-0.26","LABU","2","f","rechts","24","","fixation","","","",""
"1170","img/150_240.png","74","image-keyboard-response","59","517361","0.0-6.0-1.26","LABU","2","f","rechts","24","","","object","j","150","true"
"null","<div style=""font-size:60px;"">+</div>","null","html-keyboard-response","60","517862","0.0-6.0-0.27","LABU","2","f","rechts","24","","fixation","","","",""
"886","img/30_120.png","74","image-keyboard-response","61","518750","0.0-6.0-1.27","LABU","2","f","rechts","24","","","object","j","30","true"
"null","<div style=""font-size:60px;"">+</div>","null","html-keyboard-response","62","519101","0.0-6.0-0.28","LABU","2","f","rechts","24","","fixation","","","",""
"1205","img/30_60.png","74","image-keyboard-response","63","520307","0.0-6.0-1.28","LABU","2","f","rechts","24","","","object","j","30","true"
"null","<div style=""font-size:60px;"">+</div>","null","html-keyboard-response","64","520809","0.0-6.0-0.29","LABU","2","f","rechts","24","","fixation","","","",""
"1076","img/0_270.png","70","image-keyboard-response","65","521886","0.0-6.0-1.29","LABU","2","f","rechts","24","","","object","f","0","true"
"null","<div style=""font-size:60px;"">+</div>","null","html-keyboard-response","66","522338","0.0-6.0-0.30","LABU","2","f","rechts","24","","fixation","","","",""
"1982","img/30_270.png","74","image-keyboard-response","67","524321","0.0-6.0-1.30","LABU","2","f","rechts","24","","","object","f","30","false"
"null","<div style=""font-size:60px;"">+</div>","null","html-keyboard-response","68","524623","0.0-6.0-0.31","LABU","2","f","rechts","24","","fixation","","","",""
"907","img/150_180.png","70","image-keyboard-response","69","525531","0.0-6.0-1.31","LABU","2","f","rechts","24","","","object","f","150","true"
"null","<div style=""font-size:60px;"">+</div>","null","html-keyboard-response","70","525983","0.0-6.0-0.32","LABU","2","f","rechts","24","","fixation","","","",""
"1076","img/120_30.png","70","image-keyboard-response","71","527060","0.0-6.0-1.32","LABU","2","f","rechts","24","","","object","f","120","true"
"null","<div style=""font-size:60px;"">+</div>","null","html-keyboard-response","72","527462","0.0-6.0-0.33","LABU","2","f","rechts","24","","fixation","","","",""
"1064","img/30_240.png","74","image-keyboard-response","73","528527","0.0-6.0-1.33","LABU","2","f","rechts","24","","","object","f","30","false"
"null","<div style=""font-size:60px;"">+</div>","null","html-keyboard-response","74","528979","0.0-6.0-0.34","LABU","2","f","rechts","24","","fixation","","","",""
"1048","img/90_120.png","70","image-keyboard-response","75","530029","0.0-6.0-1.34","LABU","2","f","rechts","24","","","object","j","90","false"
"null","<div style=""font-size:60px;"">+</div>","null","html-keyboard-response","76","530531","0.0-6.0-0.35","LABU","2","f","rechts","24","","fixation","","","",""
"928","img/120_270.png","74","image-keyboard-response","77","531460","0.0-6.0-1.35","LABU","2","f","rechts","24","","","object","j","120","true"
"null","<div style=""font-size:60px;"">+</div>","null","html-keyboard-response","78","531961","0.0-6.0-0.36","LABU","2","f","rechts","24","","fixation","","","",""
"1067","img/0_330.png","70","image-keyboard-response","79","533029","0.0-6.0-1.36","LABU","2","f","rechts","24","","","object","f","0","true"
"null","<div style=""font-size:60px;"">+</div>","null","html-keyboard-response","80","533331","0.0-6.0-0.37","LABU","2","f","rechts","24","","fixation","","","",""
"1272","img/60_150.png","70","image-keyboard-response","81","534604","0.0-6.0-1.37","LABU","2","f","rechts","24","","","object","j","60","false"
"null","<div style=""font-size:60px;"">+</div>","null","html-keyboard-response","82","535006","0.0-6.0-0.38","LABU","2","f","rechts","24","","fixation","","","",""
"853","img/60_30.png","70","image-keyboard-response","83","535860","0.0-6.0-1.38","LABU","2","f","rechts","24","","","object","f","60","true"
"null","<div style=""font-size:60px;"">+</div>","null","html-keyboard-response","84","536362","0.0-6.0-0.39","LABU","2","f","rechts","24","","fixation","","","",""
"778","img/0_300.png","70","image-keyboard-response","85","537141","0.0-6.0-1.39","LABU","2","f","rechts","24","","","object","f","0","true"
"null","<div style=""font-size:60px;"">+</div>","null","html-keyboard-response","86","537643","0.0-6.0-0.40","LABU","2","f","rechts","24","","fixation","","","",""
"845","img/0_150.png","74","image-keyboard-response","87","538489","0.0-6.0-1.40","LABU","2","f","rechts","24","","","object","j","0","true"
"null","<div style=""font-size:60px;"">+</div>","null","html-keyboard-response","88","538991","0.0-6.0-0.41","LABU","2","f","rechts","24","","fixation","","","",""
"719","img/90_330.png","74","image-keyboard-response","89","539711","0.0-6.0-1.41","LABU","2","f","rechts","24","","","object","j","90","true"
"null","<div style=""font-size:60px;"">+</div>","null","html-keyboard-response","90","540013","0.0-6.0-0.42","LABU","2","f","rechts","24","","fixation","","","",""
"922","img/90_180.png","70","image-keyboard-response","91","540936","0.0-6.0-1.42","LABU","2","f","rechts","24","","","object","f","90","true"
"null","<div style=""font-size:60px;"">+</div>","null","html-keyboard-response","92","541388","0.0-6.0-0.43","LABU","2","f","rechts","24","","fixation","","","",""
"1116","img/150_90.png","70","image-keyboard-response","93","542505","0.0-6.0-1.43","LABU","2","f","rechts","24","","","object","f","150","true"
"null","<div style=""font-size:60px;"">+</div>","null","html-keyboard-response","94","543007","0.0-6.0-0.44","LABU","2","f","rechts","24","","fixation","","","",""
"937","img/120_90.png","70","image-keyboard-response","95","543945","0.0-6.0-1.44","LABU","2","f","rechts","24","","","object","f","120","true"
"null","<div style=""font-size:60px;"">+</div>","null","html-keyboard-response","96","544297","0.0-6.0-0.45","LABU","2","f","rechts","24","","fixation","","","",""
"1102","img/120_180.png","70","image-keyboard-response","97","545400","0.0-6.0-1.45","LABU","2","f","rechts","24","","","object","f","120","true"
"null","<div style=""font-size:60px;"">+</div>","null","html-keyboard-response","98","545802","0.0-6.0-0.46","LABU","2","f","rechts","24","","fixation","","","",""
"938","img/60_90.png","74","image-keyboard-response","99","546741","0.0-6.0-1.46","LABU","2","f","rechts","24","","","object","j","60","true"
"null","<div style=""font-size:60px;"">+</div>","null","html-keyboard-response","100","547092","0.0-6.0-0.47","LABU","2","f","rechts","24","","fixation","","","",""
"805","img/60_330.png","74","image-keyboard-response","101","547898","0.0-6.0-1.47","LABU","2","f","rechts","24","","","object","j","60","true"
"null","<div style=""font-size:60px;"">+</div>","null","html-keyboard-response","102","548300","0.0-6.0-0.48","LABU","2","f","rechts","24","","fixation","","","",""
"1860","img/120_150.png","74","image-keyboard-response","103","550161","0.0-6.0-1.48","LABU","2","f","rechts","24","","","object","j","120","true"
"null","<div style=""font-size:60px;"">+</div>","null","html-keyboard-response","104","550613","0.0-6.0-0.49","LABU","2","f","rechts","24","","fixation","","","",""
"725","img/L90_180.png","74","image-keyboard-response","105","551340","0.0-6.0-1.49","LABU","2","f","rechts","24","","","object","j","90","true"
"null","<div style=""font-size:60px;"">+</div>","null","html-keyboard-response","106","551842","0.0-6.0-0.50","LABU","2","f","rechts","24","","fixation","","","",""
"1074","img/0_30.png","74","image-keyboard-response","107","552917","0.0-6.0-1.50","LABU","2","f","rechts","24","","","object","j","0","true"
"null","<div style=""font-size:60px;"">+</div>","null","html-keyboard-response","108","553219","0.0-6.0-0.51","LABU","2","f","rechts","24","","fixation","","","",""
"689","img/30_300.png","70","image-keyboard-response","109","553910","0.0-6.0-1.51","LABU","2","f","rechts","24","","","object","f","30","true"
"null","<div style=""font-size:60px;"">+</div>","null","html-keyboard-response","110","554411","0.0-6.0-0.52","LABU","2","f","rechts","24","","fixation","","","",""
"893","img/L60_180.png","74","image-keyboard-response","111","555306","0.0-6.0-1.52","LABU","2","f","rechts","24","","","object","j","60","true"
"null","<div style=""font-size:60px;"">+</div>","null","html-keyboard-response","112","555757","0.0-6.0-0.53","LABU","2","f","rechts","24","","fixation","","","",""
"1117","img/120_30.png","70","image-keyboard-response","113","556875","0.0-6.0-1.53","LABU","2","f","rechts","24","","","object","f","120","true"
"null","<div style=""font-size:60px;"">+</div>","null","html-keyboard-response","114","557276","0.0-6.0-0.54","LABU","2","f","rechts","24","","fixation","","","",""
"1063","img/60_330.png","74","image-keyboard-response","115","558340","0.0-6.0-1.54","LABU","2","f","rechts","24","","","object","j","60","true"
"null","<div style=""font-size:60px;"">+</div>","null","html-keyboard-response","116","558791","0.0-6.0-0.55","LABU","2","f","rechts","24","","fixation","","","",""
"1179","img/30_120.png","74","image-keyboard-response","117","559972","0.0-6.0-1.55","LABU","2","f","rechts","24","","","object","j","30","true"
"null","<div style=""font-size:60px;"">+</div>","null","html-keyboard-response","118","560423","0.0-6.0-0.56","LABU","2","f","rechts","24","","fixation","","","",""
"917","img/150_300.png","74","image-keyboard-response","119","561341","0.0-6.0-1.56","LABU","2","f","rechts","24","","","object","j","150","true"
"null","<div style=""font-size:60px;"">+</div>","null","html-keyboard-response","120","561743","0.0-6.0-0.57","LABU","2","f","rechts","24","","fixation","","","",""
"1148","img/90_300.png","74","image-keyboard-response","121","562892","0.0-6.0-1.57","LABU","2","f","rechts","24","","","object","j","90","true"
"null","<div style=""font-size:60px;"">+</div>","null","html-keyboard-response","122","563293","0.0-6.0-0.58","LABU","2","f","rechts","24","","fixation","","","",""
"775","img/0_270.png","70","image-keyboard-response","123","564070","0.0-6.0-1.58","LABU","2","f","rechts","24","","","object","f","0","true"
"null","<div style=""font-size:60px;"">+</div>","null","html-keyboard-response","124","564421","0.0-6.0-0.59","LABU","2","f","rechts","24","","fixation","","","",""
"881","img/90_60.png","70","image-keyboard-response","125","565304","0.0-6.0-1.59","LABU","2","f","rechts","24","","","object","f","90","true"
"null","<div style=""font-size:60px;"">+</div>","null","html-keyboard-response","126","565705","0.0-6.0-0.60","LABU","2","f","rechts","24","","fixation","","","",""
"927","img/90_240.png","74","image-keyboard-response","127","566634","0.0-6.0-1.60","LABU","2","f","rechts","24","","","object","f","90","false"
"null","<div style=""font-size:60px;"">+</div>","null","html-keyboard-response","128","567085","0.0-6.0-0.61","LABU","2","f","rechts","24","","fixation","","","",""
"783","img/0_30.png","74","image-keyboard-response","129","567869","0.0-6.0-1.61","LABU","2","f","rechts","24","","","object","j","0","true"
"null","<div style=""font-size:60px;"">+</div>","null","html-keyboard-response","130","568371","0.0-6.0-0.62","LABU","2","f","rechts","24","","fixation","","","",""
"708","img/60_30.png","70","image-keyboard-response","131","569081","0.0-6.0-1.62","LABU","2","f","rechts","24","","","object","f","60","true"
"null","<div style=""font-size:60px;"">+</div>","null","html-keyboard-response","132","569582","0.0-6.0-0.63","LABU","2","f","rechts","24","","fixation","","","",""
"1067","img/150_90.png","70","image-keyboard-response","133","570651","0.0-6.0-1.63","LABU","2","f","rechts","24","","","object","f","150","true"
"null","<div style=""font-size:60px;"">+</div>","null","html-keyboard-response","134","571052","0.0-6.0-0.64","LABU","2","f","rechts","24","","fixation","","","",""
"1823","img/150_120.png","74","image-keyboard-response","135","572877","0.0-6.0-1.64","LABU","2","f","rechts","24","","","object","f","150","false"
"null","<div style=""font-size:60px;"">+</div>","null","html-keyboard-response","136","573378","0.0-6.0-0.65","LABU","2","f","rechts","24","","fixation","","","",""
"969","img/30_300.png","70","image-keyboard-response","137","574349","0.0-6.0-1.65","LABU","2","f","rechts","24","","","object","f","30","true"
"null","<div style=""font-size:60px;"">+</div>","null","html-keyboard-response","138","574650","0.0-6.0-0.66","LABU","2","f","rechts","24","","fixation","","","",""
"1006","img/120_180.png","70","image-keyboard-response","139","575657","0.0-6.0-1.66","LABU","2","f","rechts","24","","","object","f","120","true"
"null","<div style=""font-size:60px;"">+</div>","null","html-keyboard-response","140","576009","0.0-6.0-0.67","LABU","2","f","rechts","24","","fixation","","","",""
"966","img/60_210.png","70","image-keyboard-response","141","576976","0.0-6.0-1.67","LABU","2","f","rechts","24","","","object","f","60","true"
"null","<div style=""font-size:60px;"">+</div>","null","html-keyboard-response","142","577327","0.0-6.0-0.68","LABU","2","f","rechts","24","","fixation","","","",""
"952","img/90_120.png","74","image-keyboard-response","143","578280","0.0-6.0-1.68","LABU","2","f","rechts","24","","","object","j","90","true"
"null","<div style=""font-size:60px;"">+</div>","null","html-keyboard-response","144","578782","0.0-6.0-0.69","LABU","2","f","rechts","24","","fixation","","","",""
"727","img/0_330.png","70","image-keyboard-response","145","579510","0.0-6.0-1.69","LABU","2","f","rechts","24","","","object","f","0","true"
"null","<div style=""font-size:60px;"">+</div>","null","html-keyboard-response","146","579912","0.0-6.0-0.70","LABU","2","f","rechts","24","","fixation","","","",""
"826","img/0_240.png","70","image-keyboard-response","147","580739","0.0-6.0-1.70","LABU","2","f","rechts","24","","","object","f","0","true"
"null","<div style=""font-size:60px;"">+</div>","null","html-keyboard-response","148","581091","0.0-6.0-0.71","LABU","2","f","rechts","24","","fixation","","","",""
"904","img/0_120.png","74","image-keyboard-response","149","581995","0.0-6.0-1.71","LABU","2","f","rechts","24","","","object","j","0","true"
"null","<div style=""font-size:60px;"">+</div>","null","html-keyboard-response","150","582447","0.0-6.0-0.72","LABU","2","f","rechts","24","","fixation","","","",""
"776","img/L150_180.png","74","image-keyboard-response","151","583224","0.0-6.0-1.72","LABU","2","f","rechts","24","","","object","j","150","true"
"null","<div style=""font-size:60px;"">+</div>","null","html-keyboard-response","152","583526","0.0-6.0-0.73","LABU","2","f","rechts","24","","fixation","","","",""
"810","img/0_90.png","74","image-keyboard-response","153","584336","0.0-6.0-1.73","LABU","2","f","rechts","24","","","object","j","0","true"
"null","<div style=""font-size:60px;"">+</div>","null","html-keyboard-response","154","584838","0.0-6.0-0.74","LABU","2","f","rechts","24","","fixation","","","",""
"757","img/90_30.png","70","image-keyboard-response","155","585595","0.0-6.0-1.74","LABU","2","f","rechts","24","","","object","f","90","true"
"null","<div style=""font-size:60px;"">+</div>","null","html-keyboard-response","156","585897","0.0-6.0-0.75","LABU","2","f","rechts","24","","fixation","","","",""
"1124","img/90_180.png","70","image-keyboard-response","157","587021","0.0-6.0-1.75","LABU","2","f","rechts","24","","","object","f","90","true"
"null","<div style=""font-size:60px;"">+</div>","null","html-keyboard-response","158","587323","0.0-6.0-0.76","LABU","2","f","rechts","24","","fixation","","","",""
"666","img/0_60.png","74","image-keyboard-response","159","587989","0.0-6.0-1.76","LABU","2","f","rechts","24","","","object","j","0","true"
"null","<div style=""font-size:60px;"">+</div>","null","html-keyboard-response","160","588341","0.0-6.0-0.77","LABU","2","f","rechts","24","","fixation","","","",""
"1105","img/150_270.png","74","image-keyboard-response","161","589447","0.0-6.0-1.77","LABU","2","f","rechts","24","","","object","j","150","true"
"null","<div style=""font-size:60px;"">+</div>","null","html-keyboard-response","162","589749","0.0-6.0-0.78","LABU","2","f","rechts","24","","fixation","","","",""
"883","img/120_90.png","70","image-keyboard-response","163","590632","0.0-6.0-1.78","LABU","2","f","rechts","24","","","object","f","120","true"
"null","<div style=""font-size:60px;"">+</div>","null","html-keyboard-response","164","590934","0.0-6.0-0.79","LABU","2","f","rechts","24","","fixation","","","",""
"707","img/30_60.png","74","image-keyboard-response","165","591641","0.0-6.0-1.79","LABU","2","f","rechts","24","","","object","j","30","true"
"null","<div style=""font-size:60px;"">+</div>","null","html-keyboard-response","166","592093","0.0-6.0-0.80","LABU","2","f","rechts","24","","fixation","","","",""
"2273","img/60_150.png","74","image-keyboard-response","167","594366","0.0-6.0-1.80","LABU","2","f","rechts","24","","","object","j","60","true"
"null","<div style=""font-size:60px;"">+</div>","null","html-keyboard-response","168","594768","0.0-6.0-0.81","LABU","2","f","rechts","24","","fixation","","","",""
"887","img/L90_180.png","74","image-keyboard-response","169","595655","0.0-6.0-1.81","LABU","2","f","rechts","24","","","object","j","90","true"
"null","<div style=""font-size:60px;"">+</div>","null","html-keyboard-response","170","596106","0.0-6.0-0.82","LABU","2","f","rechts","24","","fixation","","","",""
"907","img/90_210.png","70","image-keyboard-response","171","597013","0.0-6.0-1.82","LABU","2","f","rechts","24","","","object","f","90","true"
"null","<div style=""font-size:60px;"">+</div>","null","html-keyboard-response","172","597315","0.0-6.0-0.83","LABU","2","f","rechts","24","","fixation","","","",""
"976","img/90_150.png","74","image-keyboard-response","173","598291","0.0-6.0-1.83","LABU","2","f","rechts","24","","","object","j","90","true"
"null","<div style=""font-size:60px;"">+</div>","null","html-keyboard-response","174","598592","0.0-6.0-0.84","LABU","2","f","rechts","24","","fixation","","","",""
"1003","img/90_330.png","74","image-keyboard-response","175","599596","0.0-6.0-1.84","LABU","2","f","rechts","24","","","object","j","90","true"
"null","<div style=""font-size:60px;"">+</div>","null","html-keyboard-response","176","600048","0.0-6.0-0.85","LABU","2","f","rechts","24","","fixation","","","",""
"682","img/0_150.png","74","image-keyboard-response","177","600731","0.0-6.0-1.85","LABU","2","f","rechts","24","","","object","j","0","true"
"null","<div style=""font-size:60px;"">+</div>","null","html-keyboard-response","178","601033","0.0-6.0-0.86","LABU","2","f","rechts","24","","fixation","","","",""
"1079","img/150_60.png","70","image-keyboard-response","179","602112","0.0-6.0-1.86","LABU","2","f","rechts","24","","","object","f","150","true"
"null","<div style=""font-size:60px;"">+</div>","null","html-keyboard-response","180","602563","0.0-6.0-0.87","LABU","2","f","rechts","24","","fixation","","","",""
"1673","img/60_180.png","70","image-keyboard-response","181","604237","0.0-6.0-1.87","LABU","2","f","rechts","24","","","object","f","60","true"
"null","<div style=""font-size:60px;"">+</div>","null","html-keyboard-response","182","604539","0.0-6.0-0.88","LABU","2","f","rechts","24","","fixation","","","",""
"1542","img/L30_180.png","74","image-keyboard-response","183","606081","0.0-6.0-1.88","LABU","2","f","rechts","24","","","object","j","30","true"
"null","<div style=""font-size:60px;"">+</div>","null","html-keyboard-response","184","606582","0.0-6.0-0.89","LABU","2","f","rechts","24","","fixation","","","",""
"862","img/150_240.png","74","image-keyboard-response","185","607445","0.0-6.0-1.89","LABU","2","f","rechts","24","","","object","j","150","true"
"null","<div style=""font-size:60px;"">+</div>","null","html-keyboard-response","186","607797","0.0-6.0-0.90","LABU","2","f","rechts","24","","fixation","","","",""
"1006","img/60_270.png","70","image-keyboard-response","187","608803","0.0-6.0-1.90","LABU","2","f","rechts","24","","","object","f","60","true"
"null","<div style=""font-size:60px;"">+</div>","null","html-keyboard-response","188","609105","0.0-6.0-0.91","LABU","2","f","rechts","24","","fixation","","","",""
"1255","img/120_210.png","70","image-keyboard-response","189","610362","0.0-6.0-1.91","LABU","2","f","rechts","24","","","object","f","120","true"
"null","<div style=""font-size:60px;"">+</div>","null","html-keyboard-response","190","610663","0.0-6.0-0.92","LABU","2","f","rechts","24","","fixation","","","",""
"1068","img/30_270.png","70","image-keyboard-response","191","611733","0.0-6.0-1.92","LABU","2","f","rechts","24","","","object","f","30","true"
"null","<div style=""font-size:60px;"">+</div>","null","html-keyboard-response","192","612134","0.0-6.0-0.93","LABU","2","f","rechts","24","","fixation","","","",""
"840","img/0_300.png","70","image-keyboard-response","193","612976","0.0-6.0-1.93","LABU","2","f","rechts","24","","","object","f","0","true"
"null","<div style=""font-size:60px;"">+</div>","null","html-keyboard-response","194","613427","0.0-6.0-0.94","LABU","2","f","rechts","24","","fixation","","","",""
"656","img/0_210.png","70","image-keyboard-response","195","614085","0.0-6.0-1.94","LABU","2","f","rechts","24","","","object","f","0","true"
"null","<div style=""font-size:60px;"">+</div>","null","html-keyboard-response","196","614386","0.0-6.0-0.95","LABU","2","f","rechts","24","","fixation","","","",""
"1159","img/120_150.png","74","image-keyboard-response","197","615547","0.0-6.0-1.95","LABU","2","f","rechts","24","","","object","j","120","true"
"null","<div style=""font-size:60px;"">+</div>","null","html-keyboard-response","198","615948","0.0-6.0-0.96","LABU","2","f","rechts","24","","fixation","","","",""
"828","img/120_330.png","74","image-keyboard-response","199","616778","0.0-6.0-1.96","LABU","2","f","rechts","24","","","object","j","120","true"
"null","<div style=""font-size:60px;"">+</div>","null","html-keyboard-response","200","617079","0.0-6.0-0.97","LABU","2","f","rechts","24","","fixation","","","",""
"1423","img/30_180.png","70","image-keyboard-response","201","618503","0.0-6.0-1.97","LABU","2","f","rechts","24","","","object","f","30","true"
"null","<div style=""font-size:60px;"">+</div>","null","html-keyboard-response","202","618905","0.0-6.0-0.98","LABU","2","f","rechts","24","","fixation","","","",""
"1156","img/L120_180.png","74","image-keyboard-response","203","620062","0.0-6.0-1.98","LABU","2","f","rechts","24","","","object","j","120","true"
"null","<div style=""font-size:60px;"">+</div>","null","html-keyboard-response","204","620414","0.0-6.0-0.99","LABU","2","f","rechts","24","","fixation","","","",""
"973","img/30_90.png","74","image-keyboard-response","205","621388","0.0-6.0-1.99","LABU","2","f","rechts","24","","","object","j","30","true"
"null","<div style=""font-size:60px;"">+</div>","null","html-keyboard-response","206","621840","0.0-6.0-0.100","LABU","2","f","rechts","24","","fixation","","","",""
"1079","img/60_90.png","74","image-keyboard-response","207","622921","0.0-6.0-1.100","LABU","2","f","rechts","24","","","object","j","60","true"
"null","<div style=""font-size:60px;"">+</div>","null","html-keyboard-response","208","623422","0.0-6.0-0.101","LABU","2","f","rechts","24","","fixation","","","",""
"813","img/150_180.png","70","image-keyboard-response","209","624236","0.0-6.0-1.101","LABU","2","f","rechts","24","","","object","f","150","true"
"null","<div style=""font-size:60px;"">+</div>","null","html-keyboard-response","210","624738","0.0-6.0-0.102","LABU","2","f","rechts","24","","fixation","","","",""
"1075","img/120_270.png","74","image-keyboard-response","211","625814","0.0-6.0-1.102","LABU","2","f","rechts","24","","","object","j","120","true"
"null","<div style=""font-size:60px;"">+</div>","null","html-keyboard-response","212","626216","0.0-6.0-0.103","LABU","2","f","rechts","24","","fixation","","","",""
"849","img/30_240.png","70","image-keyboard-response","213","627067","0.0-6.0-1.103","LABU","2","f","rechts","24","","","object","f","30","true"
"null","<div style=""font-size:60px;"">+</div>","null","html-keyboard-response","214","627568","0.0-6.0-0.104","LABU","2","f","rechts","24","","fixation","","","",""
"736","img/90_300.png","74","image-keyboard-response","215","628305","0.0-6.0-1.104","LABU","2","f","rechts","24","","","object","j","90","true"
"null","<div style=""font-size:60px;"">+</div>","null","html-keyboard-response","216","628707","0.0-6.0-0.105","LABU","2","f","rechts","24","","fixation","","","",""
"834","img/30_60.png","70","image-keyboard-response","217","629542","0.0-6.0-1.105","LABU","2","f","rechts","24","","","object","j","30","false"
"null","<div style=""font-size:60px;"">+</div>","null","html-keyboard-response","218","629844","0.0-6.0-0.106","LABU","2","f","rechts","24","","fixation","","","",""
"1173","img/120_150.png","74","image-keyboard-response","219","631018","0.0-6.0-1.106","LABU","2","f","rechts","24","","","object","j","120","true"
"null","<div style=""font-size:60px;"">+</div>","null","html-keyboard-response","220","631369","0.0-6.0-0.107","LABU","2","f","rechts","24","","fixation","","","",""
"1213","img/120_90.png","70","image-keyboard-response","221","632583","0.0-6.0-1.107","LABU","2","f","rechts","24","","","object","f","120","true"
"null","<div style=""font-size:60px;"">+</div>","null","html-keyboard-response","222","633035","0.0-6.0-0.108","LABU","2","f","rechts","24","","fixation","","","",""
"857","img/150_300.png","74","image-keyboard-response","223","633893","0.0-6.0-1.108","LABU","2","f","rechts","24","","","object","j","150","true"
"null","<div style=""font-size:60px;"">+</div>","null","html-keyboard-response","224","634245","0.0-6.0-0.109","LABU","2","f","rechts","24","","fixation","","","",""
"826","img/0_330.png","70","image-keyboard-response","225","635071","0.0-6.0-1.109","LABU","2","f","rechts","24","","","object","f","0","true"
"null","<div style=""font-size:60px;"">+</div>","null","html-keyboard-response","226","635573","0.0-6.0-0.110","LABU","2","f","rechts","24","","fixation","","","",""
"573","img/0_240.png","70","image-keyboard-response","227","636146","0.0-6.0-1.110","LABU","2","f","rechts","24","","","object","f","0","true"
"null","<div style=""font-size:60px;"">+</div>","null","html-keyboard-response","228","636448","0.0-6.0-0.111","LABU","2","f","rechts","24","","fixation","","","",""
"870","img/L150_180.png","74","image-keyboard-response","229","637318","0.0-6.0-1.111","LABU","2","f","rechts","24","","","object","j","150","true"
"null","<div style=""font-size:60px;"">+</div>","null","html-keyboard-response","230","637770","0.0-6.0-0.112","LABU","2","f","rechts","24","","fixation","","","",""
"924","img/150_90.png","70","image-keyboard-response","231","638695","0.0-6.0-1.112","LABU","2","f","rechts","24","","","object","f","150","true"
"null","<div style=""font-size:60px;"">+</div>","null","html-keyboard-response","232","639046","0.0-6.0-0.113","LABU","2","f","rechts","24","","fixation","","","",""
"753","img/0_120.png","74","image-keyboard-response","233","639800","0.0-6.0-1.113","LABU","2","f","rechts","24","","","object","j","0","true"
"null","<div style=""font-size:60px;"">+</div>","null","html-keyboard-response","234","640202","0.0-6.0-0.114","LABU","2","f","rechts","24","","fixation","","","",""
"735","img/30_300.png","70","image-keyboard-response","235","640937","0.0-6.0-1.114","LABU","2","f","rechts","24","","","object","f","30","true"
"null","<div style=""font-size:60px;"">+</div>","null","html-keyboard-response","236","641338","0.0-6.0-0.115","LABU","2","f","rechts","24","","fixation","","","",""
"674","img/0_60.png","74","image-keyboard-response","237","642013","0.0-6.0-1.115","LABU","2","f","rechts","24","","","object","j","0","true"
"null","<div style=""font-size:60px;"">+</div>","null","html-keyboard-response","238","642315","0.0-6.0-0.116","LABU","2","f","rechts","24","","fixation","","","",""
"897","img/150_270.png","74","image-keyboard-response","239","643213","0.0-6.0-1.116","LABU","2","f","rechts","24","","","object","j","150","true"
"null","<div style=""font-size:60px;"">+</div>","null","html-keyboard-response","240","643565","0.0-6.0-0.117","LABU","2","f","rechts","24","","fixation","","","",""
"918","img/90_120.png","74","image-keyboard-response","241","644483","0.0-6.0-1.117","LABU","2","f","rechts","24","","","object","j","90","true"
"null","<div style=""font-size:60px;"">+</div>","null","html-keyboard-response","242","644985","0.0-6.0-0.118","LABU","2","f","rechts","24","","fixation","","","",""
"866","img/L60_180.png","74","image-keyboard-response","243","645851","0.0-6.0-1.118","LABU","2","f","rechts","24","","","object","j","60","true"
"null","<div style=""font-size:60px;"">+</div>","null","html-keyboard-response","244","646203","0.0-6.0-0.119","LABU","2","f","rechts","24","","fixation","","","",""
"688","img/0_210.png","70","image-keyboard-response","245","646891","0.0-6.0-1.119","LABU","2","f","rechts","24","","","object","f","0","true"
"null","<div style=""font-size:60px;"">+</div>","null","html-keyboard-response","246","647243","0.0-6.0-0.120","LABU","2","f","rechts","24","","fixation","","","",""
"1069","img/150_60.png","70","image-keyboard-response","247","648313","0.0-6.0-1.120","LABU","2","f","rechts","24","","","object","f","150","true"
"null","<div style=""font-size:60px;"">+</div>","null","html-keyboard-response","248","648715","0.0-6.0-0.121","LABU","2","f","rechts","24","","fixation","","","",""
"905","img/30_90.png","74","image-keyboard-response","249","649620","0.0-6.0-1.121","LABU","2","f","rechts","24","","","object","j","30","true"
"null","<div style=""font-size:60px;"">+</div>","null","html-keyboard-response","250","650122","0.0-6.0-0.122","LABU","2","f","rechts","24","","fixation","","","",""
"735","img/0_30.png","74","image-keyboard-response","251","650858","0.0-6.0-1.122","LABU","2","f","rechts","24","","","object","j","0","true"
"null","<div style=""font-size:60px;"">+</div>","null","html-keyboard-response","252","651360","0.0-6.0-0.123","LABU","2","f","rechts","24","","fixation","","","",""
"1254","img/150_120.png","70","image-keyboard-response","253","652614","0.0-6.0-1.123","LABU","2","f","rechts","24","","","object","f","150","true"
"null","<div style=""font-size:60px;"">+</div>","null","html-keyboard-response","254","653066","0.0-6.0-0.124","LABU","2","f","rechts","24","","fixation","","","",""
"929","img/L120_180.png","74","image-keyboard-response","255","653996","0.0-6.0-1.124","LABU","2","f","rechts","24","","","object","j","120","true"
"null","<div style=""font-size:60px;"">+</div>","null","html-keyboard-response","256","654497","0.0-6.0-0.125","LABU","2","f","rechts","24","","fixation","","","",""
"1264","img/120_330.png","74","image-keyboard-response","257","655762","0.0-6.0-1.125","LABU","2","f","rechts","24","","","object","j","120","true"
"null","<div style=""font-size:60px;"">+</div>","null","html-keyboard-response","258","656212","0.0-6.0-0.126","LABU","2","f","rechts","24","","fixation","","","",""
"1081","img/150_240.png","70","image-keyboard-response","259","657293","0.0-6.0-1.126","LABU","2","f","rechts","24","","","object","j","150","false"
"null","<div style=""font-size:60px;"">+</div>","null","html-keyboard-response","260","657595","0.0-6.0-0.127","LABU","2","f","rechts","24","","fixation","","","",""
"1078","img/60_210.png","70","image-keyboard-response","261","658673","0.0-6.0-1.127","LABU","2","f","rechts","24","","","object","f","60","true"
"null","<div style=""font-size:60px;"">+</div>","null","html-keyboard-response","262","659024","0.0-6.0-0.128","LABU","2","f","rechts","24","","fixation","","","",""
"1133","img/90_240.png","70","image-keyboard-response","263","660159","0.0-6.0-1.128","LABU","2","f","rechts","24","","","object","f","90","true"
"null","<div style=""font-size:60px;"">+</div>","null","html-keyboard-response","264","660560","0.0-6.0-0.129","LABU","2","f","rechts","24","","fixation","","","",""
"977","img/60_30.png","70","image-keyboard-response","265","661538","0.0-6.0-1.129","LABU","2","f","rechts","24","","","object","f","60","true"
"null","<div style=""font-size:60px;"">+</div>","null","html-keyboard-response","266","661940","0.0-6.0-0.130","LABU","2","f","rechts","24","","fixation","","","",""
"807","img/60_330.png","74","image-keyboard-response","267","662747","0.0-6.0-1.130","LABU","2","f","rechts","24","","","object","j","60","true"
"null","<div style=""font-size:60px;"">+</div>","null","html-keyboard-response","268","663049","0.0-6.0-0.131","LABU","2","f","rechts","24","","fixation","","","",""
"951","img/60_180.png","70","image-keyboard-response","269","664001","0.0-6.0-1.131","LABU","2","f","rechts","24","","","object","f","60","true"
"null","<div style=""font-size:60px;"">+</div>","null","html-keyboard-response","270","664502","0.0-6.0-0.132","LABU","2","f","rechts","24","","fixation","","","",""
"688","img/0_150.png","74","image-keyboard-response","271","665192","0.0-6.0-1.132","LABU","2","f","rechts","24","","","object","j","0","true"
"null","<div style=""font-size:60px;"">+</div>","null","html-keyboard-response","272","665543","0.0-6.0-0.133","LABU","2","f","rechts","24","","fixation","","","",""
"997","img/0_300.png","70","image-keyboard-response","273","666542","0.0-6.0-1.133","LABU","2","f","rechts","24","","","object","f","0","true"
"null","<div style=""font-size:60px;"">+</div>","null","html-keyboard-response","274","666893","0.0-6.0-0.134","LABU","2","f","rechts","24","","fixation","","","",""
"1060","img/30_120.png","74","image-keyboard-response","275","667954","0.0-6.0-1.134","LABU","2","f","rechts","24","","","object","j","30","true"
"null","<div style=""font-size:60px;"">+</div>","null","html-keyboard-response","276","668306","0.0-6.0-0.135","LABU","2","f","rechts","24","","fixation","","","",""
"846","img/90_210.png","70","image-keyboard-response","277","669153","0.0-6.0-1.135","LABU","2","f","rechts","24","","","object","f","90","true"
"null","<div style=""font-size:60px;"">+</div>","null","html-keyboard-response","278","669455","0.0-6.0-0.136","LABU","2","f","rechts","24","","fixation","","","",""
"1065","img/30_270.png","70","image-keyboard-response","279","670520","0.0-6.0-1.136","LABU","2","f","rechts","24","","","object","f","30","true"
"null","<div style=""font-size:60px;"">+</div>","null","html-keyboard-response","280","670821","0.0-6.0-0.137","LABU","2","f","rechts","24","","fixation","","","",""
"836","img/120_180.png","70","image-keyboard-response","281","671658","0.0-6.0-1.137","LABU","2","f","rechts","24","","","object","f","120","true"
"null","<div style=""font-size:60px;"">+</div>","null","html-keyboard-response","282","672160","0.0-6.0-0.138","LABU","2","f","rechts","24","","fixation","","","",""
"962","img/L90_180.png","74","image-keyboard-response","283","673124","0.0-6.0-1.138","LABU","2","f","rechts","24","","","object","j","90","true"
"null","<div style=""font-size:60px;"">+</div>","null","html-keyboard-response","284","673526","0.0-6.0-0.139","LABU","2","f","rechts","24","","fixation","","","",""
"1165","img/30_180.png","70","image-keyboard-response","285","674692","0.0-6.0-1.139","LABU","2","f","rechts","24","","","object","f","30","true"
"null","<div style=""font-size:60px;"">+</div>","null","html-keyboard-response","286","674994","0.0-6.0-0.140","LABU","2","f","rechts","24","","fixation","","","",""
"1303","img/120_210.png","70","image-keyboard-response","287","676297","0.0-6.0-1.140","LABU","2","f","rechts","24","","","object","f","120","true"
"null","<div style=""font-size:60px;"">+</div>","null","html-keyboard-response","288","676599","0.0-6.0-0.141","LABU","2","f","rechts","24","","fixation","","","",""
"800","img/60_270.png","70","image-keyboard-response","289","677400","0.0-6.0-1.141","LABU","2","f","rechts","24","","","object","f","60","true"
"null","<div style=""font-size:60px;"">+</div>","null","html-keyboard-response","290","677752","0.0-6.0-0.142","LABU","2","f","rechts","24","","fixation","","","",""
"935","img/90_60.png","74","image-keyboard-response","291","678688","0.0-6.0-1.142","LABU","2","f","rechts","24","","","object","f","90","false"
"null","<div style=""font-size:60px;"">+</div>","null","html-keyboard-response","292","678990","0.0-6.0-0.143","LABU","2","f","rechts","24","","fixation","","","",""
"1072","img/90_180.png","70","image-keyboard-response","293","680063","0.0-6.0-1.143","LABU","2","f","rechts","24","","","object","f","90","true"
"null","<div style=""font-size:60px;"">+</div>","null","html-keyboard-response","294","680515","0.0-6.0-0.144","LABU","2","f","rechts","24","","fixation","","","",""
"1217","img/30_240.png","74","image-keyboard-response","295","681732","0.0-6.0-1.144","LABU","2","f","rechts","24","","","object","f","30","false"
"null","<div style=""font-size:60px;"">+</div>","null","html-keyboard-response","296","682184","0.0-6.0-0.145","LABU","2","f","rechts","24","","fixation","","","",""
"851","img/120_30.png","70","image-keyboard-response","297","683036","0.0-6.0-1.145","LABU","2","f","rechts","24","","","object","f","120","true"
"null","<div style=""font-size:60px;"">+</div>","null","html-keyboard-response","298","683438","0.0-6.0-0.146","LABU","2","f","rechts","24","","fixation","","","",""
"911","img/150_180.png","70","image-keyboard-response","299","684349","0.0-6.0-1.146","LABU","2","f","rechts","24","","","object","f","150","true"
"null","<div style=""font-size:60px;"">+</div>","null","html-keyboard-response","300","684650","0.0-6.0-0.147","LABU","2","f","rechts","24","","fixation","","","",""
"891","img/90_330.png","74","image-keyboard-response","301","685542","0.0-6.0-1.147","LABU","2","f","rechts","24","","","object","j","90","true"
"null","<div style=""font-size:60px;"">+</div>","null","html-keyboard-response","302","685894","0.0-6.0-0.148","LABU","2","f","rechts","24","","fixation","","","",""
"772","img/90_150.png","70","image-keyboard-response","303","686667","0.0-6.0-1.148","LABU","2","f","rechts","24","","","object","j","90","false"
"null","<div style=""font-size:60px;"">+</div>","null","html-keyboard-response","304","686969","0.0-6.0-0.149","LABU","2","f","rechts","24","","fixation","","","",""
"934","img/90_30.png","70","image-keyboard-response","305","687903","0.0-6.0-1.149","LABU","2","f","rechts","24","","","object","f","90","true"
"null","<div style=""font-size:60px;"">+</div>","null","html-keyboard-response","306","688305","0.0-6.0-0.150","LABU","2","f","rechts","24","","fixation","","","",""
"1071","img/60_90.png","74","image-keyboard-response","307","689376","0.0-6.0-1.150","LABU","2","f","rechts","24","","","object","j","60","true"
"null","<div style=""font-size:60px;"">+</div>","null","html-keyboard-response","308","689778","0.0-6.0-0.151","LABU","2","f","rechts","24","","fixation","","","",""
"665","img/0_90.png","74","image-keyboard-response","309","690443","0.0-6.0-1.151","LABU","2","f","rechts","24","","","object","j","0","true"
"null","<div style=""font-size:60px;"">+</div>","null","html-keyboard-response","310","690744","0.0-6.0-0.152","LABU","2","f","rechts","24","","fixation","","","",""
"765","img/0_270.png","70","image-keyboard-response","311","691510","0.0-6.0-1.152","LABU","2","f","rechts","24","","","object","f","0","true"
"null","<div style=""font-size:60px;"">+</div>","null","html-keyboard-response","312","691812","0.0-6.0-0.153","LABU","2","f","rechts","24","","fixation","","","",""
"847","img/60_150.png","74","image-keyboard-response","313","692659","0.0-6.0-1.153","LABU","2","f","rechts","24","","","object","j","60","true"
"null","<div style=""font-size:60px;"">+</div>","null","html-keyboard-response","314","693011","0.0-6.0-0.154","LABU","2","f","rechts","24","","fixation","","","",""
"1083","img/120_270.png","74","image-keyboard-response","315","694095","0.0-6.0-1.154","LABU","2","f","rechts","24","","","object","j","120","true"
"null","<div style=""font-size:60px;"">+</div>","null","html-keyboard-response","316","694397","0.0-6.0-0.155","LABU","2","f","rechts","24","","fixation","","","",""
"1148","img/L30_180.png","70","image-keyboard-response","317","695545","0.0-6.0-1.155","LABU","2","f","rechts","24","","","object","j","30","false"
"null","<div style=""font-size:60px;"">+</div>","null","html-keyboard-response","318","695996","0.0-6.0-0.156","LABU","2","f","rechts","24","","fixation","","","",""
"1079","img/L150_180.png","74","image-keyboard-response","319","697075","0.0-6.0-1.156","LABU","2","f","rechts","24","","","object","j","150","true"
"null","<div style=""font-size:60px;"">+</div>","null","html-keyboard-response","320","697476","0.0-6.0-0.157","LABU","2","f","rechts","24","","fixation","","","",""
"1103","img/90_60.png","70","image-keyboard-response","321","698580","0.0-6.0-1.157","LABU","2","f","rechts","24","","","object","f","90","true"
"null","<div style=""font-size:60px;"">+</div>","null","html-keyboard-response","322","699031","0.0-6.0-0.158","LABU","2","f","rechts","24","","fixation","","","",""
"616","img/0_60.png","74","image-keyboard-response","323","699648","0.0-6.0-1.158","LABU","2","f","rechts","24","","","object","j","0","true"
"null","<div style=""font-size:60px;"">+</div>","null","html-keyboard-response","324","700150","0.0-6.0-0.159","LABU","2","f","rechts","24","","fixation","","","",""
"670","img/0_120.png","74","image-keyboard-response","325","700821","0.0-6.0-1.159","LABU","2","f","rechts","24","","","object","j","0","true"
"null","<div style=""font-size:60px;"">+</div>","null","html-keyboard-response","326","701223","0.0-6.0-0.160","LABU","2","f","rechts","24","","fixation","","","",""
"664","img/0_300.png","70","image-keyboard-response","327","701887","0.0-6.0-1.160","LABU","2","f","rechts","24","","","object","f","0","true"
"null","<div style=""font-size:60px;"">+</div>","null","html-keyboard-response","328","702189","0.0-6.0-0.161","LABU","2","f","rechts","24","","fixation","","","",""
"758","img/120_30.png","70","image-keyboard-response","329","702947","0.0-6.0-1.161","LABU","2","f","rechts","24","","","object","f","120","true"
"null","<div style=""font-size:60px;"">+</div>","null","html-keyboard-response","330","703399","0.0-6.0-0.162","LABU","2","f","rechts","24","","fixation","","","",""
"1245","img/60_180.png","70","image-keyboard-response","331","704644","0.0-6.0-1.162","LABU","2","f","rechts","24","","","object","f","60","true"
"null","<div style=""font-size:60px;"">+</div>","null","html-keyboard-response","332","705044","0.0-6.0-0.163","LABU","2","f","rechts","24","","fixation","","","",""
"1188","img/150_270.png","74","image-keyboard-response","333","706233","0.0-6.0-1.163","LABU","2","f","rechts","24","","","object","j","150","true"
"null","<div style=""font-size:60px;"">+</div>","null","html-keyboard-response","334","706635","0.0-6.0-0.164","LABU","2","f","rechts","24","","fixation","","","",""
"774","img/0_240.png","70","image-keyboard-response","335","707409","0.0-6.0-1.164","LABU","2","f","rechts","24","","","object","f","0","true"
"null","<div style=""font-size:60px;"">+</div>","null","html-keyboard-response","336","707710","0.0-6.0-0.165","LABU","2","f","rechts","24","","fixation","","","",""
"749","img/90_330.png","74","image-keyboard-response","337","708460","0.0-6.0-1.165","LABU","2","f","rechts","24","","","object","j","90","true"
"null","<div style=""font-size:60px;"">+</div>","null","html-keyboard-response","338","708961","0.0-6.0-0.166","LABU","2","f","rechts","24","","fixation","","","",""
"689","img/0_150.png","74","image-keyboard-response","339","709651","0.0-6.0-1.166","LABU","2","f","rechts","24","","","object","j","0","true"
"null","<div style=""font-size:60px;"">+</div>","null","html-keyboard-response","340","710101","0.0-6.0-0.167","LABU","2","f","rechts","24","","fixation","","","",""
"597","img/0_270.png","70","image-keyboard-response","341","710699","0.0-6.0-1.167","LABU","2","f","rechts","24","","","object","f","0","true"
"null","<div style=""font-size:60px;"">+</div>","null","html-keyboard-response","342","711150","0.0-6.0-0.168","LABU","2","f","rechts","24","","fixation","","","",""
"767","img/150_180.png","70","image-keyboard-response","343","711918","0.0-6.0-1.168","LABU","2","f","rechts","24","","","object","f","150","true"
"null","<div style=""font-size:60px;"">+</div>","null","html-keyboard-response","344","712319","0.0-6.0-0.169","LABU","2","f","rechts","24","","fixation","","","",""
"930","img/120_210.png","70","image-keyboard-response","345","713250","0.0-6.0-1.169","LABU","2","f","rechts","24","","","object","f","120","true"
"null","<div style=""font-size:60px;"">+</div>","null","html-keyboard-response","346","713602","0.0-6.0-0.170","LABU","2","f","rechts","24","","fixation","","","",""
"866","img/30_270.png","70","image-keyboard-response","347","714468","0.0-6.0-1.170","LABU","2","f","rechts","24","","","object","f","30","true"
"null","<div style=""font-size:60px;"">+</div>","null","html-keyboard-response","348","714970","0.0-6.0-0.171","LABU","2","f","rechts","24","","fixation","","","",""
"732","img/60_150.png","74","image-keyboard-response","349","715703","0.0-6.0-1.171","LABU","2","f","rechts","24","","","object","j","60","true"
"null","<div style=""font-size:60px;"">+</div>","null","html-keyboard-response","350","716104","0.0-6.0-0.172","LABU","2","f","rechts","24","","fixation","","","",""
"919","img/120_330.png","74","image-keyboard-response","351","717025","0.0-6.0-1.172","LABU","2","f","rechts","24","","","object","j","120","true"
"null","<div style=""font-size:60px;"">+</div>","null","html-keyboard-response","352","717326","0.0-6.0-0.173","LABU","2","f","rechts","24","","fixation","","","",""
"1078","img/30_180.png","70","image-keyboard-response","353","718405","0.0-6.0-1.173","LABU","2","f","rechts","24","","","object","f","30","true"
"null","<div style=""font-size:60px;"">+</div>","null","html-keyboard-response","354","718707","0.0-6.0-0.174","LABU","2","f","rechts","24","","fixation","","","",""
"1066","img/60_90.png","74","image-keyboard-response","355","719773","0.0-6.0-1.174","LABU","2","f","rechts","24","","","object","j","60","true"
"null","<div style=""font-size:60px;"">+</div>","null","html-keyboard-response","356","720274","0.0-6.0-0.175","LABU","2","f","rechts","24","","fixation","","","",""
"897","img/30_60.png","74","image-keyboard-response","357","721173","0.0-6.0-1.175","LABU","2","f","rechts","24","","","object","j","30","true"
"null","<div style=""font-size:60px;"">+</div>","null","html-keyboard-response","358","721474","0.0-6.0-0.176","LABU","2","f","rechts","24","","fixation","","","",""
"960","img/90_240.png","70","image-keyboard-response","359","722436","0.0-6.0-1.176","LABU","2","f","rechts","24","","","object","f","90","true"
"null","<div style=""font-size:60px;"">+</div>","null","html-keyboard-response","360","722937","0.0-6.0-0.177","LABU","2","f","rechts","24","","fixation","","","",""
"967","img/150_300.png","74","image-keyboard-response","361","723905","0.0-6.0-1.177","LABU","2","f","rechts","24","","","object","j","150","true"
"null","<div style=""font-size:60px;"">+</div>","null","html-keyboard-response","362","724407","0.0-6.0-0.178","LABU","2","f","rechts","24","","fixation","","","",""
"944","img/90_210.png","70","image-keyboard-response","363","725352","0.0-6.0-1.178","LABU","2","f","rechts","24","","","object","f","90","true"
"null","<div style=""font-size:60px;"">+</div>","null","html-keyboard-response","364","725754","0.0-6.0-0.179","LABU","2","f","rechts","24","","fixation","","","",""
"888","img/90_180.png","70","image-keyboard-response","365","726643","0.0-6.0-1.179","LABU","2","f","rechts","24","","","object","f","90","true"
"null","<div style=""font-size:60px;"">+</div>","null","html-keyboard-response","366","727095","0.0-6.0-0.180","LABU","2","f","rechts","24","","fixation","","","",""
"709","img/90_150.png","74","image-keyboard-response","367","727805","0.0-6.0-1.180","LABU","2","f","rechts","24","","","object","j","90","true"
"null","<div style=""font-size:60px;"">+</div>","null","html-keyboard-response","368","728157","0.0-6.0-0.181","LABU","2","f","rechts","24","","fixation","","","",""
"801","img/120_150.png","74","image-keyboard-response","369","728959","0.0-6.0-1.181","LABU","2","f","rechts","24","","","object","j","120","true"
"null","<div style=""font-size:60px;"">+</div>","null","html-keyboard-response","370","729361","0.0-6.0-0.182","LABU","2","f","rechts","24","","fixation","","","",""
"831","img/90_120.png","74","image-keyboard-response","371","730193","0.0-6.0-1.182","LABU","2","f","rechts","24","","","object","j","90","true"
"null","<div style=""font-size:60px;"">+</div>","null","html-keyboard-response","372","730495","0.0-6.0-0.183","LABU","2","f","rechts","24","","fixation","","","",""
"693","img/120_90.png","74","image-keyboard-response","373","731189","0.0-6.0-1.183","LABU","2","f","rechts","24","","","object","f","120","false"
"null","<div style=""font-size:60px;"">+</div>","null","html-keyboard-response","374","731591","0.0-6.0-0.184","LABU","2","f","rechts","24","","fixation","","","",""
"1217","img/L120_180.png","74","image-keyboard-response","375","732809","0.0-6.0-1.184","LABU","2","f","rechts","24","","","object","j","120","true"
"null","<div style=""font-size:60px;"">+</div>","null","html-keyboard-response","376","733310","0.0-6.0-0.185","LABU","2","f","rechts","24","","fixation","","","",""
"688","img/L90_180.png","74","image-keyboard-response","377","733999","0.0-6.0-1.185","LABU","2","f","rechts","24","","","object","j","90","true"
"null","<div style=""font-size:60px;"">+</div>","null","html-keyboard-response","378","734351","0.0-6.0-0.186","LABU","2","f","rechts","24","","fixation","","","",""
"695","img/30_300.png","70","image-keyboard-response","379","735047","0.0-6.0-1.186","LABU","2","f","rechts","24","","","object","f","30","true"
"null","<div style=""font-size:60px;"">+</div>","null","html-keyboard-response","380","735399","0.0-6.0-0.187","LABU","2","f","rechts","24","","fixation","","","",""
"1194","img/150_90.png","74","image-keyboard-response","381","736594","0.0-6.0-1.187","LABU","2","f","rechts","24","","","object","f","150","false"
"null","<div style=""font-size:60px;"">+</div>","null","html-keyboard-response","382","737096","0.0-6.0-0.188","LABU","2","f","rechts","24","","fixation","","","",""
"697","img/0_210.png","70","image-keyboard-response","383","737794","0.0-6.0-1.188","LABU","2","f","rechts","24","","","object","f","0","true"
"null","<div style=""font-size:60px;"">+</div>","null","html-keyboard-response","384","738096","0.0-6.0-0.189","LABU","2","f","rechts","24","","fixation","","","",""
"696","img/60_330.png","74","image-keyboard-response","385","738793","0.0-6.0-1.189","LABU","2","f","rechts","24","","","object","j","60","true"
"null","<div style=""font-size:60px;"">+</div>","null","html-keyboard-response","386","739145","0.0-6.0-0.190","LABU","2","f","rechts","24","","fixation","","","",""
"760","img/150_240.png","70","image-keyboard-response","387","739906","0.0-6.0-1.190","LABU","2","f","rechts","24","","","object","j","150","false"
"null","<div style=""font-size:60px;"">+</div>","null","html-keyboard-response","388","740308","0.0-6.0-0.191","LABU","2","f","rechts","24","","fixation","","","",""
"881","img/150_120.png","74","image-keyboard-response","389","741190","0.0-6.0-1.191","LABU","2","f","rechts","24","","","object","f","150","false"
"null","<div style=""font-size:60px;"">+</div>","null","html-keyboard-response","390","741642","0.0-6.0-0.192","LABU","2","f","rechts","24","","fixation","","","",""
"951","img/120_180.png","70","image-keyboard-response","391","742594","0.0-6.0-1.192","LABU","2","f","rechts","24","","","object","f","120","true"
"null","<div style=""font-size:60px;"">+</div>","null","html-keyboard-response","392","742996","0.0-6.0-0.193","LABU","2","f","rechts","24","","fixation","","","",""
"849","img/60_210.png","70","image-keyboard-response","393","743846","0.0-6.0-1.193","LABU","2","f","rechts","24","","","object","f","60","true"
"null","<div style=""font-size:60px;"">+</div>","null","html-keyboard-response","394","744198","0.0-6.0-0.194","LABU","2","f","rechts","24","","fixation","","","",""
"1438","img/L60_180.png","74","image-keyboard-response","395","745636","0.0-6.0-1.194","LABU","2","f","rechts","24","","","object","j","60","true"
"null","<div style=""font-size:60px;"">+</div>","null","html-keyboard-response","396","746138","0.0-6.0-0.195","LABU","2","f","rechts","24","","fixation","","","",""
"736","img/0_30.png","74","image-keyboard-response","397","746874","0.0-6.0-1.195","LABU","2","f","rechts","24","","","object","j","0","true"
"null","<div style=""font-size:60px;"">+</div>","null","html-keyboard-response","398","747275","0.0-6.0-0.196","LABU","2","f","rechts","24","","fixation","","","",""
"545","img/60_30.png","74","image-keyboard-response","399","747821","0.0-6.0-1.196","LABU","2","f","rechts","24","","","object","f","60","false"
"null","<div style=""font-size:60px;"">+</div>","null","html-keyboard-response","400","748323","0.0-6.0-0.197","LABU","2","f","rechts","24","","fixation","","","",""
"856","img/30_90.png","74","image-keyboard-response","401","749179","0.0-6.0-1.197","LABU","2","f","rechts","24","","","object","j","30","true"
"null","<div style=""font-size:60px;"">+</div>","null","html-keyboard-response","402","749481","0.0-6.0-0.198","LABU","2","f","rechts","24","","fixation","","","",""
"641","img/30_120.png","74","image-keyboard-response","403","750122","0.0-6.0-1.198","LABU","2","f","rechts","24","","","object","j","30","true"
"null","<div style=""font-size:60px;"">+</div>","null","html-keyboard-response","404","750423","0.0-6.0-0.199","LABU","2","f","rechts","24","","fixation","","","",""
"658","img/0_330.png","70","image-keyboard-response","405","751082","0.0-6.0-1.199","LABU","2","f","rechts","24","","","object","f","0","true"
"null","<div style=""font-size:60px;"">+</div>","null","html-keyboard-response","406","751534","0.0-6.0-0.200","LABU","2","f","rechts","24","","fixation","","","",""
"760","img/150_60.png","70","image-keyboard-response","407","752294","0.0-6.0-1.200","LABU","2","f","rechts","24","","","object","f","150","true"
"null","<div style=""font-size:60px;"">+</div>","null","html-keyboard-response","408","752746","0.0-6.0-0.201","LABU","2","f","rechts","24","","fixation","","","",""
"816","img/30_240.png","70","image-keyboard-response","409","753563","0.0-6.0-1.201","LABU","2","f","rechts","24","","","object","f","30","true"
"null","<div style=""font-size:60px;"">+</div>","null","html-keyboard-response","410","753915","0.0-6.0-0.202","LABU","2","f","rechts","24","","fixation","","","",""
"714","img/90_300.png","74","image-keyboard-response","411","754629","0.0-6.0-1.202","LABU","2","f","rechts","24","","","object","j","90","true"
"null","<div style=""font-size:60px;"">+</div>","null","html-keyboard-response","412","755081","0.0-6.0-0.203","LABU","2","f","rechts","24","","fixation","","","",""
"874","img/L30_180.png","74","image-keyboard-response","413","755955","0.0-6.0-1.203","LABU","2","f","rechts","24","","","object","j","30","true"
"null","<div style=""font-size:60px;"">+</div>","null","html-keyboard-response","414","756257","0.0-6.0-0.204","LABU","2","f","rechts","24","","fixation","","","",""
"1231","img/120_270.png","74","image-keyboard-response","415","757488","0.0-6.0-1.204","LABU","2","f","rechts","24","","","object","j","120","true"
"null","<div style=""font-size:60px;"">+</div>","null","html-keyboard-response","416","757989","0.0-6.0-0.205","LABU","2","f","rechts","24","","fixation","","","",""
"724","img/90_30.png","70","image-keyboard-response","417","758715","0.0-6.0-1.205","LABU","2","f","rechts","24","","","object","f","90","true"
"null","<div style=""font-size:60px;"">+</div>","null","html-keyboard-response","418","759166","0.0-6.0-0.206","LABU","2","f","rechts","24","","fixation","","","",""
"894","img/60_270.png","70","image-keyboard-response","419","760061","0.0-6.0-1.206","LABU","2","f","rechts","24","","","object","f","60","true"
"null","<div style=""font-size:60px;"">+</div>","null","html-keyboard-response","420","760512","0.0-6.0-0.207","LABU","2","f","rechts","24","","fixation","","","",""
"734","img/0_90.png","74","image-keyboard-response","421","761247","0.0-6.0-1.207","LABU","2","f","rechts","24","","","object","j","0","true"
"8316","<p>Du hast in 87% der Versuche korrekt entschieden.</p><p>Deine durchschnittliche Reaktionszeit war  954ms.</p><p>Dr&uuml;cke eine beliebige Taste, um die Session zu beenden. Vielen Dank!</p>","75","html-keyboard-response","422","769565","0.0-7.0","LABU","2","f","rechts","24","","","","","",""
