"rt","stimulus","key_press","trial_type","trial_index","time_elapsed","internal_node_id","subject","session","sex","handedness","age","responses","test_part","condition","correct_response","angle","correct"
"2172","<p>Mental Rotation Experiment.</p> <p>Dr&uuml;cke eine beliebige Taste, um anzufangen.</p>","72","html-keyboard-response","0","2175","0.0-0.0","LABU","1","f","rechts","24","","","","","",""
"4389","","","survey-text","1","6565","0.0-1.0","LABU","1","f","rechts","24","{""Q0"":""LABU""}","","","","",""
"815","","","survey-text","2","7382","0.0-2.0","LABU","1","f","rechts","24","{""Q0"":""1""}","","","","",""
"9515","","","survey-multi-choice","3","16901","0.0-3.0","LABU","1","f","rechts","24","{""Q0"":""f"",""Q1"":""rechts""}","","","","",""
"2286","","","survey-text","4","19188","0.0-4.0","LABU","1","f","rechts","24","{""Q0"":""24""}","","","","",""
"18601","<p>Stell dir vor, dass du vor einem runden Tisch stehst, auf dem sich ein blauer Ball am Tischrand befindet. Entlang des Tischrands ist jeweils ein verschieden langer Pfeil. Nun bleibst du an deinem Platz vor dem Tisch und rotierst den Tisch entlang des Pfeils (gleiche Richtung und Länge). </p> <img src='img/30_180.png'></img> <br><p> Nachdem du diese (vorgestellte) Rotation durchgef&uuml;hrt hast, schau in Richtung der Tischmitte, und entscheide dann, ob der Ball links oder rechts von dir liegt.</p> <p>Dr&uuml;cke die <strong>'f'</strong>-Taste f&uuml;r links, die <strong>'j'</strong>-Taste f&uuml;r rechts.</p><br><p> Das Bild wird jeweils 1 Sekunde lang pr&auml;sentiert. Du hast 3 Sekunden Zeit eine Entscheidung zu treffen.</p>","70","html-keyboard-response","5","37791","0.0-5.0","LABU","1","f","rechts","24","","","","","",""
"null","<div style=""font-size:60px;"">+</div>","null","html-keyboard-response","6","39145","0.0-6.0-0.0","LABU","1","f","rechts","24","","fixation","","","",""
"1349","img/150_180.png","70","image-keyboard-response","7","40497","0.0-6.0-1.0","LABU","1","f","rechts","24","","","object","f","150","true"
"null","<div style=""font-size:60px;"">+</div>","null","html-keyboard-response","8","40949","0.0-6.0-0.1","LABU","1","f","rechts","24","","fixation","","","",""
"1278","img/60_150.png","74","image-keyboard-response","9","42229","0.0-6.0-1.1","LABU","1","f","rechts","24","","","object","j","60","true"
"null","<div style=""font-size:60px;"">+</div>","null","html-keyboard-response","10","42680","0.0-6.0-0.2","LABU","1","f","rechts","24","","fixation","","","",""
"839","img/30_90.png","70","image-keyboard-response","11","43521","0.0-6.0-1.2","LABU","1","f","rechts","24","","","object","j","30","false"
"null","<div style=""font-size:60px;"">+</div>","null","html-keyboard-response","12","43922","0.0-6.0-0.3","LABU","1","f","rechts","24","","fixation","","","",""
"1460","img/150_300.png","74","image-keyboard-response","13","45383","0.0-6.0-1.3","LABU","1","f","rechts","24","","","object","j","150","true"
"null","<div style=""font-size:60px;"">+</div>","null","html-keyboard-response","14","45734","0.0-6.0-0.4","LABU","1","f","rechts","24","","fixation","","","",""
"1177","img/L60_180.png","74","image-keyboard-response","15","46913","0.0-6.0-1.4","LABU","1","f","rechts","24","","","object","j","60","true"
"null","<div style=""font-size:60px;"">+</div>","null","html-keyboard-response","16","47315","0.0-6.0-0.5","LABU","1","f","rechts","24","","fixation","","","",""
"1076","img/0_120.png","74","image-keyboard-response","17","48392","0.0-6.0-1.5","LABU","1","f","rechts","24","","","object","j","0","true"
"null","<div style=""font-size:60px;"">+</div>","null","html-keyboard-response","18","48693","0.0-6.0-0.6","LABU","1","f","rechts","24","","fixation","","","",""
"1175","img/90_300.png","74","image-keyboard-response","19","49869","0.0-6.0-1.6","LABU","1","f","rechts","24","","","object","j","90","true"
"null","<div style=""font-size:60px;"">+</div>","null","html-keyboard-response","20","50171","0.0-6.0-0.7","LABU","1","f","rechts","24","","fixation","","","",""
"1072","img/120_180.png","70","image-keyboard-response","21","51244","0.0-6.0-1.7","LABU","1","f","rechts","24","","","object","f","120","true"
"null","<div style=""font-size:60px;"">+</div>","null","html-keyboard-response","22","51645","0.0-6.0-0.8","LABU","1","f","rechts","24","","fixation","","","",""
"1150","img/0_270.png","70","image-keyboard-response","23","52796","0.0-6.0-1.8","LABU","1","f","rechts","24","","","object","f","0","true"
"null","<div style=""font-size:60px;"">+</div>","null","html-keyboard-response","24","53148","0.0-6.0-0.9","LABU","1","f","rechts","24","","fixation","","","",""
"730","img/0_30.png","74","image-keyboard-response","25","53879","0.0-6.0-1.9","LABU","1","f","rechts","24","","","object","j","0","true"
"null","<div style=""font-size:60px;"">+</div>","null","html-keyboard-response","26","54281","0.0-6.0-0.10","LABU","1","f","rechts","24","","fixation","","","",""
"927","img/L150_180.png","74","image-keyboard-response","27","55209","0.0-6.0-1.10","LABU","1","f","rechts","24","","","object","j","150","true"
"null","<div style=""font-size:60px;"">+</div>","null","html-keyboard-response","28","55611","0.0-6.0-0.11","LABU","1","f","rechts","24","","fixation","","","",""
"1753","img/60_270.png","74","image-keyboard-response","29","57365","0.0-6.0-1.11","LABU","1","f","rechts","24","","","object","f","60","false"
"null","<div style=""font-size:60px;"">+</div>","null","html-keyboard-response","30","57667","0.0-6.0-0.12","LABU","1","f","rechts","24","","fixation","","","",""
"870","img/0_60.png","74","image-keyboard-response","31","58538","0.0-6.0-1.12","LABU","1","f","rechts","24","","","object","j","0","true"
"null","<div style=""font-size:60px;"">+</div>","null","html-keyboard-response","32","58890","0.0-6.0-0.13","LABU","1","f","rechts","24","","fixation","","","",""
"1295","img/120_330.png","74","image-keyboard-response","33","60186","0.0-6.0-1.13","LABU","1","f","rechts","24","","","object","j","120","true"
"null","<div style=""font-size:60px;"">+</div>","null","html-keyboard-response","34","60537","0.0-6.0-0.14","LABU","1","f","rechts","24","","fixation","","","",""
"755","img/90_330.png","74","image-keyboard-response","35","61293","0.0-6.0-1.14","LABU","1","f","rechts","24","","","object","j","90","true"
"null","<div style=""font-size:60px;"">+</div>","null","html-keyboard-response","36","61795","0.0-6.0-0.15","LABU","1","f","rechts","24","","fixation","","","",""
"1069","img/30_120.png","74","image-keyboard-response","37","62865","0.0-6.0-1.15","LABU","1","f","rechts","24","","","object","j","30","true"
"null","<div style=""font-size:60px;"">+</div>","null","html-keyboard-response","38","63367","0.0-6.0-0.16","LABU","1","f","rechts","24","","fixation","","","",""
"1327","img/150_270.png","70","image-keyboard-response","39","64695","0.0-6.0-1.16","LABU","1","f","rechts","24","","","object","j","150","false"
"null","<div style=""font-size:60px;"">+</div>","null","html-keyboard-response","40","65097","0.0-6.0-0.17","LABU","1","f","rechts","24","","fixation","","","",""
"1426","img/120_210.png","70","image-keyboard-response","41","66524","0.0-6.0-1.17","LABU","1","f","rechts","24","","","object","f","120","true"
"null","<div style=""font-size:60px;"">+</div>","null","html-keyboard-response","42","67026","0.0-6.0-0.18","LABU","1","f","rechts","24","","fixation","","","",""
"700","img/0_240.png","70","image-keyboard-response","43","67727","0.0-6.0-1.18","LABU","1","f","rechts","24","","","object","f","0","true"
"null","<div style=""font-size:60px;"">+</div>","null","html-keyboard-response","44","68179","0.0-6.0-0.19","LABU","1","f","rechts","24","","fixation","","","",""
"1089","img/90_180.png","70","image-keyboard-response","45","69269","0.0-6.0-1.19","LABU","1","f","rechts","24","","","object","f","90","true"
"null","<div style=""font-size:60px;"">+</div>","null","html-keyboard-response","46","69621","0.0-6.0-0.20","LABU","1","f","rechts","24","","fixation","","","",""
"1236","img/90_150.png","74","image-keyboard-response","47","70858","0.0-6.0-1.20","LABU","1","f","rechts","24","","","object","j","90","true"
"null","<div style=""font-size:60px;"">+</div>","null","html-keyboard-response","48","71160","0.0-6.0-0.21","LABU","1","f","rechts","24","","fixation","","","",""
"1303","img/30_270.png","74","image-keyboard-response","49","72464","0.0-6.0-1.21","LABU","1","f","rechts","24","","","object","f","30","false"
"null","<div style=""font-size:60px;"">+</div>","null","html-keyboard-response","50","72966","0.0-6.0-0.22","LABU","1","f","rechts","24","","fixation","","","",""
"1255","img/60_30.png","70","image-keyboard-response","51","74222","0.0-6.0-1.22","LABU","1","f","rechts","24","","","object","f","60","true"
"null","<div style=""font-size:60px;"">+</div>","null","html-keyboard-response","52","74574","0.0-6.0-0.23","LABU","1","f","rechts","24","","fixation","","","",""
"901","img/0_330.png","70","image-keyboard-response","53","75476","0.0-6.0-1.23","LABU","1","f","rechts","24","","","object","f","0","true"
"null","<div style=""font-size:60px;"">+</div>","null","html-keyboard-response","54","75977","0.0-6.0-0.24","LABU","1","f","rechts","24","","fixation","","","",""
"1072","img/60_330.png","74","image-keyboard-response","55","77051","0.0-6.0-1.24","LABU","1","f","rechts","24","","","object","j","60","true"
"null","<div style=""font-size:60px;"">+</div>","null","html-keyboard-response","56","77553","0.0-6.0-0.25","LABU","1","f","rechts","24","","fixation","","","",""
"1486","img/60_210.png","70","image-keyboard-response","57","79041","0.0-6.0-1.25","LABU","1","f","rechts","24","","","object","f","60","true"
"null","<div style=""font-size:60px;"">+</div>","null","html-keyboard-response","58","79342","0.0-6.0-0.26","LABU","1","f","rechts","24","","fixation","","","",""
"1586","img/L30_180.png","74","image-keyboard-response","59","80930","0.0-6.0-1.26","LABU","1","f","rechts","24","","","object","j","30","true"
"null","<div style=""font-size:60px;"">+</div>","null","html-keyboard-response","60","81432","0.0-6.0-0.27","LABU","1","f","rechts","24","","fixation","","","",""
"863","img/0_90.png","74","image-keyboard-response","61","82296","0.0-6.0-1.27","LABU","1","f","rechts","24","","","object","j","0","true"
"null","<div style=""font-size:60px;"">+</div>","null","html-keyboard-response","62","82648","0.0-6.0-0.28","LABU","1","f","rechts","24","","fixation","","","",""
"682","img/0_150.png","74","image-keyboard-response","63","83331","0.0-6.0-1.28","LABU","1","f","rechts","24","","","object","j","0","true"
"null","<div style=""font-size:60px;"">+</div>","null","html-keyboard-response","64","83732","0.0-6.0-0.29","LABU","1","f","rechts","24","","fixation","","","",""
"1156","img/90_120.png","74","image-keyboard-response","65","84891","0.0-6.0-1.29","LABU","1","f","rechts","24","","","object","j","90","true"
"null","<div style=""font-size:60px;"">+</div>","null","html-keyboard-response","66","85342","0.0-6.0-0.30","LABU","1","f","rechts","24","","fixation","","","",""
"1145","img/90_30.png","70","image-keyboard-response","67","86489","0.0-6.0-1.30","LABU","1","f","rechts","24","","","object","f","90","true"
"null","<div style=""font-size:60px;"">+</div>","null","html-keyboard-response","68","86840","0.0-6.0-0.31","LABU","1","f","rechts","24","","fixation","","","",""
"1637","img/60_180.png","70","image-keyboard-response","69","88480","0.0-6.0-1.31","LABU","1","f","rechts","24","","","object","f","60","true"
"null","<div style=""font-size:60px;"">+</div>","null","html-keyboard-response","70","88931","0.0-6.0-0.32","LABU","1","f","rechts","24","","fixation","","","",""
"1136","img/0_210.png","70","image-keyboard-response","71","90069","0.0-6.0-1.32","LABU","1","f","rechts","24","","","object","f","0","true"
"null","<div style=""font-size:60px;"">+</div>","null","html-keyboard-response","72","90371","0.0-6.0-0.33","LABU","1","f","rechts","24","","fixation","","","",""
"1591","img/90_210.png","70","image-keyboard-response","73","91964","0.0-6.0-1.33","LABU","1","f","rechts","24","","","object","f","90","true"
"null","<div style=""font-size:60px;"">+</div>","null","html-keyboard-response","74","92465","0.0-6.0-0.34","LABU","1","f","rechts","24","","fixation","","","",""
"1146","img/30_300.png","74","image-keyboard-response","75","93613","0.0-6.0-1.34","LABU","1","f","rechts","24","","","object","f","30","false"
"null","<div style=""font-size:60px;"">+</div>","null","html-keyboard-response","76","94064","0.0-6.0-0.35","LABU","1","f","rechts","24","","fixation","","","",""
"1565","img/90_240.png","70","image-keyboard-response","77","95632","0.0-6.0-1.35","LABU","1","f","rechts","24","","","object","f","90","true"
"null","<div style=""font-size:60px;"">+</div>","null","html-keyboard-response","78","96033","0.0-6.0-0.36","LABU","1","f","rechts","24","","fixation","","","",""
"1640","img/30_180.png","70","image-keyboard-response","79","97675","0.0-6.0-1.36","LABU","1","f","rechts","24","","","object","f","30","true"
"null","<div style=""font-size:60px;"">+</div>","null","html-keyboard-response","80","98026","0.0-6.0-0.37","LABU","1","f","rechts","24","","fixation","","","",""
"871","img/30_240.png","70","image-keyboard-response","81","98898","0.0-6.0-1.37","LABU","1","f","rechts","24","","","object","f","30","true"
"null","<div style=""font-size:60px;"">+</div>","null","html-keyboard-response","82","99200","0.0-6.0-0.38","LABU","1","f","rechts","24","","fixation","","","",""
"1241","img/150_120.png","74","image-keyboard-response","83","100442","0.0-6.0-1.38","LABU","1","f","rechts","24","","","object","f","150","false"
"null","<div style=""font-size:60px;"">+</div>","null","html-keyboard-response","84","100793","0.0-6.0-0.39","LABU","1","f","rechts","24","","fixation","","","",""
"962","img/150_60.png","70","image-keyboard-response","85","101757","0.0-6.0-1.39","LABU","1","f","rechts","24","","","object","f","150","true"
"null","<div style=""font-size:60px;"">+</div>","null","html-keyboard-response","86","102209","0.0-6.0-0.40","LABU","1","f","rechts","24","","fixation","","","",""
"1623","img/120_270.png","74","image-keyboard-response","87","103833","0.0-6.0-1.40","LABU","1","f","rechts","24","","","object","j","120","true"
"null","<div style=""font-size:60px;"">+</div>","null","html-keyboard-response","88","104335","0.0-6.0-0.41","LABU","1","f","rechts","24","","fixation","","","",""
"1296","img/30_60.png","70","image-keyboard-response","89","105632","0.0-6.0-1.41","LABU","1","f","rechts","24","","","object","j","30","false"
"null","<div style=""font-size:60px;"">+</div>","null","html-keyboard-response","90","105934","0.0-6.0-0.42","LABU","1","f","rechts","24","","fixation","","","",""
"1543","img/L120_180.png","74","image-keyboard-response","91","107478","0.0-6.0-1.42","LABU","1","f","rechts","24","","","object","j","120","true"
"null","<div style=""font-size:60px;"">+</div>","null","html-keyboard-response","92","107930","0.0-6.0-0.43","LABU","1","f","rechts","24","","fixation","","","",""
"1183","img/150_90.png","70","image-keyboard-response","93","109114","0.0-6.0-1.43","LABU","1","f","rechts","24","","","object","f","150","true"
"null","<div style=""font-size:60px;"">+</div>","null","html-keyboard-response","94","109616","0.0-6.0-0.44","LABU","1","f","rechts","24","","fixation","","","",""
"1223","img/60_90.png","74","image-keyboard-response","95","110840","0.0-6.0-1.44","LABU","1","f","rechts","24","","","object","j","60","true"
"null","<div style=""font-size:60px;"">+</div>","null","html-keyboard-response","96","111292","0.0-6.0-0.45","LABU","1","f","rechts","24","","fixation","","","",""
"1066","img/120_30.png","70","image-keyboard-response","97","112359","0.0-6.0-1.45","LABU","1","f","rechts","24","","","object","f","120","true"
"null","<div style=""font-size:60px;"">+</div>","null","html-keyboard-response","98","112661","0.0-6.0-0.46","LABU","1","f","rechts","24","","fixation","","","",""
"2329","img/L90_180.png","74","image-keyboard-response","99","114991","0.0-6.0-1.46","LABU","1","f","rechts","24","","","object","j","90","true"
"null","<div style=""font-size:60px;"">+</div>","null","html-keyboard-response","100","115343","0.0-6.0-0.47","LABU","1","f","rechts","24","","fixation","","","",""
"769","img/0_300.png","70","image-keyboard-response","101","116113","0.0-6.0-1.47","LABU","1","f","rechts","24","","","object","f","0","true"
"null","<div style=""font-size:60px;"">+</div>","null","html-keyboard-response","102","116515","0.0-6.0-0.48","LABU","1","f","rechts","24","","fixation","","","",""
"1180","img/90_60.png","70","image-keyboard-response","103","117696","0.0-6.0-1.48","LABU","1","f","rechts","24","","","object","f","90","true"
"null","<div style=""font-size:60px;"">+</div>","null","html-keyboard-response","104","118098","0.0-6.0-0.49","LABU","1","f","rechts","24","","fixation","","","",""
"1244","img/150_240.png","74","image-keyboard-response","105","119343","0.0-6.0-1.49","LABU","1","f","rechts","24","","","object","j","150","true"
"null","<div style=""font-size:60px;"">+</div>","null","html-keyboard-response","106","119845","0.0-6.0-0.50","LABU","1","f","rechts","24","","fixation","","","",""
"1073","img/120_90.png","74","image-keyboard-response","107","120919","0.0-6.0-1.50","LABU","1","f","rechts","24","","","object","f","120","false"
"null","<div style=""font-size:60px;"">+</div>","null","html-keyboard-response","108","121371","0.0-6.0-0.51","LABU","1","f","rechts","24","","fixation","","","",""
"1488","img/120_150.png","74","image-keyboard-response","109","122860","0.0-6.0-1.51","LABU","1","f","rechts","24","","","object","j","120","true"
"null","<div style=""font-size:60px;"">+</div>","null","html-keyboard-response","110","123162","0.0-6.0-0.52","LABU","1","f","rechts","24","","fixation","","","",""
"1091","img/120_330.png","74","image-keyboard-response","111","124254","0.0-6.0-1.52","LABU","1","f","rechts","24","","","object","j","120","true"
"null","<div style=""font-size:60px;"">+</div>","null","html-keyboard-response","112","124556","0.0-6.0-0.53","LABU","1","f","rechts","24","","fixation","","","",""
"660","img/0_270.png","70","image-keyboard-response","113","125216","0.0-6.0-1.53","LABU","1","f","rechts","24","","","object","f","0","true"
"null","<div style=""font-size:60px;"">+</div>","null","html-keyboard-response","114","125668","0.0-6.0-0.54","LABU","1","f","rechts","24","","fixation","","","",""
"930","img/60_330.png","74","image-keyboard-response","115","126598","0.0-6.0-1.54","LABU","1","f","rechts","24","","","object","j","60","true"
"null","<div style=""font-size:60px;"">+</div>","null","html-keyboard-response","116","127050","0.0-6.0-0.55","LABU","1","f","rechts","24","","fixation","","","",""
"825","img/0_330.png","70","image-keyboard-response","117","127875","0.0-6.0-1.55","LABU","1","f","rechts","24","","","object","f","0","true"
"null","<div style=""font-size:60px;"">+</div>","null","html-keyboard-response","118","128226","0.0-6.0-0.56","LABU","1","f","rechts","24","","fixation","","","",""
"1292","img/150_60.png","70","image-keyboard-response","119","129519","0.0-6.0-1.56","LABU","1","f","rechts","24","","","object","f","150","true"
"null","<div style=""font-size:60px;"">+</div>","null","html-keyboard-response","120","129871","0.0-6.0-0.57","LABU","1","f","rechts","24","","fixation","","","",""
"1076","img/150_120.png","70","image-keyboard-response","121","130947","0.0-6.0-1.57","LABU","1","f","rechts","24","","","object","f","150","true"
"null","<div style=""font-size:60px;"">+</div>","null","html-keyboard-response","122","131349","0.0-6.0-0.58","LABU","1","f","rechts","24","","fixation","","","",""
"1327","img/30_180.png","70","image-keyboard-response","123","132676","0.0-6.0-1.58","LABU","1","f","rechts","24","","","object","f","30","true"
"null","<div style=""font-size:60px;"">+</div>","null","html-keyboard-response","124","133078","0.0-6.0-0.59","LABU","1","f","rechts","24","","fixation","","","",""
"808","img/0_120.png","74","image-keyboard-response","125","133886","0.0-6.0-1.59","LABU","1","f","rechts","24","","","object","j","0","true"
"null","<div style=""font-size:60px;"">+</div>","null","html-keyboard-response","126","134388","0.0-6.0-0.60","LABU","1","f","rechts","24","","fixation","","","",""
"1685","img/120_210.png","70","image-keyboard-response","127","136073","0.0-6.0-1.60","LABU","1","f","rechts","24","","","object","f","120","true"
"null","<div style=""font-size:60px;"">+</div>","null","html-keyboard-response","128","136475","0.0-6.0-0.61","LABU","1","f","rechts","24","","fixation","","","",""
"1076","img/30_240.png","70","image-keyboard-response","129","137551","0.0-6.0-1.61","LABU","1","f","rechts","24","","","object","f","30","true"
"null","<div style=""font-size:60px;"">+</div>","null","html-keyboard-response","130","137853","0.0-6.0-0.62","LABU","1","f","rechts","24","","fixation","","","",""
"848","img/60_30.png","70","image-keyboard-response","131","138702","0.0-6.0-1.62","LABU","1","f","rechts","24","","","object","f","60","true"
"null","<div style=""font-size:60px;"">+</div>","null","html-keyboard-response","132","139204","0.0-6.0-0.63","LABU","1","f","rechts","24","","fixation","","","",""
"1847","img/L30_180.png","74","image-keyboard-response","133","141051","0.0-6.0-1.63","LABU","1","f","rechts","24","","","object","j","30","true"
"null","<div style=""font-size:60px;"">+</div>","null","html-keyboard-response","134","141403","0.0-6.0-0.64","LABU","1","f","rechts","24","","fixation","","","",""
"2430","img/90_150.png","70","image-keyboard-response","135","143834","0.0-6.0-1.64","LABU","1","f","rechts","24","","","object","j","90","false"
"null","<div style=""font-size:60px;"">+</div>","null","html-keyboard-response","136","144285","0.0-6.0-0.65","LABU","1","f","rechts","24","","fixation","","","",""
"1340","img/30_300.png","74","image-keyboard-response","137","145627","0.0-6.0-1.65","LABU","1","f","rechts","24","","","object","f","30","false"
"null","<div style=""font-size:60px;"">+</div>","null","html-keyboard-response","138","146128","0.0-6.0-0.66","LABU","1","f","rechts","24","","fixation","","","",""
"1572","img/90_30.png","70","image-keyboard-response","139","147701","0.0-6.0-1.66","LABU","1","f","rechts","24","","","object","f","90","true"
"null","<div style=""font-size:60px;"">+</div>","null","html-keyboard-response","140","148053","0.0-6.0-0.67","LABU","1","f","rechts","24","","fixation","","","",""
"1280","img/120_270.png","74","image-keyboard-response","141","149334","0.0-6.0-1.67","LABU","1","f","rechts","24","","","object","j","120","true"
"null","<div style=""font-size:60px;"">+</div>","null","html-keyboard-response","142","149736","0.0-6.0-0.68","LABU","1","f","rechts","24","","fixation","","","",""
"1322","img/60_180.png","70","image-keyboard-response","143","151058","0.0-6.0-1.68","LABU","1","f","rechts","24","","","object","f","60","true"
"null","<div style=""font-size:60px;"">+</div>","null","html-keyboard-response","144","151460","0.0-6.0-0.69","LABU","1","f","rechts","24","","fixation","","","",""
"1187","img/120_180.png","70","image-keyboard-response","145","152648","0.0-6.0-1.69","LABU","1","f","rechts","24","","","object","f","120","true"
"null","<div style=""font-size:60px;"">+</div>","null","html-keyboard-response","146","153050","0.0-6.0-0.70","LABU","1","f","rechts","24","","fixation","","","",""
"1410","img/90_180.png","70","image-keyboard-response","147","154461","0.0-6.0-1.70","LABU","1","f","rechts","24","","","object","f","90","true"
"null","<div style=""font-size:60px;"">+</div>","null","html-keyboard-response","148","154863","0.0-6.0-0.71","LABU","1","f","rechts","24","","fixation","","","",""
"1062","img/90_300.png","74","image-keyboard-response","149","155925","0.0-6.0-1.71","LABU","1","f","rechts","24","","","object","j","90","true"
"null","<div style=""font-size:60px;"">+</div>","null","html-keyboard-response","150","156277","0.0-6.0-0.72","LABU","1","f","rechts","24","","fixation","","","",""
"1486","img/L120_180.png","74","image-keyboard-response","151","157763","0.0-6.0-1.72","LABU","1","f","rechts","24","","","object","j","120","true"
"null","<div style=""font-size:60px;"">+</div>","null","html-keyboard-response","152","158215","0.0-6.0-0.73","LABU","1","f","rechts","24","","fixation","","","",""
"1245","img/30_60.png","74","image-keyboard-response","153","159461","0.0-6.0-1.73","LABU","1","f","rechts","24","","","object","j","30","true"
"null","<div style=""font-size:60px;"">+</div>","null","html-keyboard-response","154","159862","0.0-6.0-0.74","LABU","1","f","rechts","24","","fixation","","","",""
"1406","img/60_270.png","70","image-keyboard-response","155","161269","0.0-6.0-1.74","LABU","1","f","rechts","24","","","object","f","60","true"
"null","<div style=""font-size:60px;"">+</div>","null","html-keyboard-response","156","161671","0.0-6.0-0.75","LABU","1","f","rechts","24","","fixation","","","",""
"1434","img/120_150.png","70","image-keyboard-response","157","163105","0.0-6.0-1.75","LABU","1","f","rechts","24","","","object","j","120","false"
"null","<div style=""font-size:60px;"">+</div>","null","html-keyboard-response","158","163607","0.0-6.0-0.76","LABU","1","f","rechts","24","","fixation","","","",""
"1438","img/L60_180.png","74","image-keyboard-response","159","165045","0.0-6.0-1.76","LABU","1","f","rechts","24","","","object","j","60","true"
"null","<div style=""font-size:60px;"">+</div>","null","html-keyboard-response","160","165397","0.0-6.0-0.77","LABU","1","f","rechts","24","","fixation","","","",""
"1977","img/30_270.png","70","image-keyboard-response","161","167375","0.0-6.0-1.77","LABU","1","f","rechts","24","","","object","f","30","true"
"null","<div style=""font-size:60px;"">+</div>","null","html-keyboard-response","162","167677","0.0-6.0-0.78","LABU","1","f","rechts","24","","fixation","","","",""
"1684","img/L150_180.png","74","image-keyboard-response","163","169362","0.0-6.0-1.78","LABU","1","f","rechts","24","","","object","j","150","true"
"null","<div style=""font-size:60px;"">+</div>","null","html-keyboard-response","164","169864","0.0-6.0-0.79","LABU","1","f","rechts","24","","fixation","","","",""
"953","img/0_60.png","74","image-keyboard-response","165","170818","0.0-6.0-1.79","LABU","1","f","rechts","24","","","object","j","0","true"
"null","<div style=""font-size:60px;"">+</div>","null","html-keyboard-response","166","171320","0.0-6.0-0.80","LABU","1","f","rechts","24","","fixation","","","",""
"1364","img/90_240.png","70","image-keyboard-response","167","172684","0.0-6.0-1.80","LABU","1","f","rechts","24","","","object","f","90","true"
"null","<div style=""font-size:60px;"">+</div>","null","html-keyboard-response","168","173136","0.0-6.0-0.81","LABU","1","f","rechts","24","","fixation","","","",""
"1844","img/60_150.png","74","image-keyboard-response","169","174980","0.0-6.0-1.81","LABU","1","f","rechts","24","","","object","j","60","true"
"null","<div style=""font-size:60px;"">+</div>","null","html-keyboard-response","170","175381","0.0-6.0-0.82","LABU","1","f","rechts","24","","fixation","","","",""
"969","img/90_120.png","74","image-keyboard-response","171","176351","0.0-6.0-1.82","LABU","1","f","rechts","24","","","object","j","90","true"
"null","<div style=""font-size:60px;"">+</div>","null","html-keyboard-response","172","176853","0.0-6.0-0.83","LABU","1","f","rechts","24","","fixation","","","",""
"1218","img/120_90.png","70","image-keyboard-response","173","178071","0.0-6.0-1.83","LABU","1","f","rechts","24","","","object","f","120","true"
"null","<div style=""font-size:60px;"">+</div>","null","html-keyboard-response","174","178573","0.0-6.0-0.84","LABU","1","f","rechts","24","","fixation","","","",""
"1170","img/30_90.png","74","image-keyboard-response","175","179743","0.0-6.0-1.84","LABU","1","f","rechts","24","","","object","j","30","true"
"null","<div style=""font-size:60px;"">+</div>","null","html-keyboard-response","176","180245","0.0-6.0-0.85","LABU","1","f","rechts","24","","fixation","","","",""
"1426","img/150_300.png","74","image-keyboard-response","177","181671","0.0-6.0-1.85","LABU","1","f","rechts","24","","","object","j","150","true"
"null","<div style=""font-size:60px;"">+</div>","null","html-keyboard-response","178","182122","0.0-6.0-0.86","LABU","1","f","rechts","24","","fixation","","","",""
"1322","img/L90_180.png","74","image-keyboard-response","179","183445","0.0-6.0-1.86","LABU","1","f","rechts","24","","","object","j","90","true"
"null","<div style=""font-size:60px;"">+</div>","null","html-keyboard-response","180","183746","0.0-6.0-0.87","LABU","1","f","rechts","24","","fixation","","","",""
"1374","img/60_210.png","70","image-keyboard-response","181","185122","0.0-6.0-1.87","LABU","1","f","rechts","24","","","object","f","60","true"
"null","<div style=""font-size:60px;"">+</div>","null","html-keyboard-response","182","185623","0.0-6.0-0.88","LABU","1","f","rechts","24","","fixation","","","",""
"1064","img/90_330.png","74","image-keyboard-response","183","186688","0.0-6.0-1.88","LABU","1","f","rechts","24","","","object","j","90","true"
"null","<div style=""font-size:60px;"">+</div>","null","html-keyboard-response","184","187140","0.0-6.0-0.89","LABU","1","f","rechts","24","","fixation","","","",""
"859","img/120_30.png","70","image-keyboard-response","185","187999","0.0-6.0-1.89","LABU","1","f","rechts","24","","","object","f","120","true"
"null","<div style=""font-size:60px;"">+</div>","null","html-keyboard-response","186","188450","0.0-6.0-0.90","LABU","1","f","rechts","24","","fixation","","","",""
"1124","img/150_90.png","70","image-keyboard-response","187","189576","0.0-6.0-1.90","LABU","1","f","rechts","24","","","object","f","150","true"
"null","<div style=""font-size:60px;"">+</div>","null","html-keyboard-response","188","189877","0.0-6.0-0.91","LABU","1","f","rechts","24","","fixation","","","",""
"953","img/0_30.png","74","image-keyboard-response","189","190832","0.0-6.0-1.91","LABU","1","f","rechts","24","","","object","j","0","true"
"null","<div style=""font-size:60px;"">+</div>","null","html-keyboard-response","190","191133","0.0-6.0-0.92","LABU","1","f","rechts","24","","fixation","","","",""
"2038","img/150_180.png","70","image-keyboard-response","191","193173","0.0-6.0-1.92","LABU","1","f","rechts","24","","","object","f","150","true"
"null","<div style=""font-size:60px;"">+</div>","null","html-keyboard-response","192","193524","0.0-6.0-0.93","LABU","1","f","rechts","24","","fixation","","","",""
"1162","img/30_120.png","74","image-keyboard-response","193","194688","0.0-6.0-1.93","LABU","1","f","rechts","24","","","object","j","30","true"
"null","<div style=""font-size:60px;"">+</div>","null","html-keyboard-response","194","195089","0.0-6.0-0.94","LABU","1","f","rechts","24","","fixation","","","",""
"895","img/150_270.png","70","image-keyboard-response","195","195986","0.0-6.0-1.94","LABU","1","f","rechts","24","","","object","j","150","false"
"null","<div style=""font-size:60px;"">+</div>","null","html-keyboard-response","196","196287","0.0-6.0-0.95","LABU","1","f","rechts","24","","fixation","","","",""
"968","img/150_240.png","74","image-keyboard-response","197","197256","0.0-6.0-1.95","LABU","1","f","rechts","24","","","object","j","150","true"
"null","<div style=""font-size:60px;"">+</div>","null","html-keyboard-response","198","197708","0.0-6.0-0.96","LABU","1","f","rechts","24","","fixation","","","",""
"1665","img/60_90.png","70","image-keyboard-response","199","199375","0.0-6.0-1.96","LABU","1","f","rechts","24","","","object","j","60","false"
"null","<div style=""font-size:60px;"">+</div>","null","html-keyboard-response","200","199826","0.0-6.0-0.97","LABU","1","f","rechts","24","","fixation","","","",""
"1078","img/0_240.png","70","image-keyboard-response","201","200905","0.0-6.0-1.97","LABU","1","f","rechts","24","","","object","f","0","true"
"null","<div style=""font-size:60px;"">+</div>","null","html-keyboard-response","202","201206","0.0-6.0-0.98","LABU","1","f","rechts","24","","fixation","","","",""
"673","img/0_90.png","74","image-keyboard-response","203","201880","0.0-6.0-1.98","LABU","1","f","rechts","24","","","object","j","0","true"
"null","<div style=""font-size:60px;"">+</div>","null","html-keyboard-response","204","202182","0.0-6.0-0.99","LABU","1","f","rechts","24","","fixation","","","",""
"1009","img/90_60.png","70","image-keyboard-response","205","203193","0.0-6.0-1.99","LABU","1","f","rechts","24","","","object","f","90","true"
"null","<div style=""font-size:60px;"">+</div>","null","html-keyboard-response","206","203494","0.0-6.0-0.100","LABU","1","f","rechts","24","","fixation","","","",""
"1171","img/90_210.png","70","image-keyboard-response","207","204666","0.0-6.0-1.100","LABU","1","f","rechts","24","","","object","f","90","true"
"null","<div style=""font-size:60px;"">+</div>","null","html-keyboard-response","208","205168","0.0-6.0-0.101","LABU","1","f","rechts","24","","fixation","","","",""
"897","img/0_210.png","70","image-keyboard-response","209","206066","0.0-6.0-1.101","LABU","1","f","rechts","24","","","object","f","0","true"
"null","<div style=""font-size:60px;"">+</div>","null","html-keyboard-response","210","206368","0.0-6.0-0.102","LABU","1","f","rechts","24","","fixation","","","",""
"905","img/0_150.png","74","image-keyboard-response","211","207274","0.0-6.0-1.102","LABU","1","f","rechts","24","","","object","j","0","true"
"null","<div style=""font-size:60px;"">+</div>","null","html-keyboard-response","212","207676","0.0-6.0-0.103","LABU","1","f","rechts","24","","fixation","","","",""
"823","img/0_300.png","70","image-keyboard-response","213","208500","0.0-6.0-1.103","LABU","1","f","rechts","24","","","object","f","0","true"
"null","<div style=""font-size:60px;"">+</div>","null","html-keyboard-response","214","209002","0.0-6.0-0.104","LABU","1","f","rechts","24","","fixation","","","",""
"855","img/90_30.png","70","image-keyboard-response","215","209857","0.0-6.0-1.104","LABU","1","f","rechts","24","","","object","f","90","true"
"null","<div style=""font-size:60px;"">+</div>","null","html-keyboard-response","216","210359","0.0-6.0-0.105","LABU","1","f","rechts","24","","fixation","","","",""
"707","img/0_150.png","74","image-keyboard-response","217","211066","0.0-6.0-1.105","LABU","1","f","rechts","24","","","object","j","0","true"
"null","<div style=""font-size:60px;"">+</div>","null","html-keyboard-response","218","211418","0.0-6.0-0.106","LABU","1","f","rechts","24","","fixation","","","",""
"2272","img/L30_180.png","74","image-keyboard-response","219","213690","0.0-6.0-1.106","LABU","1","f","rechts","24","","","object","j","30","true"
"null","<div style=""font-size:60px;"">+</div>","null","html-keyboard-response","220","214042","0.0-6.0-0.107","LABU","1","f","rechts","24","","fixation","","","",""
"1162","img/150_120.png","70","image-keyboard-response","221","215204","0.0-6.0-1.107","LABU","1","f","rechts","24","","","object","f","150","true"
"null","<div style=""font-size:60px;"">+</div>","null","html-keyboard-response","222","215556","0.0-6.0-0.108","LABU","1","f","rechts","24","","fixation","","","",""
"1260","img/L120_180.png","74","image-keyboard-response","223","216816","0.0-6.0-1.108","LABU","1","f","rechts","24","","","object","j","120","true"
"null","<div style=""font-size:60px;"">+</div>","null","html-keyboard-response","224","217218","0.0-6.0-0.109","LABU","1","f","rechts","24","","fixation","","","",""
"1072","img/30_120.png","74","image-keyboard-response","225","218290","0.0-6.0-1.109","LABU","1","f","rechts","24","","","object","j","30","true"
"null","<div style=""font-size:60px;"">+</div>","null","html-keyboard-response","226","218792","0.0-6.0-0.110","LABU","1","f","rechts","24","","fixation","","","",""
"625","img/30_60.png","74","image-keyboard-response","227","219418","0.0-6.0-1.110","LABU","1","f","rechts","24","","","object","j","30","true"
"null","<div style=""font-size:60px;"">+</div>","null","html-keyboard-response","228","219719","0.0-6.0-0.111","LABU","1","f","rechts","24","","fixation","","","",""
"750","img/0_60.png","74","image-keyboard-response","229","220470","0.0-6.0-1.111","LABU","1","f","rechts","24","","","object","j","0","true"
"null","<div style=""font-size:60px;"">+</div>","null","html-keyboard-response","230","220872","0.0-6.0-0.112","LABU","1","f","rechts","24","","fixation","","","",""
"1314","img/60_270.png","74","image-keyboard-response","231","222186","0.0-6.0-1.112","LABU","1","f","rechts","24","","","object","f","60","false"
"null","<div style=""font-size:60px;"">+</div>","null","html-keyboard-response","232","222587","0.0-6.0-0.113","LABU","1","f","rechts","24","","fixation","","","",""
"775","img/0_210.png","70","image-keyboard-response","233","223363","0.0-6.0-1.113","LABU","1","f","rechts","24","","","object","f","0","true"
"null","<div style=""font-size:60px;"">+</div>","null","html-keyboard-response","234","223665","0.0-6.0-0.114","LABU","1","f","rechts","24","","fixation","","","",""
"1986","img/90_60.png","70","image-keyboard-response","235","225651","0.0-6.0-1.114","LABU","1","f","rechts","24","","","object","f","90","true"
"null","<div style=""font-size:60px;"">+</div>","null","html-keyboard-response","236","226002","0.0-6.0-0.115","LABU","1","f","rechts","24","","fixation","","","",""
"1538","img/60_30.png","70","image-keyboard-response","237","227541","0.0-6.0-1.115","LABU","1","f","rechts","24","","","object","f","60","true"
"null","<div style=""font-size:60px;"">+</div>","null","html-keyboard-response","238","227941","0.0-6.0-0.116","LABU","1","f","rechts","24","","fixation","","","",""
"1080","img/90_330.png","74","image-keyboard-response","239","229021","0.0-6.0-1.116","LABU","1","f","rechts","24","","","object","j","90","true"
"null","<div style=""font-size:60px;"">+</div>","null","html-keyboard-response","240","229422","0.0-6.0-0.117","LABU","1","f","rechts","24","","fixation","","","",""
"1936","img/L60_180.png","74","image-keyboard-response","241","231358","0.0-6.0-1.117","LABU","1","f","rechts","24","","","object","j","60","true"
"null","<div style=""font-size:60px;"">+</div>","null","html-keyboard-response","242","231760","0.0-6.0-0.118","LABU","1","f","rechts","24","","fixation","","","",""
"1314","img/150_300.png","74","image-keyboard-response","243","233074","0.0-6.0-1.118","LABU","1","f","rechts","24","","","object","j","150","true"
"null","<div style=""font-size:60px;"">+</div>","null","html-keyboard-response","244","233576","0.0-6.0-0.119","LABU","1","f","rechts","24","","fixation","","","",""
"1138","img/30_300.png","70","image-keyboard-response","245","234714","0.0-6.0-1.119","LABU","1","f","rechts","24","","","object","f","30","true"
"null","<div style=""font-size:60px;"">+</div>","null","html-keyboard-response","246","235015","0.0-6.0-0.120","LABU","1","f","rechts","24","","fixation","","","",""
"835","img/120_330.png","74","image-keyboard-response","247","235851","0.0-6.0-1.120","LABU","1","f","rechts","24","","","object","j","120","true"
"null","<div style=""font-size:60px;"">+</div>","null","html-keyboard-response","248","236302","0.0-6.0-0.121","LABU","1","f","rechts","24","","fixation","","","",""
"1461","img/90_180.png","70","image-keyboard-response","249","237764","0.0-6.0-1.121","LABU","1","f","rechts","24","","","object","f","90","true"
"null","<div style=""font-size:60px;"">+</div>","null","html-keyboard-response","250","238116","0.0-6.0-0.122","LABU","1","f","rechts","24","","fixation","","","",""
"898","img/0_240.png","70","image-keyboard-response","251","239015","0.0-6.0-1.122","LABU","1","f","rechts","24","","","object","f","0","true"
"null","<div style=""font-size:60px;"">+</div>","null","html-keyboard-response","252","239366","0.0-6.0-0.123","LABU","1","f","rechts","24","","fixation","","","",""
"1117","img/30_240.png","74","image-keyboard-response","253","240485","0.0-6.0-1.123","LABU","1","f","rechts","24","","","object","f","30","false"
"null","<div style=""font-size:60px;"">+</div>","null","html-keyboard-response","254","240986","0.0-6.0-0.124","LABU","1","f","rechts","24","","fixation","","","",""
"1409","img/150_270.png","74","image-keyboard-response","255","242397","0.0-6.0-1.124","LABU","1","f","rechts","24","","","object","j","150","true"
"null","<div style=""font-size:60px;"">+</div>","null","html-keyboard-response","256","242798","0.0-6.0-0.125","LABU","1","f","rechts","24","","fixation","","","",""
"1129","img/150_180.png","70","image-keyboard-response","257","243929","0.0-6.0-1.125","LABU","1","f","rechts","24","","","object","f","150","true"
"null","<div style=""font-size:60px;"">+</div>","null","html-keyboard-response","258","244230","0.0-6.0-0.126","LABU","1","f","rechts","24","","fixation","","","",""
"1243","img/120_270.png","74","image-keyboard-response","259","245474","0.0-6.0-1.126","LABU","1","f","rechts","24","","","object","j","120","true"
"null","<div style=""font-size:60px;"">+</div>","null","html-keyboard-response","260","245926","0.0-6.0-0.127","LABU","1","f","rechts","24","","fixation","","","",""
"1180","img/30_270.png","70","image-keyboard-response","261","247107","0.0-6.0-1.127","LABU","1","f","rechts","24","","","object","f","30","true"
"null","<div style=""font-size:60px;"">+</div>","null","html-keyboard-response","262","247559","0.0-6.0-0.128","LABU","1","f","rechts","24","","fixation","","","",""
"1183","img/120_180.png","70","image-keyboard-response","263","248743","0.0-6.0-1.128","LABU","1","f","rechts","24","","","object","f","120","true"
"null","<div style=""font-size:60px;"">+</div>","null","html-keyboard-response","264","249095","0.0-6.0-0.129","LABU","1","f","rechts","24","","fixation","","","",""
"1073","img/90_300.png","74","image-keyboard-response","265","250168","0.0-6.0-1.129","LABU","1","f","rechts","24","","","object","j","90","true"
"null","<div style=""font-size:60px;"">+</div>","null","html-keyboard-response","266","250670","0.0-6.0-0.130","LABU","1","f","rechts","24","","fixation","","","",""
"1176","img/60_210.png","70","image-keyboard-response","267","251847","0.0-6.0-1.130","LABU","1","f","rechts","24","","","object","f","60","true"
"null","<div style=""font-size:60px;"">+</div>","null","html-keyboard-response","268","252299","0.0-6.0-0.131","LABU","1","f","rechts","24","","fixation","","","",""
"926","img/0_90.png","74","image-keyboard-response","269","253226","0.0-6.0-1.131","LABU","1","f","rechts","24","","","object","j","0","true"
"null","<div style=""font-size:60px;"">+</div>","null","html-keyboard-response","270","253528","0.0-6.0-0.132","LABU","1","f","rechts","24","","fixation","","","",""
"1413","img/120_150.png","74","image-keyboard-response","271","254942","0.0-6.0-1.132","LABU","1","f","rechts","24","","","object","j","120","true"
"null","<div style=""font-size:60px;"">+</div>","null","html-keyboard-response","272","255394","0.0-6.0-0.133","LABU","1","f","rechts","24","","fixation","","","",""
"1111","img/150_240.png","70","image-keyboard-response","273","256506","0.0-6.0-1.133","LABU","1","f","rechts","24","","","object","j","150","false"
"null","<div style=""font-size:60px;"">+</div>","null","html-keyboard-response","274","256858","0.0-6.0-0.134","LABU","1","f","rechts","24","","fixation","","","",""
"1409","img/90_240.png","70","image-keyboard-response","275","258268","0.0-6.0-1.134","LABU","1","f","rechts","24","","","object","f","90","true"
"null","<div style=""font-size:60px;"">+</div>","null","html-keyboard-response","276","258720","0.0-6.0-0.135","LABU","1","f","rechts","24","","fixation","","","",""
"1043","img/60_150.png","74","image-keyboard-response","277","259763","0.0-6.0-1.135","LABU","1","f","rechts","24","","","object","j","60","true"
"null","<div style=""font-size:60px;"">+</div>","null","html-keyboard-response","278","260265","0.0-6.0-0.136","LABU","1","f","rechts","24","","fixation","","","",""
"990","img/120_30.png","70","image-keyboard-response","279","261256","0.0-6.0-1.136","LABU","1","f","rechts","24","","","object","f","120","true"
"null","<div style=""font-size:60px;"">+</div>","null","html-keyboard-response","280","261658","0.0-6.0-0.137","LABU","1","f","rechts","24","","fixation","","","",""
"1149","img/120_90.png","70","image-keyboard-response","281","262808","0.0-6.0-1.137","LABU","1","f","rechts","24","","","object","f","120","true"
"null","<div style=""font-size:60px;"">+</div>","null","html-keyboard-response","282","263110","0.0-6.0-0.138","LABU","1","f","rechts","24","","fixation","","","",""
"1076","img/60_330.png","74","image-keyboard-response","283","264186","0.0-6.0-1.138","LABU","1","f","rechts","24","","","object","j","60","true"
"null","<div style=""font-size:60px;"">+</div>","null","html-keyboard-response","284","264487","0.0-6.0-0.139","LABU","1","f","rechts","24","","fixation","","","",""
"2000","img/L150_180.png","74","image-keyboard-response","285","266488","0.0-6.0-1.139","LABU","1","f","rechts","24","","","object","j","150","true"
"null","<div style=""font-size:60px;"">+</div>","null","html-keyboard-response","286","266940","0.0-6.0-0.140","LABU","1","f","rechts","24","","fixation","","","",""
"931","img/90_210.png","70","image-keyboard-response","287","267872","0.0-6.0-1.140","LABU","1","f","rechts","24","","","object","f","90","true"
"null","<div style=""font-size:60px;"">+</div>","null","html-keyboard-response","288","268223","0.0-6.0-0.141","LABU","1","f","rechts","24","","fixation","","","",""
"836","img/90_150.png","74","image-keyboard-response","289","269060","0.0-6.0-1.141","LABU","1","f","rechts","24","","","object","j","90","true"
"null","<div style=""font-size:60px;"">+</div>","null","html-keyboard-response","290","269362","0.0-6.0-0.142","LABU","1","f","rechts","24","","fixation","","","",""
"674","img/0_300.png","70","image-keyboard-response","291","270036","0.0-6.0-1.142","LABU","1","f","rechts","24","","","object","f","0","true"
"null","<div style=""font-size:60px;"">+</div>","null","html-keyboard-response","292","270388","0.0-6.0-0.143","LABU","1","f","rechts","24","","fixation","","","",""
"513","img/0_30.png","74","image-keyboard-response","293","270901","0.0-6.0-1.143","LABU","1","f","rechts","24","","","object","j","0","true"
"null","<div style=""font-size:60px;"">+</div>","null","html-keyboard-response","294","271403","0.0-6.0-0.144","LABU","1","f","rechts","24","","fixation","","","",""
"891","img/60_180.png","70","image-keyboard-response","295","272294","0.0-6.0-1.144","LABU","1","f","rechts","24","","","object","f","60","true"
"null","<div style=""font-size:60px;"">+</div>","null","html-keyboard-response","296","272595","0.0-6.0-0.145","LABU","1","f","rechts","24","","fixation","","","",""
"1066","img/90_120.png","74","image-keyboard-response","297","273662","0.0-6.0-1.145","LABU","1","f","rechts","24","","","object","j","90","true"
"null","<div style=""font-size:60px;"">+</div>","null","html-keyboard-response","298","274114","0.0-6.0-0.146","LABU","1","f","rechts","24","","fixation","","","",""
"761","img/0_120.png","74","image-keyboard-response","299","274875","0.0-6.0-1.146","LABU","1","f","rechts","24","","","object","j","0","true"
"null","<div style=""font-size:60px;"">+</div>","null","html-keyboard-response","300","275377","0.0-6.0-0.147","LABU","1","f","rechts","24","","fixation","","","",""
"1074","img/150_90.png","70","image-keyboard-response","301","276451","0.0-6.0-1.147","LABU","1","f","rechts","24","","","object","f","150","true"
"null","<div style=""font-size:60px;"">+</div>","null","html-keyboard-response","302","276852","0.0-6.0-0.148","LABU","1","f","rechts","24","","fixation","","","",""
"967","img/120_210.png","74","image-keyboard-response","303","277820","0.0-6.0-1.148","LABU","1","f","rechts","24","","","object","f","120","false"
"null","<div style=""font-size:60px;"">+</div>","null","html-keyboard-response","304","278222","0.0-6.0-0.149","LABU","1","f","rechts","24","","fixation","","","",""
"1234","img/0_270.png","70","image-keyboard-response","305","279456","0.0-6.0-1.149","LABU","1","f","rechts","24","","","object","f","0","true"
"null","<div style=""font-size:60px;"">+</div>","null","html-keyboard-response","306","279807","0.0-6.0-0.150","LABU","1","f","rechts","24","","fixation","","","",""
"1233","img/150_60.png","74","image-keyboard-response","307","281041","0.0-6.0-1.150","LABU","1","f","rechts","24","","","object","f","150","false"
"null","<div style=""font-size:60px;"">+</div>","null","html-keyboard-response","308","281442","0.0-6.0-0.151","LABU","1","f","rechts","24","","fixation","","","",""
"998","img/L90_180.png","74","image-keyboard-response","309","282442","0.0-6.0-1.151","LABU","1","f","rechts","24","","","object","j","90","true"
"null","<div style=""font-size:60px;"">+</div>","null","html-keyboard-response","310","282893","0.0-6.0-0.152","LABU","1","f","rechts","24","","fixation","","","",""
"1170","img/30_180.png","70","image-keyboard-response","311","284065","0.0-6.0-1.152","LABU","1","f","rechts","24","","","object","f","30","true"
"null","<div style=""font-size:60px;"">+</div>","null","html-keyboard-response","312","284516","0.0-6.0-0.153","LABU","1","f","rechts","24","","fixation","","","",""
"1078","img/30_90.png","74","image-keyboard-response","313","285596","0.0-6.0-1.153","LABU","1","f","rechts","24","","","object","j","30","true"
"null","<div style=""font-size:60px;"">+</div>","null","html-keyboard-response","314","285997","0.0-6.0-0.154","LABU","1","f","rechts","24","","fixation","","","",""
"1064","img/0_330.png","70","image-keyboard-response","315","287062","0.0-6.0-1.154","LABU","1","f","rechts","24","","","object","f","0","true"
"null","<div style=""font-size:60px;"">+</div>","null","html-keyboard-response","316","287463","0.0-6.0-0.155","LABU","1","f","rechts","24","","fixation","","","",""
"1066","img/60_90.png","74","image-keyboard-response","317","288530","0.0-6.0-1.155","LABU","1","f","rechts","24","","","object","j","60","true"
"null","<div style=""font-size:60px;"">+</div>","null","html-keyboard-response","318","288882","0.0-6.0-0.156","LABU","1","f","rechts","24","","fixation","","","",""
"782","img/0_60.png","74","image-keyboard-response","319","289666","0.0-6.0-1.156","LABU","1","f","rechts","24","","","object","j","0","true"
"null","<div style=""font-size:60px;"">+</div>","null","html-keyboard-response","320","290067","0.0-6.0-0.157","LABU","1","f","rechts","24","","fixation","","","",""
"728","img/150_180.png","70","image-keyboard-response","321","290797","0.0-6.0-1.157","LABU","1","f","rechts","24","","","object","f","150","true"
"null","<div style=""font-size:60px;"">+</div>","null","html-keyboard-response","322","291098","0.0-6.0-0.158","LABU","1","f","rechts","24","","fixation","","","",""
"1217","img/30_90.png","70","image-keyboard-response","323","292316","0.0-6.0-1.158","LABU","1","f","rechts","24","","","object","j","30","false"
"null","<div style=""font-size:60px;"">+</div>","null","html-keyboard-response","324","292618","0.0-6.0-0.159","LABU","1","f","rechts","24","","fixation","","","",""
"946","img/30_240.png","70","image-keyboard-response","325","293565","0.0-6.0-1.159","LABU","1","f","rechts","24","","","object","f","30","true"
"null","<div style=""font-size:60px;"">+</div>","null","html-keyboard-response","326","294017","0.0-6.0-0.160","LABU","1","f","rechts","24","","fixation","","","",""
"1265","img/L30_180.png","70","image-keyboard-response","327","295284","0.0-6.0-1.160","LABU","1","f","rechts","24","","","object","j","30","false"
"null","<div style=""font-size:60px;"">+</div>","null","html-keyboard-response","328","295685","0.0-6.0-0.161","LABU","1","f","rechts","24","","fixation","","","",""
"2097","img/30_120.png","70","image-keyboard-response","329","297784","0.0-6.0-1.161","LABU","1","f","rechts","24","","","object","j","30","false"
"null","<div style=""font-size:60px;"">+</div>","null","html-keyboard-response","330","298235","0.0-6.0-0.162","LABU","1","f","rechts","24","","fixation","","","",""
"2031","img/120_270.png","74","image-keyboard-response","331","300266","0.0-6.0-1.162","LABU","1","f","rechts","24","","","object","j","120","true"
"null","<div style=""font-size:60px;"">+</div>","null","html-keyboard-response","332","300568","0.0-6.0-0.163","LABU","1","f","rechts","24","","fixation","","","",""
"845","img/0_330.png","70","image-keyboard-response","333","301414","0.0-6.0-1.163","LABU","1","f","rechts","24","","","object","f","0","true"
"null","<div style=""font-size:60px;"">+</div>","null","html-keyboard-response","334","301916","0.0-6.0-0.164","LABU","1","f","rechts","24","","fixation","","","",""
"1249","img/120_180.png","70","image-keyboard-response","335","303166","0.0-6.0-1.164","LABU","1","f","rechts","24","","","object","f","120","true"
"null","<div style=""font-size:60px;"">+</div>","null","html-keyboard-response","336","303668","0.0-6.0-0.165","LABU","1","f","rechts","24","","fixation","","","",""
"1819","img/60_150.png","74","image-keyboard-response","337","305488","0.0-6.0-1.165","LABU","1","f","rechts","24","","","object","j","60","true"
"null","<div style=""font-size:60px;"">+</div>","null","html-keyboard-response","338","305990","0.0-6.0-0.166","LABU","1","f","rechts","24","","fixation","","","",""
"1077","img/60_210.png","70","image-keyboard-response","339","307068","0.0-6.0-1.166","LABU","1","f","rechts","24","","","object","f","60","true"
"null","<div style=""font-size:60px;"">+</div>","null","html-keyboard-response","340","307570","0.0-6.0-0.167","LABU","1","f","rechts","24","","fixation","","","",""
"1632","img/150_90.png","70","image-keyboard-response","341","309203","0.0-6.0-1.167","LABU","1","f","rechts","24","","","object","f","150","true"
"null","<div style=""font-size:60px;"">+</div>","null","html-keyboard-response","342","309655","0.0-6.0-0.168","LABU","1","f","rechts","24","","fixation","","","",""
"1214","img/L120_180.png","74","image-keyboard-response","343","310870","0.0-6.0-1.168","LABU","1","f","rechts","24","","","object","j","120","true"
"null","<div style=""font-size:60px;"">+</div>","null","html-keyboard-response","344","311221","0.0-6.0-0.169","LABU","1","f","rechts","24","","fixation","","","",""
"1774","img/150_270.png","74","image-keyboard-response","345","312996","0.0-6.0-1.169","LABU","1","f","rechts","24","","","object","j","150","true"
"null","<div style=""font-size:60px;"">+</div>","null","html-keyboard-response","346","313348","0.0-6.0-0.170","LABU","1","f","rechts","24","","fixation","","","",""
"1228","img/120_210.png","70","image-keyboard-response","347","314577","0.0-6.0-1.170","LABU","1","f","rechts","24","","","object","f","120","true"
"null","<div style=""font-size:60px;"">+</div>","null","html-keyboard-response","348","314929","0.0-6.0-0.171","LABU","1","f","rechts","24","","fixation","","","",""
"806","img/0_270.png","70","image-keyboard-response","349","315736","0.0-6.0-1.171","LABU","1","f","rechts","24","","","object","f","0","true"
"null","<div style=""font-size:60px;"">+</div>","null","html-keyboard-response","350","316238","0.0-6.0-0.172","LABU","1","f","rechts","24","","fixation","","","",""
"966","img/90_300.png","74","image-keyboard-response","351","317205","0.0-6.0-1.172","LABU","1","f","rechts","24","","","object","j","90","true"
"null","<div style=""font-size:60px;"">+</div>","null","html-keyboard-response","352","317507","0.0-6.0-0.173","LABU","1","f","rechts","24","","fixation","","","",""
"1113","img/30_180.png","70","image-keyboard-response","353","318621","0.0-6.0-1.173","LABU","1","f","rechts","24","","","object","f","30","true"
"null","<div style=""font-size:60px;"">+</div>","null","html-keyboard-response","354","318923","0.0-6.0-0.174","LABU","1","f","rechts","24","","fixation","","","",""
"1302","img/150_120.png","74","image-keyboard-response","355","320225","0.0-6.0-1.174","LABU","1","f","rechts","24","","","object","f","150","false"
"null","<div style=""font-size:60px;"">+</div>","null","html-keyboard-response","356","320627","0.0-6.0-0.175","LABU","1","f","rechts","24","","fixation","","","",""
"1103","img/60_270.png","74","image-keyboard-response","357","321730","0.0-6.0-1.175","LABU","1","f","rechts","24","","","object","f","60","false"
"null","<div style=""font-size:60px;"">+</div>","null","html-keyboard-response","358","322182","0.0-6.0-0.176","LABU","1","f","rechts","24","","fixation","","","",""
"1009","img/60_180.png","70","image-keyboard-response","359","323192","0.0-6.0-1.176","LABU","1","f","rechts","24","","","object","f","60","true"
"null","<div style=""font-size:60px;"">+</div>","null","html-keyboard-response","360","323544","0.0-6.0-0.177","LABU","1","f","rechts","24","","fixation","","","",""
"1464","img/150_240.png","74","image-keyboard-response","361","325009","0.0-6.0-1.177","LABU","1","f","rechts","24","","","object","j","150","true"
"null","<div style=""font-size:60px;"">+</div>","null","html-keyboard-response","362","325310","0.0-6.0-0.178","LABU","1","f","rechts","24","","fixation","","","",""
"1487","img/120_90.png","70","image-keyboard-response","363","326798","0.0-6.0-1.178","LABU","1","f","rechts","24","","","object","f","120","true"
"null","<div style=""font-size:60px;"">+</div>","null","html-keyboard-response","364","327299","0.0-6.0-0.179","LABU","1","f","rechts","24","","fixation","","","",""
"727","img/0_210.png","70","image-keyboard-response","365","328027","0.0-6.0-1.179","LABU","1","f","rechts","24","","","object","f","0","true"
"null","<div style=""font-size:60px;"">+</div>","null","html-keyboard-response","366","328429","0.0-6.0-0.180","LABU","1","f","rechts","24","","fixation","","","",""
"1136","img/30_270.png","70","image-keyboard-response","367","329565","0.0-6.0-1.180","LABU","1","f","rechts","24","","","object","f","30","true"
"null","<div style=""font-size:60px;"">+</div>","null","html-keyboard-response","368","329917","0.0-6.0-0.181","LABU","1","f","rechts","24","","fixation","","","",""
"1315","img/L150_180.png","74","image-keyboard-response","369","331232","0.0-6.0-1.181","LABU","1","f","rechts","24","","","object","j","150","true"
"null","<div style=""font-size:60px;"">+</div>","null","html-keyboard-response","370","331534","0.0-6.0-0.182","LABU","1","f","rechts","24","","fixation","","","",""
"1650","img/150_300.png","74","image-keyboard-response","371","333184","0.0-6.0-1.182","LABU","1","f","rechts","24","","","object","j","150","true"
"null","<div style=""font-size:60px;"">+</div>","null","html-keyboard-response","372","333486","0.0-6.0-0.183","LABU","1","f","rechts","24","","fixation","","","",""
"1295","img/90_150.png","74","image-keyboard-response","373","334781","0.0-6.0-1.183","LABU","1","f","rechts","24","","","object","j","90","true"
"null","<div style=""font-size:60px;"">+</div>","null","html-keyboard-response","374","335232","0.0-6.0-0.184","LABU","1","f","rechts","24","","fixation","","","",""
"1205","img/60_90.png","74","image-keyboard-response","375","336439","0.0-6.0-1.184","LABU","1","f","rechts","24","","","object","j","60","true"
"null","<div style=""font-size:60px;"">+</div>","null","html-keyboard-response","376","336790","0.0-6.0-0.185","LABU","1","f","rechts","24","","fixation","","","",""
"1079","img/90_240.png","70","image-keyboard-response","377","337871","0.0-6.0-1.185","LABU","1","f","rechts","24","","","object","f","90","true"
"null","<div style=""font-size:60px;"">+</div>","null","html-keyboard-response","378","338272","0.0-6.0-0.186","LABU","1","f","rechts","24","","fixation","","","",""
"796","img/0_120.png","74","image-keyboard-response","379","339070","0.0-6.0-1.186","LABU","1","f","rechts","24","","","object","j","0","true"
"null","<div style=""font-size:60px;"">+</div>","null","html-keyboard-response","380","339521","0.0-6.0-0.187","LABU","1","f","rechts","24","","fixation","","","",""
"1059","img/60_30.png","70","image-keyboard-response","381","340582","0.0-6.0-1.187","LABU","1","f","rechts","24","","","object","f","60","true"
"null","<div style=""font-size:60px;"">+</div>","null","html-keyboard-response","382","340983","0.0-6.0-0.188","LABU","1","f","rechts","24","","fixation","","","",""
"731","img/60_330.png","74","image-keyboard-response","383","341716","0.0-6.0-1.188","LABU","1","f","rechts","24","","","object","j","60","true"
"null","<div style=""font-size:60px;"">+</div>","null","html-keyboard-response","384","342117","0.0-6.0-0.189","LABU","1","f","rechts","24","","fixation","","","",""
"1079","img/120_330.png","74","image-keyboard-response","385","343197","0.0-6.0-1.189","LABU","1","f","rechts","24","","","object","j","120","true"
"null","<div style=""font-size:60px;"">+</div>","null","html-keyboard-response","386","343549","0.0-6.0-0.190","LABU","1","f","rechts","24","","fixation","","","",""
"1065","img/90_180.png","70","image-keyboard-response","387","344615","0.0-6.0-1.190","LABU","1","f","rechts","24","","","object","f","90","true"
"null","<div style=""font-size:60px;"">+</div>","null","html-keyboard-response","388","345016","0.0-6.0-0.191","LABU","1","f","rechts","24","","fixation","","","",""
"1199","img/30_60.png","74","image-keyboard-response","389","346216","0.0-6.0-1.191","LABU","1","f","rechts","24","","","object","j","30","true"
"null","<div style=""font-size:60px;"">+</div>","null","html-keyboard-response","390","346668","0.0-6.0-0.192","LABU","1","f","rechts","24","","fixation","","","",""
"896","img/30_300.png","70","image-keyboard-response","391","347566","0.0-6.0-1.192","LABU","1","f","rechts","24","","","object","f","30","true"
"null","<div style=""font-size:60px;"">+</div>","null","html-keyboard-response","392","347917","0.0-6.0-0.193","LABU","1","f","rechts","24","","fixation","","","",""
"1137","img/90_60.png","74","image-keyboard-response","393","349055","0.0-6.0-1.193","LABU","1","f","rechts","24","","","object","f","90","false"
"null","<div style=""font-size:60px;"">+</div>","null","html-keyboard-response","394","349507","0.0-6.0-0.194","LABU","1","f","rechts","24","","fixation","","","",""
"1539","img/90_210.png","70","image-keyboard-response","395","351047","0.0-6.0-1.194","LABU","1","f","rechts","24","","","object","f","90","true"
"null","<div style=""font-size:60px;"">+</div>","null","html-keyboard-response","396","351399","0.0-6.0-0.195","LABU","1","f","rechts","24","","fixation","","","",""
"1419","img/120_150.png","74","image-keyboard-response","397","352819","0.0-6.0-1.195","LABU","1","f","rechts","24","","","object","j","120","true"
"null","<div style=""font-size:60px;"">+</div>","null","html-keyboard-response","398","353171","0.0-6.0-0.196","LABU","1","f","rechts","24","","fixation","","","",""
"813","img/0_30.png","74","image-keyboard-response","399","353985","0.0-6.0-1.196","LABU","1","f","rechts","24","","","object","j","0","true"
"null","<div style=""font-size:60px;"">+</div>","null","html-keyboard-response","400","354287","0.0-6.0-0.197","LABU","1","f","rechts","24","","fixation","","","",""
"1966","img/L60_180.png","74","image-keyboard-response","401","356254","0.0-6.0-1.197","LABU","1","f","rechts","24","","","object","j","60","true"
"null","<div style=""font-size:60px;"">+</div>","null","html-keyboard-response","402","356706","0.0-6.0-0.198","LABU","1","f","rechts","24","","fixation","","","",""
"931","img/90_330.png","70","image-keyboard-response","403","357637","0.0-6.0-1.198","LABU","1","f","rechts","24","","","object","j","90","false"
"null","<div style=""font-size:60px;"">+</div>","null","html-keyboard-response","404","358089","0.0-6.0-0.199","LABU","1","f","rechts","24","","fixation","","","",""
"973","img/0_150.png","74","image-keyboard-response","405","359063","0.0-6.0-1.199","LABU","1","f","rechts","24","","","object","j","0","true"
"null","<div style=""font-size:60px;"">+</div>","null","html-keyboard-response","406","359415","0.0-6.0-0.200","LABU","1","f","rechts","24","","fixation","","","",""
"1139","img/120_30.png","70","image-keyboard-response","407","360555","0.0-6.0-1.200","LABU","1","f","rechts","24","","","object","f","120","true"
"null","<div style=""font-size:60px;"">+</div>","null","html-keyboard-response","408","361057","0.0-6.0-0.201","LABU","1","f","rechts","24","","fixation","","","",""
"674","img/0_240.png","70","image-keyboard-response","409","361732","0.0-6.0-1.201","LABU","1","f","rechts","24","","","object","f","0","true"
"null","<div style=""font-size:60px;"">+</div>","null","html-keyboard-response","410","362234","0.0-6.0-0.202","LABU","1","f","rechts","24","","fixation","","","",""
"737","img/0_90.png","74","image-keyboard-response","411","362972","0.0-6.0-1.202","LABU","1","f","rechts","24","","","object","j","0","true"
"null","<div style=""font-size:60px;"">+</div>","null","html-keyboard-response","412","363474","0.0-6.0-0.203","LABU","1","f","rechts","24","","fixation","","","",""
"1066","img/90_120.png","74","image-keyboard-response","413","364541","0.0-6.0-1.203","LABU","1","f","rechts","24","","","object","j","90","true"
"null","<div style=""font-size:60px;"">+</div>","null","html-keyboard-response","414","365042","0.0-6.0-0.204","LABU","1","f","rechts","24","","fixation","","","",""
"1070","img/L90_180.png","74","image-keyboard-response","415","366113","0.0-6.0-1.204","LABU","1","f","rechts","24","","","object","j","90","true"
"null","<div style=""font-size:60px;"">+</div>","null","html-keyboard-response","416","366515","0.0-6.0-0.205","LABU","1","f","rechts","24","","fixation","","","",""
"972","img/90_30.png","70","image-keyboard-response","417","367487","0.0-6.0-1.205","LABU","1","f","rechts","24","","","object","f","90","true"
"null","<div style=""font-size:60px;"">+</div>","null","html-keyboard-response","418","367889","0.0-6.0-0.206","LABU","1","f","rechts","24","","fixation","","","",""
"1212","img/150_60.png","70","image-keyboard-response","419","369102","0.0-6.0-1.206","LABU","1","f","rechts","24","","","object","f","150","true"
"null","<div style=""font-size:60px;"">+</div>","null","html-keyboard-response","420","369554","0.0-6.0-0.207","LABU","1","f","rechts","24","","fixation","","","",""
"806","img/0_300.png","70","image-keyboard-response","421","370360","0.0-6.0-1.207","LABU","1","f","rechts","24","","","object","f","0","true"
"13753","<p>Du hast in 86% der Versuche korrekt entschieden.</p><p>Deine durchschnittliche Reaktionszeit war  1176ms.</p><p>Dr&uuml;cke eine beliebige Taste, um die Session zu beenden. Vielen Dank!</p>","72","html-keyboard-response","422","384115","0.0-7.0","LABU","1","f","rechts","24","","","","","",""
