"rt","stimulus","key_press","trial_type","trial_index","time_elapsed","internal_node_id","subject","session","sex","handedness","age","responses","test_part","condition","correct_response","angle","correct"
"1314","<p>Mental Rotation Experiment.</p> <p>Dr&uuml;cke eine beliebige Taste, um anzufangen.</p>","71","html-keyboard-response","0","1316","0.0-0.0","LABU","3","f","rechts","24","","","","","",""
"10883","","","survey-text","1","12200","0.0-1.0","LABU","3","f","rechts","24","{""Q0"":""LABU""}","","","","",""
"1617","","","survey-text","2","13818","0.0-2.0","LABU","3","f","rechts","24","{""Q0"":""3""}","","","","",""
"3424","","","survey-multi-choice","3","17244","0.0-3.0","LABU","3","f","rechts","24","{""Q0"":""f"",""Q1"":""rechts""}","","","","",""
"1086","","","survey-text","4","18330","0.0-4.0","LABU","3","f","rechts","24","{""Q0"":""24""}","","","","",""
"70590","<p>Stell dir vor, dass du vor einem runden Tisch stehst, auf dem sich ein blauer Ball am Tischrand befindet. Entlang des Tischrands ist jeweils ein verschieden langer Pfeil. Nun bleibst du an deinem Platz vor dem Tisch und rotierst den Tisch entlang des Pfeils (gleiche Richtung und Länge). </p> <img src='img/30_180.png'></img> <br><p> Nachdem du diese (vorgestellte) Rotation durchgef&uuml;hrt hast, schau in Richtung der Tischmitte, und entscheide dann, ob der Ball links oder rechts von dir liegt.</p> <p>Dr&uuml;cke die <strong>'f'</strong>-Taste f&uuml;r links, die <strong>'j'</strong>-Taste f&uuml;r rechts.</p><br><p> Das Bild wird jeweils 1 Sekunde lang pr&auml;sentiert. Du hast 3 Sekunden Zeit eine Entscheidung zu treffen.</p>","74","html-keyboard-response","5","88921","0.0-5.0","LABU","3","f","rechts","24","","","","","",""
"null","<div style=""font-size:60px;"">+</div>","null","html-keyboard-response","6","90424","0.0-6.0-0.0","LABU","3","f","rechts","24","","fixation","","","",""
"643","img/0_330.png","70","image-keyboard-response","7","91068","0.0-6.0-1.0","LABU","3","f","rechts","24","","","object","f","0","true"
"null","<div style=""font-size:60px;"">+</div>","null","html-keyboard-response","8","91370","0.0-6.0-0.1","LABU","3","f","rechts","24","","fixation","","","",""
"840","img/60_330.png","74","image-keyboard-response","9","92211","0.0-6.0-1.1","LABU","3","f","rechts","24","","","object","j","60","true"
"null","<div style=""font-size:60px;"">+</div>","null","html-keyboard-response","10","92613","0.0-6.0-0.2","LABU","3","f","rechts","24","","fixation","","","",""
"974","img/150_300.png","74","image-keyboard-response","11","93588","0.0-6.0-1.2","LABU","3","f","rechts","24","","","object","j","150","true"
"null","<div style=""font-size:60px;"">+</div>","null","html-keyboard-response","12","94040","0.0-6.0-0.3","LABU","3","f","rechts","24","","fixation","","","",""
"684","img/0_150.png","74","image-keyboard-response","13","94725","0.0-6.0-1.3","LABU","3","f","rechts","24","","","object","j","0","true"
"null","<div style=""font-size:60px;"">+</div>","null","html-keyboard-response","14","95227","0.0-6.0-0.4","LABU","3","f","rechts","24","","fixation","","","",""
"758","img/120_30.png","70","image-keyboard-response","15","95986","0.0-6.0-1.4","LABU","3","f","rechts","24","","","object","f","120","true"
"null","<div style=""font-size:60px;"">+</div>","null","html-keyboard-response","16","96338","0.0-6.0-0.5","LABU","3","f","rechts","24","","fixation","","","",""
"1066","img/L60_180.png","74","image-keyboard-response","17","97405","0.0-6.0-1.5","LABU","3","f","rechts","24","","","object","j","60","true"
"null","<div style=""font-size:60px;"">+</div>","null","html-keyboard-response","18","97907","0.0-6.0-0.6","LABU","3","f","rechts","24","","fixation","","","",""
"713","img/0_30.png","74","image-keyboard-response","19","98621","0.0-6.0-1.6","LABU","3","f","rechts","24","","","object","j","0","true"
"null","<div style=""font-size:60px;"">+</div>","null","html-keyboard-response","20","99123","0.0-6.0-0.7","LABU","3","f","rechts","24","","fixation","","","",""
"940","img/60_90.png","74","image-keyboard-response","21","100064","0.0-6.0-1.7","LABU","3","f","rechts","24","","","object","j","60","true"
"null","<div style=""font-size:60px;"">+</div>","null","html-keyboard-response","22","100416","0.0-6.0-0.8","LABU","3","f","rechts","24","","fixation","","","",""
"1267","img/120_210.png","70","image-keyboard-response","23","101685","0.0-6.0-1.8","LABU","3","f","rechts","24","","","object","f","120","true"
"null","<div style=""font-size:60px;"">+</div>","null","html-keyboard-response","24","102036","0.0-6.0-0.9","LABU","3","f","rechts","24","","fixation","","","",""
"860","img/L90_180.png","74","image-keyboard-response","25","102897","0.0-6.0-1.9","LABU","3","f","rechts","24","","","object","j","90","true"
"null","<div style=""font-size:60px;"">+</div>","null","html-keyboard-response","26","103248","0.0-6.0-0.10","LABU","3","f","rechts","24","","fixation","","","",""
"789","img/60_210.png","70","image-keyboard-response","27","104038","0.0-6.0-1.10","LABU","3","f","rechts","24","","","object","f","60","true"
"null","<div style=""font-size:60px;"">+</div>","null","html-keyboard-response","28","104440","0.0-6.0-0.11","LABU","3","f","rechts","24","","fixation","","","",""
"1069","img/0_240.png","70","image-keyboard-response","29","105510","0.0-6.0-1.11","LABU","3","f","rechts","24","","","object","f","0","true"
"null","<div style=""font-size:60px;"">+</div>","null","html-keyboard-response","30","105912","0.0-6.0-0.12","LABU","3","f","rechts","24","","fixation","","","",""
"911","img/30_90.png","74","image-keyboard-response","31","106824","0.0-6.0-1.12","LABU","3","f","rechts","24","","","object","j","30","true"
"null","<div style=""font-size:60px;"">+</div>","null","html-keyboard-response","32","107326","0.0-6.0-0.13","LABU","3","f","rechts","24","","fixation","","","",""
"700","img/30_240.png","70","image-keyboard-response","33","108026","0.0-6.0-1.13","LABU","3","f","rechts","24","","","object","f","30","true"
"null","<div style=""font-size:60px;"">+</div>","null","html-keyboard-response","34","108428","0.0-6.0-0.14","LABU","3","f","rechts","24","","fixation","","","",""
"760","img/0_270.png","70","image-keyboard-response","35","109190","0.0-6.0-1.14","LABU","3","f","rechts","24","","","object","f","0","true"
"null","<div style=""font-size:60px;"">+</div>","null","html-keyboard-response","36","109541","0.0-6.0-0.15","LABU","3","f","rechts","24","","fixation","","","",""
"782","img/90_330.png","74","image-keyboard-response","37","110324","0.0-6.0-1.15","LABU","3","f","rechts","24","","","object","j","90","true"
"null","<div style=""font-size:60px;"">+</div>","null","html-keyboard-response","38","110726","0.0-6.0-0.16","LABU","3","f","rechts","24","","fixation","","","",""
"1001","img/90_240.png","70","image-keyboard-response","39","111727","0.0-6.0-1.16","LABU","3","f","rechts","24","","","object","f","90","true"
"null","<div style=""font-size:60px;"">+</div>","null","html-keyboard-response","40","112028","0.0-6.0-0.17","LABU","3","f","rechts","24","","fixation","","","",""
"851","img/120_150.png","74","image-keyboard-response","41","112880","0.0-6.0-1.17","LABU","3","f","rechts","24","","","object","j","120","true"
"null","<div style=""font-size:60px;"">+</div>","null","html-keyboard-response","42","113331","0.0-6.0-0.18","LABU","3","f","rechts","24","","fixation","","","",""
"584","img/0_60.png","74","image-keyboard-response","43","113917","0.0-6.0-1.18","LABU","3","f","rechts","24","","","object","j","0","true"
"null","<div style=""font-size:60px;"">+</div>","null","html-keyboard-response","44","114218","0.0-6.0-0.19","LABU","3","f","rechts","24","","fixation","","","",""
"1981","img/30_180.png","70","image-keyboard-response","45","116200","0.0-6.0-1.19","LABU","3","f","rechts","24","","","object","f","30","true"
"null","<div style=""font-size:60px;"">+</div>","null","html-keyboard-response","46","116602","0.0-6.0-0.20","LABU","3","f","rechts","24","","fixation","","","",""
"831","img/30_270.png","70","image-keyboard-response","47","117434","0.0-6.0-1.20","LABU","3","f","rechts","24","","","object","f","30","true"
"null","<div style=""font-size:60px;"">+</div>","null","html-keyboard-response","48","117885","0.0-6.0-0.21","LABU","3","f","rechts","24","","fixation","","","",""
"764","img/60_150.png","74","image-keyboard-response","49","118652","0.0-6.0-1.21","LABU","3","f","rechts","24","","","object","j","60","true"
"null","<div style=""font-size:60px;"">+</div>","null","html-keyboard-response","50","119003","0.0-6.0-0.22","LABU","3","f","rechts","24","","fixation","","","",""
"986","img/90_300.png","74","image-keyboard-response","51","119991","0.0-6.0-1.22","LABU","3","f","rechts","24","","","object","j","90","true"
"null","<div style=""font-size:60px;"">+</div>","null","html-keyboard-response","52","120491","0.0-6.0-0.23","LABU","3","f","rechts","24","","fixation","","","",""
"748","img/0_210.png","70","image-keyboard-response","53","121241","0.0-6.0-1.23","LABU","3","f","rechts","24","","","object","f","0","true"
"null","<div style=""font-size:60px;"">+</div>","null","html-keyboard-response","54","121692","0.0-6.0-0.24","LABU","3","f","rechts","24","","fixation","","","",""
"936","img/30_120.png","74","image-keyboard-response","55","122629","0.0-6.0-1.24","LABU","3","f","rechts","24","","","object","j","30","true"
"null","<div style=""font-size:60px;"">+</div>","null","html-keyboard-response","56","123031","0.0-6.0-0.25","LABU","3","f","rechts","24","","fixation","","","",""
"787","img/L150_180.png","74","image-keyboard-response","57","123819","0.0-6.0-1.25","LABU","3","f","rechts","24","","","object","j","150","true"
"null","<div style=""font-size:60px;"">+</div>","null","html-keyboard-response","58","124321","0.0-6.0-0.26","LABU","3","f","rechts","24","","fixation","","","",""
"1063","img/120_330.png","74","image-keyboard-response","59","125385","0.0-6.0-1.26","LABU","3","f","rechts","24","","","object","j","120","true"
"null","<div style=""font-size:60px;"">+</div>","null","html-keyboard-response","60","125736","0.0-6.0-0.27","LABU","3","f","rechts","24","","fixation","","","",""
"1353","img/150_270.png","70","image-keyboard-response","61","127090","0.0-6.0-1.27","LABU","3","f","rechts","24","","","object","j","150","false"
"null","<div style=""font-size:60px;"">+</div>","null","html-keyboard-response","62","127392","0.0-6.0-0.28","LABU","3","f","rechts","24","","fixation","","","",""
"1122","img/60_270.png","70","image-keyboard-response","63","128516","0.0-6.0-1.28","LABU","3","f","rechts","24","","","object","f","60","true"
"null","<div style=""font-size:60px;"">+</div>","null","html-keyboard-response","64","128917","0.0-6.0-0.29","LABU","3","f","rechts","24","","fixation","","","",""
"844","img/L120_180.png","74","image-keyboard-response","65","129763","0.0-6.0-1.29","LABU","3","f","rechts","24","","","object","j","120","true"
"null","<div style=""font-size:60px;"">+</div>","null","html-keyboard-response","66","130214","0.0-6.0-0.30","LABU","3","f","rechts","24","","fixation","","","",""
"1005","img/120_270.png","70","image-keyboard-response","67","131220","0.0-6.0-1.30","LABU","3","f","rechts","24","","","object","j","120","false"
"null","<div style=""font-size:60px;"">+</div>","null","html-keyboard-response","68","131722","0.0-6.0-0.31","LABU","3","f","rechts","24","","fixation","","","",""
"907","img/L30_180.png","74","image-keyboard-response","69","132630","0.0-6.0-1.31","LABU","3","f","rechts","24","","","object","j","30","true"
"null","<div style=""font-size:60px;"">+</div>","null","html-keyboard-response","70","133132","0.0-6.0-0.32","LABU","3","f","rechts","24","","fixation","","","",""
"1504","img/60_180.png","70","image-keyboard-response","71","134637","0.0-6.0-1.32","LABU","3","f","rechts","24","","","object","f","60","true"
"null","<div style=""font-size:60px;"">+</div>","null","html-keyboard-response","72","135089","0.0-6.0-0.33","LABU","3","f","rechts","24","","fixation","","","",""
"795","img/0_120.png","74","image-keyboard-response","73","135885","0.0-6.0-1.33","LABU","3","f","rechts","24","","","object","j","0","true"
"null","<div style=""font-size:60px;"">+</div>","null","html-keyboard-response","74","136337","0.0-6.0-0.34","LABU","3","f","rechts","24","","fixation","","","",""
"982","img/150_60.png","70","image-keyboard-response","75","137320","0.0-6.0-1.34","LABU","3","f","rechts","24","","","object","f","150","true"
"null","<div style=""font-size:60px;"">+</div>","null","html-keyboard-response","76","137772","0.0-6.0-0.35","LABU","3","f","rechts","24","","fixation","","","",""
"1153","img/90_180.png","70","image-keyboard-response","77","138926","0.0-6.0-1.35","LABU","3","f","rechts","24","","","object","f","90","true"
"null","<div style=""font-size:60px;"">+</div>","null","html-keyboard-response","78","139428","0.0-6.0-0.36","LABU","3","f","rechts","24","","fixation","","","",""
"797","img/0_300.png","70","image-keyboard-response","79","140226","0.0-6.0-1.36","LABU","3","f","rechts","24","","","object","f","0","true"
"null","<div style=""font-size:60px;"">+</div>","null","html-keyboard-response","80","140728","0.0-6.0-0.37","LABU","3","f","rechts","24","","fixation","","","",""
"1115","img/150_240.png","74","image-keyboard-response","81","141844","0.0-6.0-1.37","LABU","3","f","rechts","24","","","object","j","150","true"
"null","<div style=""font-size:60px;"">+</div>","null","html-keyboard-response","82","142196","0.0-6.0-0.38","LABU","3","f","rechts","24","","fixation","","","",""
"1056","img/90_60.png","70","image-keyboard-response","83","143254","0.0-6.0-1.38","LABU","3","f","rechts","24","","","object","f","90","true"
"null","<div style=""font-size:60px;"">+</div>","null","html-keyboard-response","84","143605","0.0-6.0-0.39","LABU","3","f","rechts","24","","fixation","","","",""
"1622","img/150_120.png","74","image-keyboard-response","85","145228","0.0-6.0-1.39","LABU","3","f","rechts","24","","","object","f","150","false"
"null","<div style=""font-size:60px;"">+</div>","null","html-keyboard-response","86","145530","0.0-6.0-0.40","LABU","3","f","rechts","24","","fixation","","","",""
"850","img/90_150.png","74","image-keyboard-response","87","146381","0.0-6.0-1.40","LABU","3","f","rechts","24","","","object","j","90","true"
"null","<div style=""font-size:60px;"">+</div>","null","html-keyboard-response","88","146833","0.0-6.0-0.41","LABU","3","f","rechts","24","","fixation","","","",""
"1139","img/150_90.png","70","image-keyboard-response","89","147973","0.0-6.0-1.41","LABU","3","f","rechts","24","","","object","f","150","true"
"null","<div style=""font-size:60px;"">+</div>","null","html-keyboard-response","90","148375","0.0-6.0-0.42","LABU","3","f","rechts","24","","fixation","","","",""
"919","img/90_30.png","70","image-keyboard-response","91","149295","0.0-6.0-1.42","LABU","3","f","rechts","24","","","object","f","90","true"
"null","<div style=""font-size:60px;"">+</div>","null","html-keyboard-response","92","149797","0.0-6.0-0.43","LABU","3","f","rechts","24","","fixation","","","",""
"1572","img/90_210.png","70","image-keyboard-response","93","151370","0.0-6.0-1.43","LABU","3","f","rechts","24","","","object","f","90","true"
"null","<div style=""font-size:60px;"">+</div>","null","html-keyboard-response","94","151872","0.0-6.0-0.44","LABU","3","f","rechts","24","","fixation","","","",""
"1228","img/30_300.png","74","image-keyboard-response","95","153101","0.0-6.0-1.44","LABU","3","f","rechts","24","","","object","f","30","false"
"null","<div style=""font-size:60px;"">+</div>","null","html-keyboard-response","96","153552","0.0-6.0-0.45","LABU","3","f","rechts","24","","fixation","","","",""
"1112","img/120_90.png","70","image-keyboard-response","97","154665","0.0-6.0-1.45","LABU","3","f","rechts","24","","","object","f","120","true"
"null","<div style=""font-size:60px;"">+</div>","null","html-keyboard-response","98","155066","0.0-6.0-0.46","LABU","3","f","rechts","24","","fixation","","","",""
"1012","img/30_60.png","70","image-keyboard-response","99","156079","0.0-6.0-1.46","LABU","3","f","rechts","24","","","object","j","30","false"
"null","<div style=""font-size:60px;"">+</div>","null","html-keyboard-response","100","156530","0.0-6.0-0.47","LABU","3","f","rechts","24","","fixation","","","",""
"670","img/0_90.png","74","image-keyboard-response","101","157201","0.0-6.0-1.47","LABU","3","f","rechts","24","","","object","j","0","true"
"null","<div style=""font-size:60px;"">+</div>","null","html-keyboard-response","102","157702","0.0-6.0-0.48","LABU","3","f","rechts","24","","fixation","","","",""
"1076","img/120_180.png","70","image-keyboard-response","103","158780","0.0-6.0-1.48","LABU","3","f","rechts","24","","","object","f","120","true"
"null","<div style=""font-size:60px;"">+</div>","null","html-keyboard-response","104","159231","0.0-6.0-0.49","LABU","3","f","rechts","24","","fixation","","","",""
"1065","img/60_30.png","70","image-keyboard-response","105","160297","0.0-6.0-1.49","LABU","3","f","rechts","24","","","object","f","60","true"
"null","<div style=""font-size:60px;"">+</div>","null","html-keyboard-response","106","160649","0.0-6.0-0.50","LABU","3","f","rechts","24","","fixation","","","",""
"1065","img/150_180.png","70","image-keyboard-response","107","161715","0.0-6.0-1.50","LABU","3","f","rechts","24","","","object","f","150","true"
"null","<div style=""font-size:60px;"">+</div>","null","html-keyboard-response","108","162116","0.0-6.0-0.51","LABU","3","f","rechts","24","","fixation","","","",""
"1390","img/90_120.png","74","image-keyboard-response","109","163508","0.0-6.0-1.51","LABU","3","f","rechts","24","","","object","j","90","true"
"null","<div style=""font-size:60px;"">+</div>","null","html-keyboard-response","110","163809","0.0-6.0-0.52","LABU","3","f","rechts","24","","fixation","","","",""
"745","img/0_240.png","70","image-keyboard-response","111","164555","0.0-6.0-1.52","LABU","3","f","rechts","24","","","object","f","0","true"
"null","<div style=""font-size:60px;"">+</div>","null","html-keyboard-response","112","165057","0.0-6.0-0.53","LABU","3","f","rechts","24","","fixation","","","",""
"770","img/90_300.png","74","image-keyboard-response","113","165828","0.0-6.0-1.53","LABU","3","f","rechts","24","","","object","j","90","true"
"null","<div style=""font-size:60px;"">+</div>","null","html-keyboard-response","114","166179","0.0-6.0-0.54","LABU","3","f","rechts","24","","fixation","","","",""
"1288","img/30_240.png","70","image-keyboard-response","115","167469","0.0-6.0-1.54","LABU","3","f","rechts","24","","","object","f","30","true"
"null","<div style=""font-size:60px;"">+</div>","null","html-keyboard-response","116","167920","0.0-6.0-0.55","LABU","3","f","rechts","24","","fixation","","","",""
"1254","img/30_180.png","70","image-keyboard-response","117","169175","0.0-6.0-1.55","LABU","3","f","rechts","24","","","object","f","30","true"
"null","<div style=""font-size:60px;"">+</div>","null","html-keyboard-response","118","169626","0.0-6.0-0.56","LABU","3","f","rechts","24","","fixation","","","",""
"919","img/120_330.png","74","image-keyboard-response","119","170547","0.0-6.0-1.56","LABU","3","f","rechts","24","","","object","j","120","true"
"null","<div style=""font-size:60px;"">+</div>","null","html-keyboard-response","120","170998","0.0-6.0-0.57","LABU","3","f","rechts","24","","fixation","","","",""
"1469","img/90_120.png","74","image-keyboard-response","121","172469","0.0-6.0-1.57","LABU","3","f","rechts","24","","","object","j","90","true"
"null","<div style=""font-size:60px;"">+</div>","null","html-keyboard-response","122","172970","0.0-6.0-0.58","LABU","3","f","rechts","24","","fixation","","","",""
"1139","img/L60_180.png","74","image-keyboard-response","123","174111","0.0-6.0-1.58","LABU","3","f","rechts","24","","","object","j","60","true"
"null","<div style=""font-size:60px;"">+</div>","null","html-keyboard-response","124","174562","0.0-6.0-0.59","LABU","3","f","rechts","24","","fixation","","","",""
"886","img/60_180.png","70","image-keyboard-response","125","175448","0.0-6.0-1.59","LABU","3","f","rechts","24","","","object","f","60","true"
"null","<div style=""font-size:60px;"">+</div>","null","html-keyboard-response","126","175850","0.0-6.0-0.60","LABU","3","f","rechts","24","","fixation","","","",""
"1184","img/120_270.png","74","image-keyboard-response","127","177034","0.0-6.0-1.60","LABU","3","f","rechts","24","","","object","j","120","true"
"null","<div style=""font-size:60px;"">+</div>","null","html-keyboard-response","128","177386","0.0-6.0-0.61","LABU","3","f","rechts","24","","fixation","","","",""
"1145","img/30_300.png","70","image-keyboard-response","129","178532","0.0-6.0-1.61","LABU","3","f","rechts","24","","","object","f","30","true"
"null","<div style=""font-size:60px;"">+</div>","null","html-keyboard-response","130","179034","0.0-6.0-0.62","LABU","3","f","rechts","24","","fixation","","","",""
"1508","img/L90_180.png","74","image-keyboard-response","131","180543","0.0-6.0-1.62","LABU","3","f","rechts","24","","","object","j","90","true"
"null","<div style=""font-size:60px;"">+</div>","null","html-keyboard-response","132","180995","0.0-6.0-0.63","LABU","3","f","rechts","24","","fixation","","","",""
"1111","img/150_300.png","74","image-keyboard-response","133","182106","0.0-6.0-1.63","LABU","3","f","rechts","24","","","object","j","150","true"
"null","<div style=""font-size:60px;"">+</div>","null","html-keyboard-response","134","182458","0.0-6.0-0.64","LABU","3","f","rechts","24","","fixation","","","",""
"736","img/0_90.png","74","image-keyboard-response","135","183194","0.0-6.0-1.64","LABU","3","f","rechts","24","","","object","j","0","true"
"null","<div style=""font-size:60px;"">+</div>","null","html-keyboard-response","136","183696","0.0-6.0-0.65","LABU","3","f","rechts","24","","fixation","","","",""
"757","img/0_210.png","70","image-keyboard-response","137","184455","0.0-6.0-1.65","LABU","3","f","rechts","24","","","object","f","0","true"
"null","<div style=""font-size:60px;"">+</div>","null","html-keyboard-response","138","184756","0.0-6.0-0.66","LABU","3","f","rechts","24","","fixation","","","",""
"903","img/0_300.png","70","image-keyboard-response","139","185660","0.0-6.0-1.66","LABU","3","f","rechts","24","","","object","f","0","true"
"null","<div style=""font-size:60px;"">+</div>","null","html-keyboard-response","140","186112","0.0-6.0-0.67","LABU","3","f","rechts","24","","fixation","","","",""
"815","img/60_210.png","70","image-keyboard-response","141","186928","0.0-6.0-1.67","LABU","3","f","rechts","24","","","object","f","60","true"
"null","<div style=""font-size:60px;"">+</div>","null","html-keyboard-response","142","187280","0.0-6.0-0.68","LABU","3","f","rechts","24","","fixation","","","",""
"992","img/120_210.png","70","image-keyboard-response","143","188273","0.0-6.0-1.68","LABU","3","f","rechts","24","","","object","f","120","true"
"null","<div style=""font-size:60px;"">+</div>","null","html-keyboard-response","144","188675","0.0-6.0-0.69","LABU","3","f","rechts","24","","fixation","","","",""
"909","img/150_120.png","74","image-keyboard-response","145","189584","0.0-6.0-1.69","LABU","3","f","rechts","24","","","object","f","150","false"
"null","<div style=""font-size:60px;"">+</div>","null","html-keyboard-response","146","189986","0.0-6.0-0.70","LABU","3","f","rechts","24","","fixation","","","",""
"792","img/90_30.png","70","image-keyboard-response","147","190778","0.0-6.0-1.70","LABU","3","f","rechts","24","","","object","f","90","true"
"null","<div style=""font-size:60px;"">+</div>","null","html-keyboard-response","148","191280","0.0-6.0-0.71","LABU","3","f","rechts","24","","fixation","","","",""
"914","img/90_210.png","70","image-keyboard-response","149","192195","0.0-6.0-1.71","LABU","3","f","rechts","24","","","object","f","90","true"
"null","<div style=""font-size:60px;"">+</div>","null","html-keyboard-response","150","192547","0.0-6.0-0.72","LABU","3","f","rechts","24","","fixation","","","",""
"790","img/0_150.png","74","image-keyboard-response","151","193338","0.0-6.0-1.72","LABU","3","f","rechts","24","","","object","j","0","true"
"null","<div style=""font-size:60px;"">+</div>","null","html-keyboard-response","152","193690","0.0-6.0-0.73","LABU","3","f","rechts","24","","fixation","","","",""
"1076","img/30_270.png","70","image-keyboard-response","153","194767","0.0-6.0-1.73","LABU","3","f","rechts","24","","","object","f","30","true"
"null","<div style=""font-size:60px;"">+</div>","null","html-keyboard-response","154","195168","0.0-6.0-0.74","LABU","3","f","rechts","24","","fixation","","","",""
"769","img/120_30.png","70","image-keyboard-response","155","195938","0.0-6.0-1.74","LABU","3","f","rechts","24","","","object","f","120","true"
"null","<div style=""font-size:60px;"">+</div>","null","html-keyboard-response","156","196240","0.0-6.0-0.75","LABU","3","f","rechts","24","","fixation","","","",""
"1330","img/90_180.png","70","image-keyboard-response","157","197570","0.0-6.0-1.75","LABU","3","f","rechts","24","","","object","f","90","true"
"null","<div style=""font-size:60px;"">+</div>","null","html-keyboard-response","158","197972","0.0-6.0-0.76","LABU","3","f","rechts","24","","fixation","","","",""
"785","img/60_30.png","70","image-keyboard-response","159","198757","0.0-6.0-1.76","LABU","3","f","rechts","24","","","object","f","60","true"
"null","<div style=""font-size:60px;"">+</div>","null","html-keyboard-response","160","199209","0.0-6.0-0.77","LABU","3","f","rechts","24","","fixation","","","",""
"893","img/30_60.png","70","image-keyboard-response","161","200102","0.0-6.0-1.77","LABU","3","f","rechts","24","","","object","j","30","false"
"null","<div style=""font-size:60px;"">+</div>","null","html-keyboard-response","162","200604","0.0-6.0-0.78","LABU","3","f","rechts","24","","fixation","","","",""
"886","img/30_90.png","74","image-keyboard-response","163","201490","0.0-6.0-1.78","LABU","3","f","rechts","24","","","object","j","30","true"
"null","<div style=""font-size:60px;"">+</div>","null","html-keyboard-response","164","201892","0.0-6.0-0.79","LABU","3","f","rechts","24","","fixation","","","",""
"878","img/L30_180.png","74","image-keyboard-response","165","202770","0.0-6.0-1.79","LABU","3","f","rechts","24","","","object","j","30","true"
"null","<div style=""font-size:60px;"">+</div>","null","html-keyboard-response","166","203122","0.0-6.0-0.80","LABU","3","f","rechts","24","","fixation","","","",""
"888","img/150_90.png","70","image-keyboard-response","167","204010","0.0-6.0-1.80","LABU","3","f","rechts","24","","","object","f","150","true"
"null","<div style=""font-size:60px;"">+</div>","null","html-keyboard-response","168","204362","0.0-6.0-0.81","LABU","3","f","rechts","24","","fixation","","","",""
"900","img/90_330.png","74","image-keyboard-response","169","205262","0.0-6.0-1.81","LABU","3","f","rechts","24","","","object","j","90","true"
"null","<div style=""font-size:60px;"">+</div>","null","html-keyboard-response","170","205614","0.0-6.0-0.82","LABU","3","f","rechts","24","","fixation","","","",""
"879","img/60_330.png","74","image-keyboard-response","171","206493","0.0-6.0-1.82","LABU","3","f","rechts","24","","","object","j","60","true"
"null","<div style=""font-size:60px;"">+</div>","null","html-keyboard-response","172","206944","0.0-6.0-0.83","LABU","3","f","rechts","24","","fixation","","","",""
"1078","img/60_150.png","74","image-keyboard-response","173","208023","0.0-6.0-1.83","LABU","3","f","rechts","24","","","object","j","60","true"
"null","<div style=""font-size:60px;"">+</div>","null","html-keyboard-response","174","208375","0.0-6.0-0.84","LABU","3","f","rechts","24","","fixation","","","",""
"759","img/0_330.png","70","image-keyboard-response","175","209134","0.0-6.0-1.84","LABU","3","f","rechts","24","","","object","f","0","true"
"null","<div style=""font-size:60px;"">+</div>","null","html-keyboard-response","176","209585","0.0-6.0-0.85","LABU","3","f","rechts","24","","fixation","","","",""
"744","img/0_270.png","70","image-keyboard-response","177","210330","0.0-6.0-1.85","LABU","3","f","rechts","24","","","object","f","0","true"
"null","<div style=""font-size:60px;"">+</div>","null","html-keyboard-response","178","210782","0.0-6.0-0.86","LABU","3","f","rechts","24","","fixation","","","",""
"962","img/60_90.png","74","image-keyboard-response","179","211744","0.0-6.0-1.86","LABU","3","f","rechts","24","","","object","j","60","true"
"null","<div style=""font-size:60px;"">+</div>","null","html-keyboard-response","180","212146","0.0-6.0-0.87","LABU","3","f","rechts","24","","fixation","","","",""
"990","img/120_90.png","74","image-keyboard-response","181","213136","0.0-6.0-1.87","LABU","3","f","rechts","24","","","object","f","120","false"
"null","<div style=""font-size:60px;"">+</div>","null","html-keyboard-response","182","213437","0.0-6.0-0.88","LABU","3","f","rechts","24","","fixation","","","",""
"898","img/150_60.png","70","image-keyboard-response","183","214336","0.0-6.0-1.88","LABU","3","f","rechts","24","","","object","f","150","true"
"null","<div style=""font-size:60px;"">+</div>","null","html-keyboard-response","184","214837","0.0-6.0-0.89","LABU","3","f","rechts","24","","fixation","","","",""
"836","img/0_30.png","74","image-keyboard-response","185","215674","0.0-6.0-1.89","LABU","3","f","rechts","24","","","object","j","0","true"
"null","<div style=""font-size:60px;"">+</div>","null","html-keyboard-response","186","216125","0.0-6.0-0.90","LABU","3","f","rechts","24","","fixation","","","",""
"837","img/90_150.png","74","image-keyboard-response","187","216963","0.0-6.0-1.90","LABU","3","f","rechts","24","","","object","j","90","true"
"null","<div style=""font-size:60px;"">+</div>","null","html-keyboard-response","188","217364","0.0-6.0-0.91","LABU","3","f","rechts","24","","fixation","","","",""
"656","img/30_120.png","74","image-keyboard-response","189","218022","0.0-6.0-1.91","LABU","3","f","rechts","24","","","object","j","30","true"
"null","<div style=""font-size:60px;"">+</div>","null","html-keyboard-response","190","218523","0.0-6.0-0.92","LABU","3","f","rechts","24","","fixation","","","",""
"1077","img/150_270.png","74","image-keyboard-response","191","219601","0.0-6.0-1.92","LABU","3","f","rechts","24","","","object","j","150","true"
"null","<div style=""font-size:60px;"">+</div>","null","html-keyboard-response","192","220002","0.0-6.0-0.93","LABU","3","f","rechts","24","","fixation","","","",""
"903","img/L120_180.png","74","image-keyboard-response","193","220906","0.0-6.0-1.93","LABU","3","f","rechts","24","","","object","j","120","true"
"null","<div style=""font-size:60px;"">+</div>","null","html-keyboard-response","194","221307","0.0-6.0-0.94","LABU","3","f","rechts","24","","fixation","","","",""
"847","img/150_180.png","70","image-keyboard-response","195","222155","0.0-6.0-1.94","LABU","3","f","rechts","24","","","object","f","150","true"
"null","<div style=""font-size:60px;"">+</div>","null","html-keyboard-response","196","222556","0.0-6.0-0.95","LABU","3","f","rechts","24","","fixation","","","",""
"798","img/120_150.png","74","image-keyboard-response","197","223355","0.0-6.0-1.95","LABU","3","f","rechts","24","","","object","j","120","true"
"null","<div style=""font-size:60px;"">+</div>","null","html-keyboard-response","198","223857","0.0-6.0-0.96","LABU","3","f","rechts","24","","fixation","","","",""
"720","img/120_180.png","70","image-keyboard-response","199","224579","0.0-6.0-1.96","LABU","3","f","rechts","24","","","object","f","120","true"
"null","<div style=""font-size:60px;"">+</div>","null","html-keyboard-response","200","225080","0.0-6.0-0.97","LABU","3","f","rechts","24","","fixation","","","",""
"1294","img/90_60.png","74","image-keyboard-response","201","226375","0.0-6.0-1.97","LABU","3","f","rechts","24","","","object","f","90","false"
"null","<div style=""font-size:60px;"">+</div>","null","html-keyboard-response","202","226777","0.0-6.0-0.98","LABU","3","f","rechts","24","","fixation","","","",""
"848","img/150_240.png","70","image-keyboard-response","203","227626","0.0-6.0-1.98","LABU","3","f","rechts","24","","","object","j","150","false"
"null","<div style=""font-size:60px;"">+</div>","null","html-keyboard-response","204","227927","0.0-6.0-0.99","LABU","3","f","rechts","24","","fixation","","","",""
"799","img/0_60.png","74","image-keyboard-response","205","228727","0.0-6.0-1.99","LABU","3","f","rechts","24","","","object","j","0","true"
"null","<div style=""font-size:60px;"">+</div>","null","html-keyboard-response","206","229029","0.0-6.0-0.100","LABU","3","f","rechts","24","","fixation","","","",""
"606","img/0_120.png","74","image-keyboard-response","207","229636","0.0-6.0-1.100","LABU","3","f","rechts","24","","","object","j","0","true"
"null","<div style=""font-size:60px;"">+</div>","null","html-keyboard-response","208","230138","0.0-6.0-0.101","LABU","3","f","rechts","24","","fixation","","","",""
"966","img/L150_180.png","74","image-keyboard-response","209","231105","0.0-6.0-1.101","LABU","3","f","rechts","24","","","object","j","150","true"
"null","<div style=""font-size:60px;"">+</div>","null","html-keyboard-response","210","231457","0.0-6.0-0.102","LABU","3","f","rechts","24","","fixation","","","",""
"709","img/90_240.png","70","image-keyboard-response","211","232168","0.0-6.0-1.102","LABU","3","f","rechts","24","","","object","f","90","true"
"null","<div style=""font-size:60px;"">+</div>","null","html-keyboard-response","212","232669","0.0-6.0-0.103","LABU","3","f","rechts","24","","fixation","","","",""
"1086","img/60_270.png","70","image-keyboard-response","213","233756","0.0-6.0-1.103","LABU","3","f","rechts","24","","","object","f","60","true"
"null","<div style=""font-size:60px;"">+</div>","null","html-keyboard-response","214","234258","0.0-6.0-0.104","LABU","3","f","rechts","24","","fixation","","","",""
"739","img/L30_180.png","74","image-keyboard-response","215","234997","0.0-6.0-1.104","LABU","3","f","rechts","24","","","object","j","30","true"
"null","<div style=""font-size:60px;"">+</div>","null","html-keyboard-response","216","235449","0.0-6.0-0.105","LABU","3","f","rechts","24","","fixation","","","",""
"939","img/L120_180.png","74","image-keyboard-response","217","236389","0.0-6.0-1.105","LABU","3","f","rechts","24","","","object","j","120","true"
"null","<div style=""font-size:60px;"">+</div>","null","html-keyboard-response","218","236791","0.0-6.0-0.106","LABU","3","f","rechts","24","","fixation","","","",""
"1002","img/60_330.png","74","image-keyboard-response","219","237794","0.0-6.0-1.106","LABU","3","f","rechts","24","","","object","j","60","true"
"null","<div style=""font-size:60px;"">+</div>","null","html-keyboard-response","220","238145","0.0-6.0-0.107","LABU","3","f","rechts","24","","fixation","","","",""
"958","img/0_300.png","70","image-keyboard-response","221","239104","0.0-6.0-1.107","LABU","3","f","rechts","24","","","object","f","0","true"
"null","<div style=""font-size:60px;"">+</div>","null","html-keyboard-response","222","239506","0.0-6.0-0.108","LABU","3","f","rechts","24","","fixation","","","",""
"714","img/120_180.png","70","image-keyboard-response","223","240221","0.0-6.0-1.108","LABU","3","f","rechts","24","","","object","f","120","true"
"null","<div style=""font-size:60px;"">+</div>","null","html-keyboard-response","224","240523","0.0-6.0-0.109","LABU","3","f","rechts","24","","fixation","","","",""
"655","img/0_210.png","70","image-keyboard-response","225","241179","0.0-6.0-1.109","LABU","3","f","rechts","24","","","object","f","0","true"
"null","<div style=""font-size:60px;"">+</div>","null","html-keyboard-response","226","241581","0.0-6.0-0.110","LABU","3","f","rechts","24","","fixation","","","",""
"1225","img/150_90.png","70","image-keyboard-response","227","242806","0.0-6.0-1.110","LABU","3","f","rechts","24","","","object","f","150","true"
"null","<div style=""font-size:60px;"">+</div>","null","html-keyboard-response","228","243258","0.0-6.0-0.111","LABU","3","f","rechts","24","","fixation","","","",""
"734","img/90_150.png","74","image-keyboard-response","229","243992","0.0-6.0-1.111","LABU","3","f","rechts","24","","","object","j","90","true"
"null","<div style=""font-size:60px;"">+</div>","null","html-keyboard-response","230","244394","0.0-6.0-0.112","LABU","3","f","rechts","24","","fixation","","","",""
"858","img/90_330.png","74","image-keyboard-response","231","245253","0.0-6.0-1.112","LABU","3","f","rechts","24","","","object","j","90","true"
"null","<div style=""font-size:60px;"">+</div>","null","html-keyboard-response","232","245755","0.0-6.0-0.113","LABU","3","f","rechts","24","","fixation","","","",""
"630","img/90_60.png","70","image-keyboard-response","233","246385","0.0-6.0-1.113","LABU","3","f","rechts","24","","","object","f","90","true"
"null","<div style=""font-size:60px;"">+</div>","null","html-keyboard-response","234","246686","0.0-6.0-0.114","LABU","3","f","rechts","24","","fixation","","","",""
"802","img/90_180.png","70","image-keyboard-response","235","247489","0.0-6.0-1.114","LABU","3","f","rechts","24","","","object","f","90","true"
"null","<div style=""font-size:60px;"">+</div>","null","html-keyboard-response","236","247991","0.0-6.0-0.115","LABU","3","f","rechts","24","","fixation","","","",""
"1289","img/120_30.png","70","image-keyboard-response","237","249280","0.0-6.0-1.115","LABU","3","f","rechts","24","","","object","f","120","true"
"null","<div style=""font-size:60px;"">+</div>","null","html-keyboard-response","238","249732","0.0-6.0-0.116","LABU","3","f","rechts","24","","fixation","","","",""
"808","img/90_300.png","74","image-keyboard-response","239","250540","0.0-6.0-1.116","LABU","3","f","rechts","24","","","object","j","90","true"
"null","<div style=""font-size:60px;"">+</div>","null","html-keyboard-response","240","250942","0.0-6.0-0.117","LABU","3","f","rechts","24","","fixation","","","",""
"861","img/30_270.png","70","image-keyboard-response","241","251803","0.0-6.0-1.117","LABU","3","f","rechts","24","","","object","f","30","true"
"null","<div style=""font-size:60px;"">+</div>","null","html-keyboard-response","242","252105","0.0-6.0-0.118","LABU","3","f","rechts","24","","fixation","","","",""
"1135","img/150_60.png","70","image-keyboard-response","243","253240","0.0-6.0-1.118","LABU","3","f","rechts","24","","","object","f","150","true"
"null","<div style=""font-size:60px;"">+</div>","null","html-keyboard-response","244","253692","0.0-6.0-0.119","LABU","3","f","rechts","24","","fixation","","","",""
"1072","img/120_210.png","70","image-keyboard-response","245","254764","0.0-6.0-1.119","LABU","3","f","rechts","24","","","object","f","120","true"
"null","<div style=""font-size:60px;"">+</div>","null","html-keyboard-response","246","255066","0.0-6.0-0.120","LABU","3","f","rechts","24","","fixation","","","",""
"958","img/L150_180.png","74","image-keyboard-response","247","256024","0.0-6.0-1.120","LABU","3","f","rechts","24","","","object","j","150","true"
"null","<div style=""font-size:60px;"">+</div>","null","html-keyboard-response","248","256325","0.0-6.0-0.121","LABU","3","f","rechts","24","","fixation","","","",""
"1258","img/120_90.png","74","image-keyboard-response","249","257584","0.0-6.0-1.121","LABU","3","f","rechts","24","","","object","f","120","false"
"null","<div style=""font-size:60px;"">+</div>","null","html-keyboard-response","250","257935","0.0-6.0-0.122","LABU","3","f","rechts","24","","fixation","","","",""
"657","img/120_150.png","74","image-keyboard-response","251","258593","0.0-6.0-1.122","LABU","3","f","rechts","24","","","object","j","120","true"
"null","<div style=""font-size:60px;"">+</div>","null","html-keyboard-response","252","258994","0.0-6.0-0.123","LABU","3","f","rechts","24","","fixation","","","",""
"822","img/120_330.png","74","image-keyboard-response","253","259817","0.0-6.0-1.123","LABU","3","f","rechts","24","","","object","j","120","true"
"null","<div style=""font-size:60px;"">+</div>","null","html-keyboard-response","254","260219","0.0-6.0-0.124","LABU","3","f","rechts","24","","fixation","","","",""
"923","img/150_270.png","70","image-keyboard-response","255","261142","0.0-6.0-1.124","LABU","3","f","rechts","24","","","object","j","150","false"
"null","<div style=""font-size:60px;"">+</div>","null","html-keyboard-response","256","261444","0.0-6.0-0.125","LABU","3","f","rechts","24","","fixation","","","",""
"844","img/0_270.png","70","image-keyboard-response","257","262288","0.0-6.0-1.125","LABU","3","f","rechts","24","","","object","f","0","true"
"null","<div style=""font-size:60px;"">+</div>","null","html-keyboard-response","258","262790","0.0-6.0-0.126","LABU","3","f","rechts","24","","fixation","","","",""
"704","img/90_210.png","70","image-keyboard-response","259","263494","0.0-6.0-1.126","LABU","3","f","rechts","24","","","object","f","90","true"
"null","<div style=""font-size:60px;"">+</div>","null","html-keyboard-response","260","263795","0.0-6.0-0.127","LABU","3","f","rechts","24","","fixation","","","",""
"747","img/150_180.png","70","image-keyboard-response","261","264543","0.0-6.0-1.127","LABU","3","f","rechts","24","","","object","f","150","true"
"null","<div style=""font-size:60px;"">+</div>","null","html-keyboard-response","262","264945","0.0-6.0-0.128","LABU","3","f","rechts","24","","fixation","","","",""
"1066","img/30_120.png","74","image-keyboard-response","263","266011","0.0-6.0-1.128","LABU","3","f","rechts","24","","","object","j","30","true"
"null","<div style=""font-size:60px;"">+</div>","null","html-keyboard-response","264","266362","0.0-6.0-0.129","LABU","3","f","rechts","24","","fixation","","","",""
"680","img/0_330.png","70","image-keyboard-response","265","267043","0.0-6.0-1.129","LABU","3","f","rechts","24","","","object","f","0","true"
"null","<div style=""font-size:60px;"">+</div>","null","html-keyboard-response","266","267395","0.0-6.0-0.130","LABU","3","f","rechts","24","","fixation","","","",""
"772","img/120_270.png","70","image-keyboard-response","267","268168","0.0-6.0-1.130","LABU","3","f","rechts","24","","","object","j","120","false"
"null","<div style=""font-size:60px;"">+</div>","null","html-keyboard-response","268","268469","0.0-6.0-0.131","LABU","3","f","rechts","24","","fixation","","","",""
"871","img/0_150.png","74","image-keyboard-response","269","269341","0.0-6.0-1.131","LABU","3","f","rechts","24","","","object","j","0","true"
"null","<div style=""font-size:60px;"">+</div>","null","html-keyboard-response","270","269742","0.0-6.0-0.132","LABU","3","f","rechts","24","","fixation","","","",""
"753","img/0_120.png","74","image-keyboard-response","271","270496","0.0-6.0-1.132","LABU","3","f","rechts","24","","","object","j","0","true"
"null","<div style=""font-size:60px;"">+</div>","null","html-keyboard-response","272","270798","0.0-6.0-0.133","LABU","3","f","rechts","24","","fixation","","","",""
"693","img/0_240.png","70","image-keyboard-response","273","271493","0.0-6.0-1.133","LABU","3","f","rechts","24","","","object","f","0","true"
"null","<div style=""font-size:60px;"">+</div>","null","html-keyboard-response","274","271894","0.0-6.0-0.134","LABU","3","f","rechts","24","","fixation","","","",""
"930","img/30_60.png","70","image-keyboard-response","275","272826","0.0-6.0-1.134","LABU","3","f","rechts","24","","","object","j","30","false"
"null","<div style=""font-size:60px;"">+</div>","null","html-keyboard-response","276","273326","0.0-6.0-0.135","LABU","3","f","rechts","24","","fixation","","","",""
"1074","img/60_270.png","70","image-keyboard-response","277","274402","0.0-6.0-1.135","LABU","3","f","rechts","24","","","object","f","60","true"
"null","<div style=""font-size:60px;"">+</div>","null","html-keyboard-response","278","274753","0.0-6.0-0.136","LABU","3","f","rechts","24","","fixation","","","",""
"1347","img/150_120.png","70","image-keyboard-response","279","276101","0.0-6.0-1.136","LABU","3","f","rechts","24","","","object","f","150","true"
"null","<div style=""font-size:60px;"">+</div>","null","html-keyboard-response","280","276403","0.0-6.0-0.137","LABU","3","f","rechts","24","","fixation","","","",""
"1170","img/30_240.png","70","image-keyboard-response","281","277574","0.0-6.0-1.137","LABU","3","f","rechts","24","","","object","f","30","true"
"null","<div style=""font-size:60px;"">+</div>","null","html-keyboard-response","282","278076","0.0-6.0-0.138","LABU","3","f","rechts","24","","fixation","","","",""
"967","img/150_240.png","70","image-keyboard-response","283","279045","0.0-6.0-1.138","LABU","3","f","rechts","24","","","object","j","150","false"
"null","<div style=""font-size:60px;"">+</div>","null","html-keyboard-response","284","279396","0.0-6.0-0.139","LABU","3","f","rechts","24","","fixation","","","",""
"972","img/90_30.png","70","image-keyboard-response","285","280370","0.0-6.0-1.139","LABU","3","f","rechts","24","","","object","f","90","true"
"null","<div style=""font-size:60px;"">+</div>","null","html-keyboard-response","286","280671","0.0-6.0-0.140","LABU","3","f","rechts","24","","fixation","","","",""
"834","img/90_120.png","74","image-keyboard-response","287","281506","0.0-6.0-1.140","LABU","3","f","rechts","24","","","object","j","90","true"
"null","<div style=""font-size:60px;"">+</div>","null","html-keyboard-response","288","281958","0.0-6.0-0.141","LABU","3","f","rechts","24","","fixation","","","",""
"819","img/60_30.png","70","image-keyboard-response","289","282778","0.0-6.0-1.141","LABU","3","f","rechts","24","","","object","f","60","true"
"null","<div style=""font-size:60px;"">+</div>","null","html-keyboard-response","290","283280","0.0-6.0-0.142","LABU","3","f","rechts","24","","fixation","","","",""
"1087","img/90_240.png","70","image-keyboard-response","291","284369","0.0-6.0-1.142","LABU","3","f","rechts","24","","","object","f","90","true"
"null","<div style=""font-size:60px;"">+</div>","null","html-keyboard-response","292","284820","0.0-6.0-0.143","LABU","3","f","rechts","24","","fixation","","","",""
"1245","img/30_180.png","70","image-keyboard-response","293","286065","0.0-6.0-1.143","LABU","3","f","rechts","24","","","object","f","30","true"
"null","<div style=""font-size:60px;"">+</div>","null","html-keyboard-response","294","286367","0.0-6.0-0.144","LABU","3","f","rechts","24","","fixation","","","",""
"759","img/0_30.png","74","image-keyboard-response","295","287127","0.0-6.0-1.144","LABU","3","f","rechts","24","","","object","j","0","true"
"null","<div style=""font-size:60px;"">+</div>","null","html-keyboard-response","296","287529","0.0-6.0-0.145","LABU","3","f","rechts","24","","fixation","","","",""
"825","img/60_90.png","74","image-keyboard-response","297","288355","0.0-6.0-1.145","LABU","3","f","rechts","24","","","object","j","60","true"
"null","<div style=""font-size:60px;"">+</div>","null","html-keyboard-response","298","288757","0.0-6.0-0.146","LABU","3","f","rechts","24","","fixation","","","",""
"997","img/150_300.png","70","image-keyboard-response","299","289755","0.0-6.0-1.146","LABU","3","f","rechts","24","","","object","j","150","false"
"null","<div style=""font-size:60px;"">+</div>","null","html-keyboard-response","300","290157","0.0-6.0-0.147","LABU","3","f","rechts","24","","fixation","","","",""
"949","img/60_210.png","70","image-keyboard-response","301","291106","0.0-6.0-1.147","LABU","3","f","rechts","24","","","object","f","60","true"
"null","<div style=""font-size:60px;"">+</div>","null","html-keyboard-response","302","291458","0.0-6.0-0.148","LABU","3","f","rechts","24","","fixation","","","",""
"767","img/30_300.png","70","image-keyboard-response","303","292226","0.0-6.0-1.148","LABU","3","f","rechts","24","","","object","f","30","true"
"null","<div style=""font-size:60px;"">+</div>","null","html-keyboard-response","304","292578","0.0-6.0-0.149","LABU","3","f","rechts","24","","fixation","","","",""
"726","img/0_90.png","74","image-keyboard-response","305","293304","0.0-6.0-1.149","LABU","3","f","rechts","24","","","object","j","0","true"
"null","<div style=""font-size:60px;"">+</div>","null","html-keyboard-response","306","293756","0.0-6.0-0.150","LABU","3","f","rechts","24","","fixation","","","",""
"598","img/30_90.png","74","image-keyboard-response","307","294354","0.0-6.0-1.150","LABU","3","f","rechts","24","","","object","j","30","true"
"null","<div style=""font-size:60px;"">+</div>","null","html-keyboard-response","308","294656","0.0-6.0-0.151","LABU","3","f","rechts","24","","fixation","","","",""
"624","img/0_60.png","74","image-keyboard-response","309","295281","0.0-6.0-1.151","LABU","3","f","rechts","24","","","object","j","0","true"
"null","<div style=""font-size:60px;"">+</div>","null","html-keyboard-response","310","295733","0.0-6.0-0.152","LABU","3","f","rechts","24","","fixation","","","",""
"838","img/L60_180.png","70","image-keyboard-response","311","296571","0.0-6.0-1.152","LABU","3","f","rechts","24","","","object","j","60","false"
"null","<div style=""font-size:60px;"">+</div>","null","html-keyboard-response","312","296973","0.0-6.0-0.153","LABU","3","f","rechts","24","","fixation","","","",""
"539","img/60_180.png","74","image-keyboard-response","313","297513","0.0-6.0-1.153","LABU","3","f","rechts","24","","","object","f","60","false"
"null","<div style=""font-size:60px;"">+</div>","null","html-keyboard-response","314","297815","0.0-6.0-0.154","LABU","3","f","rechts","24","","fixation","","","",""
"802","img/60_150.png","74","image-keyboard-response","315","298617","0.0-6.0-1.154","LABU","3","f","rechts","24","","","object","j","60","true"
"null","<div style=""font-size:60px;"">+</div>","null","html-keyboard-response","316","299068","0.0-6.0-0.155","LABU","3","f","rechts","24","","fixation","","","",""
"1928","img/L90_180.png","70","image-keyboard-response","317","300997","0.0-6.0-1.155","LABU","3","f","rechts","24","","","object","j","90","false"
"null","<div style=""font-size:60px;"">+</div>","null","html-keyboard-response","318","301349","0.0-6.0-0.156","LABU","3","f","rechts","24","","fixation","","","",""
"930","img/120_180.png","70","image-keyboard-response","319","302280","0.0-6.0-1.156","LABU","3","f","rechts","24","","","object","f","120","true"
"null","<div style=""font-size:60px;"">+</div>","null","html-keyboard-response","320","302732","0.0-6.0-0.157","LABU","3","f","rechts","24","","fixation","","","",""
"1183","img/30_300.png","70","image-keyboard-response","321","303915","0.0-6.0-1.157","LABU","3","f","rechts","24","","","object","f","30","true"
"null","<div style=""font-size:60px;"">+</div>","null","html-keyboard-response","322","304217","0.0-6.0-0.158","LABU","3","f","rechts","24","","fixation","","","",""
"776","img/90_240.png","70","image-keyboard-response","323","304993","0.0-6.0-1.158","LABU","3","f","rechts","24","","","object","f","90","true"
"null","<div style=""font-size:60px;"">+</div>","null","html-keyboard-response","324","305445","0.0-6.0-0.159","LABU","3","f","rechts","24","","fixation","","","",""
"705","img/60_270.png","70","image-keyboard-response","325","306150","0.0-6.0-1.159","LABU","3","f","rechts","24","","","object","f","60","true"
"null","<div style=""font-size:60px;"">+</div>","null","html-keyboard-response","326","306602","0.0-6.0-0.160","LABU","3","f","rechts","24","","fixation","","","",""
"855","img/120_210.png","70","image-keyboard-response","327","307457","0.0-6.0-1.160","LABU","3","f","rechts","24","","","object","f","120","true"
"null","<div style=""font-size:60px;"">+</div>","null","html-keyboard-response","328","307808","0.0-6.0-0.161","LABU","3","f","rechts","24","","fixation","","","",""
"702","img/60_150.png","74","image-keyboard-response","329","308511","0.0-6.0-1.161","LABU","3","f","rechts","24","","","object","j","60","true"
"null","<div style=""font-size:60px;"">+</div>","null","html-keyboard-response","330","309013","0.0-6.0-0.162","LABU","3","f","rechts","24","","fixation","","","",""
"692","img/0_120.png","74","image-keyboard-response","331","309705","0.0-6.0-1.162","LABU","3","f","rechts","24","","","object","j","0","true"
"null","<div style=""font-size:60px;"">+</div>","null","html-keyboard-response","332","310057","0.0-6.0-0.163","LABU","3","f","rechts","24","","fixation","","","",""
"868","img/L120_180.png","74","image-keyboard-response","333","310925","0.0-6.0-1.163","LABU","3","f","rechts","24","","","object","j","120","true"
"null","<div style=""font-size:60px;"">+</div>","null","html-keyboard-response","334","311227","0.0-6.0-0.164","LABU","3","f","rechts","24","","fixation","","","",""
"739","img/60_210.png","70","image-keyboard-response","335","311966","0.0-6.0-1.164","LABU","3","f","rechts","24","","","object","f","60","true"
"null","<div style=""font-size:60px;"">+</div>","null","html-keyboard-response","336","312417","0.0-6.0-0.165","LABU","3","f","rechts","24","","fixation","","","",""
"742","img/L60_180.png","74","image-keyboard-response","337","313160","0.0-6.0-1.165","LABU","3","f","rechts","24","","","object","j","60","true"
"null","<div style=""font-size:60px;"">+</div>","null","html-keyboard-response","338","313462","0.0-6.0-0.166","LABU","3","f","rechts","24","","fixation","","","",""
"565","img/0_210.png","70","image-keyboard-response","339","314027","0.0-6.0-1.166","LABU","3","f","rechts","24","","","object","f","0","true"
"null","<div style=""font-size:60px;"">+</div>","null","html-keyboard-response","340","314329","0.0-6.0-0.167","LABU","3","f","rechts","24","","fixation","","","",""
"925","img/120_30.png","70","image-keyboard-response","341","315254","0.0-6.0-1.167","LABU","3","f","rechts","24","","","object","f","120","true"
"null","<div style=""font-size:60px;"">+</div>","null","html-keyboard-response","342","315606","0.0-6.0-0.168","LABU","3","f","rechts","24","","fixation","","","",""
"1143","img/60_180.png","70","image-keyboard-response","343","316749","0.0-6.0-1.168","LABU","3","f","rechts","24","","","object","f","60","true"
"null","<div style=""font-size:60px;"">+</div>","null","html-keyboard-response","344","317200","0.0-6.0-0.169","LABU","3","f","rechts","24","","fixation","","","",""
"895","img/0_60.png","74","image-keyboard-response","345","318096","0.0-6.0-1.169","LABU","3","f","rechts","24","","","object","j","0","true"
"null","<div style=""font-size:60px;"">+</div>","null","html-keyboard-response","346","318397","0.0-6.0-0.170","LABU","3","f","rechts","24","","fixation","","","",""
"624","img/0_300.png","70","image-keyboard-response","347","319022","0.0-6.0-1.170","LABU","3","f","rechts","24","","","object","f","0","true"
"null","<div style=""font-size:60px;"">+</div>","null","html-keyboard-response","348","319473","0.0-6.0-0.171","LABU","3","f","rechts","24","","fixation","","","",""
"725","img/0_240.png","70","image-keyboard-response","349","320199","0.0-6.0-1.171","LABU","3","f","rechts","24","","","object","f","0","true"
"null","<div style=""font-size:60px;"">+</div>","null","html-keyboard-response","350","320650","0.0-6.0-0.172","LABU","3","f","rechts","24","","fixation","","","",""
"668","img/30_120.png","74","image-keyboard-response","351","321320","0.0-6.0-1.172","LABU","3","f","rechts","24","","","object","j","30","true"
"null","<div style=""font-size:60px;"">+</div>","null","html-keyboard-response","352","321621","0.0-6.0-0.173","LABU","3","f","rechts","24","","fixation","","","",""
"715","img/30_180.png","70","image-keyboard-response","353","322337","0.0-6.0-1.173","LABU","3","f","rechts","24","","","object","f","30","true"
"null","<div style=""font-size:60px;"">+</div>","null","html-keyboard-response","354","322838","0.0-6.0-0.174","LABU","3","f","rechts","24","","fixation","","","",""
"873","img/150_60.png","70","image-keyboard-response","355","323712","0.0-6.0-1.174","LABU","3","f","rechts","24","","","object","f","150","true"
"null","<div style=""font-size:60px;"">+</div>","null","html-keyboard-response","356","324063","0.0-6.0-0.175","LABU","3","f","rechts","24","","fixation","","","",""
"768","img/30_60.png","70","image-keyboard-response","357","324833","0.0-6.0-1.175","LABU","3","f","rechts","24","","","object","j","30","false"
"null","<div style=""font-size:60px;"">+</div>","null","html-keyboard-response","358","325134","0.0-6.0-0.176","LABU","3","f","rechts","24","","fixation","","","",""
"860","img/90_150.png","74","image-keyboard-response","359","325995","0.0-6.0-1.176","LABU","3","f","rechts","24","","","object","j","90","true"
"null","<div style=""font-size:60px;"">+</div>","null","html-keyboard-response","360","326347","0.0-6.0-0.177","LABU","3","f","rechts","24","","fixation","","","",""
"753","img/150_90.png","74","image-keyboard-response","361","327102","0.0-6.0-1.177","LABU","3","f","rechts","24","","","object","f","150","false"
"null","<div style=""font-size:60px;"">+</div>","null","html-keyboard-response","362","327503","0.0-6.0-0.178","LABU","3","f","rechts","24","","fixation","","","",""
"1070","img/150_300.png","70","image-keyboard-response","363","328575","0.0-6.0-1.178","LABU","3","f","rechts","24","","","object","j","150","false"
"null","<div style=""font-size:60px;"">+</div>","null","html-keyboard-response","364","328876","0.0-6.0-0.179","LABU","3","f","rechts","24","","fixation","","","",""
"627","img/60_330.png","74","image-keyboard-response","365","329504","0.0-6.0-1.179","LABU","3","f","rechts","24","","","object","j","60","true"
"null","<div style=""font-size:60px;"">+</div>","null","html-keyboard-response","366","329956","0.0-6.0-0.180","LABU","3","f","rechts","24","","fixation","","","",""
"1068","img/L150_180.png","74","image-keyboard-response","367","331025","0.0-6.0-1.180","LABU","3","f","rechts","24","","","object","j","150","true"
"null","<div style=""font-size:60px;"">+</div>","null","html-keyboard-response","368","331427","0.0-6.0-0.181","LABU","3","f","rechts","24","","fixation","","","",""
"717","img/0_150.png","74","image-keyboard-response","369","332146","0.0-6.0-1.181","LABU","3","f","rechts","24","","","object","j","0","true"
"null","<div style=""font-size:60px;"">+</div>","null","html-keyboard-response","370","332647","0.0-6.0-0.182","LABU","3","f","rechts","24","","fixation","","","",""
"933","img/120_90.png","74","image-keyboard-response","371","333581","0.0-6.0-1.182","LABU","3","f","rechts","24","","","object","f","120","false"
"null","<div style=""font-size:60px;"">+</div>","null","html-keyboard-response","372","333884","0.0-6.0-0.183","LABU","3","f","rechts","24","","fixation","","","",""
"705","img/30_270.png","70","image-keyboard-response","373","334589","0.0-6.0-1.183","LABU","3","f","rechts","24","","","object","f","30","true"
"null","<div style=""font-size:60px;"">+</div>","null","html-keyboard-response","374","334991","0.0-6.0-0.184","LABU","3","f","rechts","24","","fixation","","","",""
"805","img/150_270.png","74","image-keyboard-response","375","335797","0.0-6.0-1.184","LABU","3","f","rechts","24","","","object","j","150","true"
"null","<div style=""font-size:60px;"">+</div>","null","html-keyboard-response","376","336098","0.0-6.0-0.185","LABU","3","f","rechts","24","","fixation","","","",""
"819","img/L90_180.png","74","image-keyboard-response","377","336918","0.0-6.0-1.185","LABU","3","f","rechts","24","","","object","j","90","true"
"null","<div style=""font-size:60px;"">+</div>","null","html-keyboard-response","378","337219","0.0-6.0-0.186","LABU","3","f","rechts","24","","fixation","","","",""
"1318","img/90_180.png","70","image-keyboard-response","379","338538","0.0-6.0-1.186","LABU","3","f","rechts","24","","","object","f","90","true"
"null","<div style=""font-size:60px;"">+</div>","null","html-keyboard-response","380","338940","0.0-6.0-0.187","LABU","3","f","rechts","24","","fixation","","","",""
"666","img/30_90.png","74","image-keyboard-response","381","339607","0.0-6.0-1.187","LABU","3","f","rechts","24","","","object","j","30","true"
"null","<div style=""font-size:60px;"">+</div>","null","html-keyboard-response","382","340059","0.0-6.0-0.188","LABU","3","f","rechts","24","","fixation","","","",""
"691","img/L30_180.png","74","image-keyboard-response","383","340751","0.0-6.0-1.188","LABU","3","f","rechts","24","","","object","j","30","true"
"null","<div style=""font-size:60px;"">+</div>","null","html-keyboard-response","384","341253","0.0-6.0-0.189","LABU","3","f","rechts","24","","fixation","","","",""
"873","img/90_330.png","74","image-keyboard-response","385","342127","0.0-6.0-1.189","LABU","3","f","rechts","24","","","object","j","90","true"
"null","<div style=""font-size:60px;"">+</div>","null","html-keyboard-response","386","342429","0.0-6.0-0.190","LABU","3","f","rechts","24","","fixation","","","",""
"656","img/0_90.png","74","image-keyboard-response","387","343086","0.0-6.0-1.190","LABU","3","f","rechts","24","","","object","j","0","true"
"null","<div style=""font-size:60px;"">+</div>","null","html-keyboard-response","388","343588","0.0-6.0-0.191","LABU","3","f","rechts","24","","fixation","","","",""
"822","img/120_270.png","74","image-keyboard-response","389","344411","0.0-6.0-1.191","LABU","3","f","rechts","24","","","object","j","120","true"
"null","<div style=""font-size:60px;"">+</div>","null","html-keyboard-response","390","344713","0.0-6.0-0.192","LABU","3","f","rechts","24","","fixation","","","",""
"1074","img/60_30.png","70","image-keyboard-response","391","345788","0.0-6.0-1.192","LABU","3","f","rechts","24","","","object","f","60","true"
"null","<div style=""font-size:60px;"">+</div>","null","html-keyboard-response","392","346090","0.0-6.0-0.193","LABU","3","f","rechts","24","","fixation","","","",""
"791","img/0_30.png","74","image-keyboard-response","393","346882","0.0-6.0-1.193","LABU","3","f","rechts","24","","","object","j","0","true"
"null","<div style=""font-size:60px;"">+</div>","null","html-keyboard-response","394","347384","0.0-6.0-0.194","LABU","3","f","rechts","24","","fixation","","","",""
"746","img/120_330.png","74","image-keyboard-response","395","348130","0.0-6.0-1.194","LABU","3","f","rechts","24","","","object","j","120","true"
"null","<div style=""font-size:60px;"">+</div>","null","html-keyboard-response","396","348582","0.0-6.0-0.195","LABU","3","f","rechts","24","","fixation","","","",""
"720","img/60_90.png","74","image-keyboard-response","397","349302","0.0-6.0-1.195","LABU","3","f","rechts","24","","","object","j","60","true"
"null","<div style=""font-size:60px;"">+</div>","null","html-keyboard-response","398","349654","0.0-6.0-0.196","LABU","3","f","rechts","24","","fixation","","","",""
"929","img/150_120.png","74","image-keyboard-response","399","350583","0.0-6.0-1.196","LABU","3","f","rechts","24","","","object","f","150","false"
"null","<div style=""font-size:60px;"">+</div>","null","html-keyboard-response","400","350885","0.0-6.0-0.197","LABU","3","f","rechts","24","","fixation","","","",""
"712","img/0_270.png","70","image-keyboard-response","401","351598","0.0-6.0-1.197","LABU","3","f","rechts","24","","","object","f","0","true"
"null","<div style=""font-size:60px;"">+</div>","null","html-keyboard-response","402","351900","0.0-6.0-0.198","LABU","3","f","rechts","24","","fixation","","","",""
"798","img/30_240.png","70","image-keyboard-response","403","352698","0.0-6.0-1.198","LABU","3","f","rechts","24","","","object","f","30","true"
"null","<div style=""font-size:60px;"">+</div>","null","html-keyboard-response","404","353050","0.0-6.0-0.199","LABU","3","f","rechts","24","","fixation","","","",""
"885","img/150_180.png","70","image-keyboard-response","405","353935","0.0-6.0-1.199","LABU","3","f","rechts","24","","","object","f","150","true"
"null","<div style=""font-size:60px;"">+</div>","null","html-keyboard-response","406","354337","0.0-6.0-0.200","LABU","3","f","rechts","24","","fixation","","","",""
"695","img/0_330.png","70","image-keyboard-response","407","355032","0.0-6.0-1.200","LABU","3","f","rechts","24","","","object","f","0","true"
"null","<div style=""font-size:60px;"">+</div>","null","html-keyboard-response","408","355542","0.0-6.0-0.201","LABU","3","f","rechts","24","","fixation","","","",""
"629","img/90_210.png","70","image-keyboard-response","409","356172","0.0-6.0-1.201","LABU","3","f","rechts","24","","","object","f","90","true"
"null","<div style=""font-size:60px;"">+</div>","null","html-keyboard-response","410","356674","0.0-6.0-0.202","LABU","3","f","rechts","24","","fixation","","","",""
"656","img/90_120.png","74","image-keyboard-response","411","357331","0.0-6.0-1.202","LABU","3","f","rechts","24","","","object","j","90","true"
"null","<div style=""font-size:60px;"">+</div>","null","html-keyboard-response","412","357833","0.0-6.0-0.203","LABU","3","f","rechts","24","","fixation","","","",""
"650","img/90_300.png","70","image-keyboard-response","413","358484","0.0-6.0-1.203","LABU","3","f","rechts","24","","","object","j","90","false"
"null","<div style=""font-size:60px;"">+</div>","null","html-keyboard-response","414","358935","0.0-6.0-0.204","LABU","3","f","rechts","24","","fixation","","","",""
"682","img/90_30.png","70","image-keyboard-response","415","359618","0.0-6.0-1.204","LABU","3","f","rechts","24","","","object","f","90","true"
"null","<div style=""font-size:60px;"">+</div>","null","html-keyboard-response","416","359970","0.0-6.0-0.205","LABU","3","f","rechts","24","","fixation","","","",""
"757","img/90_60.png","70","image-keyboard-response","417","360727","0.0-6.0-1.205","LABU","3","f","rechts","24","","","object","f","90","true"
"null","<div style=""font-size:60px;"">+</div>","null","html-keyboard-response","418","361029","0.0-6.0-0.206","LABU","3","f","rechts","24","","fixation","","","",""
"830","img/150_240.png","70","image-keyboard-response","419","361859","0.0-6.0-1.206","LABU","3","f","rechts","24","","","object","j","150","false"
"null","<div style=""font-size:60px;"">+</div>","null","html-keyboard-response","420","362211","0.0-6.0-0.207","LABU","3","f","rechts","24","","fixation","","","",""
"888","img/120_150.png","74","image-keyboard-response","421","363099","0.0-6.0-1.207","LABU","3","f","rechts","24","","","object","j","120","true"
"7789","<p>Du hast in 85% der Versuche korrekt entschieden.</p><p>Deine durchschnittliche Reaktionszeit war  896ms.</p><p>Dr&uuml;cke eine beliebige Taste, um die Session zu beenden. Vielen Dank!</p>","75","html-keyboard-response","422","370889","0.0-7.0","LABU","3","f","rechts","24","","","","","",""
