"rt","stimulus","key_press","trial_type","trial_index","time_elapsed","internal_node_id","subject","session","sex","handedness","age","responses","test_part","condition","correct_response","angle","correct"
"2974","<p>Mental Rotation Experiment.</p> <p>Dr&uuml;cke eine beliebige Taste, um anzufangen.</p>","70","html-keyboard-response","0","2978","0.0-0.0","LABU","2","f","rechts","24","","","","","",""
"2769","","","survey-text","1","5748","0.0-1.0","LABU","2","f","rechts","24","{""Q0"":""LABU""}","","","","",""
"791","","","survey-text","2","6539","0.0-2.0","LABU","2","f","rechts","24","{""Q0"":""2""}","","","","",""
"2580","","","survey-multi-choice","3","9122","0.0-3.0","LABU","2","f","rechts","24","{""Q0"":""f"",""Q1"":""rechts""}","","","","",""
"2210","","","survey-text","4","11333","0.0-4.0","LABU","2","f","rechts","24","{""Q0"":""24""}","","","","",""
"7235","<p> Stell dir vor, dass du vor einem runden Tisch stehst, auf dem sich ein blauer Ball am Tischrand befindet. Entlang des Tischrands ist jeweils ein verschieden langer Pfeil. Nun bewegst du dich entlang dieses Pfeils bis an seine Spitze. Wenn du am Ende des Pfeils angekommen bist, schau zur Tischmitte. </p> <img src='img/90_180.png'></img> <br> <p>Entscheide dann, ob der Ball von deiner neuen (vorgestellten) Position links oder rechts von dir liegt.</p> <p>Dr&uuml;cke die <strong>'f'</strong>-Taste f&uuml;r links, die <strong>'j'</strong>-Taste f&uuml;r rechts.</p> <br><p> Das Bild wird jeweils 1 Sekunde lang pr&auml;sentiert. Du hast 3 Sekunden Zeit eine Entscheidung zu treffen.</p>","74","html-keyboard-response","5","18569","0.0-5.0","LABU","2","f","rechts","24","","","","","",""
"null","<div style=""font-size:60px;"">+</div>","null","html-keyboard-response","6","20073","0.0-6.0-0.0","LABU","2","f","rechts","24","","fixation","","","",""
"861","img/150_60.png","70","image-keyboard-response","7","20935","0.0-6.0-1.0","LABU","2","f","rechts","24","","","self","f","150","true"
"null","<div style=""font-size:60px;"">+</div>","null","html-keyboard-response","8","21287","0.0-6.0-0.1","LABU","2","f","rechts","24","","fixation","","","",""
"743","img/0_30.png","74","image-keyboard-response","9","22031","0.0-6.0-1.1","LABU","2","f","rechts","24","","","self","j","0","true"
"null","<div style=""font-size:60px;"">+</div>","null","html-keyboard-response","10","22431","0.0-6.0-0.2","LABU","2","f","rechts","24","","fixation","","","",""
"786","img/120_330.png","70","image-keyboard-response","11","23218","0.0-6.0-1.2","LABU","2","f","rechts","24","","","self","f","120","true"
"null","<div style=""font-size:60px;"">+</div>","null","html-keyboard-response","12","23620","0.0-6.0-0.3","LABU","2","f","rechts","24","","fixation","","","",""
"939","img/90_120.png","70","image-keyboard-response","13","24560","0.0-6.0-1.3","LABU","2","f","rechts","24","","","self","f","90","true"
"null","<div style=""font-size:60px;"">+</div>","null","html-keyboard-response","14","24961","0.0-6.0-0.4","LABU","2","f","rechts","24","","fixation","","","",""
"802","img/120_90.png","70","image-keyboard-response","15","25765","0.0-6.0-1.4","LABU","2","f","rechts","24","","","self","f","120","true"
"null","<div style=""font-size:60px;"">+</div>","null","html-keyboard-response","16","26217","0.0-6.0-0.5","LABU","2","f","rechts","24","","fixation","","","",""
"741","img/0_120.png","74","image-keyboard-response","17","26959","0.0-6.0-1.5","LABU","2","f","rechts","24","","","self","j","0","true"
"null","<div style=""font-size:60px;"">+</div>","null","html-keyboard-response","18","27411","0.0-6.0-0.6","LABU","2","f","rechts","24","","fixation","","","",""
"946","img/30_270.png","70","image-keyboard-response","19","28358","0.0-6.0-1.6","LABU","2","f","rechts","24","","","self","f","30","true"
"null","<div style=""font-size:60px;"">+</div>","null","html-keyboard-response","20","28810","0.0-6.0-0.7","LABU","2","f","rechts","24","","fixation","","","",""
"705","img/30_300.png","70","image-keyboard-response","21","29516","0.0-6.0-1.7","LABU","2","f","rechts","24","","","self","f","30","true"
"null","<div style=""font-size:60px;"">+</div>","null","html-keyboard-response","22","29918","0.0-6.0-0.8","LABU","2","f","rechts","24","","fixation","","","",""
"936","img/L30_180.png","70","image-keyboard-response","23","30855","0.0-6.0-1.8","LABU","2","f","rechts","24","","","self","f","30","true"
"null","<div style=""font-size:60px;"">+</div>","null","html-keyboard-response","24","31357","0.0-6.0-0.9","LABU","2","f","rechts","24","","fixation","","","",""
"652","img/0_330.png","70","image-keyboard-response","25","32010","0.0-6.0-1.9","LABU","2","f","rechts","24","","","self","f","0","true"
"null","<div style=""font-size:60px;"">+</div>","null","html-keyboard-response","26","32362","0.0-6.0-0.10","LABU","2","f","rechts","24","","fixation","","","",""
"780","img/90_180.png","74","image-keyboard-response","27","33143","0.0-6.0-1.10","LABU","2","f","rechts","24","","","self","j","90","true"
"null","<div style=""font-size:60px;"">+</div>","null","html-keyboard-response","28","33445","0.0-6.0-0.11","LABU","2","f","rechts","24","","fixation","","","",""
"1073","img/120_30.png","70","image-keyboard-response","29","34519","0.0-6.0-1.11","LABU","2","f","rechts","24","","","self","j","120","false"
"null","<div style=""font-size:60px;"">+</div>","null","html-keyboard-response","30","34971","0.0-6.0-0.12","LABU","2","f","rechts","24","","fixation","","","",""
"1271","img/90_30.png","74","image-keyboard-response","31","36243","0.0-6.0-1.12","LABU","2","f","rechts","24","","","self","j","90","true"
"null","<div style=""font-size:60px;"">+</div>","null","html-keyboard-response","32","36745","0.0-6.0-0.13","LABU","2","f","rechts","24","","fixation","","","",""
"1634","img/30_90.png","74","image-keyboard-response","33","38381","0.0-6.0-1.13","LABU","2","f","rechts","24","","","self","j","30","true"
"null","<div style=""font-size:60px;"">+</div>","null","html-keyboard-response","34","38682","0.0-6.0-0.14","LABU","2","f","rechts","24","","fixation","","","",""
"1018","img/120_210.png","74","image-keyboard-response","35","39701","0.0-6.0-1.14","LABU","2","f","rechts","24","","","self","j","120","true"
"null","<div style=""font-size:60px;"">+</div>","null","html-keyboard-response","36","40103","0.0-6.0-0.15","LABU","2","f","rechts","24","","fixation","","","",""
"675","img/0_240.png","70","image-keyboard-response","37","40779","0.0-6.0-1.15","LABU","2","f","rechts","24","","","self","f","0","true"
"null","<div style=""font-size:60px;"">+</div>","null","html-keyboard-response","38","41181","0.0-6.0-0.16","LABU","2","f","rechts","24","","fixation","","","",""
"1080","img/30_120.png","70","image-keyboard-response","39","42262","0.0-6.0-1.16","LABU","2","f","rechts","24","","","self","j","30","false"
"null","<div style=""font-size:60px;"">+</div>","null","html-keyboard-response","40","42764","0.0-6.0-0.17","LABU","2","f","rechts","24","","fixation","","","",""
"1011","img/90_60.png","70","image-keyboard-response","41","43777","0.0-6.0-1.17","LABU","2","f","rechts","24","","","self","j","90","false"
"null","<div style=""font-size:60px;"">+</div>","null","html-keyboard-response","42","44128","0.0-6.0-0.18","LABU","2","f","rechts","24","","fixation","","","",""
"940","img/0_270.png","70","image-keyboard-response","43","45069","0.0-6.0-1.18","LABU","2","f","rechts","24","","","self","f","0","true"
"null","<div style=""font-size:60px;"">+</div>","null","html-keyboard-response","44","45520","0.0-6.0-0.19","LABU","2","f","rechts","24","","fixation","","","",""
"1211","img/90_150.png","70","image-keyboard-response","45","46734","0.0-6.0-1.19","LABU","2","f","rechts","24","","","self","f","90","true"
"null","<div style=""font-size:60px;"">+</div>","null","html-keyboard-response","46","47235","0.0-6.0-0.20","LABU","2","f","rechts","24","","fixation","","","",""
"1074","img/L120_180.png","70","image-keyboard-response","47","48311","0.0-6.0-1.20","LABU","2","f","rechts","24","","","self","f","120","true"
"null","<div style=""font-size:60px;"">+</div>","null","html-keyboard-response","48","48612","0.0-6.0-0.21","LABU","2","f","rechts","24","","fixation","","","",""
"771","img/L90_180.png","70","image-keyboard-response","49","49386","0.0-6.0-1.21","LABU","2","f","rechts","24","","","self","f","90","true"
"null","<div style=""font-size:60px;"">+</div>","null","html-keyboard-response","50","49687","0.0-6.0-0.22","LABU","2","f","rechts","24","","fixation","","","",""
"801","img/60_330.png","70","image-keyboard-response","51","50491","0.0-6.0-1.22","LABU","2","f","rechts","24","","","self","f","60","true"
"null","<div style=""font-size:60px;"">+</div>","null","html-keyboard-response","52","50942","0.0-6.0-0.23","LABU","2","f","rechts","24","","fixation","","","",""
"832","img/30_60.png","74","image-keyboard-response","53","51776","0.0-6.0-1.23","LABU","2","f","rechts","24","","","self","j","30","true"
"null","<div style=""font-size:60px;"">+</div>","null","html-keyboard-response","54","52078","0.0-6.0-0.24","LABU","2","f","rechts","24","","fixation","","","",""
"960","img/60_90.png","74","image-keyboard-response","55","53039","0.0-6.0-1.24","LABU","2","f","rechts","24","","","self","j","60","true"
"null","<div style=""font-size:60px;"">+</div>","null","html-keyboard-response","56","53541","0.0-6.0-0.25","LABU","2","f","rechts","24","","fixation","","","",""
"778","img/120_270.png","74","image-keyboard-response","57","54320","0.0-6.0-1.25","LABU","2","f","rechts","24","","","self","j","120","true"
"null","<div style=""font-size:60px;"">+</div>","null","html-keyboard-response","58","54722","0.0-6.0-0.26","LABU","2","f","rechts","24","","fixation","","","",""
"834","img/60_150.png","70","image-keyboard-response","59","55557","0.0-6.0-1.26","LABU","2","f","rechts","24","","","self","f","60","true"
"null","<div style=""font-size:60px;"">+</div>","null","html-keyboard-response","60","56009","0.0-6.0-0.27","LABU","2","f","rechts","24","","fixation","","","",""
"788","img/60_270.png","70","image-keyboard-response","61","56799","0.0-6.0-1.27","LABU","2","f","rechts","24","","","self","f","60","true"
"null","<div style=""font-size:60px;"">+</div>","null","html-keyboard-response","62","57300","0.0-6.0-0.28","LABU","2","f","rechts","24","","fixation","","","",""
"636","img/90_210.png","74","image-keyboard-response","63","57938","0.0-6.0-1.28","LABU","2","f","rechts","24","","","self","j","90","true"
"null","<div style=""font-size:60px;"">+</div>","null","html-keyboard-response","64","58389","0.0-6.0-0.29","LABU","2","f","rechts","24","","fixation","","","",""
"857","img/150_180.png","74","image-keyboard-response","65","59248","0.0-6.0-1.29","LABU","2","f","rechts","24","","","self","j","150","true"
"null","<div style=""font-size:60px;"">+</div>","null","html-keyboard-response","66","59699","0.0-6.0-0.30","LABU","2","f","rechts","24","","fixation","","","",""
"727","img/0_150.png","74","image-keyboard-response","67","60427","0.0-6.0-1.30","LABU","2","f","rechts","24","","","self","j","0","true"
"null","<div style=""font-size:60px;"">+</div>","null","html-keyboard-response","68","60929","0.0-6.0-0.31","LABU","2","f","rechts","24","","fixation","","","",""
"749","img/90_240.png","74","image-keyboard-response","69","61679","0.0-6.0-1.31","LABU","2","f","rechts","24","","","self","j","90","true"
"null","<div style=""font-size:60px;"">+</div>","null","html-keyboard-response","70","62081","0.0-6.0-0.32","LABU","2","f","rechts","24","","fixation","","","",""
"784","img/L60_180.png","70","image-keyboard-response","71","62866","0.0-6.0-1.32","LABU","2","f","rechts","24","","","self","f","60","true"
"null","<div style=""font-size:60px;"">+</div>","null","html-keyboard-response","72","63368","0.0-6.0-0.33","LABU","2","f","rechts","24","","fixation","","","",""
"707","img/0_60.png","74","image-keyboard-response","73","64077","0.0-6.0-1.33","LABU","2","f","rechts","24","","","self","j","0","true"
"null","<div style=""font-size:60px;"">+</div>","null","html-keyboard-response","74","64578","0.0-6.0-0.34","LABU","2","f","rechts","24","","fixation","","","",""
"631","img/120_180.png","74","image-keyboard-response","75","65210","0.0-6.0-1.34","LABU","2","f","rechts","24","","","self","j","120","true"
"null","<div style=""font-size:60px;"">+</div>","null","html-keyboard-response","76","65662","0.0-6.0-0.35","LABU","2","f","rechts","24","","fixation","","","",""
"620","img/0_300.png","70","image-keyboard-response","77","66283","0.0-6.0-1.35","LABU","2","f","rechts","24","","","self","f","0","true"
"null","<div style=""font-size:60px;"">+</div>","null","html-keyboard-response","78","66685","0.0-6.0-0.36","LABU","2","f","rechts","24","","fixation","","","",""
"763","img/60_30.png","74","image-keyboard-response","79","67449","0.0-6.0-1.36","LABU","2","f","rechts","24","","","self","j","60","true"
"null","<div style=""font-size:60px;"">+</div>","null","html-keyboard-response","80","67901","0.0-6.0-0.37","LABU","2","f","rechts","24","","fixation","","","",""
"828","img/30_240.png","70","image-keyboard-response","81","68730","0.0-6.0-1.37","LABU","2","f","rechts","24","","","self","f","30","true"
"null","<div style=""font-size:60px;"">+</div>","null","html-keyboard-response","82","69232","0.0-6.0-0.38","LABU","2","f","rechts","24","","fixation","","","",""
"721","img/150_270.png","74","image-keyboard-response","83","69954","0.0-6.0-1.38","LABU","2","f","rechts","24","","","self","j","150","true"
"null","<div style=""font-size:60px;"">+</div>","null","html-keyboard-response","84","70256","0.0-6.0-0.39","LABU","2","f","rechts","24","","fixation","","","",""
"732","img/60_180.png","74","image-keyboard-response","85","70989","0.0-6.0-1.39","LABU","2","f","rechts","24","","","self","j","60","true"
"null","<div style=""font-size:60px;"">+</div>","null","html-keyboard-response","86","71341","0.0-6.0-0.40","LABU","2","f","rechts","24","","fixation","","","",""
"679","img/30_180.png","74","image-keyboard-response","87","72021","0.0-6.0-1.40","LABU","2","f","rechts","24","","","self","j","30","true"
"null","<div style=""font-size:60px;"">+</div>","null","html-keyboard-response","88","72423","0.0-6.0-0.41","LABU","2","f","rechts","24","","fixation","","","",""
"726","img/90_330.png","70","image-keyboard-response","89","73150","0.0-6.0-1.41","LABU","2","f","rechts","24","","","self","f","90","true"
"null","<div style=""font-size:60px;"">+</div>","null","html-keyboard-response","90","73452","0.0-6.0-0.42","LABU","2","f","rechts","24","","fixation","","","",""
"701","img/150_300.png","74","image-keyboard-response","91","74154","0.0-6.0-1.42","LABU","2","f","rechts","24","","","self","j","150","true"
"null","<div style=""font-size:60px;"">+</div>","null","html-keyboard-response","92","74656","0.0-6.0-0.43","LABU","2","f","rechts","24","","fixation","","","",""
"631","img/90_300.png","70","image-keyboard-response","93","75288","0.0-6.0-1.43","LABU","2","f","rechts","24","","","self","f","90","true"
"null","<div style=""font-size:60px;"">+</div>","null","html-keyboard-response","94","75690","0.0-6.0-0.44","LABU","2","f","rechts","24","","fixation","","","",""
"869","img/60_210.png","74","image-keyboard-response","95","76560","0.0-6.0-1.44","LABU","2","f","rechts","24","","","self","j","60","true"
"null","<div style=""font-size:60px;"">+</div>","null","html-keyboard-response","96","77062","0.0-6.0-0.45","LABU","2","f","rechts","24","","fixation","","","",""
"837","img/150_240.png","74","image-keyboard-response","97","77900","0.0-6.0-1.45","LABU","2","f","rechts","24","","","self","j","150","true"
"null","<div style=""font-size:60px;"">+</div>","null","html-keyboard-response","98","78352","0.0-6.0-0.46","LABU","2","f","rechts","24","","fixation","","","",""
"867","img/150_90.png","70","image-keyboard-response","99","79220","0.0-6.0-1.46","LABU","2","f","rechts","24","","","self","f","150","true"
"null","<div style=""font-size:60px;"">+</div>","null","html-keyboard-response","100","79722","0.0-6.0-0.47","LABU","2","f","rechts","24","","fixation","","","",""
"648","img/0_90.png","74","image-keyboard-response","101","80371","0.0-6.0-1.47","LABU","2","f","rechts","24","","","self","j","0","true"
"null","<div style=""font-size:60px;"">+</div>","null","html-keyboard-response","102","80673","0.0-6.0-0.48","LABU","2","f","rechts","24","","fixation","","","",""
"1142","img/L150_180.png","70","image-keyboard-response","103","81816","0.0-6.0-1.48","LABU","2","f","rechts","24","","","self","f","150","true"
"null","<div style=""font-size:60px;"">+</div>","null","html-keyboard-response","104","82318","0.0-6.0-0.49","LABU","2","f","rechts","24","","fixation","","","",""
"750","img/0_210.png","70","image-keyboard-response","105","83069","0.0-6.0-1.49","LABU","2","f","rechts","24","","","self","f","0","true"
"null","<div style=""font-size:60px;"">+</div>","null","html-keyboard-response","106","83371","0.0-6.0-0.50","LABU","2","f","rechts","24","","fixation","","","",""
"793","img/120_150.png","70","image-keyboard-response","107","84165","0.0-6.0-1.50","LABU","2","f","rechts","24","","","self","f","120","true"
"null","<div style=""font-size:60px;"">+</div>","null","html-keyboard-response","108","84667","0.0-6.0-0.51","LABU","2","f","rechts","24","","fixation","","","",""
"688","img/150_120.png","70","image-keyboard-response","109","85356","0.0-6.0-1.51","LABU","2","f","rechts","24","","","self","f","150","true"
"null","<div style=""font-size:60px;"">+</div>","null","html-keyboard-response","110","85808","0.0-6.0-0.52","LABU","2","f","rechts","24","","fixation","","","",""
"879","img/30_240.png","70","image-keyboard-response","111","86688","0.0-6.0-1.52","LABU","2","f","rechts","24","","","self","f","30","true"
"null","<div style=""font-size:60px;"">+</div>","null","html-keyboard-response","112","87140","0.0-6.0-0.53","LABU","2","f","rechts","24","","fixation","","","",""
"714","img/0_270.png","70","image-keyboard-response","113","87854","0.0-6.0-1.53","LABU","2","f","rechts","24","","","self","f","0","true"
"null","<div style=""font-size:60px;"">+</div>","null","html-keyboard-response","114","88155","0.0-6.0-0.54","LABU","2","f","rechts","24","","fixation","","","",""
"765","img/150_270.png","74","image-keyboard-response","115","88921","0.0-6.0-1.54","LABU","2","f","rechts","24","","","self","j","150","true"
"null","<div style=""font-size:60px;"">+</div>","null","html-keyboard-response","116","89422","0.0-6.0-0.55","LABU","2","f","rechts","24","","fixation","","","",""
"779","img/120_180.png","74","image-keyboard-response","117","90203","0.0-6.0-1.55","LABU","2","f","rechts","24","","","self","j","120","true"
"null","<div style=""font-size:60px;"">+</div>","null","html-keyboard-response","118","90704","0.0-6.0-0.56","LABU","2","f","rechts","24","","fixation","","","",""
"777","img/120_330.png","70","image-keyboard-response","119","91483","0.0-6.0-1.56","LABU","2","f","rechts","24","","","self","f","120","true"
"null","<div style=""font-size:60px;"">+</div>","null","html-keyboard-response","120","91984","0.0-6.0-0.57","LABU","2","f","rechts","24","","fixation","","","",""
"637","img/0_330.png","70","image-keyboard-response","121","92622","0.0-6.0-1.57","LABU","2","f","rechts","24","","","self","f","0","true"
"null","<div style=""font-size:60px;"">+</div>","null","html-keyboard-response","122","93024","0.0-6.0-0.58","LABU","2","f","rechts","24","","fixation","","","",""
"757","img/L120_180.png","70","image-keyboard-response","123","93782","0.0-6.0-1.58","LABU","2","f","rechts","24","","","self","f","120","true"
"null","<div style=""font-size:60px;"">+</div>","null","html-keyboard-response","124","94233","0.0-6.0-0.59","LABU","2","f","rechts","24","","fixation","","","",""
"841","img/30_60.png","74","image-keyboard-response","125","95076","0.0-6.0-1.59","LABU","2","f","rechts","24","","","self","j","30","true"
"null","<div style=""font-size:60px;"">+</div>","null","html-keyboard-response","126","95526","0.0-6.0-0.60","LABU","2","f","rechts","24","","fixation","","","",""
"744","img/120_30.png","74","image-keyboard-response","127","96272","0.0-6.0-1.60","LABU","2","f","rechts","24","","","self","j","120","true"
"null","<div style=""font-size:60px;"">+</div>","null","html-keyboard-response","128","96722","0.0-6.0-0.61","LABU","2","f","rechts","24","","fixation","","","",""
"776","img/120_210.png","74","image-keyboard-response","129","97500","0.0-6.0-1.61","LABU","2","f","rechts","24","","","self","j","120","true"
"null","<div style=""font-size:60px;"">+</div>","null","html-keyboard-response","130","98001","0.0-6.0-0.62","LABU","2","f","rechts","24","","fixation","","","",""
"615","img/60_330.png","70","image-keyboard-response","131","98617","0.0-6.0-1.62","LABU","2","f","rechts","24","","","self","f","60","true"
"null","<div style=""font-size:60px;"">+</div>","null","html-keyboard-response","132","98918","0.0-6.0-0.63","LABU","2","f","rechts","24","","fixation","","","",""
"727","img/90_60.png","74","image-keyboard-response","133","99647","0.0-6.0-1.63","LABU","2","f","rechts","24","","","self","j","90","true"
"null","<div style=""font-size:60px;"">+</div>","null","html-keyboard-response","134","99949","0.0-6.0-0.64","LABU","2","f","rechts","24","","fixation","","","",""
"779","img/150_300.png","74","image-keyboard-response","135","100729","0.0-6.0-1.64","LABU","2","f","rechts","24","","","self","j","150","true"
"null","<div style=""font-size:60px;"">+</div>","null","html-keyboard-response","136","101030","0.0-6.0-0.65","LABU","2","f","rechts","24","","fixation","","","",""
"639","img/0_240.png","70","image-keyboard-response","137","101671","0.0-6.0-1.65","LABU","2","f","rechts","24","","","self","f","0","true"
"null","<div style=""font-size:60px;"">+</div>","null","html-keyboard-response","138","101972","0.0-6.0-0.66","LABU","2","f","rechts","24","","fixation","","","",""
"676","img/60_210.png","74","image-keyboard-response","139","102650","0.0-6.0-1.66","LABU","2","f","rechts","24","","","self","j","60","true"
"null","<div style=""font-size:60px;"">+</div>","null","html-keyboard-response","140","103001","0.0-6.0-0.67","LABU","2","f","rechts","24","","fixation","","","",""
"701","img/90_330.png","70","image-keyboard-response","141","103703","0.0-6.0-1.67","LABU","2","f","rechts","24","","","self","f","90","true"
"null","<div style=""font-size:60px;"">+</div>","null","html-keyboard-response","142","104105","0.0-6.0-0.68","LABU","2","f","rechts","24","","fixation","","","",""
"770","img/L90_180.png","70","image-keyboard-response","143","104876","0.0-6.0-1.68","LABU","2","f","rechts","24","","","self","f","90","true"
"null","<div style=""font-size:60px;"">+</div>","null","html-keyboard-response","144","105378","0.0-6.0-0.69","LABU","2","f","rechts","24","","fixation","","","",""
"752","img/L150_180.png","70","image-keyboard-response","145","106131","0.0-6.0-1.69","LABU","2","f","rechts","24","","","self","f","150","true"
"null","<div style=""font-size:60px;"">+</div>","null","html-keyboard-response","146","106483","0.0-6.0-0.70","LABU","2","f","rechts","24","","fixation","","","",""
"826","img/150_120.png","70","image-keyboard-response","147","107310","0.0-6.0-1.70","LABU","2","f","rechts","24","","","self","f","150","true"
"null","<div style=""font-size:60px;"">+</div>","null","html-keyboard-response","148","107711","0.0-6.0-0.71","LABU","2","f","rechts","24","","fixation","","","",""
"678","img/120_270.png","74","image-keyboard-response","149","108390","0.0-6.0-1.71","LABU","2","f","rechts","24","","","self","j","120","true"
"null","<div style=""font-size:60px;"">+</div>","null","html-keyboard-response","150","108892","0.0-6.0-0.72","LABU","2","f","rechts","24","","fixation","","","",""
"720","img/60_90.png","74","image-keyboard-response","151","109613","0.0-6.0-1.72","LABU","2","f","rechts","24","","","self","j","60","true"
"null","<div style=""font-size:60px;"">+</div>","null","html-keyboard-response","152","109915","0.0-6.0-0.73","LABU","2","f","rechts","24","","fixation","","","",""
"724","img/90_120.png","70","image-keyboard-response","153","110639","0.0-6.0-1.73","LABU","2","f","rechts","24","","","self","f","90","true"
"null","<div style=""font-size:60px;"">+</div>","null","html-keyboard-response","154","111041","0.0-6.0-0.74","LABU","2","f","rechts","24","","fixation","","","",""
"669","img/0_120.png","74","image-keyboard-response","155","111711","0.0-6.0-1.74","LABU","2","f","rechts","24","","","self","j","0","true"
"null","<div style=""font-size:60px;"">+</div>","null","html-keyboard-response","156","112063","0.0-6.0-0.75","LABU","2","f","rechts","24","","fixation","","","",""
"624","img/30_270.png","70","image-keyboard-response","157","112688","0.0-6.0-1.75","LABU","2","f","rechts","24","","","self","f","30","true"
"null","<div style=""font-size:60px;"">+</div>","null","html-keyboard-response","158","113190","0.0-6.0-0.76","LABU","2","f","rechts","24","","fixation","","","",""
"1013","img/L30_180.png","70","image-keyboard-response","159","114204","0.0-6.0-1.76","LABU","2","f","rechts","24","","","self","f","30","true"
"null","<div style=""font-size:60px;"">+</div>","null","html-keyboard-response","160","114556","0.0-6.0-0.77","LABU","2","f","rechts","24","","fixation","","","",""
"724","img/30_180.png","74","image-keyboard-response","161","115281","0.0-6.0-1.77","LABU","2","f","rechts","24","","","self","j","30","true"
"null","<div style=""font-size:60px;"">+</div>","null","html-keyboard-response","162","115583","0.0-6.0-0.78","LABU","2","f","rechts","24","","fixation","","","",""
"761","img/30_90.png","74","image-keyboard-response","163","116345","0.0-6.0-1.78","LABU","2","f","rechts","24","","","self","j","30","true"
"null","<div style=""font-size:60px;"">+</div>","null","html-keyboard-response","164","116697","0.0-6.0-0.79","LABU","2","f","rechts","24","","fixation","","","",""
"873","img/30_120.png","74","image-keyboard-response","165","117571","0.0-6.0-1.79","LABU","2","f","rechts","24","","","self","j","30","true"
"null","<div style=""font-size:60px;"">+</div>","null","html-keyboard-response","166","117873","0.0-6.0-0.80","LABU","2","f","rechts","24","","fixation","","","",""
"917","img/90_180.png","74","image-keyboard-response","167","118790","0.0-6.0-1.80","LABU","2","f","rechts","24","","","self","j","90","true"
"null","<div style=""font-size:60px;"">+</div>","null","html-keyboard-response","168","119092","0.0-6.0-0.81","LABU","2","f","rechts","24","","fixation","","","",""
"689","img/0_210.png","70","image-keyboard-response","169","119782","0.0-6.0-1.81","LABU","2","f","rechts","24","","","self","f","0","true"
"null","<div style=""font-size:60px;"">+</div>","null","html-keyboard-response","170","120284","0.0-6.0-0.82","LABU","2","f","rechts","24","","fixation","","","",""
"620","img/0_150.png","74","image-keyboard-response","171","120905","0.0-6.0-1.82","LABU","2","f","rechts","24","","","self","j","0","true"
"null","<div style=""font-size:60px;"">+</div>","null","html-keyboard-response","172","121357","0.0-6.0-0.83","LABU","2","f","rechts","24","","fixation","","","",""
"678","img/0_30.png","74","image-keyboard-response","173","122035","0.0-6.0-1.83","LABU","2","f","rechts","24","","","self","j","0","true"
"null","<div style=""font-size:60px;"">+</div>","null","html-keyboard-response","174","122387","0.0-6.0-0.84","LABU","2","f","rechts","24","","fixation","","","",""
"748","img/60_180.png","74","image-keyboard-response","175","123136","0.0-6.0-1.84","LABU","2","f","rechts","24","","","self","j","60","true"
"null","<div style=""font-size:60px;"">+</div>","null","html-keyboard-response","176","123588","0.0-6.0-0.85","LABU","2","f","rechts","24","","fixation","","","",""
"798","img/150_240.png","74","image-keyboard-response","177","124387","0.0-6.0-1.85","LABU","2","f","rechts","24","","","self","j","150","true"
"null","<div style=""font-size:60px;"">+</div>","null","html-keyboard-response","178","124739","0.0-6.0-0.86","LABU","2","f","rechts","24","","fixation","","","",""
"771","img/150_90.png","70","image-keyboard-response","179","125510","0.0-6.0-1.86","LABU","2","f","rechts","24","","","self","f","150","true"
"null","<div style=""font-size:60px;"">+</div>","null","html-keyboard-response","180","125962","0.0-6.0-0.87","LABU","2","f","rechts","24","","fixation","","","",""
"718","img/0_90.png","74","image-keyboard-response","181","126680","0.0-6.0-1.87","LABU","2","f","rechts","24","","","self","j","0","true"
"null","<div style=""font-size:60px;"">+</div>","null","html-keyboard-response","182","127082","0.0-6.0-0.88","LABU","2","f","rechts","24","","fixation","","","",""
"744","img/120_150.png","70","image-keyboard-response","183","127826","0.0-6.0-1.88","LABU","2","f","rechts","24","","","self","f","120","true"
"null","<div style=""font-size:60px;"">+</div>","null","html-keyboard-response","184","128178","0.0-6.0-0.89","LABU","2","f","rechts","24","","fixation","","","",""
"914","img/150_60.png","70","image-keyboard-response","185","129092","0.0-6.0-1.89","LABU","2","f","rechts","24","","","self","f","150","true"
"null","<div style=""font-size:60px;"">+</div>","null","html-keyboard-response","186","129443","0.0-6.0-0.90","LABU","2","f","rechts","24","","fixation","","","",""
"766","img/60_30.png","74","image-keyboard-response","187","130210","0.0-6.0-1.90","LABU","2","f","rechts","24","","","self","j","60","true"
"null","<div style=""font-size:60px;"">+</div>","null","html-keyboard-response","188","130562","0.0-6.0-0.91","LABU","2","f","rechts","24","","fixation","","","",""
"696","img/0_60.png","74","image-keyboard-response","189","131258","0.0-6.0-1.91","LABU","2","f","rechts","24","","","self","j","0","true"
"null","<div style=""font-size:60px;"">+</div>","null","html-keyboard-response","190","131660","0.0-6.0-0.92","LABU","2","f","rechts","24","","fixation","","","",""
"728","img/120_90.png","70","image-keyboard-response","191","132388","0.0-6.0-1.92","LABU","2","f","rechts","24","","","self","f","120","true"
"null","<div style=""font-size:60px;"">+</div>","null","html-keyboard-response","192","132840","0.0-6.0-0.93","LABU","2","f","rechts","24","","fixation","","","",""
"894","img/150_180.png","74","image-keyboard-response","193","133734","0.0-6.0-1.93","LABU","2","f","rechts","24","","","self","j","150","true"
"null","<div style=""font-size:60px;"">+</div>","null","html-keyboard-response","194","134086","0.0-6.0-0.94","LABU","2","f","rechts","24","","fixation","","","",""
"1008","img/90_240.png","74","image-keyboard-response","195","135095","0.0-6.0-1.94","LABU","2","f","rechts","24","","","self","j","90","true"
"null","<div style=""font-size:60px;"">+</div>","null","html-keyboard-response","196","135595","0.0-6.0-0.95","LABU","2","f","rechts","24","","fixation","","","",""
"830","img/90_300.png","70","image-keyboard-response","197","136426","0.0-6.0-1.95","LABU","2","f","rechts","24","","","self","f","90","true"
"null","<div style=""font-size:60px;"">+</div>","null","html-keyboard-response","198","136877","0.0-6.0-0.96","LABU","2","f","rechts","24","","fixation","","","",""
"742","img/0_300.png","70","image-keyboard-response","199","137620","0.0-6.0-1.96","LABU","2","f","rechts","24","","","self","f","0","true"
"null","<div style=""font-size:60px;"">+</div>","null","html-keyboard-response","200","138072","0.0-6.0-0.97","LABU","2","f","rechts","24","","fixation","","","",""
"740","img/30_300.png","70","image-keyboard-response","201","138812","0.0-6.0-1.97","LABU","2","f","rechts","24","","","self","f","30","true"
"null","<div style=""font-size:60px;"">+</div>","null","html-keyboard-response","202","139114","0.0-6.0-0.98","LABU","2","f","rechts","24","","fixation","","","",""
"908","img/60_270.png","70","image-keyboard-response","203","140022","0.0-6.0-1.98","LABU","2","f","rechts","24","","","self","f","60","true"
"null","<div style=""font-size:60px;"">+</div>","null","html-keyboard-response","204","140324","0.0-6.0-0.99","LABU","2","f","rechts","24","","fixation","","","",""
"629","img/90_210.png","74","image-keyboard-response","205","140955","0.0-6.0-1.99","LABU","2","f","rechts","24","","","self","j","90","true"
"null","<div style=""font-size:60px;"">+</div>","null","html-keyboard-response","206","141256","0.0-6.0-0.100","LABU","2","f","rechts","24","","fixation","","","",""
"814","img/60_150.png","70","image-keyboard-response","207","142070","0.0-6.0-1.100","LABU","2","f","rechts","24","","","self","f","60","true"
"null","<div style=""font-size:60px;"">+</div>","null","html-keyboard-response","208","142572","0.0-6.0-0.101","LABU","2","f","rechts","24","","fixation","","","",""
"803","img/90_30.png","74","image-keyboard-response","209","143376","0.0-6.0-1.101","LABU","2","f","rechts","24","","","self","j","90","true"
"null","<div style=""font-size:60px;"">+</div>","null","html-keyboard-response","210","143727","0.0-6.0-0.102","LABU","2","f","rechts","24","","fixation","","","",""
"1423","img/L60_180.png","70","image-keyboard-response","211","145152","0.0-6.0-1.102","LABU","2","f","rechts","24","","","self","f","60","true"
"null","<div style=""font-size:60px;"">+</div>","null","html-keyboard-response","212","145504","0.0-6.0-0.103","LABU","2","f","rechts","24","","fixation","","","",""
"844","img/90_150.png","70","image-keyboard-response","213","146349","0.0-6.0-1.103","LABU","2","f","rechts","24","","","self","f","90","true"
"null","<div style=""font-size:60px;"">+</div>","null","html-keyboard-response","214","146750","0.0-6.0-0.104","LABU","2","f","rechts","24","","fixation","","","",""
"669","img/150_180.png","74","image-keyboard-response","215","147421","0.0-6.0-1.104","LABU","2","f","rechts","24","","","self","j","150","true"
"null","<div style=""font-size:60px;"">+</div>","null","html-keyboard-response","216","147722","0.0-6.0-0.105","LABU","2","f","rechts","24","","fixation","","","",""
"873","img/30_90.png","74","image-keyboard-response","217","148597","0.0-6.0-1.105","LABU","2","f","rechts","24","","","self","j","30","true"
"null","<div style=""font-size:60px;"">+</div>","null","html-keyboard-response","218","148898","0.0-6.0-0.106","LABU","2","f","rechts","24","","fixation","","","",""
"636","img/30_270.png","70","image-keyboard-response","219","149535","0.0-6.0-1.106","LABU","2","f","rechts","24","","","self","f","30","true"
"null","<div style=""font-size:60px;"">+</div>","null","html-keyboard-response","220","149887","0.0-6.0-0.107","LABU","2","f","rechts","24","","fixation","","","",""
"763","img/30_300.png","70","image-keyboard-response","221","150651","0.0-6.0-1.107","LABU","2","f","rechts","24","","","self","f","30","true"
"null","<div style=""font-size:60px;"">+</div>","null","html-keyboard-response","222","150953","0.0-6.0-0.108","LABU","2","f","rechts","24","","fixation","","","",""
"868","img/150_60.png","74","image-keyboard-response","223","151821","0.0-6.0-1.108","LABU","2","f","rechts","24","","","self","f","150","false"
"null","<div style=""font-size:60px;"">+</div>","null","html-keyboard-response","224","152273","0.0-6.0-0.109","LABU","2","f","rechts","24","","fixation","","","",""
"1075","img/L30_180.png","70","image-keyboard-response","225","153349","0.0-6.0-1.109","LABU","2","f","rechts","24","","","self","f","30","true"
"null","<div style=""font-size:60px;"">+</div>","null","html-keyboard-response","226","153700","0.0-6.0-0.110","LABU","2","f","rechts","24","","fixation","","","",""
"763","img/0_210.png","70","image-keyboard-response","227","154465","0.0-6.0-1.110","LABU","2","f","rechts","24","","","self","f","0","true"
"null","<div style=""font-size:60px;"">+</div>","null","html-keyboard-response","228","154766","0.0-6.0-0.111","LABU","2","f","rechts","24","","fixation","","","",""
"723","img/30_60.png","74","image-keyboard-response","229","155490","0.0-6.0-1.111","LABU","2","f","rechts","24","","","self","j","30","true"
"null","<div style=""font-size:60px;"">+</div>","null","html-keyboard-response","230","155892","0.0-6.0-0.112","LABU","2","f","rechts","24","","fixation","","","",""
"761","img/150_270.png","74","image-keyboard-response","231","156654","0.0-6.0-1.112","LABU","2","f","rechts","24","","","self","j","150","true"
"null","<div style=""font-size:60px;"">+</div>","null","html-keyboard-response","232","157006","0.0-6.0-0.113","LABU","2","f","rechts","24","","fixation","","","",""
"833","img/60_270.png","70","image-keyboard-response","233","157841","0.0-6.0-1.113","LABU","2","f","rechts","24","","","self","f","60","true"
"null","<div style=""font-size:60px;"">+</div>","null","html-keyboard-response","234","158242","0.0-6.0-0.114","LABU","2","f","rechts","24","","fixation","","","",""
"904","img/120_180.png","74","image-keyboard-response","235","159148","0.0-6.0-1.114","LABU","2","f","rechts","24","","","self","j","120","true"
"null","<div style=""font-size:60px;"">+</div>","null","html-keyboard-response","236","159449","0.0-6.0-0.115","LABU","2","f","rechts","24","","fixation","","","",""
"809","img/120_30.png","70","image-keyboard-response","237","160259","0.0-6.0-1.115","LABU","2","f","rechts","24","","","self","j","120","false"
"null","<div style=""font-size:60px;"">+</div>","null","html-keyboard-response","238","160661","0.0-6.0-0.116","LABU","2","f","rechts","24","","fixation","","","",""
"1078","img/90_60.png","74","image-keyboard-response","239","161740","0.0-6.0-1.116","LABU","2","f","rechts","24","","","self","j","90","true"
"null","<div style=""font-size:60px;"">+</div>","null","html-keyboard-response","240","162042","0.0-6.0-0.117","LABU","2","f","rechts","24","","fixation","","","",""
"767","img/L150_180.png","70","image-keyboard-response","241","162810","0.0-6.0-1.117","LABU","2","f","rechts","24","","","self","f","150","true"
"null","<div style=""font-size:60px;"">+</div>","null","html-keyboard-response","242","163212","0.0-6.0-0.118","LABU","2","f","rechts","24","","fixation","","","",""
"803","img/60_210.png","74","image-keyboard-response","243","164016","0.0-6.0-1.118","LABU","2","f","rechts","24","","","self","j","60","true"
"null","<div style=""font-size:60px;"">+</div>","null","html-keyboard-response","244","164418","0.0-6.0-0.119","LABU","2","f","rechts","24","","fixation","","","",""
"729","img/60_90.png","74","image-keyboard-response","245","165148","0.0-6.0-1.119","LABU","2","f","rechts","24","","","self","j","60","true"
"null","<div style=""font-size:60px;"">+</div>","null","html-keyboard-response","246","165500","0.0-6.0-0.120","LABU","2","f","rechts","24","","fixation","","","",""
"861","img/0_150.png","74","image-keyboard-response","247","166362","0.0-6.0-1.120","LABU","2","f","rechts","24","","","self","j","0","true"
"null","<div style=""font-size:60px;"">+</div>","null","html-keyboard-response","248","166814","0.0-6.0-0.121","LABU","2","f","rechts","24","","fixation","","","",""
"797","img/90_120.png","70","image-keyboard-response","249","167611","0.0-6.0-1.121","LABU","2","f","rechts","24","","","self","f","90","true"
"null","<div style=""font-size:60px;"">+</div>","null","html-keyboard-response","250","168113","0.0-6.0-0.122","LABU","2","f","rechts","24","","fixation","","","",""
"1067","img/90_30.png","74","image-keyboard-response","251","169181","0.0-6.0-1.122","LABU","2","f","rechts","24","","","self","j","90","true"
"null","<div style=""font-size:60px;"">+</div>","null","html-keyboard-response","252","169633","0.0-6.0-0.123","LABU","2","f","rechts","24","","fixation","","","",""
"973","img/60_150.png","70","image-keyboard-response","253","170607","0.0-6.0-1.123","LABU","2","f","rechts","24","","","self","f","60","true"
"null","<div style=""font-size:60px;"">+</div>","null","html-keyboard-response","254","170908","0.0-6.0-0.124","LABU","2","f","rechts","24","","fixation","","","",""
"955","img/150_120.png","70","image-keyboard-response","255","171864","0.0-6.0-1.124","LABU","2","f","rechts","24","","","self","f","150","true"
"null","<div style=""font-size:60px;"">+</div>","null","html-keyboard-response","256","172216","0.0-6.0-0.125","LABU","2","f","rechts","24","","fixation","","","",""
"824","img/L90_180.png","70","image-keyboard-response","257","173040","0.0-6.0-1.125","LABU","2","f","rechts","24","","","self","f","90","true"
"null","<div style=""font-size:60px;"">+</div>","null","html-keyboard-response","258","173542","0.0-6.0-0.126","LABU","2","f","rechts","24","","fixation","","","",""
"901","img/120_270.png","74","image-keyboard-response","259","174444","0.0-6.0-1.126","LABU","2","f","rechts","24","","","self","j","120","true"
"null","<div style=""font-size:60px;"">+</div>","null","html-keyboard-response","260","174896","0.0-6.0-0.127","LABU","2","f","rechts","24","","fixation","","","",""
"751","img/90_240.png","74","image-keyboard-response","261","175647","0.0-6.0-1.127","LABU","2","f","rechts","24","","","self","j","90","true"
"null","<div style=""font-size:60px;"">+</div>","null","html-keyboard-response","262","176099","0.0-6.0-0.128","LABU","2","f","rechts","24","","fixation","","","",""
"771","img/90_210.png","74","image-keyboard-response","263","176871","0.0-6.0-1.128","LABU","2","f","rechts","24","","","self","j","90","true"
"null","<div style=""font-size:60px;"">+</div>","null","html-keyboard-response","264","177373","0.0-6.0-0.129","LABU","2","f","rechts","24","","fixation","","","",""
"848","img/0_90.png","74","image-keyboard-response","265","178222","0.0-6.0-1.129","LABU","2","f","rechts","24","","","self","j","0","true"
"null","<div style=""font-size:60px;"">+</div>","null","html-keyboard-response","266","178524","0.0-6.0-0.130","LABU","2","f","rechts","24","","fixation","","","",""
"877","img/150_300.png","74","image-keyboard-response","267","179402","0.0-6.0-1.130","LABU","2","f","rechts","24","","","self","j","150","true"
"null","<div style=""font-size:60px;"">+</div>","null","html-keyboard-response","268","179754","0.0-6.0-0.131","LABU","2","f","rechts","24","","fixation","","","",""
"804","img/120_90.png","70","image-keyboard-response","269","180559","0.0-6.0-1.131","LABU","2","f","rechts","24","","","self","f","120","true"
"null","<div style=""font-size:60px;"">+</div>","null","html-keyboard-response","270","180961","0.0-6.0-0.132","LABU","2","f","rechts","24","","fixation","","","",""
"818","img/90_330.png","70","image-keyboard-response","271","181780","0.0-6.0-1.132","LABU","2","f","rechts","24","","","self","f","90","true"
"null","<div style=""font-size:60px;"">+</div>","null","html-keyboard-response","272","182182","0.0-6.0-0.133","LABU","2","f","rechts","24","","fixation","","","",""
"698","img/0_330.png","70","image-keyboard-response","273","182881","0.0-6.0-1.133","LABU","2","f","rechts","24","","","self","f","0","true"
"null","<div style=""font-size:60px;"">+</div>","null","html-keyboard-response","274","183382","0.0-6.0-0.134","LABU","2","f","rechts","24","","fixation","","","",""
"656","img/90_300.png","70","image-keyboard-response","275","184039","0.0-6.0-1.134","LABU","2","f","rechts","24","","","self","f","90","true"
"null","<div style=""font-size:60px;"">+</div>","null","html-keyboard-response","276","184541","0.0-6.0-0.135","LABU","2","f","rechts","24","","fixation","","","",""
"700","img/0_60.png","74","image-keyboard-response","277","185241","0.0-6.0-1.135","LABU","2","f","rechts","24","","","self","j","0","true"
"null","<div style=""font-size:60px;"">+</div>","null","html-keyboard-response","278","185543","0.0-6.0-0.136","LABU","2","f","rechts","24","","fixation","","","",""
"855","img/90_150.png","70","image-keyboard-response","279","186398","0.0-6.0-1.136","LABU","2","f","rechts","24","","","self","f","90","true"
"null","<div style=""font-size:60px;"">+</div>","null","html-keyboard-response","280","186850","0.0-6.0-0.137","LABU","2","f","rechts","24","","fixation","","","",""
"752","img/120_150.png","70","image-keyboard-response","281","187602","0.0-6.0-1.137","LABU","2","f","rechts","24","","","self","f","120","true"
"null","<div style=""font-size:60px;"">+</div>","null","html-keyboard-response","282","187954","0.0-6.0-0.138","LABU","2","f","rechts","24","","fixation","","","",""
"792","img/0_240.png","70","image-keyboard-response","283","188746","0.0-6.0-1.138","LABU","2","f","rechts","24","","","self","f","0","true"
"null","<div style=""font-size:60px;"">+</div>","null","html-keyboard-response","284","189047","0.0-6.0-0.139","LABU","2","f","rechts","24","","fixation","","","",""
"801","img/L120_180.png","70","image-keyboard-response","285","189849","0.0-6.0-1.139","LABU","2","f","rechts","24","","","self","f","120","true"
"null","<div style=""font-size:60px;"">+</div>","null","html-keyboard-response","286","190251","0.0-6.0-0.140","LABU","2","f","rechts","24","","fixation","","","",""
"824","img/30_240.png","70","image-keyboard-response","287","191075","0.0-6.0-1.140","LABU","2","f","rechts","24","","","self","f","30","true"
"null","<div style=""font-size:60px;"">+</div>","null","html-keyboard-response","288","191427","0.0-6.0-0.141","LABU","2","f","rechts","24","","fixation","","","",""
"885","img/60_30.png","74","image-keyboard-response","289","192313","0.0-6.0-1.141","LABU","2","f","rechts","24","","","self","j","60","true"
"null","<div style=""font-size:60px;"">+</div>","null","html-keyboard-response","290","192815","0.0-6.0-0.142","LABU","2","f","rechts","24","","fixation","","","",""
"695","img/0_120.png","74","image-keyboard-response","291","193510","0.0-6.0-1.142","LABU","2","f","rechts","24","","","self","j","0","true"
"null","<div style=""font-size:60px;"">+</div>","null","html-keyboard-response","292","193862","0.0-6.0-0.143","LABU","2","f","rechts","24","","fixation","","","",""
"644","img/60_330.png","70","image-keyboard-response","293","194506","0.0-6.0-1.143","LABU","2","f","rechts","24","","","self","f","60","true"
"null","<div style=""font-size:60px;"">+</div>","null","html-keyboard-response","294","194857","0.0-6.0-0.144","LABU","2","f","rechts","24","","fixation","","","",""
"812","img/L60_180.png","70","image-keyboard-response","295","195670","0.0-6.0-1.144","LABU","2","f","rechts","24","","","self","f","60","true"
"null","<div style=""font-size:60px;"">+</div>","null","html-keyboard-response","296","196022","0.0-6.0-0.145","LABU","2","f","rechts","24","","fixation","","","",""
"734","img/60_180.png","74","image-keyboard-response","297","196756","0.0-6.0-1.145","LABU","2","f","rechts","24","","","self","j","60","true"
"null","<div style=""font-size:60px;"">+</div>","null","html-keyboard-response","298","197158","0.0-6.0-0.146","LABU","2","f","rechts","24","","fixation","","","",""
"641","img/0_270.png","70","image-keyboard-response","299","197800","0.0-6.0-1.146","LABU","2","f","rechts","24","","","self","f","0","true"
"null","<div style=""font-size:60px;"">+</div>","null","html-keyboard-response","300","198302","0.0-6.0-0.147","LABU","2","f","rechts","24","","fixation","","","",""
"626","img/90_180.png","74","image-keyboard-response","301","198930","0.0-6.0-1.147","LABU","2","f","rechts","24","","","self","j","90","true"
"null","<div style=""font-size:60px;"">+</div>","null","html-keyboard-response","302","199231","0.0-6.0-0.148","LABU","2","f","rechts","24","","fixation","","","",""
"981","img/30_180.png","74","image-keyboard-response","303","200214","0.0-6.0-1.148","LABU","2","f","rechts","24","","","self","j","30","true"
"null","<div style=""font-size:60px;"">+</div>","null","html-keyboard-response","304","200515","0.0-6.0-0.149","LABU","2","f","rechts","24","","fixation","","","",""
"796","img/120_210.png","74","image-keyboard-response","305","201312","0.0-6.0-1.149","LABU","2","f","rechts","24","","","self","j","120","true"
"null","<div style=""font-size:60px;"">+</div>","null","html-keyboard-response","306","201664","0.0-6.0-0.150","LABU","2","f","rechts","24","","fixation","","","",""
"676","img/0_300.png","70","image-keyboard-response","307","202342","0.0-6.0-1.150","LABU","2","f","rechts","24","","","self","f","0","true"
"null","<div style=""font-size:60px;"">+</div>","null","html-keyboard-response","308","202843","0.0-6.0-0.151","LABU","2","f","rechts","24","","fixation","","","",""
"634","img/0_30.png","74","image-keyboard-response","309","203478","0.0-6.0-1.151","LABU","2","f","rechts","24","","","self","j","0","true"
"null","<div style=""font-size:60px;"">+</div>","null","html-keyboard-response","310","203930","0.0-6.0-0.152","LABU","2","f","rechts","24","","fixation","","","",""
"847","img/120_330.png","70","image-keyboard-response","311","204779","0.0-6.0-1.152","LABU","2","f","rechts","24","","","self","f","120","true"
"null","<div style=""font-size:60px;"">+</div>","null","html-keyboard-response","312","205080","0.0-6.0-0.153","LABU","2","f","rechts","24","","fixation","","","",""
"737","img/150_240.png","74","image-keyboard-response","313","205819","0.0-6.0-1.153","LABU","2","f","rechts","24","","","self","j","150","true"
"null","<div style=""font-size:60px;"">+</div>","null","html-keyboard-response","314","206320","0.0-6.0-0.154","LABU","2","f","rechts","24","","fixation","","","",""
"914","img/30_120.png","74","image-keyboard-response","315","207235","0.0-6.0-1.154","LABU","2","f","rechts","24","","","self","j","30","true"
"null","<div style=""font-size:60px;"">+</div>","null","html-keyboard-response","316","207737","0.0-6.0-0.155","LABU","2","f","rechts","24","","fixation","","","",""
"937","img/150_90.png","70","image-keyboard-response","317","208675","0.0-6.0-1.155","LABU","2","f","rechts","24","","","self","f","150","true"
"null","<div style=""font-size:60px;"">+</div>","null","html-keyboard-response","318","209027","0.0-6.0-0.156","LABU","2","f","rechts","24","","fixation","","","",""
"852","img/150_300.png","74","image-keyboard-response","319","209880","0.0-6.0-1.156","LABU","2","f","rechts","24","","","self","j","150","true"
"null","<div style=""font-size:60px;"">+</div>","null","html-keyboard-response","320","210382","0.0-6.0-0.157","LABU","2","f","rechts","24","","fixation","","","",""
"630","img/120_210.png","74","image-keyboard-response","321","211013","0.0-6.0-1.157","LABU","2","f","rechts","24","","","self","j","120","true"
"null","<div style=""font-size:60px;"">+</div>","null","html-keyboard-response","322","211514","0.0-6.0-0.158","LABU","2","f","rechts","24","","fixation","","","",""
"746","img/90_330.png","70","image-keyboard-response","323","212261","0.0-6.0-1.158","LABU","2","f","rechts","24","","","self","f","90","true"
"null","<div style=""font-size:60px;"">+</div>","null","html-keyboard-response","324","212663","0.0-6.0-0.159","LABU","2","f","rechts","24","","fixation","","","",""
"687","img/90_210.png","74","image-keyboard-response","325","213352","0.0-6.0-1.159","LABU","2","f","rechts","24","","","self","j","90","true"
"null","<div style=""font-size:60px;"">+</div>","null","html-keyboard-response","326","213803","0.0-6.0-0.160","LABU","2","f","rechts","24","","fixation","","","",""
"597","img/30_270.png","70","image-keyboard-response","327","214401","0.0-6.0-1.160","LABU","2","f","rechts","24","","","self","f","30","true"
"null","<div style=""font-size:60px;"">+</div>","null","html-keyboard-response","328","214902","0.0-6.0-0.161","LABU","2","f","rechts","24","","fixation","","","",""
"896","img/150_90.png","70","image-keyboard-response","329","215799","0.0-6.0-1.161","LABU","2","f","rechts","24","","","self","f","150","true"
"null","<div style=""font-size:60px;"">+</div>","null","html-keyboard-response","330","216201","0.0-6.0-0.162","LABU","2","f","rechts","24","","fixation","","","",""
"795","img/120_330.png","70","image-keyboard-response","331","216997","0.0-6.0-1.162","LABU","2","f","rechts","24","","","self","f","120","true"
"null","<div style=""font-size:60px;"">+</div>","null","html-keyboard-response","332","217399","0.0-6.0-0.163","LABU","2","f","rechts","24","","fixation","","","",""
"683","img/60_210.png","74","image-keyboard-response","333","218083","0.0-6.0-1.163","LABU","2","f","rechts","24","","","self","j","60","true"
"null","<div style=""font-size:60px;"">+</div>","null","html-keyboard-response","334","218535","0.0-6.0-0.164","LABU","2","f","rechts","24","","fixation","","","",""
"710","img/90_180.png","74","image-keyboard-response","335","219246","0.0-6.0-1.164","LABU","2","f","rechts","24","","","self","j","90","true"
"null","<div style=""font-size:60px;"">+</div>","null","html-keyboard-response","336","219598","0.0-6.0-0.165","LABU","2","f","rechts","24","","fixation","","","",""
"897","img/90_30.png","74","image-keyboard-response","337","220496","0.0-6.0-1.165","LABU","2","f","rechts","24","","","self","j","90","true"
"null","<div style=""font-size:60px;"">+</div>","null","html-keyboard-response","338","220948","0.0-6.0-0.166","LABU","2","f","rechts","24","","fixation","","","",""
"904","img/60_270.png","70","image-keyboard-response","339","221852","0.0-6.0-1.166","LABU","2","f","rechts","24","","","self","f","60","true"
"null","<div style=""font-size:60px;"">+</div>","null","html-keyboard-response","340","222154","0.0-6.0-0.167","LABU","2","f","rechts","24","","fixation","","","",""
"897","img/60_180.png","74","image-keyboard-response","341","223052","0.0-6.0-1.167","LABU","2","f","rechts","24","","","self","j","60","true"
"null","<div style=""font-size:60px;"">+</div>","null","html-keyboard-response","342","223504","0.0-6.0-0.168","LABU","2","f","rechts","24","","fixation","","","",""
"1063","img/120_30.png","74","image-keyboard-response","343","224568","0.0-6.0-1.168","LABU","2","f","rechts","24","","","self","j","120","true"
"null","<div style=""font-size:60px;"">+</div>","null","html-keyboard-response","344","225020","0.0-6.0-0.169","LABU","2","f","rechts","24","","fixation","","","",""
"898","img/150_180.png","74","image-keyboard-response","345","225919","0.0-6.0-1.169","LABU","2","f","rechts","24","","","self","j","150","true"
"null","<div style=""font-size:60px;"">+</div>","null","html-keyboard-response","346","226270","0.0-6.0-0.170","LABU","2","f","rechts","24","","fixation","","","",""
"1069","img/30_300.png","70","image-keyboard-response","347","227340","0.0-6.0-1.170","LABU","2","f","rechts","24","","","self","f","30","true"
"null","<div style=""font-size:60px;"">+</div>","null","html-keyboard-response","348","227742","0.0-6.0-0.171","LABU","2","f","rechts","24","","fixation","","","",""
"746","img/60_330.png","70","image-keyboard-response","349","228488","0.0-6.0-1.171","LABU","2","f","rechts","24","","","self","f","60","true"
"null","<div style=""font-size:60px;"">+</div>","null","html-keyboard-response","350","228790","0.0-6.0-0.172","LABU","2","f","rechts","24","","fixation","","","",""
"1067","img/120_150.png","70","image-keyboard-response","351","229858","0.0-6.0-1.172","LABU","2","f","rechts","24","","","self","f","120","true"
"null","<div style=""font-size:60px;"">+</div>","null","html-keyboard-response","352","230359","0.0-6.0-0.173","LABU","2","f","rechts","24","","fixation","","","",""
"765","img/L90_180.png","70","image-keyboard-response","353","231124","0.0-6.0-1.173","LABU","2","f","rechts","24","","","self","f","90","true"
"null","<div style=""font-size:60px;"">+</div>","null","html-keyboard-response","354","231576","0.0-6.0-0.174","LABU","2","f","rechts","24","","fixation","","","",""
"798","img/L150_180.png","70","image-keyboard-response","355","232374","0.0-6.0-1.174","LABU","2","f","rechts","24","","","self","f","150","true"
"null","<div style=""font-size:60px;"">+</div>","null","html-keyboard-response","356","232726","0.0-6.0-0.175","LABU","2","f","rechts","24","","fixation","","","",""
"934","img/90_150.png","70","image-keyboard-response","357","233661","0.0-6.0-1.175","LABU","2","f","rechts","24","","","self","f","90","true"
"null","<div style=""font-size:60px;"">+</div>","null","html-keyboard-response","358","233963","0.0-6.0-0.176","LABU","2","f","rechts","24","","fixation","","","",""
"790","img/150_240.png","74","image-keyboard-response","359","234753","0.0-6.0-1.176","LABU","2","f","rechts","24","","","self","j","150","true"
"null","<div style=""font-size:60px;"">+</div>","null","html-keyboard-response","360","235105","0.0-6.0-0.177","LABU","2","f","rechts","24","","fixation","","","",""
"1007","img/60_150.png","70","image-keyboard-response","361","236113","0.0-6.0-1.177","LABU","2","f","rechts","24","","","self","f","60","true"
"null","<div style=""font-size:60px;"">+</div>","null","html-keyboard-response","362","236465","0.0-6.0-0.178","LABU","2","f","rechts","24","","fixation","","","",""
"881","img/0_300.png","70","image-keyboard-response","363","237346","0.0-6.0-1.178","LABU","2","f","rechts","24","","","self","f","0","true"
"null","<div style=""font-size:60px;"">+</div>","null","html-keyboard-response","364","237797","0.0-6.0-0.179","LABU","2","f","rechts","24","","fixation","","","",""
"654","img/0_240.png","70","image-keyboard-response","365","238452","0.0-6.0-1.179","LABU","2","f","rechts","24","","","self","f","0","true"
"null","<div style=""font-size:60px;"">+</div>","null","html-keyboard-response","366","238754","0.0-6.0-0.180","LABU","2","f","rechts","24","","fixation","","","",""
"688","img/0_90.png","74","image-keyboard-response","367","239442","0.0-6.0-1.180","LABU","2","f","rechts","24","","","self","j","0","true"
"null","<div style=""font-size:60px;"">+</div>","null","html-keyboard-response","368","239743","0.0-6.0-0.181","LABU","2","f","rechts","24","","fixation","","","",""
"776","img/60_30.png","74","image-keyboard-response","369","240520","0.0-6.0-1.181","LABU","2","f","rechts","24","","","self","j","60","true"
"null","<div style=""font-size:60px;"">+</div>","null","html-keyboard-response","370","240871","0.0-6.0-0.182","LABU","2","f","rechts","24","","fixation","","","",""
"679","img/0_120.png","74","image-keyboard-response","371","241551","0.0-6.0-1.182","LABU","2","f","rechts","24","","","self","j","0","true"
"null","<div style=""font-size:60px;"">+</div>","null","html-keyboard-response","372","242003","0.0-6.0-0.183","LABU","2","f","rechts","24","","fixation","","","",""
"738","img/120_270.png","74","image-keyboard-response","373","242742","0.0-6.0-1.183","LABU","2","f","rechts","24","","","self","j","120","true"
"null","<div style=""font-size:60px;"">+</div>","null","html-keyboard-response","374","243043","0.0-6.0-0.184","LABU","2","f","rechts","24","","fixation","","","",""
"968","img/30_240.png","70","image-keyboard-response","375","244012","0.0-6.0-1.184","LABU","2","f","rechts","24","","","self","f","30","true"
"null","<div style=""font-size:60px;"">+</div>","null","html-keyboard-response","376","244414","0.0-6.0-0.185","LABU","2","f","rechts","24","","fixation","","","",""
"682","img/0_150.png","74","image-keyboard-response","377","245096","0.0-6.0-1.185","LABU","2","f","rechts","24","","","self","j","0","true"
"null","<div style=""font-size:60px;"">+</div>","null","html-keyboard-response","378","245448","0.0-6.0-0.186","LABU","2","f","rechts","24","","fixation","","","",""
"780","img/90_240.png","74","image-keyboard-response","379","246228","0.0-6.0-1.186","LABU","2","f","rechts","24","","","self","j","90","true"
"null","<div style=""font-size:60px;"">+</div>","null","html-keyboard-response","380","246728","0.0-6.0-0.187","LABU","2","f","rechts","24","","fixation","","","",""
"813","img/150_120.png","70","image-keyboard-response","381","247542","0.0-6.0-1.187","LABU","2","f","rechts","24","","","self","f","150","true"
"null","<div style=""font-size:60px;"">+</div>","null","html-keyboard-response","382","247993","0.0-6.0-0.188","LABU","2","f","rechts","24","","fixation","","","",""
"741","img/0_330.png","70","image-keyboard-response","383","248736","0.0-6.0-1.188","LABU","2","f","rechts","24","","","self","f","0","true"
"null","<div style=""font-size:60px;"">+</div>","null","html-keyboard-response","384","249137","0.0-6.0-0.189","LABU","2","f","rechts","24","","fixation","","","",""
"604","img/0_30.png","74","image-keyboard-response","385","249743","0.0-6.0-1.189","LABU","2","f","rechts","24","","","self","j","0","true"
"null","<div style=""font-size:60px;"">+</div>","null","html-keyboard-response","386","250094","0.0-6.0-0.190","LABU","2","f","rechts","24","","fixation","","","",""
"859","img/30_180.png","74","image-keyboard-response","387","250955","0.0-6.0-1.190","LABU","2","f","rechts","24","","","self","j","30","true"
"null","<div style=""font-size:60px;"">+</div>","null","html-keyboard-response","388","251256","0.0-6.0-0.191","LABU","2","f","rechts","24","","fixation","","","",""
"836","img/0_210.png","70","image-keyboard-response","389","252093","0.0-6.0-1.191","LABU","2","f","rechts","24","","","self","f","0","true"
"null","<div style=""font-size:60px;"">+</div>","null","html-keyboard-response","390","252595","0.0-6.0-0.192","LABU","2","f","rechts","24","","fixation","","","",""
"802","img/L30_180.png","70","image-keyboard-response","391","253399","0.0-6.0-1.192","LABU","2","f","rechts","24","","","self","f","30","true"
"null","<div style=""font-size:60px;"">+</div>","null","html-keyboard-response","392","253699","0.0-6.0-0.193","LABU","2","f","rechts","24","","fixation","","","",""
"799","img/150_270.png","74","image-keyboard-response","393","254500","0.0-6.0-1.193","LABU","2","f","rechts","24","","","self","j","150","true"
"null","<div style=""font-size:60px;"">+</div>","null","html-keyboard-response","394","254801","0.0-6.0-0.194","LABU","2","f","rechts","24","","fixation","","","",""
"844","img/0_270.png","70","image-keyboard-response","395","255647","0.0-6.0-1.194","LABU","2","f","rechts","24","","","self","f","0","true"
"null","<div style=""font-size:60px;"">+</div>","null","html-keyboard-response","396","255998","0.0-6.0-0.195","LABU","2","f","rechts","24","","fixation","","","",""
"782","img/30_90.png","74","image-keyboard-response","397","256782","0.0-6.0-1.195","LABU","2","f","rechts","24","","","self","j","30","true"
"null","<div style=""font-size:60px;"">+</div>","null","html-keyboard-response","398","257083","0.0-6.0-0.196","LABU","2","f","rechts","24","","fixation","","","",""
"763","img/L60_180.png","70","image-keyboard-response","399","257847","0.0-6.0-1.196","LABU","2","f","rechts","24","","","self","f","60","true"
"null","<div style=""font-size:60px;"">+</div>","null","html-keyboard-response","400","258299","0.0-6.0-0.197","LABU","2","f","rechts","24","","fixation","","","",""
"1077","img/30_60.png","74","image-keyboard-response","401","259376","0.0-6.0-1.197","LABU","2","f","rechts","24","","","self","j","30","true"
"null","<div style=""font-size:60px;"">+</div>","null","html-keyboard-response","402","259678","0.0-6.0-0.198","LABU","2","f","rechts","24","","fixation","","","",""
"1056","img/L120_180.png","70","image-keyboard-response","403","260735","0.0-6.0-1.198","LABU","2","f","rechts","24","","","self","f","120","true"
"null","<div style=""font-size:60px;"">+</div>","null","html-keyboard-response","404","261036","0.0-6.0-0.199","LABU","2","f","rechts","24","","fixation","","","",""
"991","img/90_60.png","70","image-keyboard-response","405","262028","0.0-6.0-1.199","LABU","2","f","rechts","24","","","self","j","90","false"
"null","<div style=""font-size:60px;"">+</div>","null","html-keyboard-response","406","262330","0.0-6.0-0.200","LABU","2","f","rechts","24","","fixation","","","",""
"665","img/0_60.png","74","image-keyboard-response","407","262996","0.0-6.0-1.200","LABU","2","f","rechts","24","","","self","j","0","true"
"null","<div style=""font-size:60px;"">+</div>","null","html-keyboard-response","408","263398","0.0-6.0-0.201","LABU","2","f","rechts","24","","fixation","","","",""
"959","img/90_120.png","70","image-keyboard-response","409","264358","0.0-6.0-1.201","LABU","2","f","rechts","24","","","self","f","90","true"
"null","<div style=""font-size:60px;"">+</div>","null","html-keyboard-response","410","264760","0.0-6.0-0.202","LABU","2","f","rechts","24","","fixation","","","",""
"779","img/120_90.png","70","image-keyboard-response","411","265540","0.0-6.0-1.202","LABU","2","f","rechts","24","","","self","f","120","true"
"null","<div style=""font-size:60px;"">+</div>","null","html-keyboard-response","412","265992","0.0-6.0-0.203","LABU","2","f","rechts","24","","fixation","","","",""
"883","img/30_120.png","74","image-keyboard-response","413","266876","0.0-6.0-1.203","LABU","2","f","rechts","24","","","self","j","30","true"
"null","<div style=""font-size:60px;"">+</div>","null","html-keyboard-response","414","267328","0.0-6.0-0.204","LABU","2","f","rechts","24","","fixation","","","",""
"1107","img/150_60.png","70","image-keyboard-response","415","268436","0.0-6.0-1.204","LABU","2","f","rechts","24","","","self","f","150","true"
"null","<div style=""font-size:60px;"">+</div>","null","html-keyboard-response","416","268738","0.0-6.0-0.205","LABU","2","f","rechts","24","","fixation","","","",""
"804","img/60_90.png","74","image-keyboard-response","417","269543","0.0-6.0-1.205","LABU","2","f","rechts","24","","","self","j","60","true"
"null","<div style=""font-size:60px;"">+</div>","null","html-keyboard-response","418","269945","0.0-6.0-0.206","LABU","2","f","rechts","24","","fixation","","","",""
"877","img/90_300.png","70","image-keyboard-response","419","270822","0.0-6.0-1.206","LABU","2","f","rechts","24","","","self","f","90","true"
"null","<div style=""font-size:60px;"">+</div>","null","html-keyboard-response","420","271224","0.0-6.0-0.207","LABU","2","f","rechts","24","","fixation","","","",""
"906","img/120_180.png","74","image-keyboard-response","421","272131","0.0-6.0-1.207","LABU","2","f","rechts","24","","","self","j","120","true"
"9708","<p>Du hast in 94% der Versuche korrekt entschieden.</p><p>Deine durchschnittliche Reaktionszeit war  809ms.</p><p>Dr&uuml;cke eine beliebige Taste, um die Session zu beenden. Vielen Dank!</p>","72","html-keyboard-response","422","281840","0.0-7.0","LABU","2","f","rechts","24","","","","","",""
