"rt","stimulus","key_press","trial_type","trial_index","time_elapsed","internal_node_id","subject","session","sex","handedness","age","responses","test_part","condition","correct_response","angle","correct"
"1415","<p>Mental Rotation Experiment.</p> <p>Dr&uuml;cke eine beliebige Taste, um anzufangen.</p>","71","html-keyboard-response","0","1420","0.0-0.0","LABU","3","f","rechts","24","","","","","",""
"2287","","","survey-text","1","3710","0.0-1.0","LABU","3","f","rechts","24","{""Q0"":""LABU""}","","","","",""
"1541","","","survey-text","2","5251","0.0-2.0","LABU","3","f","rechts","24","{""Q0"":""3""}","","","","",""
"2493","","","survey-multi-choice","3","7747","0.0-3.0","LABU","3","f","rechts","24","{""Q0"":""f"",""Q1"":""rechts""}","","","","",""
"1572","","","survey-text","4","9321","0.0-4.0","LABU","3","f","rechts","24","{""Q0"":""24""}","","","","",""
"11002","<p> Stell dir vor, dass du vor einem runden Tisch stehst, auf dem sich ein blauer Ball am Tischrand befindet. Entlang des Tischrands ist jeweils ein verschieden langer Pfeil. Nun bewegst du dich entlang dieses Pfeils bis an seine Spitze. Wenn du am Ende des Pfeils angekommen bist, schau zur Tischmitte. </p> <img src='img/90_180.png'></img> <br> <p>Entscheide dann, ob der Ball von deiner neuen (vorgestellten) Position links oder rechts von dir liegt.</p> <p>Dr&uuml;cke die <strong>'f'</strong>-Taste f&uuml;r links, die <strong>'j'</strong>-Taste f&uuml;r rechts.</p> <br><p> Das Bild wird jeweils 1 Sekunde lang pr&auml;sentiert. Du hast 3 Sekunden Zeit eine Entscheidung zu treffen.</p>","74","html-keyboard-response","5","20327","0.0-5.0","LABU","3","f","rechts","24","","","","","",""
"null","<div style=""font-size:60px;"">+</div>","null","html-keyboard-response","6","21630","0.0-6.0-0.0","LABU","3","f","rechts","24","","fixation","","","",""
"661","img/90_180.png","74","image-keyboard-response","7","22294","0.0-6.0-1.0","LABU","3","f","rechts","24","","","self","j","90","true"
"null","<div style=""font-size:60px;"">+</div>","null","html-keyboard-response","8","22796","0.0-6.0-0.1","LABU","3","f","rechts","24","","fixation","","","",""
"813","img/150_60.png","70","image-keyboard-response","9","23610","0.0-6.0-1.1","LABU","3","f","rechts","24","","","self","f","150","true"
"null","<div style=""font-size:60px;"">+</div>","null","html-keyboard-response","10","24112","0.0-6.0-0.2","LABU","3","f","rechts","24","","fixation","","","",""
"719","img/90_330.png","70","image-keyboard-response","11","24832","0.0-6.0-1.2","LABU","3","f","rechts","24","","","self","f","90","true"
"null","<div style=""font-size:60px;"">+</div>","null","html-keyboard-response","12","25134","0.0-6.0-0.3","LABU","3","f","rechts","24","","fixation","","","",""
"837","img/90_150.png","70","image-keyboard-response","13","25972","0.0-6.0-1.3","LABU","3","f","rechts","24","","","self","f","90","true"
"null","<div style=""font-size:60px;"">+</div>","null","html-keyboard-response","14","26474","0.0-6.0-0.4","LABU","3","f","rechts","24","","fixation","","","",""
"671","img/L90_180.png","70","image-keyboard-response","15","27146","0.0-6.0-1.4","LABU","3","f","rechts","24","","","self","f","90","true"
"null","<div style=""font-size:60px;"">+</div>","null","html-keyboard-response","16","27648","0.0-6.0-0.5","LABU","3","f","rechts","24","","fixation","","","",""
"1069","img/120_30.png","70","image-keyboard-response","17","28718","0.0-6.0-1.5","LABU","3","f","rechts","24","","","self","j","120","false"
"null","<div style=""font-size:60px;"">+</div>","null","html-keyboard-response","18","29220","0.0-6.0-0.6","LABU","3","f","rechts","24","","fixation","","","",""
"842","img/60_330.png","70","image-keyboard-response","19","30063","0.0-6.0-1.6","LABU","3","f","rechts","24","","","self","f","60","true"
"null","<div style=""font-size:60px;"">+</div>","null","html-keyboard-response","20","30565","0.0-6.0-0.7","LABU","3","f","rechts","24","","fixation","","","",""
"854","img/L150_180.png","70","image-keyboard-response","21","31420","0.0-6.0-1.7","LABU","3","f","rechts","24","","","self","f","150","true"
"null","<div style=""font-size:60px;"">+</div>","null","html-keyboard-response","22","31922","0.0-6.0-0.8","LABU","3","f","rechts","24","","fixation","","","",""
"663","img/120_180.png","74","image-keyboard-response","23","32586","0.0-6.0-1.8","LABU","3","f","rechts","24","","","self","j","120","true"
"null","<div style=""font-size:60px;"">+</div>","null","html-keyboard-response","24","32988","0.0-6.0-0.9","LABU","3","f","rechts","24","","fixation","","","",""
"624","img/120_270.png","74","image-keyboard-response","25","33613","0.0-6.0-1.9","LABU","3","f","rechts","24","","","self","j","120","true"
"null","<div style=""font-size:60px;"">+</div>","null","html-keyboard-response","26","34115","0.0-6.0-0.10","LABU","3","f","rechts","24","","fixation","","","",""
"690","img/L30_180.png","70","image-keyboard-response","27","34806","0.0-6.0-1.10","LABU","3","f","rechts","24","","","self","f","30","true"
"null","<div style=""font-size:60px;"">+</div>","null","html-keyboard-response","28","35158","0.0-6.0-0.11","LABU","3","f","rechts","24","","fixation","","","",""
"904","img/120_330.png","70","image-keyboard-response","29","36063","0.0-6.0-1.11","LABU","3","f","rechts","24","","","self","f","120","true"
"null","<div style=""font-size:60px;"">+</div>","null","html-keyboard-response","30","36364","0.0-6.0-0.12","LABU","3","f","rechts","24","","fixation","","","",""
"735","img/150_180.png","74","image-keyboard-response","31","37100","0.0-6.0-1.12","LABU","3","f","rechts","24","","","self","j","150","true"
"null","<div style=""font-size:60px;"">+</div>","null","html-keyboard-response","32","37552","0.0-6.0-0.13","LABU","3","f","rechts","24","","fixation","","","",""
"814","img/60_180.png","74","image-keyboard-response","33","38367","0.0-6.0-1.13","LABU","3","f","rechts","24","","","self","j","60","true"
"null","<div style=""font-size:60px;"">+</div>","null","html-keyboard-response","34","38718","0.0-6.0-0.14","LABU","3","f","rechts","24","","fixation","","","",""
"805","img/150_270.png","74","image-keyboard-response","35","39524","0.0-6.0-1.14","LABU","3","f","rechts","24","","","self","j","150","true"
"null","<div style=""font-size:60px;"">+</div>","null","html-keyboard-response","36","39926","0.0-6.0-0.15","LABU","3","f","rechts","24","","fixation","","","",""
"838","img/90_120.png","70","image-keyboard-response","37","40765","0.0-6.0-1.15","LABU","3","f","rechts","24","","","self","f","90","true"
"null","<div style=""font-size:60px;"">+</div>","null","html-keyboard-response","38","41067","0.0-6.0-0.16","LABU","3","f","rechts","24","","fixation","","","",""
"707","img/0_30.png","74","image-keyboard-response","39","41775","0.0-6.0-1.16","LABU","3","f","rechts","24","","","self","j","0","true"
"null","<div style=""font-size:60px;"">+</div>","null","html-keyboard-response","40","42177","0.0-6.0-0.17","LABU","3","f","rechts","24","","fixation","","","",""
"601","img/0_60.png","74","image-keyboard-response","41","42779","0.0-6.0-1.17","LABU","3","f","rechts","24","","","self","j","0","true"
"null","<div style=""font-size:60px;"">+</div>","null","html-keyboard-response","42","43181","0.0-6.0-0.18","LABU","3","f","rechts","24","","fixation","","","",""
"789","img/120_150.png","70","image-keyboard-response","43","43971","0.0-6.0-1.18","LABU","3","f","rechts","24","","","self","f","120","true"
"null","<div style=""font-size:60px;"">+</div>","null","html-keyboard-response","44","44273","0.0-6.0-0.19","LABU","3","f","rechts","24","","fixation","","","",""
"832","img/30_180.png","74","image-keyboard-response","45","45106","0.0-6.0-1.19","LABU","3","f","rechts","24","","","self","j","30","true"
"null","<div style=""font-size:60px;"">+</div>","null","html-keyboard-response","46","45558","0.0-6.0-0.20","LABU","3","f","rechts","24","","fixation","","","",""
"789","img/120_90.png","70","image-keyboard-response","47","46348","0.0-6.0-1.20","LABU","3","f","rechts","24","","","self","f","120","true"
"null","<div style=""font-size:60px;"">+</div>","null","html-keyboard-response","48","46750","0.0-6.0-0.21","LABU","3","f","rechts","24","","fixation","","","",""
"824","img/60_90.png","70","image-keyboard-response","49","47575","0.0-6.0-1.21","LABU","3","f","rechts","24","","","self","j","60","false"
"null","<div style=""font-size:60px;"">+</div>","null","html-keyboard-response","50","47927","0.0-6.0-0.22","LABU","3","f","rechts","24","","fixation","","","",""
"844","img/0_300.png","70","image-keyboard-response","51","48772","0.0-6.0-1.22","LABU","3","f","rechts","24","","","self","f","0","true"
"null","<div style=""font-size:60px;"">+</div>","null","html-keyboard-response","52","49174","0.0-6.0-0.23","LABU","3","f","rechts","24","","fixation","","","",""
"863","img/0_210.png","70","image-keyboard-response","53","50038","0.0-6.0-1.23","LABU","3","f","rechts","24","","","self","f","0","true"
"null","<div style=""font-size:60px;"">+</div>","null","html-keyboard-response","54","50389","0.0-6.0-0.24","LABU","3","f","rechts","24","","fixation","","","",""
"874","img/0_240.png","70","image-keyboard-response","55","51265","0.0-6.0-1.24","LABU","3","f","rechts","24","","","self","f","0","true"
"null","<div style=""font-size:60px;"">+</div>","null","html-keyboard-response","56","51567","0.0-6.0-0.25","LABU","3","f","rechts","24","","fixation","","","",""
"771","img/90_240.png","74","image-keyboard-response","57","52340","0.0-6.0-1.25","LABU","3","f","rechts","24","","","self","j","90","true"
"null","<div style=""font-size:60px;"">+</div>","null","html-keyboard-response","58","52791","0.0-6.0-0.26","LABU","3","f","rechts","24","","fixation","","","",""
"879","img/120_210.png","74","image-keyboard-response","59","53673","0.0-6.0-1.26","LABU","3","f","rechts","24","","","self","j","120","true"
"null","<div style=""font-size:60px;"">+</div>","null","html-keyboard-response","60","53973","0.0-6.0-0.27","LABU","3","f","rechts","24","","fixation","","","",""
"985","img/30_240.png","70","image-keyboard-response","61","54960","0.0-6.0-1.27","LABU","3","f","rechts","24","","","self","f","30","true"
"null","<div style=""font-size:60px;"">+</div>","null","html-keyboard-response","62","55261","0.0-6.0-0.28","LABU","3","f","rechts","24","","fixation","","","",""
"795","img/30_60.png","74","image-keyboard-response","63","56059","0.0-6.0-1.28","LABU","3","f","rechts","24","","","self","j","30","true"
"null","<div style=""font-size:60px;"">+</div>","null","html-keyboard-response","64","56510","0.0-6.0-0.29","LABU","3","f","rechts","24","","fixation","","","",""
"864","img/L60_180.png","70","image-keyboard-response","65","57375","0.0-6.0-1.29","LABU","3","f","rechts","24","","","self","f","60","true"
"null","<div style=""font-size:60px;"">+</div>","null","html-keyboard-response","66","57827","0.0-6.0-0.30","LABU","3","f","rechts","24","","fixation","","","",""
"736","img/0_270.png","70","image-keyboard-response","67","58565","0.0-6.0-1.30","LABU","3","f","rechts","24","","","self","f","0","true"
"null","<div style=""font-size:60px;"">+</div>","null","html-keyboard-response","68","59016","0.0-6.0-0.31","LABU","3","f","rechts","24","","fixation","","","",""
"971","img/90_60.png","74","image-keyboard-response","69","59989","0.0-6.0-1.31","LABU","3","f","rechts","24","","","self","j","90","true"
"null","<div style=""font-size:60px;"">+</div>","null","html-keyboard-response","70","60490","0.0-6.0-0.32","LABU","3","f","rechts","24","","fixation","","","",""
"722","img/0_120.png","74","image-keyboard-response","71","61214","0.0-6.0-1.32","LABU","3","f","rechts","24","","","self","j","0","true"
"null","<div style=""font-size:60px;"">+</div>","null","html-keyboard-response","72","61565","0.0-6.0-0.33","LABU","3","f","rechts","24","","fixation","","","",""
"724","img/30_120.png","74","image-keyboard-response","73","62292","0.0-6.0-1.33","LABU","3","f","rechts","24","","","self","j","30","true"
"null","<div style=""font-size:60px;"">+</div>","null","html-keyboard-response","74","62693","0.0-6.0-0.34","LABU","3","f","rechts","24","","fixation","","","",""
"748","img/30_270.png","70","image-keyboard-response","75","63443","0.0-6.0-1.34","LABU","3","f","rechts","24","","","self","f","30","true"
"null","<div style=""font-size:60px;"">+</div>","null","html-keyboard-response","76","63795","0.0-6.0-0.35","LABU","3","f","rechts","24","","fixation","","","",""
"860","img/60_150.png","70","image-keyboard-response","77","64657","0.0-6.0-1.35","LABU","3","f","rechts","24","","","self","f","60","true"
"null","<div style=""font-size:60px;"">+</div>","null","html-keyboard-response","78","65159","0.0-6.0-0.36","LABU","3","f","rechts","24","","fixation","","","",""
"669","img/0_150.png","74","image-keyboard-response","79","65829","0.0-6.0-1.36","LABU","3","f","rechts","24","","","self","j","0","true"
"null","<div style=""font-size:60px;"">+</div>","null","html-keyboard-response","80","66181","0.0-6.0-0.37","LABU","3","f","rechts","24","","fixation","","","",""
"763","img/0_90.png","74","image-keyboard-response","81","66946","0.0-6.0-1.37","LABU","3","f","rechts","24","","","self","j","0","true"
"null","<div style=""font-size:60px;"">+</div>","null","html-keyboard-response","82","67347","0.0-6.0-0.38","LABU","3","f","rechts","24","","fixation","","","",""
"622","img/30_300.png","70","image-keyboard-response","83","67970","0.0-6.0-1.38","LABU","3","f","rechts","24","","","self","f","30","true"
"null","<div style=""font-size:60px;"">+</div>","null","html-keyboard-response","84","68472","0.0-6.0-0.39","LABU","3","f","rechts","24","","fixation","","","",""
"767","img/90_210.png","74","image-keyboard-response","85","69240","0.0-6.0-1.39","LABU","3","f","rechts","24","","","self","j","90","true"
"null","<div style=""font-size:60px;"">+</div>","null","html-keyboard-response","86","69742","0.0-6.0-0.40","LABU","3","f","rechts","24","","fixation","","","",""
"704","img/90_300.png","70","image-keyboard-response","87","70448","0.0-6.0-1.40","LABU","3","f","rechts","24","","","self","f","90","true"
"null","<div style=""font-size:60px;"">+</div>","null","html-keyboard-response","88","70849","0.0-6.0-0.41","LABU","3","f","rechts","24","","fixation","","","",""
"767","img/60_270.png","70","image-keyboard-response","89","71618","0.0-6.0-1.41","LABU","3","f","rechts","24","","","self","f","60","true"
"null","<div style=""font-size:60px;"">+</div>","null","html-keyboard-response","90","72020","0.0-6.0-0.42","LABU","3","f","rechts","24","","fixation","","","",""
"1116","img/L120_180.png","70","image-keyboard-response","91","73137","0.0-6.0-1.42","LABU","3","f","rechts","24","","","self","f","120","true"
"null","<div style=""font-size:60px;"">+</div>","null","html-keyboard-response","92","73439","0.0-6.0-0.43","LABU","3","f","rechts","24","","fixation","","","",""
"755","img/150_240.png","74","image-keyboard-response","93","74195","0.0-6.0-1.43","LABU","3","f","rechts","24","","","self","j","150","true"
"null","<div style=""font-size:60px;"">+</div>","null","html-keyboard-response","94","74647","0.0-6.0-0.44","LABU","3","f","rechts","24","","fixation","","","",""
"906","img/150_90.png","74","image-keyboard-response","95","75554","0.0-6.0-1.44","LABU","3","f","rechts","24","","","self","f","150","false"
"null","<div style=""font-size:60px;"">+</div>","null","html-keyboard-response","96","75956","0.0-6.0-0.45","LABU","3","f","rechts","24","","fixation","","","",""
"731","img/0_330.png","70","image-keyboard-response","97","76688","0.0-6.0-1.45","LABU","3","f","rechts","24","","","self","f","0","true"
"null","<div style=""font-size:60px;"">+</div>","null","html-keyboard-response","98","76990","0.0-6.0-0.46","LABU","3","f","rechts","24","","fixation","","","",""
"955","img/90_30.png","74","image-keyboard-response","99","77946","0.0-6.0-1.46","LABU","3","f","rechts","24","","","self","j","90","true"
"null","<div style=""font-size:60px;"">+</div>","null","html-keyboard-response","100","78398","0.0-6.0-0.47","LABU","3","f","rechts","24","","fixation","","","",""
"778","img/150_300.png","70","image-keyboard-response","101","79177","0.0-6.0-1.47","LABU","3","f","rechts","24","","","self","j","150","false"
"null","<div style=""font-size:60px;"">+</div>","null","html-keyboard-response","102","79629","0.0-6.0-0.48","LABU","3","f","rechts","24","","fixation","","","",""
"1151","img/60_30.png","74","image-keyboard-response","103","80781","0.0-6.0-1.48","LABU","3","f","rechts","24","","","self","j","60","true"
"null","<div style=""font-size:60px;"">+</div>","null","html-keyboard-response","104","81183","0.0-6.0-0.49","LABU","3","f","rechts","24","","fixation","","","",""
"871","img/60_210.png","74","image-keyboard-response","105","82055","0.0-6.0-1.49","LABU","3","f","rechts","24","","","self","j","60","true"
"null","<div style=""font-size:60px;"">+</div>","null","html-keyboard-response","106","82557","0.0-6.0-0.50","LABU","3","f","rechts","24","","fixation","","","",""
"785","img/150_120.png","70","image-keyboard-response","107","83343","0.0-6.0-1.50","LABU","3","f","rechts","24","","","self","f","150","true"
"null","<div style=""font-size:60px;"">+</div>","null","html-keyboard-response","108","83795","0.0-6.0-0.51","LABU","3","f","rechts","24","","fixation","","","",""
"882","img/30_90.png","74","image-keyboard-response","109","84678","0.0-6.0-1.51","LABU","3","f","rechts","24","","","self","j","30","true"
"null","<div style=""font-size:60px;"">+</div>","null","html-keyboard-response","110","85130","0.0-6.0-0.52","LABU","3","f","rechts","24","","fixation","","","",""
"708","img/30_300.png","70","image-keyboard-response","111","85839","0.0-6.0-1.52","LABU","3","f","rechts","24","","","self","f","30","true"
"null","<div style=""font-size:60px;"">+</div>","null","html-keyboard-response","112","86341","0.0-6.0-0.53","LABU","3","f","rechts","24","","fixation","","","",""
"685","img/0_330.png","70","image-keyboard-response","113","87026","0.0-6.0-1.53","LABU","3","f","rechts","24","","","self","f","0","true"
"null","<div style=""font-size:60px;"">+</div>","null","html-keyboard-response","114","87428","0.0-6.0-0.54","LABU","3","f","rechts","24","","fixation","","","",""
"873","img/90_330.png","70","image-keyboard-response","115","88301","0.0-6.0-1.54","LABU","3","f","rechts","24","","","self","f","90","true"
"null","<div style=""font-size:60px;"">+</div>","null","html-keyboard-response","116","88653","0.0-6.0-0.55","LABU","3","f","rechts","24","","fixation","","","",""
"915","img/90_150.png","70","image-keyboard-response","117","89569","0.0-6.0-1.55","LABU","3","f","rechts","24","","","self","f","90","true"
"null","<div style=""font-size:60px;"">+</div>","null","html-keyboard-response","118","89921","0.0-6.0-0.56","LABU","3","f","rechts","24","","fixation","","","",""
"782","img/150_60.png","70","image-keyboard-response","119","90704","0.0-6.0-1.56","LABU","3","f","rechts","24","","","self","f","150","true"
"null","<div style=""font-size:60px;"">+</div>","null","html-keyboard-response","120","91106","0.0-6.0-0.57","LABU","3","f","rechts","24","","fixation","","","",""
"880","img/L60_180.png","70","image-keyboard-response","121","91986","0.0-6.0-1.57","LABU","3","f","rechts","24","","","self","f","60","true"
"null","<div style=""font-size:60px;"">+</div>","null","html-keyboard-response","122","92338","0.0-6.0-0.58","LABU","3","f","rechts","24","","fixation","","","",""
"714","img/60_180.png","74","image-keyboard-response","123","93052","0.0-6.0-1.58","LABU","3","f","rechts","24","","","self","j","60","true"
"null","<div style=""font-size:60px;"">+</div>","null","html-keyboard-response","124","93454","0.0-6.0-0.59","LABU","3","f","rechts","24","","fixation","","","",""
"1134","img/90_120.png","74","image-keyboard-response","125","94588","0.0-6.0-1.59","LABU","3","f","rechts","24","","","self","f","90","false"
"null","<div style=""font-size:60px;"">+</div>","null","html-keyboard-response","126","94990","0.0-6.0-0.60","LABU","3","f","rechts","24","","fixation","","","",""
"721","img/120_90.png","70","image-keyboard-response","127","95712","0.0-6.0-1.60","LABU","3","f","rechts","24","","","self","f","120","true"
"null","<div style=""font-size:60px;"">+</div>","null","html-keyboard-response","128","96063","0.0-6.0-0.61","LABU","3","f","rechts","24","","fixation","","","",""
"993","img/0_300.png","70","image-keyboard-response","129","97058","0.0-6.0-1.61","LABU","3","f","rechts","24","","","self","f","0","true"
"null","<div style=""font-size:60px;"">+</div>","null","html-keyboard-response","130","97359","0.0-6.0-0.62","LABU","3","f","rechts","24","","fixation","","","",""
"863","img/90_240.png","74","image-keyboard-response","131","98223","0.0-6.0-1.62","LABU","3","f","rechts","24","","","self","j","90","true"
"null","<div style=""font-size:60px;"">+</div>","null","html-keyboard-response","132","98575","0.0-6.0-0.63","LABU","3","f","rechts","24","","fixation","","","",""
"735","img/90_210.png","74","image-keyboard-response","133","99311","0.0-6.0-1.63","LABU","3","f","rechts","24","","","self","j","90","true"
"null","<div style=""font-size:60px;"">+</div>","null","html-keyboard-response","134","99712","0.0-6.0-0.64","LABU","3","f","rechts","24","","fixation","","","",""
"881","img/30_270.png","74","image-keyboard-response","135","100595","0.0-6.0-1.64","LABU","3","f","rechts","24","","","self","f","30","false"
"null","<div style=""font-size:60px;"">+</div>","null","html-keyboard-response","136","101097","0.0-6.0-0.65","LABU","3","f","rechts","24","","fixation","","","",""
"875","img/30_60.png","74","image-keyboard-response","137","101973","0.0-6.0-1.65","LABU","3","f","rechts","24","","","self","j","30","true"
"null","<div style=""font-size:60px;"">+</div>","null","html-keyboard-response","138","102274","0.0-6.0-0.66","LABU","3","f","rechts","24","","fixation","","","",""
"991","img/0_120.png","74","image-keyboard-response","139","103267","0.0-6.0-1.66","LABU","3","f","rechts","24","","","self","j","0","true"
"null","<div style=""font-size:60px;"">+</div>","null","html-keyboard-response","140","103618","0.0-6.0-0.67","LABU","3","f","rechts","24","","fixation","","","",""
"749","img/30_240.png","70","image-keyboard-response","141","104369","0.0-6.0-1.67","LABU","3","f","rechts","24","","","self","f","30","true"
"null","<div style=""font-size:60px;"">+</div>","null","html-keyboard-response","142","104770","0.0-6.0-0.68","LABU","3","f","rechts","24","","fixation","","","",""
"857","img/150_270.png","74","image-keyboard-response","143","105629","0.0-6.0-1.68","LABU","3","f","rechts","24","","","self","j","150","true"
"null","<div style=""font-size:60px;"">+</div>","null","html-keyboard-response","144","105930","0.0-6.0-0.69","LABU","3","f","rechts","24","","fixation","","","",""
"878","img/30_90.png","74","image-keyboard-response","145","106810","0.0-6.0-1.69","LABU","3","f","rechts","24","","","self","j","30","true"
"null","<div style=""font-size:60px;"">+</div>","null","html-keyboard-response","146","107261","0.0-6.0-0.70","LABU","3","f","rechts","24","","fixation","","","",""
"813","img/120_180.png","74","image-keyboard-response","147","108076","0.0-6.0-1.70","LABU","3","f","rechts","24","","","self","j","120","true"
"null","<div style=""font-size:60px;"">+</div>","null","html-keyboard-response","148","108527","0.0-6.0-0.71","LABU","3","f","rechts","24","","fixation","","","",""
"698","img/L90_180.png","70","image-keyboard-response","149","109227","0.0-6.0-1.71","LABU","3","f","rechts","24","","","self","f","90","true"
"null","<div style=""font-size:60px;"">+</div>","null","html-keyboard-response","150","109578","0.0-6.0-0.72","LABU","3","f","rechts","24","","fixation","","","",""
"968","img/60_270.png","70","image-keyboard-response","151","110548","0.0-6.0-1.72","LABU","3","f","rechts","24","","","self","f","60","true"
"null","<div style=""font-size:60px;"">+</div>","null","html-keyboard-response","152","110949","0.0-6.0-0.73","LABU","3","f","rechts","24","","fixation","","","",""
"842","img/L30_180.png","70","image-keyboard-response","153","111793","0.0-6.0-1.73","LABU","3","f","rechts","24","","","self","f","30","true"
"null","<div style=""font-size:60px;"">+</div>","null","html-keyboard-response","154","112094","0.0-6.0-0.74","LABU","3","f","rechts","24","","fixation","","","",""
"972","img/150_90.png","70","image-keyboard-response","155","113067","0.0-6.0-1.74","LABU","3","f","rechts","24","","","self","f","150","true"
"null","<div style=""font-size:60px;"">+</div>","null","html-keyboard-response","156","113568","0.0-6.0-0.75","LABU","3","f","rechts","24","","fixation","","","",""
"816","img/L120_180.png","70","image-keyboard-response","157","114385","0.0-6.0-1.75","LABU","3","f","rechts","24","","","self","f","120","true"
"null","<div style=""font-size:60px;"">+</div>","null","html-keyboard-response","158","114686","0.0-6.0-0.76","LABU","3","f","rechts","24","","fixation","","","",""
"791","img/90_180.png","74","image-keyboard-response","159","115478","0.0-6.0-1.76","LABU","3","f","rechts","24","","","self","j","90","true"
"null","<div style=""font-size:60px;"">+</div>","null","html-keyboard-response","160","115880","0.0-6.0-0.77","LABU","3","f","rechts","24","","fixation","","","",""
"880","img/90_30.png","74","image-keyboard-response","161","116762","0.0-6.0-1.77","LABU","3","f","rechts","24","","","self","j","90","true"
"null","<div style=""font-size:60px;"">+</div>","null","html-keyboard-response","162","117263","0.0-6.0-0.78","LABU","3","f","rechts","24","","fixation","","","",""
"850","img/120_270.png","74","image-keyboard-response","163","118114","0.0-6.0-1.78","LABU","3","f","rechts","24","","","self","j","120","true"
"null","<div style=""font-size:60px;"">+</div>","null","html-keyboard-response","164","118466","0.0-6.0-0.79","LABU","3","f","rechts","24","","fixation","","","",""
"730","img/150_240.png","74","image-keyboard-response","165","119197","0.0-6.0-1.79","LABU","3","f","rechts","24","","","self","j","150","true"
"null","<div style=""font-size:60px;"">+</div>","null","html-keyboard-response","166","119699","0.0-6.0-0.80","LABU","3","f","rechts","24","","fixation","","","",""
"760","img/0_90.png","74","image-keyboard-response","167","120460","0.0-6.0-1.80","LABU","3","f","rechts","24","","","self","j","0","true"
"null","<div style=""font-size:60px;"">+</div>","null","html-keyboard-response","168","120912","0.0-6.0-0.81","LABU","3","f","rechts","24","","fixation","","","",""
"684","img/0_30.png","74","image-keyboard-response","169","121597","0.0-6.0-1.81","LABU","3","f","rechts","24","","","self","j","0","true"
"null","<div style=""font-size:60px;"">+</div>","null","html-keyboard-response","170","121999","0.0-6.0-0.82","LABU","3","f","rechts","24","","fixation","","","",""
"933","img/90_60.png","74","image-keyboard-response","171","122934","0.0-6.0-1.82","LABU","3","f","rechts","24","","","self","j","90","true"
"null","<div style=""font-size:60px;"">+</div>","null","html-keyboard-response","172","123385","0.0-6.0-0.83","LABU","3","f","rechts","24","","fixation","","","",""
"706","img/0_270.png","70","image-keyboard-response","173","124092","0.0-6.0-1.83","LABU","3","f","rechts","24","","","self","f","0","true"
"null","<div style=""font-size:60px;"">+</div>","null","html-keyboard-response","174","124394","0.0-6.0-0.84","LABU","3","f","rechts","24","","fixation","","","",""
"827","img/120_150.png","70","image-keyboard-response","175","125222","0.0-6.0-1.84","LABU","3","f","rechts","24","","","self","f","120","true"
"null","<div style=""font-size:60px;"">+</div>","null","html-keyboard-response","176","125523","0.0-6.0-0.85","LABU","3","f","rechts","24","","fixation","","","",""
"934","img/60_150.png","70","image-keyboard-response","177","126458","0.0-6.0-1.85","LABU","3","f","rechts","24","","","self","f","60","true"
"null","<div style=""font-size:60px;"">+</div>","null","html-keyboard-response","178","126910","0.0-6.0-0.86","LABU","3","f","rechts","24","","fixation","","","",""
"791","img/150_120.png","70","image-keyboard-response","179","127701","0.0-6.0-1.86","LABU","3","f","rechts","24","","","self","f","150","true"
"null","<div style=""font-size:60px;"">+</div>","null","html-keyboard-response","180","128053","0.0-6.0-0.87","LABU","3","f","rechts","24","","fixation","","","",""
"789","img/60_30.png","74","image-keyboard-response","181","128843","0.0-6.0-1.87","LABU","3","f","rechts","24","","","self","j","60","true"
"null","<div style=""font-size:60px;"">+</div>","null","html-keyboard-response","182","129295","0.0-6.0-0.88","LABU","3","f","rechts","24","","fixation","","","",""
"719","img/0_150.png","74","image-keyboard-response","183","130014","0.0-6.0-1.88","LABU","3","f","rechts","24","","","self","j","0","true"
"null","<div style=""font-size:60px;"">+</div>","null","html-keyboard-response","184","130466","0.0-6.0-0.89","LABU","3","f","rechts","24","","fixation","","","",""
"832","img/150_300.png","74","image-keyboard-response","185","131298","0.0-6.0-1.89","LABU","3","f","rechts","24","","","self","j","150","true"
"null","<div style=""font-size:60px;"">+</div>","null","html-keyboard-response","186","131600","0.0-6.0-0.90","LABU","3","f","rechts","24","","fixation","","","",""
"931","img/0_60.png","74","image-keyboard-response","187","132532","0.0-6.0-1.90","LABU","3","f","rechts","24","","","self","j","0","true"
"null","<div style=""font-size:60px;"">+</div>","null","html-keyboard-response","188","132984","0.0-6.0-0.91","LABU","3","f","rechts","24","","fixation","","","",""
"859","img/60_210.png","74","image-keyboard-response","189","133844","0.0-6.0-1.91","LABU","3","f","rechts","24","","","self","j","60","true"
"null","<div style=""font-size:60px;"">+</div>","null","html-keyboard-response","190","134246","0.0-6.0-0.92","LABU","3","f","rechts","24","","fixation","","","",""
"720","img/30_180.png","74","image-keyboard-response","191","134966","0.0-6.0-1.92","LABU","3","f","rechts","24","","","self","j","30","true"
"null","<div style=""font-size:60px;"">+</div>","null","html-keyboard-response","192","135318","0.0-6.0-0.93","LABU","3","f","rechts","24","","fixation","","","",""
"834","img/150_180.png","74","image-keyboard-response","193","136152","0.0-6.0-1.93","LABU","3","f","rechts","24","","","self","j","150","true"
"null","<div style=""font-size:60px;"">+</div>","null","html-keyboard-response","194","136604","0.0-6.0-0.94","LABU","3","f","rechts","24","","fixation","","","",""
"731","img/90_300.png","70","image-keyboard-response","195","137335","0.0-6.0-1.94","LABU","3","f","rechts","24","","","self","f","90","true"
"null","<div style=""font-size:60px;"">+</div>","null","html-keyboard-response","196","137837","0.0-6.0-0.95","LABU","3","f","rechts","24","","fixation","","","",""
"759","img/120_210.png","74","image-keyboard-response","197","138596","0.0-6.0-1.95","LABU","3","f","rechts","24","","","self","j","120","true"
"null","<div style=""font-size:60px;"">+</div>","null","html-keyboard-response","198","139048","0.0-6.0-0.96","LABU","3","f","rechts","24","","fixation","","","",""
"822","img/L150_180.png","70","image-keyboard-response","199","139870","0.0-6.0-1.96","LABU","3","f","rechts","24","","","self","f","150","true"
"null","<div style=""font-size:60px;"">+</div>","null","html-keyboard-response","200","140272","0.0-6.0-0.97","LABU","3","f","rechts","24","","fixation","","","",""
"786","img/60_90.png","74","image-keyboard-response","201","141058","0.0-6.0-1.97","LABU","3","f","rechts","24","","","self","j","60","true"
"null","<div style=""font-size:60px;"">+</div>","null","html-keyboard-response","202","141360","0.0-6.0-0.98","LABU","3","f","rechts","24","","fixation","","","",""
"780","img/60_330.png","70","image-keyboard-response","203","142141","0.0-6.0-1.98","LABU","3","f","rechts","24","","","self","f","60","true"
"null","<div style=""font-size:60px;"">+</div>","null","html-keyboard-response","204","142643","0.0-6.0-0.99","LABU","3","f","rechts","24","","fixation","","","",""
"958","img/120_30.png","74","image-keyboard-response","205","143601","0.0-6.0-1.99","LABU","3","f","rechts","24","","","self","j","120","true"
"null","<div style=""font-size:60px;"">+</div>","null","html-keyboard-response","206","143903","0.0-6.0-0.100","LABU","3","f","rechts","24","","fixation","","","",""
"1091","img/30_120.png","74","image-keyboard-response","207","144995","0.0-6.0-1.100","LABU","3","f","rechts","24","","","self","j","30","true"
"null","<div style=""font-size:60px;"">+</div>","null","html-keyboard-response","208","145346","0.0-6.0-0.101","LABU","3","f","rechts","24","","fixation","","","",""
"909","img/120_330.png","70","image-keyboard-response","209","146256","0.0-6.0-1.101","LABU","3","f","rechts","24","","","self","f","120","true"
"null","<div style=""font-size:60px;"">+</div>","null","html-keyboard-response","210","146758","0.0-6.0-0.102","LABU","3","f","rechts","24","","fixation","","","",""
"878","img/0_210.png","70","image-keyboard-response","211","147636","0.0-6.0-1.102","LABU","3","f","rechts","24","","","self","f","0","true"
"null","<div style=""font-size:60px;"">+</div>","null","html-keyboard-response","212","147938","0.0-6.0-0.103","LABU","3","f","rechts","24","","fixation","","","",""
"800","img/0_240.png","70","image-keyboard-response","213","148738","0.0-6.0-1.103","LABU","3","f","rechts","24","","","self","f","0","true"
"null","<div style=""font-size:60px;"">+</div>","null","html-keyboard-response","214","149190","0.0-6.0-0.104","LABU","3","f","rechts","24","","fixation","","","",""
"996","img/L30_180.png","74","image-keyboard-response","215","150187","0.0-6.0-1.104","LABU","3","f","rechts","24","","","self","f","30","false"
"null","<div style=""font-size:60px;"">+</div>","null","html-keyboard-response","216","150539","0.0-6.0-0.105","LABU","3","f","rechts","24","","fixation","","","",""
"908","img/L90_180.png","70","image-keyboard-response","217","151447","0.0-6.0-1.105","LABU","3","f","rechts","24","","","self","f","90","true"
"null","<div style=""font-size:60px;"">+</div>","null","html-keyboard-response","218","151948","0.0-6.0-0.106","LABU","3","f","rechts","24","","fixation","","","",""
"800","img/90_300.png","70","image-keyboard-response","219","152750","0.0-6.0-1.106","LABU","3","f","rechts","24","","","self","f","90","true"
"null","<div style=""font-size:60px;"">+</div>","null","html-keyboard-response","220","153251","0.0-6.0-0.107","LABU","3","f","rechts","24","","fixation","","","",""
"955","img/150_60.png","70","image-keyboard-response","221","154208","0.0-6.0-1.107","LABU","3","f","rechts","24","","","self","f","150","true"
"null","<div style=""font-size:60px;"">+</div>","null","html-keyboard-response","222","154659","0.0-6.0-0.108","LABU","3","f","rechts","24","","fixation","","","",""
"819","img/60_30.png","74","image-keyboard-response","223","155480","0.0-6.0-1.108","LABU","3","f","rechts","24","","","self","j","60","true"
"null","<div style=""font-size:60px;"">+</div>","null","html-keyboard-response","224","155931","0.0-6.0-0.109","LABU","3","f","rechts","24","","fixation","","","",""
"577","img/90_210.png","74","image-keyboard-response","225","156510","0.0-6.0-1.109","LABU","3","f","rechts","24","","","self","j","90","true"
"null","<div style=""font-size:60px;"">+</div>","null","html-keyboard-response","226","156861","0.0-6.0-0.110","LABU","3","f","rechts","24","","fixation","","","",""
"728","img/0_30.png","74","image-keyboard-response","227","157590","0.0-6.0-1.110","LABU","3","f","rechts","24","","","self","j","0","true"
"null","<div style=""font-size:60px;"">+</div>","null","html-keyboard-response","228","157942","0.0-6.0-0.111","LABU","3","f","rechts","24","","fixation","","","",""
"680","img/0_270.png","70","image-keyboard-response","229","158623","0.0-6.0-1.111","LABU","3","f","rechts","24","","","self","f","0","true"
"null","<div style=""font-size:60px;"">+</div>","null","html-keyboard-response","230","159024","0.0-6.0-0.112","LABU","3","f","rechts","24","","fixation","","","",""
"763","img/90_150.png","70","image-keyboard-response","231","159789","0.0-6.0-1.112","LABU","3","f","rechts","24","","","self","f","90","true"
"null","<div style=""font-size:60px;"">+</div>","null","html-keyboard-response","232","160140","0.0-6.0-0.113","LABU","3","f","rechts","24","","fixation","","","",""
"834","img/60_90.png","74","image-keyboard-response","233","160975","0.0-6.0-1.113","LABU","3","f","rechts","24","","","self","j","60","true"
"null","<div style=""font-size:60px;"">+</div>","null","html-keyboard-response","234","161277","0.0-6.0-0.114","LABU","3","f","rechts","24","","fixation","","","",""
"973","img/L60_180.png","70","image-keyboard-response","235","162252","0.0-6.0-1.114","LABU","3","f","rechts","24","","","self","f","60","true"
"null","<div style=""font-size:60px;"">+</div>","null","html-keyboard-response","236","162553","0.0-6.0-0.115","LABU","3","f","rechts","24","","fixation","","","",""
"892","img/60_150.png","70","image-keyboard-response","237","163447","0.0-6.0-1.115","LABU","3","f","rechts","24","","","self","f","60","true"
"null","<div style=""font-size:60px;"">+</div>","null","html-keyboard-response","238","163747","0.0-6.0-0.116","LABU","3","f","rechts","24","","fixation","","","",""
"792","img/30_90.png","74","image-keyboard-response","239","164540","0.0-6.0-1.116","LABU","3","f","rechts","24","","","self","j","30","true"
"null","<div style=""font-size:60px;"">+</div>","null","html-keyboard-response","240","164942","0.0-6.0-0.117","LABU","3","f","rechts","24","","fixation","","","",""
"1071","img/150_300.png","74","image-keyboard-response","241","166014","0.0-6.0-1.117","LABU","3","f","rechts","24","","","self","j","150","true"
"null","<div style=""font-size:60px;"">+</div>","null","html-keyboard-response","242","166316","0.0-6.0-0.118","LABU","3","f","rechts","24","","fixation","","","",""
"609","img/0_330.png","70","image-keyboard-response","243","166926","0.0-6.0-1.118","LABU","3","f","rechts","24","","","self","f","0","true"
"null","<div style=""font-size:60px;"">+</div>","null","html-keyboard-response","244","167278","0.0-6.0-0.119","LABU","3","f","rechts","24","","fixation","","","",""
"1070","img/120_90.png","74","image-keyboard-response","245","168349","0.0-6.0-1.119","LABU","3","f","rechts","24","","","self","f","120","false"
"null","<div style=""font-size:60px;"">+</div>","null","html-keyboard-response","246","168751","0.0-6.0-0.120","LABU","3","f","rechts","24","","fixation","","","",""
"977","img/150_270.png","74","image-keyboard-response","247","169728","0.0-6.0-1.120","LABU","3","f","rechts","24","","","self","j","150","true"
"null","<div style=""font-size:60px;"">+</div>","null","html-keyboard-response","248","170130","0.0-6.0-0.121","LABU","3","f","rechts","24","","fixation","","","",""
"728","img/L120_180.png","70","image-keyboard-response","249","170860","0.0-6.0-1.121","LABU","3","f","rechts","24","","","self","f","120","true"
"null","<div style=""font-size:60px;"">+</div>","null","html-keyboard-response","250","171261","0.0-6.0-0.122","LABU","3","f","rechts","24","","fixation","","","",""
"793","img/150_240.png","74","image-keyboard-response","251","172055","0.0-6.0-1.122","LABU","3","f","rechts","24","","","self","j","150","true"
"null","<div style=""font-size:60px;"">+</div>","null","html-keyboard-response","252","172457","0.0-6.0-0.123","LABU","3","f","rechts","24","","fixation","","","",""
"837","img/L150_180.png","70","image-keyboard-response","253","173295","0.0-6.0-1.123","LABU","3","f","rechts","24","","","self","f","150","true"
"null","<div style=""font-size:60px;"">+</div>","null","html-keyboard-response","254","173697","0.0-6.0-0.124","LABU","3","f","rechts","24","","fixation","","","",""
"914","img/90_330.png","70","image-keyboard-response","255","174612","0.0-6.0-1.124","LABU","3","f","rechts","24","","","self","f","90","true"
"null","<div style=""font-size:60px;"">+</div>","null","html-keyboard-response","256","174914","0.0-6.0-0.125","LABU","3","f","rechts","24","","fixation","","","",""
"736","img/30_240.png","70","image-keyboard-response","257","175651","0.0-6.0-1.125","LABU","3","f","rechts","24","","","self","f","30","true"
"null","<div style=""font-size:60px;"">+</div>","null","html-keyboard-response","258","176103","0.0-6.0-0.126","LABU","3","f","rechts","24","","fixation","","","",""
"800","img/90_240.png","74","image-keyboard-response","259","176904","0.0-6.0-1.126","LABU","3","f","rechts","24","","","self","j","90","true"
"null","<div style=""font-size:60px;"">+</div>","null","html-keyboard-response","260","177256","0.0-6.0-0.127","LABU","3","f","rechts","24","","fixation","","","",""
"791","img/150_120.png","70","image-keyboard-response","261","178048","0.0-6.0-1.127","LABU","3","f","rechts","24","","","self","f","150","true"
"null","<div style=""font-size:60px;"">+</div>","null","html-keyboard-response","262","178500","0.0-6.0-0.128","LABU","3","f","rechts","24","","fixation","","","",""
"816","img/0_90.png","74","image-keyboard-response","263","179317","0.0-6.0-1.128","LABU","3","f","rechts","24","","","self","j","0","true"
"null","<div style=""font-size:60px;"">+</div>","null","html-keyboard-response","264","179719","0.0-6.0-0.129","LABU","3","f","rechts","24","","fixation","","","",""
"630","img/30_300.png","70","image-keyboard-response","265","180350","0.0-6.0-1.129","LABU","3","f","rechts","24","","","self","f","30","true"
"null","<div style=""font-size:60px;"">+</div>","null","html-keyboard-response","266","180702","0.0-6.0-0.130","LABU","3","f","rechts","24","","fixation","","","",""
"759","img/30_60.png","74","image-keyboard-response","267","181462","0.0-6.0-1.130","LABU","3","f","rechts","24","","","self","j","30","true"
"null","<div style=""font-size:60px;"">+</div>","null","html-keyboard-response","268","181864","0.0-6.0-0.131","LABU","3","f","rechts","24","","fixation","","","",""
"605","img/0_240.png","70","image-keyboard-response","269","182470","0.0-6.0-1.131","LABU","3","f","rechts","24","","","self","f","0","true"
"null","<div style=""font-size:60px;"">+</div>","null","html-keyboard-response","270","182872","0.0-6.0-0.132","LABU","3","f","rechts","24","","fixation","","","",""
"985","img/90_30.png","74","image-keyboard-response","271","183858","0.0-6.0-1.132","LABU","3","f","rechts","24","","","self","j","90","true"
"null","<div style=""font-size:60px;"">+</div>","null","html-keyboard-response","272","184309","0.0-6.0-0.133","LABU","3","f","rechts","24","","fixation","","","",""
"967","img/120_30.png","74","image-keyboard-response","273","185276","0.0-6.0-1.133","LABU","3","f","rechts","24","","","self","j","120","true"
"null","<div style=""font-size:60px;"">+</div>","null","html-keyboard-response","274","185578","0.0-6.0-0.134","LABU","3","f","rechts","24","","fixation","","","",""
"812","img/0_300.png","70","image-keyboard-response","275","186391","0.0-6.0-1.134","LABU","3","f","rechts","24","","","self","f","0","true"
"null","<div style=""font-size:60px;"">+</div>","null","html-keyboard-response","276","186693","0.0-6.0-0.135","LABU","3","f","rechts","24","","fixation","","","",""
"1692","img/30_180.png","70","image-keyboard-response","277","188386","0.0-6.0-1.135","LABU","3","f","rechts","24","","","self","j","30","false"
"null","<div style=""font-size:60px;"">+</div>","null","html-keyboard-response","278","188738","0.0-6.0-0.136","LABU","3","f","rechts","24","","fixation","","","",""
"709","img/120_210.png","74","image-keyboard-response","279","189447","0.0-6.0-1.136","LABU","3","f","rechts","24","","","self","j","120","true"
"null","<div style=""font-size:60px;"">+</div>","null","html-keyboard-response","280","189849","0.0-6.0-0.137","LABU","3","f","rechts","24","","fixation","","","",""
"828","img/150_90.png","70","image-keyboard-response","281","190677","0.0-6.0-1.137","LABU","3","f","rechts","24","","","self","f","150","true"
"null","<div style=""font-size:60px;"">+</div>","null","html-keyboard-response","282","190979","0.0-6.0-0.138","LABU","3","f","rechts","24","","fixation","","","",""
"1102","img/0_120.png","74","image-keyboard-response","283","192081","0.0-6.0-1.138","LABU","3","f","rechts","24","","","self","j","0","true"
"null","<div style=""font-size:60px;"">+</div>","null","html-keyboard-response","284","192533","0.0-6.0-0.139","LABU","3","f","rechts","24","","fixation","","","",""
"736","img/150_180.png","74","image-keyboard-response","285","193270","0.0-6.0-1.139","LABU","3","f","rechts","24","","","self","j","150","true"
"null","<div style=""font-size:60px;"">+</div>","null","html-keyboard-response","286","193722","0.0-6.0-0.140","LABU","3","f","rechts","24","","fixation","","","",""
"857","img/90_120.png","70","image-keyboard-response","287","194579","0.0-6.0-1.140","LABU","3","f","rechts","24","","","self","f","90","true"
"null","<div style=""font-size:60px;"">+</div>","null","html-keyboard-response","288","194881","0.0-6.0-0.141","LABU","3","f","rechts","24","","fixation","","","",""
"790","img/60_270.png","70","image-keyboard-response","289","195671","0.0-6.0-1.141","LABU","3","f","rechts","24","","","self","f","60","true"
"null","<div style=""font-size:60px;"">+</div>","null","html-keyboard-response","290","196123","0.0-6.0-0.142","LABU","3","f","rechts","24","","fixation","","","",""
"770","img/30_120.png","74","image-keyboard-response","291","196893","0.0-6.0-1.142","LABU","3","f","rechts","24","","","self","j","30","true"
"null","<div style=""font-size:60px;"">+</div>","null","html-keyboard-response","292","197295","0.0-6.0-0.143","LABU","3","f","rechts","24","","fixation","","","",""
"895","img/0_150.png","74","image-keyboard-response","293","198190","0.0-6.0-1.143","LABU","3","f","rechts","24","","","self","j","0","true"
"null","<div style=""font-size:60px;"">+</div>","null","html-keyboard-response","294","198541","0.0-6.0-0.144","LABU","3","f","rechts","24","","fixation","","","",""
"944","img/90_180.png","74","image-keyboard-response","295","199486","0.0-6.0-1.144","LABU","3","f","rechts","24","","","self","j","90","true"
"null","<div style=""font-size:60px;"">+</div>","null","html-keyboard-response","296","199788","0.0-6.0-0.145","LABU","3","f","rechts","24","","fixation","","","",""
"926","img/120_270.png","74","image-keyboard-response","297","200714","0.0-6.0-1.145","LABU","3","f","rechts","24","","","self","j","120","true"
"null","<div style=""font-size:60px;"">+</div>","null","html-keyboard-response","298","201166","0.0-6.0-0.146","LABU","3","f","rechts","24","","fixation","","","",""
"832","img/60_330.png","70","image-keyboard-response","299","201998","0.0-6.0-1.146","LABU","3","f","rechts","24","","","self","f","60","true"
"null","<div style=""font-size:60px;"">+</div>","null","html-keyboard-response","300","202500","0.0-6.0-0.147","LABU","3","f","rechts","24","","fixation","","","",""
"702","img/60_180.png","74","image-keyboard-response","301","203203","0.0-6.0-1.147","LABU","3","f","rechts","24","","","self","j","60","true"
"null","<div style=""font-size:60px;"">+</div>","null","html-keyboard-response","302","203704","0.0-6.0-0.148","LABU","3","f","rechts","24","","fixation","","","",""
"767","img/120_180.png","74","image-keyboard-response","303","204472","0.0-6.0-1.148","LABU","3","f","rechts","24","","","self","j","120","true"
"null","<div style=""font-size:60px;"">+</div>","null","html-keyboard-response","304","204874","0.0-6.0-0.149","LABU","3","f","rechts","24","","fixation","","","",""
"796","img/0_60.png","74","image-keyboard-response","305","205671","0.0-6.0-1.149","LABU","3","f","rechts","24","","","self","j","0","true"
"null","<div style=""font-size:60px;"">+</div>","null","html-keyboard-response","306","206022","0.0-6.0-0.150","LABU","3","f","rechts","24","","fixation","","","",""
"764","img/0_210.png","70","image-keyboard-response","307","206788","0.0-6.0-1.150","LABU","3","f","rechts","24","","","self","f","0","true"
"null","<div style=""font-size:60px;"">+</div>","null","html-keyboard-response","308","207239","0.0-6.0-0.151","LABU","3","f","rechts","24","","fixation","","","",""
"687","img/120_330.png","74","image-keyboard-response","309","207928","0.0-6.0-1.151","LABU","3","f","rechts","24","","","self","f","120","false"
"null","<div style=""font-size:60px;"">+</div>","null","html-keyboard-response","310","208429","0.0-6.0-0.152","LABU","3","f","rechts","24","","fixation","","","",""
"806","img/30_270.png","70","image-keyboard-response","311","209237","0.0-6.0-1.152","LABU","3","f","rechts","24","","","self","f","30","true"
"null","<div style=""font-size:60px;"">+</div>","null","html-keyboard-response","312","209638","0.0-6.0-0.153","LABU","3","f","rechts","24","","fixation","","","",""
"869","img/90_60.png","74","image-keyboard-response","313","210509","0.0-6.0-1.153","LABU","3","f","rechts","24","","","self","j","90","true"
"null","<div style=""font-size:60px;"">+</div>","null","html-keyboard-response","314","210860","0.0-6.0-0.154","LABU","3","f","rechts","24","","fixation","","","",""
"743","img/120_150.png","70","image-keyboard-response","315","211604","0.0-6.0-1.154","LABU","3","f","rechts","24","","","self","f","120","true"
"null","<div style=""font-size:60px;"">+</div>","null","html-keyboard-response","316","212106","0.0-6.0-0.155","LABU","3","f","rechts","24","","fixation","","","",""
"844","img/60_210.png","74","image-keyboard-response","317","212951","0.0-6.0-1.155","LABU","3","f","rechts","24","","","self","j","60","true"
"null","<div style=""font-size:60px;"">+</div>","null","html-keyboard-response","318","213303","0.0-6.0-0.156","LABU","3","f","rechts","24","","fixation","","","",""
"855","img/90_180.png","74","image-keyboard-response","319","214159","0.0-6.0-1.156","LABU","3","f","rechts","24","","","self","j","90","true"
"null","<div style=""font-size:60px;"">+</div>","null","html-keyboard-response","320","214661","0.0-6.0-0.157","LABU","3","f","rechts","24","","fixation","","","",""
"733","img/150_120.png","70","image-keyboard-response","321","215395","0.0-6.0-1.157","LABU","3","f","rechts","24","","","self","f","150","true"
"null","<div style=""font-size:60px;"">+</div>","null","html-keyboard-response","322","215747","0.0-6.0-0.158","LABU","3","f","rechts","24","","fixation","","","",""
"779","img/0_150.png","74","image-keyboard-response","323","216527","0.0-6.0-1.158","LABU","3","f","rechts","24","","","self","j","0","true"
"null","<div style=""font-size:60px;"">+</div>","null","html-keyboard-response","324","216929","0.0-6.0-0.159","LABU","3","f","rechts","24","","fixation","","","",""
"776","img/30_120.png","74","image-keyboard-response","325","217706","0.0-6.0-1.159","LABU","3","f","rechts","24","","","self","j","30","true"
"null","<div style=""font-size:60px;"">+</div>","null","html-keyboard-response","326","218058","0.0-6.0-0.160","LABU","3","f","rechts","24","","fixation","","","",""
"708","img/30_240.png","70","image-keyboard-response","327","218767","0.0-6.0-1.160","LABU","3","f","rechts","24","","","self","f","30","true"
"null","<div style=""font-size:60px;"">+</div>","null","html-keyboard-response","328","219219","0.0-6.0-0.161","LABU","3","f","rechts","24","","fixation","","","",""
"1069","img/L120_180.png","70","image-keyboard-response","329","220289","0.0-6.0-1.161","LABU","3","f","rechts","24","","","self","f","120","true"
"null","<div style=""font-size:60px;"">+</div>","null","html-keyboard-response","330","220640","0.0-6.0-0.162","LABU","3","f","rechts","24","","fixation","","","",""
"813","img/30_270.png","70","image-keyboard-response","331","221454","0.0-6.0-1.162","LABU","3","f","rechts","24","","","self","f","30","true"
"null","<div style=""font-size:60px;"">+</div>","null","html-keyboard-response","332","221906","0.0-6.0-0.163","LABU","3","f","rechts","24","","fixation","","","",""
"782","img/0_90.png","74","image-keyboard-response","333","222689","0.0-6.0-1.163","LABU","3","f","rechts","24","","","self","j","0","true"
"null","<div style=""font-size:60px;"">+</div>","null","html-keyboard-response","334","223141","0.0-6.0-0.164","LABU","3","f","rechts","24","","fixation","","","",""
"916","img/L150_180.png","70","image-keyboard-response","335","224058","0.0-6.0-1.164","LABU","3","f","rechts","24","","","self","f","150","true"
"null","<div style=""font-size:60px;"">+</div>","null","html-keyboard-response","336","224510","0.0-6.0-0.165","LABU","3","f","rechts","24","","fixation","","","",""
"638","img/0_300.png","70","image-keyboard-response","337","225149","0.0-6.0-1.165","LABU","3","f","rechts","24","","","self","f","0","true"
"null","<div style=""font-size:60px;"">+</div>","null","html-keyboard-response","338","225501","0.0-6.0-0.166","LABU","3","f","rechts","24","","fixation","","","",""
"855","img/90_150.png","70","image-keyboard-response","339","226358","0.0-6.0-1.166","LABU","3","f","rechts","24","","","self","f","90","true"
"null","<div style=""font-size:60px;"">+</div>","null","html-keyboard-response","340","226859","0.0-6.0-0.167","LABU","3","f","rechts","24","","fixation","","","",""
"654","img/0_60.png","74","image-keyboard-response","341","227513","0.0-6.0-1.167","LABU","3","f","rechts","24","","","self","j","0","true"
"null","<div style=""font-size:60px;"">+</div>","null","html-keyboard-response","342","227914","0.0-6.0-0.168","LABU","3","f","rechts","24","","fixation","","","",""
"752","img/120_270.png","74","image-keyboard-response","343","228667","0.0-6.0-1.168","LABU","3","f","rechts","24","","","self","j","120","true"
"null","<div style=""font-size:60px;"">+</div>","null","html-keyboard-response","344","229069","0.0-6.0-0.169","LABU","3","f","rechts","24","","fixation","","","",""
"781","img/150_180.png","74","image-keyboard-response","345","229851","0.0-6.0-1.169","LABU","3","f","rechts","24","","","self","j","150","true"
"null","<div style=""font-size:60px;"">+</div>","null","html-keyboard-response","346","230153","0.0-6.0-0.170","LABU","3","f","rechts","24","","fixation","","","",""
"802","img/150_90.png","70","image-keyboard-response","347","230956","0.0-6.0-1.170","LABU","3","f","rechts","24","","","self","f","150","true"
"null","<div style=""font-size:60px;"">+</div>","null","html-keyboard-response","348","231306","0.0-6.0-0.171","LABU","3","f","rechts","24","","fixation","","","",""
"743","img/60_210.png","70","image-keyboard-response","349","232049","0.0-6.0-1.171","LABU","3","f","rechts","24","","","self","j","60","false"
"null","<div style=""font-size:60px;"">+</div>","null","html-keyboard-response","350","232551","0.0-6.0-0.172","LABU","3","f","rechts","24","","fixation","","","",""
"864","img/90_60.png","74","image-keyboard-response","351","233415","0.0-6.0-1.172","LABU","3","f","rechts","24","","","self","j","90","true"
"null","<div style=""font-size:60px;"">+</div>","null","html-keyboard-response","352","233817","0.0-6.0-0.173","LABU","3","f","rechts","24","","fixation","","","",""
"831","img/0_210.png","70","image-keyboard-response","353","234649","0.0-6.0-1.173","LABU","3","f","rechts","24","","","self","f","0","true"
"null","<div style=""font-size:60px;"">+</div>","null","html-keyboard-response","354","235101","0.0-6.0-0.174","LABU","3","f","rechts","24","","fixation","","","",""
"1003","img/L60_180.png","70","image-keyboard-response","355","236105","0.0-6.0-1.174","LABU","3","f","rechts","24","","","self","f","60","true"
"null","<div style=""font-size:60px;"">+</div>","null","html-keyboard-response","356","236407","0.0-6.0-0.175","LABU","3","f","rechts","24","","fixation","","","",""
"810","img/60_150.png","70","image-keyboard-response","357","237218","0.0-6.0-1.175","LABU","3","f","rechts","24","","","self","f","60","true"
"null","<div style=""font-size:60px;"">+</div>","null","html-keyboard-response","358","237520","0.0-6.0-0.176","LABU","3","f","rechts","24","","fixation","","","",""
"869","img/60_30.png","74","image-keyboard-response","359","238389","0.0-6.0-1.176","LABU","3","f","rechts","24","","","self","j","60","true"
"null","<div style=""font-size:60px;"">+</div>","null","html-keyboard-response","360","238891","0.0-6.0-0.177","LABU","3","f","rechts","24","","fixation","","","",""
"655","img/0_330.png","70","image-keyboard-response","361","239546","0.0-6.0-1.177","LABU","3","f","rechts","24","","","self","f","0","true"
"null","<div style=""font-size:60px;"">+</div>","null","html-keyboard-response","362","239998","0.0-6.0-0.178","LABU","3","f","rechts","24","","fixation","","","",""
"715","img/30_90.png","74","image-keyboard-response","363","240714","0.0-6.0-1.178","LABU","3","f","rechts","24","","","self","j","30","true"
"null","<div style=""font-size:60px;"">+</div>","null","html-keyboard-response","364","241066","0.0-6.0-0.179","LABU","3","f","rechts","24","","fixation","","","",""
"828","img/30_300.png","70","image-keyboard-response","365","241895","0.0-6.0-1.179","LABU","3","f","rechts","24","","","self","f","30","true"
"null","<div style=""font-size:60px;"">+</div>","null","html-keyboard-response","366","242397","0.0-6.0-0.180","LABU","3","f","rechts","24","","fixation","","","",""
"796","img/150_300.png","74","image-keyboard-response","367","243194","0.0-6.0-1.180","LABU","3","f","rechts","24","","","self","j","150","true"
"null","<div style=""font-size:60px;"">+</div>","null","html-keyboard-response","368","243495","0.0-6.0-0.181","LABU","3","f","rechts","24","","fixation","","","",""
"761","img/60_180.png","74","image-keyboard-response","369","244257","0.0-6.0-1.181","LABU","3","f","rechts","24","","","self","j","60","true"
"null","<div style=""font-size:60px;"">+</div>","null","html-keyboard-response","370","244659","0.0-6.0-0.182","LABU","3","f","rechts","24","","fixation","","","",""
"594","img/90_210.png","74","image-keyboard-response","371","245253","0.0-6.0-1.182","LABU","3","f","rechts","24","","","self","j","90","true"
"null","<div style=""font-size:60px;"">+</div>","null","html-keyboard-response","372","245654","0.0-6.0-0.183","LABU","3","f","rechts","24","","fixation","","","",""
"771","img/L30_180.png","70","image-keyboard-response","373","246427","0.0-6.0-1.183","LABU","3","f","rechts","24","","","self","f","30","true"
"null","<div style=""font-size:60px;"">+</div>","null","html-keyboard-response","374","246778","0.0-6.0-0.184","LABU","3","f","rechts","24","","fixation","","","",""
"607","img/150_270.png","74","image-keyboard-response","375","247386","0.0-6.0-1.184","LABU","3","f","rechts","24","","","self","j","150","true"
"null","<div style=""font-size:60px;"">+</div>","null","html-keyboard-response","376","247688","0.0-6.0-0.185","LABU","3","f","rechts","24","","fixation","","","",""
"632","img/90_120.png","70","image-keyboard-response","377","248320","0.0-6.0-1.185","LABU","3","f","rechts","24","","","self","f","90","true"
"null","<div style=""font-size:60px;"">+</div>","null","html-keyboard-response","378","248622","0.0-6.0-0.186","LABU","3","f","rechts","24","","fixation","","","",""
"1184","img/90_300.png","70","image-keyboard-response","379","249806","0.0-6.0-1.186","LABU","3","f","rechts","24","","","self","f","90","true"
"null","<div style=""font-size:60px;"">+</div>","null","html-keyboard-response","380","250308","0.0-6.0-0.187","LABU","3","f","rechts","24","","fixation","","","",""
"601","img/120_210.png","74","image-keyboard-response","381","250909","0.0-6.0-1.187","LABU","3","f","rechts","24","","","self","j","120","true"
"null","<div style=""font-size:60px;"">+</div>","null","html-keyboard-response","382","251311","0.0-6.0-0.188","LABU","3","f","rechts","24","","fixation","","","",""
"660","img/150_240.png","74","image-keyboard-response","383","251971","0.0-6.0-1.188","LABU","3","f","rechts","24","","","self","j","150","true"
"null","<div style=""font-size:60px;"">+</div>","null","html-keyboard-response","384","252423","0.0-6.0-0.189","LABU","3","f","rechts","24","","fixation","","","",""
"779","img/90_330.png","70","image-keyboard-response","385","253202","0.0-6.0-1.189","LABU","3","f","rechts","24","","","self","f","90","true"
"null","<div style=""font-size:60px;"">+</div>","null","html-keyboard-response","386","253504","0.0-6.0-0.190","LABU","3","f","rechts","24","","fixation","","","",""
"826","img/0_30.png","74","image-keyboard-response","387","254330","0.0-6.0-1.190","LABU","3","f","rechts","24","","","self","j","0","true"
"null","<div style=""font-size:60px;"">+</div>","null","html-keyboard-response","388","254732","0.0-6.0-0.191","LABU","3","f","rechts","24","","fixation","","","",""
"841","img/60_90.png","74","image-keyboard-response","389","255574","0.0-6.0-1.191","LABU","3","f","rechts","24","","","self","j","60","true"
"null","<div style=""font-size:60px;"">+</div>","null","html-keyboard-response","390","255874","0.0-6.0-0.192","LABU","3","f","rechts","24","","fixation","","","",""
"654","img/60_330.png","70","image-keyboard-response","391","256530","0.0-6.0-1.192","LABU","3","f","rechts","24","","","self","f","60","true"
"null","<div style=""font-size:60px;"">+</div>","null","html-keyboard-response","392","256831","0.0-6.0-0.193","LABU","3","f","rechts","24","","fixation","","","",""
"816","img/120_150.png","70","image-keyboard-response","393","257649","0.0-6.0-1.193","LABU","3","f","rechts","24","","","self","f","120","true"
"null","<div style=""font-size:60px;"">+</div>","null","html-keyboard-response","394","258000","0.0-6.0-0.194","LABU","3","f","rechts","24","","fixation","","","",""
"875","img/150_60.png","70","image-keyboard-response","395","258876","0.0-6.0-1.194","LABU","3","f","rechts","24","","","self","f","150","true"
"null","<div style=""font-size:60px;"">+</div>","null","html-keyboard-response","396","259177","0.0-6.0-0.195","LABU","3","f","rechts","24","","fixation","","","",""
"1036","img/0_240.png","70","image-keyboard-response","397","260215","0.0-6.0-1.195","LABU","3","f","rechts","24","","","self","f","0","true"
"null","<div style=""font-size:60px;"">+</div>","null","html-keyboard-response","398","260516","0.0-6.0-0.196","LABU","3","f","rechts","24","","fixation","","","",""
"766","img/L90_180.png","70","image-keyboard-response","399","261284","0.0-6.0-1.196","LABU","3","f","rechts","24","","","self","f","90","true"
"null","<div style=""font-size:60px;"">+</div>","null","html-keyboard-response","400","261635","0.0-6.0-0.197","LABU","3","f","rechts","24","","fixation","","","",""
"764","img/60_270.png","70","image-keyboard-response","401","262401","0.0-6.0-1.197","LABU","3","f","rechts","24","","","self","f","60","true"
"null","<div style=""font-size:60px;"">+</div>","null","html-keyboard-response","402","262752","0.0-6.0-0.198","LABU","3","f","rechts","24","","fixation","","","",""
"671","img/0_270.png","70","image-keyboard-response","403","263424","0.0-6.0-1.198","LABU","3","f","rechts","24","","","self","f","0","true"
"null","<div style=""font-size:60px;"">+</div>","null","html-keyboard-response","404","263926","0.0-6.0-0.199","LABU","3","f","rechts","24","","fixation","","","",""
"670","img/120_180.png","74","image-keyboard-response","405","264597","0.0-6.0-1.199","LABU","3","f","rechts","24","","","self","j","120","true"
"null","<div style=""font-size:60px;"">+</div>","null","html-keyboard-response","406","265099","0.0-6.0-0.200","LABU","3","f","rechts","24","","fixation","","","",""
"726","img/0_120.png","74","image-keyboard-response","407","265826","0.0-6.0-1.200","LABU","3","f","rechts","24","","","self","j","0","true"
"null","<div style=""font-size:60px;"">+</div>","null","html-keyboard-response","408","266178","0.0-6.0-0.201","LABU","3","f","rechts","24","","fixation","","","",""
"707","img/90_240.png","74","image-keyboard-response","409","266887","0.0-6.0-1.201","LABU","3","f","rechts","24","","","self","j","90","true"
"null","<div style=""font-size:60px;"">+</div>","null","html-keyboard-response","410","267338","0.0-6.0-0.202","LABU","3","f","rechts","24","","fixation","","","",""
"816","img/30_60.png","74","image-keyboard-response","411","268155","0.0-6.0-1.202","LABU","3","f","rechts","24","","","self","j","30","true"
"null","<div style=""font-size:60px;"">+</div>","null","html-keyboard-response","412","268507","0.0-6.0-0.203","LABU","3","f","rechts","24","","fixation","","","",""
"913","img/120_90.png","70","image-keyboard-response","413","269420","0.0-6.0-1.203","LABU","3","f","rechts","24","","","self","f","120","true"
"null","<div style=""font-size:60px;"">+</div>","null","html-keyboard-response","414","269822","0.0-6.0-0.204","LABU","3","f","rechts","24","","fixation","","","",""
"802","img/120_30.png","74","image-keyboard-response","415","270625","0.0-6.0-1.204","LABU","3","f","rechts","24","","","self","j","120","true"
"null","<div style=""font-size:60px;"">+</div>","null","html-keyboard-response","416","271077","0.0-6.0-0.205","LABU","3","f","rechts","24","","fixation","","","",""
"854","img/30_180.png","74","image-keyboard-response","417","271932","0.0-6.0-1.205","LABU","3","f","rechts","24","","","self","j","30","true"
"null","<div style=""font-size:60px;"">+</div>","null","html-keyboard-response","418","272284","0.0-6.0-0.206","LABU","3","f","rechts","24","","fixation","","","",""
"776","img/120_330.png","74","image-keyboard-response","419","273061","0.0-6.0-1.206","LABU","3","f","rechts","24","","","self","f","120","false"
"null","<div style=""font-size:60px;"">+</div>","null","html-keyboard-response","420","273563","0.0-6.0-0.207","LABU","3","f","rechts","24","","fixation","","","",""
"882","img/90_30.png","74","image-keyboard-response","421","274446","0.0-6.0-1.207","LABU","3","f","rechts","24","","","self","j","90","true"
"11459","<p>Du hast in 92% der Versuche korrekt entschieden.</p><p>Deine durchschnittliche Reaktionszeit war  809ms.</p><p>Dr&uuml;cke eine beliebige Taste, um die Session zu beenden. Vielen Dank!</p>","74","html-keyboard-response","422","285907","0.0-7.0","LABU","3","f","rechts","24","","","","","",""
