"rt","stimulus","key_press","trial_type","trial_index","time_elapsed","internal_node_id","subject","session","sex","handedness","age","responses","test_part","condition","correct_response","angle","correct"
"3336","<p>Mental Rotation Experiment.</p> <p>Dr&uuml;cke eine beliebige Taste, um anzufangen.</p>","72","html-keyboard-response","0","3339","0.0-0.0","LABU","4","f","rechts","24","","","","","",""
"3672","","","survey-text","1","7012","0.0-1.0","LABU","4","f","rechts","24","{""Q0"":""LABU""}","","","","",""
"1238","","","survey-text","2","8251","0.0-2.0","LABU","4","f","rechts","24","{""Q0"":""4""}","","","","",""
"3310","","","survey-multi-choice","3","11564","0.0-3.0","LABU","4","f","rechts","24","{""Q0"":""f"",""Q1"":""rechts""}","","","","",""
"3265","","","survey-text","4","14830","0.0-4.0","LABU","4","f","rechts","24","{""Q0"":""24""}","","","","",""
"186551","<p> Stell dir vor, dass du vor einem runden Tisch stehst, auf dem sich ein blauer Ball am Tischrand befindet. Entlang des Tischrands ist jeweils ein verschieden langer Pfeil. Nun bewegst du dich entlang dieses Pfeils bis an seine Spitze. Wenn du am Ende des Pfeils angekommen bist, schau zur Tischmitte. </p> <img src='img/90_180.png'></img> <br> <p>Entscheide dann, ob der Ball von deiner neuen (vorgestellten) Position links oder rechts von dir liegt.</p> <p>Dr&uuml;cke die <strong>'f'</strong>-Taste f&uuml;r links, die <strong>'j'</strong>-Taste f&uuml;r rechts.</p> <br><p> Das Bild wird jeweils 1 Sekunde lang pr&auml;sentiert. Du hast 3 Sekunden Zeit eine Entscheidung zu treffen.</p>","74","html-keyboard-response","5","201383","0.0-5.0","LABU","4","f","rechts","24","","","","","",""
"null","<div style=""font-size:60px;"">+</div>","null","html-keyboard-response","6","202838","0.0-6.0-0.0","LABU","4","f","rechts","24","","fixation","","","",""
"749","img/90_30.png","74","image-keyboard-response","7","203588","0.0-6.0-1.0","LABU","4","f","rechts","24","","","self","j","90","true"
"null","<div style=""font-size:60px;"">+</div>","null","html-keyboard-response","8","203890","0.0-6.0-0.1","LABU","4","f","rechts","24","","fixation","","","",""
"597","img/0_330.png","70","image-keyboard-response","9","204488","0.0-6.0-1.1","LABU","4","f","rechts","24","","","self","f","0","true"
"null","<div style=""font-size:60px;"">+</div>","null","html-keyboard-response","10","204940","0.0-6.0-0.2","LABU","4","f","rechts","24","","fixation","","","",""
"769","img/90_60.png","74","image-keyboard-response","11","205710","0.0-6.0-1.2","LABU","4","f","rechts","24","","","self","j","90","true"
"null","<div style=""font-size:60px;"">+</div>","null","html-keyboard-response","12","206162","0.0-6.0-0.3","LABU","4","f","rechts","24","","fixation","","","",""
"682","img/90_330.png","70","image-keyboard-response","13","206845","0.0-6.0-1.3","LABU","4","f","rechts","24","","","self","f","90","true"
"null","<div style=""font-size:60px;"">+</div>","null","html-keyboard-response","14","207297","0.0-6.0-0.4","LABU","4","f","rechts","24","","fixation","","","",""
"635","img/0_150.png","74","image-keyboard-response","15","207933","0.0-6.0-1.4","LABU","4","f","rechts","24","","","self","j","0","true"
"null","<div style=""font-size:60px;"">+</div>","null","html-keyboard-response","16","208435","0.0-6.0-0.5","LABU","4","f","rechts","24","","fixation","","","",""
"837","img/L150_180.png","70","image-keyboard-response","17","209273","0.0-6.0-1.5","LABU","4","f","rechts","24","","","self","f","150","true"
"null","<div style=""font-size:60px;"">+</div>","null","html-keyboard-response","18","209575","0.0-6.0-0.6","LABU","4","f","rechts","24","","fixation","","","",""
"1065","img/30_120.png","70","image-keyboard-response","19","210641","0.0-6.0-1.6","LABU","4","f","rechts","24","","","self","j","30","false"
"null","<div style=""font-size:60px;"">+</div>","null","html-keyboard-response","20","211092","0.0-6.0-0.7","LABU","4","f","rechts","24","","fixation","","","",""
"646","img/60_90.png","70","image-keyboard-response","21","211739","0.0-6.0-1.7","LABU","4","f","rechts","24","","","self","j","60","false"
"null","<div style=""font-size:60px;"">+</div>","null","html-keyboard-response","22","212141","0.0-6.0-0.8","LABU","4","f","rechts","24","","fixation","","","",""
"652","img/30_270.png","70","image-keyboard-response","23","212794","0.0-6.0-1.8","LABU","4","f","rechts","24","","","self","f","30","true"
"null","<div style=""font-size:60px;"">+</div>","null","html-keyboard-response","24","213196","0.0-6.0-0.9","LABU","4","f","rechts","24","","fixation","","","",""
"608","img/90_210.png","74","image-keyboard-response","25","213805","0.0-6.0-1.9","LABU","4","f","rechts","24","","","self","j","90","true"
"null","<div style=""font-size:60px;"">+</div>","null","html-keyboard-response","26","214257","0.0-6.0-0.10","LABU","4","f","rechts","24","","fixation","","","",""
"853","img/150_90.png","70","image-keyboard-response","27","215111","0.0-6.0-1.10","LABU","4","f","rechts","24","","","self","f","150","true"
"null","<div style=""font-size:60px;"">+</div>","null","html-keyboard-response","28","215563","0.0-6.0-0.11","LABU","4","f","rechts","24","","fixation","","","",""
"632","img/60_270.png","70","image-keyboard-response","29","216196","0.0-6.0-1.11","LABU","4","f","rechts","24","","","self","f","60","true"
"null","<div style=""font-size:60px;"">+</div>","null","html-keyboard-response","30","216497","0.0-6.0-0.12","LABU","4","f","rechts","24","","fixation","","","",""
"720","img/60_210.png","74","image-keyboard-response","31","217218","0.0-6.0-1.12","LABU","4","f","rechts","24","","","self","j","60","true"
"null","<div style=""font-size:60px;"">+</div>","null","html-keyboard-response","32","217570","0.0-6.0-0.13","LABU","4","f","rechts","24","","fixation","","","",""
"795","img/30_240.png","70","image-keyboard-response","33","218366","0.0-6.0-1.13","LABU","4","f","rechts","24","","","self","f","30","true"
"null","<div style=""font-size:60px;"">+</div>","null","html-keyboard-response","34","218718","0.0-6.0-0.14","LABU","4","f","rechts","24","","fixation","","","",""
"853","img/90_240.png","74","image-keyboard-response","35","219572","0.0-6.0-1.14","LABU","4","f","rechts","24","","","self","j","90","true"
"null","<div style=""font-size:60px;"">+</div>","null","html-keyboard-response","36","219874","0.0-6.0-0.15","LABU","4","f","rechts","24","","fixation","","","",""
"760","img/150_120.png","70","image-keyboard-response","37","220635","0.0-6.0-1.15","LABU","4","f","rechts","24","","","self","f","150","true"
"null","<div style=""font-size:60px;"">+</div>","null","html-keyboard-response","38","220986","0.0-6.0-0.16","LABU","4","f","rechts","24","","fixation","","","",""
"739","img/0_210.png","70","image-keyboard-response","39","221727","0.0-6.0-1.16","LABU","4","f","rechts","24","","","self","f","0","true"
"null","<div style=""font-size:60px;"">+</div>","null","html-keyboard-response","40","222128","0.0-6.0-0.17","LABU","4","f","rechts","24","","fixation","","","",""
"771","img/120_330.png","70","image-keyboard-response","41","222901","0.0-6.0-1.17","LABU","4","f","rechts","24","","","self","f","120","true"
"null","<div style=""font-size:60px;"">+</div>","null","html-keyboard-response","42","223302","0.0-6.0-0.18","LABU","4","f","rechts","24","","fixation","","","",""
"846","img/30_90.png","74","image-keyboard-response","43","224149","0.0-6.0-1.18","LABU","4","f","rechts","24","","","self","j","30","true"
"null","<div style=""font-size:60px;"">+</div>","null","html-keyboard-response","44","224550","0.0-6.0-0.19","LABU","4","f","rechts","24","","fixation","","","",""
"731","img/0_60.png","74","image-keyboard-response","45","225282","0.0-6.0-1.19","LABU","4","f","rechts","24","","","self","j","0","true"
"null","<div style=""font-size:60px;"">+</div>","null","html-keyboard-response","46","225633","0.0-6.0-0.20","LABU","4","f","rechts","24","","fixation","","","",""
"716","img/L30_180.png","70","image-keyboard-response","47","226350","0.0-6.0-1.20","LABU","4","f","rechts","24","","","self","f","30","true"
"null","<div style=""font-size:60px;"">+</div>","null","html-keyboard-response","48","226701","0.0-6.0-0.21","LABU","4","f","rechts","24","","fixation","","","",""
"725","img/120_150.png","70","image-keyboard-response","49","227428","0.0-6.0-1.21","LABU","4","f","rechts","24","","","self","f","120","true"
"null","<div style=""font-size:60px;"">+</div>","null","html-keyboard-response","50","227779","0.0-6.0-0.22","LABU","4","f","rechts","24","","fixation","","","",""
"696","img/30_300.png","70","image-keyboard-response","51","228478","0.0-6.0-1.22","LABU","4","f","rechts","24","","","self","f","30","true"
"null","<div style=""font-size:60px;"">+</div>","null","html-keyboard-response","52","228929","0.0-6.0-0.23","LABU","4","f","rechts","24","","fixation","","","",""
"631","img/120_180.png","74","image-keyboard-response","53","229562","0.0-6.0-1.23","LABU","4","f","rechts","24","","","self","j","120","true"
"null","<div style=""font-size:60px;"">+</div>","null","html-keyboard-response","54","230063","0.0-6.0-0.24","LABU","4","f","rechts","24","","fixation","","","",""
"683","img/150_300.png","74","image-keyboard-response","55","230747","0.0-6.0-1.24","LABU","4","f","rechts","24","","","self","j","150","true"
"null","<div style=""font-size:60px;"">+</div>","null","html-keyboard-response","56","231248","0.0-6.0-0.25","LABU","4","f","rechts","24","","fixation","","","",""
"703","img/60_150.png","70","image-keyboard-response","57","231953","0.0-6.0-1.25","LABU","4","f","rechts","24","","","self","f","60","true"
"null","<div style=""font-size:60px;"">+</div>","null","html-keyboard-response","58","232254","0.0-6.0-0.26","LABU","4","f","rechts","24","","fixation","","","",""
"849","img/150_60.png","70","image-keyboard-response","59","233104","0.0-6.0-1.26","LABU","4","f","rechts","24","","","self","f","150","true"
"null","<div style=""font-size:60px;"">+</div>","null","html-keyboard-response","60","233606","0.0-6.0-0.27","LABU","4","f","rechts","24","","fixation","","","",""
"713","img/90_180.png","74","image-keyboard-response","61","234320","0.0-6.0-1.27","LABU","4","f","rechts","24","","","self","j","90","true"
"null","<div style=""font-size:60px;"">+</div>","null","html-keyboard-response","62","234672","0.0-6.0-0.28","LABU","4","f","rechts","24","","fixation","","","",""
"756","img/60_30.png","74","image-keyboard-response","63","235429","0.0-6.0-1.28","LABU","4","f","rechts","24","","","self","j","60","true"
"null","<div style=""font-size:60px;"">+</div>","null","html-keyboard-response","64","235931","0.0-6.0-0.29","LABU","4","f","rechts","24","","fixation","","","",""
"590","img/0_240.png","70","image-keyboard-response","65","236523","0.0-6.0-1.29","LABU","4","f","rechts","24","","","self","f","0","true"
"null","<div style=""font-size:60px;"">+</div>","null","html-keyboard-response","66","236874","0.0-6.0-0.30","LABU","4","f","rechts","24","","fixation","","","",""
"720","img/L120_180.png","70","image-keyboard-response","67","237595","0.0-6.0-1.30","LABU","4","f","rechts","24","","","self","f","120","true"
"null","<div style=""font-size:60px;"">+</div>","null","html-keyboard-response","68","237947","0.0-6.0-0.31","LABU","4","f","rechts","24","","fixation","","","",""
"589","img/0_120.png","74","image-keyboard-response","69","238537","0.0-6.0-1.31","LABU","4","f","rechts","24","","","self","j","0","true"
"null","<div style=""font-size:60px;"">+</div>","null","html-keyboard-response","70","238839","0.0-6.0-0.32","LABU","4","f","rechts","24","","fixation","","","",""
"651","img/150_240.png","74","image-keyboard-response","71","239491","0.0-6.0-1.32","LABU","4","f","rechts","24","","","self","j","150","true"
"null","<div style=""font-size:60px;"">+</div>","null","html-keyboard-response","72","239893","0.0-6.0-0.33","LABU","4","f","rechts","24","","fixation","","","",""
"607","img/90_300.png","70","image-keyboard-response","73","240501","0.0-6.0-1.33","LABU","4","f","rechts","24","","","self","f","90","true"
"null","<div style=""font-size:60px;"">+</div>","null","html-keyboard-response","74","241003","0.0-6.0-0.34","LABU","4","f","rechts","24","","fixation","","","",""
"653","img/30_60.png","74","image-keyboard-response","75","241657","0.0-6.0-1.34","LABU","4","f","rechts","24","","","self","j","30","true"
"null","<div style=""font-size:60px;"">+</div>","null","html-keyboard-response","76","242109","0.0-6.0-0.35","LABU","4","f","rechts","24","","fixation","","","",""
"604","img/0_300.png","70","image-keyboard-response","77","242714","0.0-6.0-1.35","LABU","4","f","rechts","24","","","self","f","0","true"
"null","<div style=""font-size:60px;"">+</div>","null","html-keyboard-response","78","243216","0.0-6.0-0.36","LABU","4","f","rechts","24","","fixation","","","",""
"633","img/0_90.png","74","image-keyboard-response","79","243850","0.0-6.0-1.36","LABU","4","f","rechts","24","","","self","j","0","true"
"null","<div style=""font-size:60px;"">+</div>","null","html-keyboard-response","80","244151","0.0-6.0-0.37","LABU","4","f","rechts","24","","fixation","","","",""
"872","img/150_180.png","74","image-keyboard-response","81","245024","0.0-6.0-1.37","LABU","4","f","rechts","24","","","self","j","150","true"
"null","<div style=""font-size:60px;"">+</div>","null","html-keyboard-response","82","245326","0.0-6.0-0.38","LABU","4","f","rechts","24","","fixation","","","",""
"658","img/60_330.png","70","image-keyboard-response","83","245985","0.0-6.0-1.38","LABU","4","f","rechts","24","","","self","f","60","true"
"null","<div style=""font-size:60px;"">+</div>","null","html-keyboard-response","84","246437","0.0-6.0-0.39","LABU","4","f","rechts","24","","fixation","","","",""
"640","img/0_270.png","70","image-keyboard-response","85","247077","0.0-6.0-1.39","LABU","4","f","rechts","24","","","self","f","0","true"
"null","<div style=""font-size:60px;"">+</div>","null","html-keyboard-response","86","247429","0.0-6.0-0.40","LABU","4","f","rechts","24","","fixation","","","",""
"648","img/120_270.png","74","image-keyboard-response","87","248078","0.0-6.0-1.40","LABU","4","f","rechts","24","","","self","j","120","true"
"null","<div style=""font-size:60px;"">+</div>","null","html-keyboard-response","88","248579","0.0-6.0-0.41","LABU","4","f","rechts","24","","fixation","","","",""
"688","img/150_270.png","74","image-keyboard-response","89","249268","0.0-6.0-1.41","LABU","4","f","rechts","24","","","self","j","150","true"
"null","<div style=""font-size:60px;"">+</div>","null","html-keyboard-response","90","249570","0.0-6.0-0.42","LABU","4","f","rechts","24","","fixation","","","",""
"837","img/120_90.png","70","image-keyboard-response","91","250408","0.0-6.0-1.42","LABU","4","f","rechts","24","","","self","f","120","true"
"null","<div style=""font-size:60px;"">+</div>","null","html-keyboard-response","92","250760","0.0-6.0-0.43","LABU","4","f","rechts","24","","fixation","","","",""
"653","img/60_180.png","74","image-keyboard-response","93","251414","0.0-6.0-1.43","LABU","4","f","rechts","24","","","self","j","60","true"
"null","<div style=""font-size:60px;"">+</div>","null","html-keyboard-response","94","251866","0.0-6.0-0.44","LABU","4","f","rechts","24","","fixation","","","",""
"754","img/L90_180.png","70","image-keyboard-response","95","252621","0.0-6.0-1.44","LABU","4","f","rechts","24","","","self","f","90","true"
"null","<div style=""font-size:60px;"">+</div>","null","html-keyboard-response","96","252973","0.0-6.0-0.45","LABU","4","f","rechts","24","","fixation","","","",""
"870","img/90_120.png","70","image-keyboard-response","97","253844","0.0-6.0-1.45","LABU","4","f","rechts","24","","","self","f","90","true"
"null","<div style=""font-size:60px;"">+</div>","null","html-keyboard-response","98","254246","0.0-6.0-0.46","LABU","4","f","rechts","24","","fixation","","","",""
"659","img/30_180.png","74","image-keyboard-response","99","254906","0.0-6.0-1.46","LABU","4","f","rechts","24","","","self","j","30","true"
"null","<div style=""font-size:60px;"">+</div>","null","html-keyboard-response","100","255258","0.0-6.0-0.47","LABU","4","f","rechts","24","","fixation","","","",""
"772","img/120_210.png","74","image-keyboard-response","101","256031","0.0-6.0-1.47","LABU","4","f","rechts","24","","","self","j","120","true"
"null","<div style=""font-size:60px;"">+</div>","null","html-keyboard-response","102","256533","0.0-6.0-0.48","LABU","4","f","rechts","24","","fixation","","","",""
"854","img/120_30.png","74","image-keyboard-response","103","257387","0.0-6.0-1.48","LABU","4","f","rechts","24","","","self","j","120","true"
"null","<div style=""font-size:60px;"">+</div>","null","html-keyboard-response","104","257838","0.0-6.0-0.49","LABU","4","f","rechts","24","","fixation","","","",""
"628","img/0_30.png","74","image-keyboard-response","105","258467","0.0-6.0-1.49","LABU","4","f","rechts","24","","","self","j","0","true"
"null","<div style=""font-size:60px;"">+</div>","null","html-keyboard-response","106","258818","0.0-6.0-0.50","LABU","4","f","rechts","24","","fixation","","","",""
"630","img/L60_180.png","70","image-keyboard-response","107","259449","0.0-6.0-1.50","LABU","4","f","rechts","24","","","self","f","60","true"
"null","<div style=""font-size:60px;"">+</div>","null","html-keyboard-response","108","259801","0.0-6.0-0.51","LABU","4","f","rechts","24","","fixation","","","",""
"769","img/90_150.png","70","image-keyboard-response","109","260571","0.0-6.0-1.51","LABU","4","f","rechts","24","","","self","f","90","true"
"null","<div style=""font-size:60px;"">+</div>","null","html-keyboard-response","110","260973","0.0-6.0-0.52","LABU","4","f","rechts","24","","fixation","","","",""
"640","img/L60_180.png","70","image-keyboard-response","111","261613","0.0-6.0-1.52","LABU","4","f","rechts","24","","","self","f","60","true"
"null","<div style=""font-size:60px;"">+</div>","null","html-keyboard-response","112","262065","0.0-6.0-0.53","LABU","4","f","rechts","24","","fixation","","","",""
"798","img/90_300.png","70","image-keyboard-response","113","262863","0.0-6.0-1.53","LABU","4","f","rechts","24","","","self","f","90","true"
"null","<div style=""font-size:60px;"">+</div>","null","html-keyboard-response","114","263214","0.0-6.0-0.54","LABU","4","f","rechts","24","","fixation","","","",""
"677","img/90_330.png","70","image-keyboard-response","115","263892","0.0-6.0-1.54","LABU","4","f","rechts","24","","","self","f","90","true"
"null","<div style=""font-size:60px;"">+</div>","null","html-keyboard-response","116","264293","0.0-6.0-0.55","LABU","4","f","rechts","24","","fixation","","","",""
"596","img/90_210.png","74","image-keyboard-response","117","264890","0.0-6.0-1.55","LABU","4","f","rechts","24","","","self","j","90","true"
"null","<div style=""font-size:60px;"">+</div>","null","html-keyboard-response","118","265342","0.0-6.0-0.56","LABU","4","f","rechts","24","","fixation","","","",""
"582","img/0_330.png","70","image-keyboard-response","119","265924","0.0-6.0-1.56","LABU","4","f","rechts","24","","","self","f","0","true"
"null","<div style=""font-size:60px;"">+</div>","null","html-keyboard-response","120","266376","0.0-6.0-0.57","LABU","4","f","rechts","24","","fixation","","","",""
"599","img/30_90.png","74","image-keyboard-response","121","266975","0.0-6.0-1.57","LABU","4","f","rechts","24","","","self","j","30","true"
"null","<div style=""font-size:60px;"">+</div>","null","html-keyboard-response","122","267277","0.0-6.0-0.58","LABU","4","f","rechts","24","","fixation","","","",""
"853","img/L150_180.png","70","image-keyboard-response","123","268130","0.0-6.0-1.58","LABU","4","f","rechts","24","","","self","f","150","true"
"null","<div style=""font-size:60px;"">+</div>","null","html-keyboard-response","124","268632","0.0-6.0-0.59","LABU","4","f","rechts","24","","fixation","","","",""
"676","img/0_270.png","70","image-keyboard-response","125","269308","0.0-6.0-1.59","LABU","4","f","rechts","24","","","self","f","0","true"
"null","<div style=""font-size:60px;"">+</div>","null","html-keyboard-response","126","269660","0.0-6.0-0.60","LABU","4","f","rechts","24","","fixation","","","",""
"691","img/60_30.png","74","image-keyboard-response","127","270351","0.0-6.0-1.60","LABU","4","f","rechts","24","","","self","j","60","true"
"null","<div style=""font-size:60px;"">+</div>","null","html-keyboard-response","128","270652","0.0-6.0-0.61","LABU","4","f","rechts","24","","fixation","","","",""
"633","img/0_210.png","70","image-keyboard-response","129","271287","0.0-6.0-1.61","LABU","4","f","rechts","24","","","self","f","0","true"
"null","<div style=""font-size:60px;"">+</div>","null","html-keyboard-response","130","271688","0.0-6.0-0.62","LABU","4","f","rechts","24","","fixation","","","",""
"625","img/30_300.png","70","image-keyboard-response","131","272315","0.0-6.0-1.62","LABU","4","f","rechts","24","","","self","f","30","true"
"null","<div style=""font-size:60px;"">+</div>","null","html-keyboard-response","132","272815","0.0-6.0-0.63","LABU","4","f","rechts","24","","fixation","","","",""
"600","img/0_90.png","74","image-keyboard-response","133","273416","0.0-6.0-1.63","LABU","4","f","rechts","24","","","self","j","0","true"
"null","<div style=""font-size:60px;"">+</div>","null","html-keyboard-response","134","273867","0.0-6.0-0.64","LABU","4","f","rechts","24","","fixation","","","",""
"503","img/0_300.png","70","image-keyboard-response","135","274371","0.0-6.0-1.64","LABU","4","f","rechts","24","","","self","f","0","true"
"null","<div style=""font-size:60px;"">+</div>","null","html-keyboard-response","136","274723","0.0-6.0-0.65","LABU","4","f","rechts","24","","fixation","","","",""
"805","img/60_210.png","74","image-keyboard-response","137","275528","0.0-6.0-1.65","LABU","4","f","rechts","24","","","self","j","60","true"
"null","<div style=""font-size:60px;"">+</div>","null","html-keyboard-response","138","276029","0.0-6.0-0.66","LABU","4","f","rechts","24","","fixation","","","",""
"655","img/L30_180.png","70","image-keyboard-response","139","276686","0.0-6.0-1.66","LABU","4","f","rechts","24","","","self","f","30","true"
"null","<div style=""font-size:60px;"">+</div>","null","html-keyboard-response","140","277187","0.0-6.0-0.67","LABU","4","f","rechts","24","","fixation","","","",""
"632","img/30_180.png","74","image-keyboard-response","141","277820","0.0-6.0-1.67","LABU","4","f","rechts","24","","","self","j","30","true"
"null","<div style=""font-size:60px;"">+</div>","null","html-keyboard-response","142","278121","0.0-6.0-0.68","LABU","4","f","rechts","24","","fixation","","","",""
"1079","img/120_30.png","74","image-keyboard-response","143","279201","0.0-6.0-1.68","LABU","4","f","rechts","24","","","self","j","120","true"
"null","<div style=""font-size:60px;"">+</div>","null","html-keyboard-response","144","279502","0.0-6.0-0.69","LABU","4","f","rechts","24","","fixation","","","",""
"691","img/60_330.png","70","image-keyboard-response","145","280195","0.0-6.0-1.69","LABU","4","f","rechts","24","","","self","f","60","true"
"null","<div style=""font-size:60px;"">+</div>","null","html-keyboard-response","146","280646","0.0-6.0-0.70","LABU","4","f","rechts","24","","fixation","","","",""
"549","img/0_120.png","74","image-keyboard-response","147","281197","0.0-6.0-1.70","LABU","4","f","rechts","24","","","self","j","0","true"
"null","<div style=""font-size:60px;"">+</div>","null","html-keyboard-response","148","281648","0.0-6.0-0.71","LABU","4","f","rechts","24","","fixation","","","",""
"857","img/120_330.png","70","image-keyboard-response","149","282507","0.0-6.0-1.71","LABU","4","f","rechts","24","","","self","f","120","true"
"null","<div style=""font-size:60px;"">+</div>","null","html-keyboard-response","150","282808","0.0-6.0-0.72","LABU","4","f","rechts","24","","fixation","","","",""
"785","img/90_30.png","74","image-keyboard-response","151","283595","0.0-6.0-1.72","LABU","4","f","rechts","24","","","self","j","90","true"
"null","<div style=""font-size:60px;"">+</div>","null","html-keyboard-response","152","284096","0.0-6.0-0.73","LABU","4","f","rechts","24","","fixation","","","",""
"720","img/0_150.png","74","image-keyboard-response","153","284817","0.0-6.0-1.73","LABU","4","f","rechts","24","","","self","j","0","true"
"null","<div style=""font-size:60px;"">+</div>","null","html-keyboard-response","154","285169","0.0-6.0-0.74","LABU","4","f","rechts","24","","fixation","","","",""
"812","img/90_120.png","70","image-keyboard-response","155","285982","0.0-6.0-1.74","LABU","4","f","rechts","24","","","self","f","90","true"
"null","<div style=""font-size:60px;"">+</div>","null","html-keyboard-response","156","286333","0.0-6.0-0.75","LABU","4","f","rechts","24","","fixation","","","",""
"731","img/60_270.png","70","image-keyboard-response","157","287066","0.0-6.0-1.75","LABU","4","f","rechts","24","","","self","f","60","true"
"null","<div style=""font-size:60px;"">+</div>","null","html-keyboard-response","158","287467","0.0-6.0-0.76","LABU","4","f","rechts","24","","fixation","","","",""
"700","img/150_270.png","74","image-keyboard-response","159","288168","0.0-6.0-1.76","LABU","4","f","rechts","24","","","self","j","150","true"
"null","<div style=""font-size:60px;"">+</div>","null","html-keyboard-response","160","288620","0.0-6.0-0.77","LABU","4","f","rechts","24","","fixation","","","",""
"690","img/90_240.png","74","image-keyboard-response","161","289310","0.0-6.0-1.77","LABU","4","f","rechts","24","","","self","j","90","true"
"null","<div style=""font-size:60px;"">+</div>","null","html-keyboard-response","162","289812","0.0-6.0-0.78","LABU","4","f","rechts","24","","fixation","","","",""
"803","img/150_180.png","74","image-keyboard-response","163","290617","0.0-6.0-1.78","LABU","4","f","rechts","24","","","self","j","150","true"
"null","<div style=""font-size:60px;"">+</div>","null","html-keyboard-response","164","290968","0.0-6.0-0.79","LABU","4","f","rechts","24","","fixation","","","",""
"627","img/30_270.png","70","image-keyboard-response","165","291596","0.0-6.0-1.79","LABU","4","f","rechts","24","","","self","f","30","true"
"null","<div style=""font-size:60px;"">+</div>","null","html-keyboard-response","166","291898","0.0-6.0-0.80","LABU","4","f","rechts","24","","fixation","","","",""
"950","img/120_90.png","70","image-keyboard-response","167","292849","0.0-6.0-1.80","LABU","4","f","rechts","24","","","self","f","120","true"
"null","<div style=""font-size:60px;"">+</div>","null","html-keyboard-response","168","293251","0.0-6.0-0.81","LABU","4","f","rechts","24","","fixation","","","",""
"704","img/30_240.png","70","image-keyboard-response","169","293956","0.0-6.0-1.81","LABU","4","f","rechts","24","","","self","f","30","true"
"null","<div style=""font-size:60px;"">+</div>","null","html-keyboard-response","170","294458","0.0-6.0-0.82","LABU","4","f","rechts","24","","fixation","","","",""
"812","img/150_120.png","70","image-keyboard-response","171","295270","0.0-6.0-1.82","LABU","4","f","rechts","24","","","self","f","150","true"
"null","<div style=""font-size:60px;"">+</div>","null","html-keyboard-response","172","295622","0.0-6.0-0.83","LABU","4","f","rechts","24","","fixation","","","",""
"805","img/0_240.png","70","image-keyboard-response","173","296428","0.0-6.0-1.83","LABU","4","f","rechts","24","","","self","f","0","true"
"null","<div style=""font-size:60px;"">+</div>","null","html-keyboard-response","174","296729","0.0-6.0-0.84","LABU","4","f","rechts","24","","fixation","","","",""
"735","img/0_60.png","74","image-keyboard-response","175","297465","0.0-6.0-1.84","LABU","4","f","rechts","24","","","self","j","0","true"
"null","<div style=""font-size:60px;"">+</div>","null","html-keyboard-response","176","297817","0.0-6.0-0.85","LABU","4","f","rechts","24","","fixation","","","",""
"707","img/120_150.png","70","image-keyboard-response","177","298524","0.0-6.0-1.85","LABU","4","f","rechts","24","","","self","f","120","true"
"null","<div style=""font-size:60px;"">+</div>","null","html-keyboard-response","178","298826","0.0-6.0-0.86","LABU","4","f","rechts","24","","fixation","","","",""
"753","img/120_210.png","74","image-keyboard-response","179","299580","0.0-6.0-1.86","LABU","4","f","rechts","24","","","self","j","120","true"
"null","<div style=""font-size:60px;"">+</div>","null","html-keyboard-response","180","299882","0.0-6.0-0.87","LABU","4","f","rechts","24","","fixation","","","",""
"627","img/90_180.png","74","image-keyboard-response","181","300509","0.0-6.0-1.87","LABU","4","f","rechts","24","","","self","j","90","true"
"null","<div style=""font-size:60px;"">+</div>","null","html-keyboard-response","182","300861","0.0-6.0-0.88","LABU","4","f","rechts","24","","fixation","","","",""
"656","img/150_90.png","70","image-keyboard-response","183","301518","0.0-6.0-1.88","LABU","4","f","rechts","24","","","self","f","150","true"
"null","<div style=""font-size:60px;"">+</div>","null","html-keyboard-response","184","301970","0.0-6.0-0.89","LABU","4","f","rechts","24","","fixation","","","",""
"756","img/90_60.png","74","image-keyboard-response","185","302726","0.0-6.0-1.89","LABU","4","f","rechts","24","","","self","j","90","true"
"null","<div style=""font-size:60px;"">+</div>","null","html-keyboard-response","186","303028","0.0-6.0-0.90","LABU","4","f","rechts","24","","fixation","","","",""
"674","img/L90_180.png","70","image-keyboard-response","187","303702","0.0-6.0-1.90","LABU","4","f","rechts","24","","","self","f","90","true"
"null","<div style=""font-size:60px;"">+</div>","null","html-keyboard-response","188","304154","0.0-6.0-0.91","LABU","4","f","rechts","24","","fixation","","","",""
"650","img/120_180.png","74","image-keyboard-response","189","304804","0.0-6.0-1.91","LABU","4","f","rechts","24","","","self","j","120","true"
"null","<div style=""font-size:60px;"">+</div>","null","html-keyboard-response","190","305306","0.0-6.0-0.92","LABU","4","f","rechts","24","","fixation","","","",""
"699","img/60_90.png","74","image-keyboard-response","191","306005","0.0-6.0-1.92","LABU","4","f","rechts","24","","","self","j","60","true"
"null","<div style=""font-size:60px;"">+</div>","null","html-keyboard-response","192","306357","0.0-6.0-0.93","LABU","4","f","rechts","24","","fixation","","","",""
"661","img/L120_180.png","70","image-keyboard-response","193","307018","0.0-6.0-1.93","LABU","4","f","rechts","24","","","self","f","120","true"
"null","<div style=""font-size:60px;"">+</div>","null","html-keyboard-response","194","307470","0.0-6.0-0.94","LABU","4","f","rechts","24","","fixation","","","",""
"675","img/30_120.png","74","image-keyboard-response","195","308145","0.0-6.0-1.94","LABU","4","f","rechts","24","","","self","j","30","true"
"null","<div style=""font-size:60px;"">+</div>","null","html-keyboard-response","196","308647","0.0-6.0-0.95","LABU","4","f","rechts","24","","fixation","","","",""
"921","img/60_180.png","74","image-keyboard-response","197","309568","0.0-6.0-1.95","LABU","4","f","rechts","24","","","self","j","60","true"
"null","<div style=""font-size:60px;"">+</div>","null","html-keyboard-response","198","309919","0.0-6.0-0.96","LABU","4","f","rechts","24","","fixation","","","",""
"743","img/150_60.png","70","image-keyboard-response","199","310663","0.0-6.0-1.96","LABU","4","f","rechts","24","","","self","f","150","true"
"null","<div style=""font-size:60px;"">+</div>","null","html-keyboard-response","200","311115","0.0-6.0-0.97","LABU","4","f","rechts","24","","fixation","","","",""
"817","img/90_150.png","70","image-keyboard-response","201","311932","0.0-6.0-1.97","LABU","4","f","rechts","24","","","self","f","90","true"
"null","<div style=""font-size:60px;"">+</div>","null","html-keyboard-response","202","312434","0.0-6.0-0.98","LABU","4","f","rechts","24","","fixation","","","",""
"1119","img/150_300.png","70","image-keyboard-response","203","313553","0.0-6.0-1.98","LABU","4","f","rechts","24","","","self","j","150","false"
"null","<div style=""font-size:60px;"">+</div>","null","html-keyboard-response","204","314004","0.0-6.0-0.99","LABU","4","f","rechts","24","","fixation","","","",""
"714","img/120_270.png","74","image-keyboard-response","205","314718","0.0-6.0-1.99","LABU","4","f","rechts","24","","","self","j","120","true"
"null","<div style=""font-size:60px;"">+</div>","null","html-keyboard-response","206","315020","0.0-6.0-0.100","LABU","4","f","rechts","24","","fixation","","","",""
"673","img/150_240.png","74","image-keyboard-response","207","315693","0.0-6.0-1.100","LABU","4","f","rechts","24","","","self","j","150","true"
"null","<div style=""font-size:60px;"">+</div>","null","html-keyboard-response","208","316195","0.0-6.0-0.101","LABU","4","f","rechts","24","","fixation","","","",""
"823","img/30_60.png","74","image-keyboard-response","209","317018","0.0-6.0-1.101","LABU","4","f","rechts","24","","","self","j","30","true"
"null","<div style=""font-size:60px;"">+</div>","null","html-keyboard-response","210","317519","0.0-6.0-0.102","LABU","4","f","rechts","24","","fixation","","","",""
"700","img/0_30.png","74","image-keyboard-response","211","318220","0.0-6.0-1.102","LABU","4","f","rechts","24","","","self","j","0","true"
"null","<div style=""font-size:60px;"">+</div>","null","html-keyboard-response","212","318521","0.0-6.0-0.103","LABU","4","f","rechts","24","","fixation","","","",""
"774","img/60_150.png","70","image-keyboard-response","213","319297","0.0-6.0-1.103","LABU","4","f","rechts","24","","","self","f","60","true"
"null","<div style=""font-size:60px;"">+</div>","null","html-keyboard-response","214","319698","0.0-6.0-0.104","LABU","4","f","rechts","24","","fixation","","","",""
"734","img/L60_180.png","70","image-keyboard-response","215","320433","0.0-6.0-1.104","LABU","4","f","rechts","24","","","self","f","60","true"
"null","<div style=""font-size:60px;"">+</div>","null","html-keyboard-response","216","320835","0.0-6.0-0.105","LABU","4","f","rechts","24","","fixation","","","",""
"723","img/0_30.png","74","image-keyboard-response","217","321558","0.0-6.0-1.105","LABU","4","f","rechts","24","","","self","j","0","true"
"null","<div style=""font-size:60px;"">+</div>","null","html-keyboard-response","218","321860","0.0-6.0-0.106","LABU","4","f","rechts","24","","fixation","","","",""
"890","img/90_30.png","74","image-keyboard-response","219","322751","0.0-6.0-1.106","LABU","4","f","rechts","24","","","self","j","90","true"
"null","<div style=""font-size:60px;"">+</div>","null","html-keyboard-response","220","323202","0.0-6.0-0.107","LABU","4","f","rechts","24","","fixation","","","",""
"743","img/120_90.png","70","image-keyboard-response","221","323946","0.0-6.0-1.107","LABU","4","f","rechts","24","","","self","f","120","true"
"null","<div style=""font-size:60px;"">+</div>","null","html-keyboard-response","222","324247","0.0-6.0-0.108","LABU","4","f","rechts","24","","fixation","","","",""
"797","img/90_120.png","70","image-keyboard-response","223","325045","0.0-6.0-1.108","LABU","4","f","rechts","24","","","self","f","90","true"
"null","<div style=""font-size:60px;"">+</div>","null","html-keyboard-response","224","325447","0.0-6.0-0.109","LABU","4","f","rechts","24","","fixation","","","",""
"730","img/120_270.png","74","image-keyboard-response","225","326178","0.0-6.0-1.109","LABU","4","f","rechts","24","","","self","j","120","true"
"null","<div style=""font-size:60px;"">+</div>","null","html-keyboard-response","226","326479","0.0-6.0-0.110","LABU","4","f","rechts","24","","fixation","","","",""
"874","img/90_60.png","74","image-keyboard-response","227","327354","0.0-6.0-1.110","LABU","4","f","rechts","24","","","self","j","90","true"
"null","<div style=""font-size:60px;"">+</div>","null","html-keyboard-response","228","327855","0.0-6.0-0.111","LABU","4","f","rechts","24","","fixation","","","",""
"639","img/0_210.png","70","image-keyboard-response","229","328495","0.0-6.0-1.111","LABU","4","f","rechts","24","","","self","f","0","true"
"null","<div style=""font-size:60px;"">+</div>","null","html-keyboard-response","230","328946","0.0-6.0-0.112","LABU","4","f","rechts","24","","fixation","","","",""
"576","img/0_60.png","74","image-keyboard-response","231","329523","0.0-6.0-1.112","LABU","4","f","rechts","24","","","self","j","0","true"
"null","<div style=""font-size:60px;"">+</div>","null","html-keyboard-response","232","329974","0.0-6.0-0.113","LABU","4","f","rechts","24","","fixation","","","",""
"728","img/90_300.png","70","image-keyboard-response","233","330704","0.0-6.0-1.113","LABU","4","f","rechts","24","","","self","f","90","true"
"null","<div style=""font-size:60px;"">+</div>","null","html-keyboard-response","234","331005","0.0-6.0-0.114","LABU","4","f","rechts","24","","fixation","","","",""
"792","img/60_30.png","74","image-keyboard-response","235","331799","0.0-6.0-1.114","LABU","4","f","rechts","24","","","self","j","60","true"
"null","<div style=""font-size:60px;"">+</div>","null","html-keyboard-response","236","332250","0.0-6.0-0.115","LABU","4","f","rechts","24","","fixation","","","",""
"683","img/60_180.png","74","image-keyboard-response","237","332935","0.0-6.0-1.115","LABU","4","f","rechts","24","","","self","j","60","true"
"null","<div style=""font-size:60px;"">+</div>","null","html-keyboard-response","238","333336","0.0-6.0-0.116","LABU","4","f","rechts","24","","fixation","","","",""
"643","img/0_270.png","70","image-keyboard-response","239","333981","0.0-6.0-1.116","LABU","4","f","rechts","24","","","self","f","0","true"
"null","<div style=""font-size:60px;"">+</div>","null","html-keyboard-response","240","334282","0.0-6.0-0.117","LABU","4","f","rechts","24","","fixation","","","",""
"742","img/0_150.png","74","image-keyboard-response","241","335025","0.0-6.0-1.117","LABU","4","f","rechts","24","","","self","j","0","true"
"null","<div style=""font-size:60px;"">+</div>","null","html-keyboard-response","242","335427","0.0-6.0-0.118","LABU","4","f","rechts","24","","fixation","","","",""
"738","img/150_300.png","74","image-keyboard-response","243","336165","0.0-6.0-1.118","LABU","4","f","rechts","24","","","self","j","150","true"
"null","<div style=""font-size:60px;"">+</div>","null","html-keyboard-response","244","336567","0.0-6.0-0.119","LABU","4","f","rechts","24","","fixation","","","",""
"869","img/150_90.png","70","image-keyboard-response","245","337437","0.0-6.0-1.119","LABU","4","f","rechts","24","","","self","f","150","true"
"null","<div style=""font-size:60px;"">+</div>","null","html-keyboard-response","246","337938","0.0-6.0-0.120","LABU","4","f","rechts","24","","fixation","","","",""
"750","img/120_150.png","70","image-keyboard-response","247","338690","0.0-6.0-1.120","LABU","4","f","rechts","24","","","self","f","120","true"
"null","<div style=""font-size:60px;"">+</div>","null","html-keyboard-response","248","339141","0.0-6.0-0.121","LABU","4","f","rechts","24","","fixation","","","",""
"700","img/90_210.png","74","image-keyboard-response","249","339843","0.0-6.0-1.121","LABU","4","f","rechts","24","","","self","j","90","true"
"null","<div style=""font-size:60px;"">+</div>","null","html-keyboard-response","250","340194","0.0-6.0-0.122","LABU","4","f","rechts","24","","fixation","","","",""
"959","img/30_120.png","74","image-keyboard-response","251","341155","0.0-6.0-1.122","LABU","4","f","rechts","24","","","self","j","30","true"
"null","<div style=""font-size:60px;"">+</div>","null","html-keyboard-response","252","341656","0.0-6.0-0.123","LABU","4","f","rechts","24","","fixation","","","",""
"656","img/150_180.png","74","image-keyboard-response","253","342313","0.0-6.0-1.123","LABU","4","f","rechts","24","","","self","j","150","true"
"null","<div style=""font-size:60px;"">+</div>","null","html-keyboard-response","254","342664","0.0-6.0-0.124","LABU","4","f","rechts","24","","fixation","","","",""
"701","img/90_150.png","70","image-keyboard-response","255","343366","0.0-6.0-1.124","LABU","4","f","rechts","24","","","self","f","90","true"
"null","<div style=""font-size:60px;"">+</div>","null","html-keyboard-response","256","343718","0.0-6.0-0.125","LABU","4","f","rechts","24","","fixation","","","",""
"721","img/150_270.png","74","image-keyboard-response","257","344440","0.0-6.0-1.125","LABU","4","f","rechts","24","","","self","j","150","true"
"null","<div style=""font-size:60px;"">+</div>","null","html-keyboard-response","258","344842","0.0-6.0-0.126","LABU","4","f","rechts","24","","fixation","","","",""
"852","img/60_210.png","74","image-keyboard-response","259","345695","0.0-6.0-1.126","LABU","4","f","rechts","24","","","self","j","60","true"
"null","<div style=""font-size:60px;"">+</div>","null","html-keyboard-response","260","345996","0.0-6.0-0.127","LABU","4","f","rechts","24","","fixation","","","",""
"788","img/L90_180.png","70","image-keyboard-response","261","346785","0.0-6.0-1.127","LABU","4","f","rechts","24","","","self","f","90","true"
"null","<div style=""font-size:60px;"">+</div>","null","html-keyboard-response","262","347186","0.0-6.0-0.128","LABU","4","f","rechts","24","","fixation","","","",""
"647","img/60_90.png","74","image-keyboard-response","263","347834","0.0-6.0-1.128","LABU","4","f","rechts","24","","","self","j","60","true"
"null","<div style=""font-size:60px;"">+</div>","null","html-keyboard-response","264","348186","0.0-6.0-0.129","LABU","4","f","rechts","24","","fixation","","","",""
"622","img/90_330.png","70","image-keyboard-response","265","348809","0.0-6.0-1.129","LABU","4","f","rechts","24","","","self","f","90","true"
"null","<div style=""font-size:60px;"">+</div>","null","html-keyboard-response","266","349211","0.0-6.0-0.130","LABU","4","f","rechts","24","","fixation","","","",""
"627","img/0_120.png","74","image-keyboard-response","267","349838","0.0-6.0-1.130","LABU","4","f","rechts","24","","","self","j","0","true"
"null","<div style=""font-size:60px;"">+</div>","null","html-keyboard-response","268","350190","0.0-6.0-0.131","LABU","4","f","rechts","24","","fixation","","","",""
"726","img/L120_180.png","70","image-keyboard-response","269","350917","0.0-6.0-1.131","LABU","4","f","rechts","24","","","self","f","120","true"
"null","<div style=""font-size:60px;"">+</div>","null","html-keyboard-response","270","351269","0.0-6.0-0.132","LABU","4","f","rechts","24","","fixation","","","",""
"694","img/30_270.png","70","image-keyboard-response","271","351964","0.0-6.0-1.132","LABU","4","f","rechts","24","","","self","f","30","true"
"null","<div style=""font-size:60px;"">+</div>","null","html-keyboard-response","272","352466","0.0-6.0-0.133","LABU","4","f","rechts","24","","fixation","","","",""
"659","img/60_270.png","70","image-keyboard-response","273","353126","0.0-6.0-1.133","LABU","4","f","rechts","24","","","self","f","60","true"
"null","<div style=""font-size:60px;"">+</div>","null","html-keyboard-response","274","353628","0.0-6.0-0.134","LABU","4","f","rechts","24","","fixation","","","",""
"903","img/60_150.png","70","image-keyboard-response","275","354532","0.0-6.0-1.134","LABU","4","f","rechts","24","","","self","f","60","true"
"null","<div style=""font-size:60px;"">+</div>","null","html-keyboard-response","276","354884","0.0-6.0-0.135","LABU","4","f","rechts","24","","fixation","","","",""
"900","img/150_60.png","70","image-keyboard-response","277","355785","0.0-6.0-1.135","LABU","4","f","rechts","24","","","self","f","150","true"
"null","<div style=""font-size:60px;"">+</div>","null","html-keyboard-response","278","356237","0.0-6.0-0.136","LABU","4","f","rechts","24","","fixation","","","",""
"760","img/30_300.png","70","image-keyboard-response","279","356997","0.0-6.0-1.136","LABU","4","f","rechts","24","","","self","f","30","true"
"null","<div style=""font-size:60px;"">+</div>","null","html-keyboard-response","280","357499","0.0-6.0-0.137","LABU","4","f","rechts","24","","fixation","","","",""
"618","img/120_210.png","74","image-keyboard-response","281","358117","0.0-6.0-1.137","LABU","4","f","rechts","24","","","self","j","120","true"
"null","<div style=""font-size:60px;"">+</div>","null","html-keyboard-response","282","358569","0.0-6.0-0.138","LABU","4","f","rechts","24","","fixation","","","",""
"600","img/30_180.png","74","image-keyboard-response","283","359169","0.0-6.0-1.138","LABU","4","f","rechts","24","","","self","j","30","true"
"null","<div style=""font-size:60px;"">+</div>","null","html-keyboard-response","284","359470","0.0-6.0-0.139","LABU","4","f","rechts","24","","fixation","","","",""
"946","img/60_330.png","70","image-keyboard-response","285","360417","0.0-6.0-1.139","LABU","4","f","rechts","24","","","self","f","60","true"
"null","<div style=""font-size:60px;"">+</div>","null","html-keyboard-response","286","360869","0.0-6.0-0.140","LABU","4","f","rechts","24","","fixation","","","",""
"651","img/120_330.png","74","image-keyboard-response","287","361521","0.0-6.0-1.140","LABU","4","f","rechts","24","","","self","f","120","false"
"null","<div style=""font-size:60px;"">+</div>","null","html-keyboard-response","288","361823","0.0-6.0-0.141","LABU","4","f","rechts","24","","fixation","","","",""
"867","img/0_90.png","74","image-keyboard-response","289","362690","0.0-6.0-1.141","LABU","4","f","rechts","24","","","self","j","0","true"
"null","<div style=""font-size:60px;"">+</div>","null","html-keyboard-response","290","363192","0.0-6.0-0.142","LABU","4","f","rechts","24","","fixation","","","",""
"697","img/90_240.png","74","image-keyboard-response","291","363889","0.0-6.0-1.142","LABU","4","f","rechts","24","","","self","j","90","true"
"null","<div style=""font-size:60px;"">+</div>","null","html-keyboard-response","292","364191","0.0-6.0-0.143","LABU","4","f","rechts","24","","fixation","","","",""
"852","img/L150_180.png","70","image-keyboard-response","293","365043","0.0-6.0-1.143","LABU","4","f","rechts","24","","","self","f","150","true"
"null","<div style=""font-size:60px;"">+</div>","null","html-keyboard-response","294","365545","0.0-6.0-0.144","LABU","4","f","rechts","24","","fixation","","","",""
"674","img/0_240.png","70","image-keyboard-response","295","366219","0.0-6.0-1.144","LABU","4","f","rechts","24","","","self","f","0","true"
"null","<div style=""font-size:60px;"">+</div>","null","html-keyboard-response","296","366570","0.0-6.0-0.145","LABU","4","f","rechts","24","","fixation","","","",""
"843","img/30_240.png","70","image-keyboard-response","297","367414","0.0-6.0-1.145","LABU","4","f","rechts","24","","","self","f","30","true"
"null","<div style=""font-size:60px;"">+</div>","null","html-keyboard-response","298","367816","0.0-6.0-0.146","LABU","4","f","rechts","24","","fixation","","","",""
"660","img/90_180.png","74","image-keyboard-response","299","368476","0.0-6.0-1.146","LABU","4","f","rechts","24","","","self","j","90","true"
"null","<div style=""font-size:60px;"">+</div>","null","html-keyboard-response","300","368928","0.0-6.0-0.147","LABU","4","f","rechts","24","","fixation","","","",""
"901","img/120_30.png","74","image-keyboard-response","301","369829","0.0-6.0-1.147","LABU","4","f","rechts","24","","","self","j","120","true"
"null","<div style=""font-size:60px;"">+</div>","null","html-keyboard-response","302","370331","0.0-6.0-0.148","LABU","4","f","rechts","24","","fixation","","","",""
"664","img/0_300.png","70","image-keyboard-response","303","370995","0.0-6.0-1.148","LABU","4","f","rechts","24","","","self","f","0","true"
"null","<div style=""font-size:60px;"">+</div>","null","html-keyboard-response","304","371446","0.0-6.0-0.149","LABU","4","f","rechts","24","","fixation","","","",""
"574","img/0_330.png","70","image-keyboard-response","305","372021","0.0-6.0-1.149","LABU","4","f","rechts","24","","","self","f","0","true"
"null","<div style=""font-size:60px;"">+</div>","null","html-keyboard-response","306","372373","0.0-6.0-0.150","LABU","4","f","rechts","24","","fixation","","","",""
"850","img/L30_180.png","70","image-keyboard-response","307","373223","0.0-6.0-1.150","LABU","4","f","rechts","24","","","self","f","30","true"
"null","<div style=""font-size:60px;"">+</div>","null","html-keyboard-response","308","373524","0.0-6.0-0.151","LABU","4","f","rechts","24","","fixation","","","",""
"891","img/30_90.png","74","image-keyboard-response","309","374416","0.0-6.0-1.151","LABU","4","f","rechts","24","","","self","j","30","true"
"null","<div style=""font-size:60px;"">+</div>","null","html-keyboard-response","310","374817","0.0-6.0-0.152","LABU","4","f","rechts","24","","fixation","","","",""
"666","img/30_60.png","74","image-keyboard-response","311","375484","0.0-6.0-1.152","LABU","4","f","rechts","24","","","self","j","30","true"
"null","<div style=""font-size:60px;"">+</div>","null","html-keyboard-response","312","375885","0.0-6.0-0.153","LABU","4","f","rechts","24","","fixation","","","",""
"985","img/150_240.png","74","image-keyboard-response","313","376871","0.0-6.0-1.153","LABU","4","f","rechts","24","","","self","j","150","true"
"null","<div style=""font-size:60px;"">+</div>","null","html-keyboard-response","314","377173","0.0-6.0-0.154","LABU","4","f","rechts","24","","fixation","","","",""
"753","img/120_180.png","74","image-keyboard-response","315","377926","0.0-6.0-1.154","LABU","4","f","rechts","24","","","self","j","120","true"
"null","<div style=""font-size:60px;"">+</div>","null","html-keyboard-response","316","378328","0.0-6.0-0.155","LABU","4","f","rechts","24","","fixation","","","",""
"654","img/150_120.png","70","image-keyboard-response","317","378984","0.0-6.0-1.155","LABU","4","f","rechts","24","","","self","f","150","true"
"null","<div style=""font-size:60px;"">+</div>","null","html-keyboard-response","318","379384","0.0-6.0-0.156","LABU","4","f","rechts","24","","fixation","","","",""
"787","img/60_270.png","70","image-keyboard-response","319","380172","0.0-6.0-1.156","LABU","4","f","rechts","24","","","self","f","60","true"
"null","<div style=""font-size:60px;"">+</div>","null","html-keyboard-response","320","380572","0.0-6.0-0.157","LABU","4","f","rechts","24","","fixation","","","",""
"697","img/90_180.png","74","image-keyboard-response","321","381271","0.0-6.0-1.157","LABU","4","f","rechts","24","","","self","j","90","true"
"null","<div style=""font-size:60px;"">+</div>","null","html-keyboard-response","322","381772","0.0-6.0-0.158","LABU","4","f","rechts","24","","fixation","","","",""
"723","img/90_150.png","70","image-keyboard-response","323","382496","0.0-6.0-1.158","LABU","4","f","rechts","24","","","self","f","90","true"
"null","<div style=""font-size:60px;"">+</div>","null","html-keyboard-response","324","382997","0.0-6.0-0.159","LABU","4","f","rechts","24","","fixation","","","",""
"721","img/30_240.png","70","image-keyboard-response","325","383719","0.0-6.0-1.159","LABU","4","f","rechts","24","","","self","f","30","true"
"null","<div style=""font-size:60px;"">+</div>","null","html-keyboard-response","326","384071","0.0-6.0-0.160","LABU","4","f","rechts","24","","fixation","","","",""
"697","img/0_90.png","74","image-keyboard-response","327","384770","0.0-6.0-1.160","LABU","4","f","rechts","24","","","self","j","0","true"
"null","<div style=""font-size:60px;"">+</div>","null","html-keyboard-response","328","385271","0.0-6.0-0.161","LABU","4","f","rechts","24","","fixation","","","",""
"596","img/0_120.png","74","image-keyboard-response","329","385869","0.0-6.0-1.161","LABU","4","f","rechts","24","","","self","j","0","true"
"null","<div style=""font-size:60px;"">+</div>","null","html-keyboard-response","330","386370","0.0-6.0-0.162","LABU","4","f","rechts","24","","fixation","","","",""
"632","img/0_30.png","74","image-keyboard-response","331","387003","0.0-6.0-1.162","LABU","4","f","rechts","24","","","self","j","0","true"
"null","<div style=""font-size:60px;"">+</div>","null","html-keyboard-response","332","387505","0.0-6.0-0.163","LABU","4","f","rechts","24","","fixation","","","",""
"692","img/L30_180.png","70","image-keyboard-response","333","388199","0.0-6.0-1.163","LABU","4","f","rechts","24","","","self","f","30","true"
"null","<div style=""font-size:60px;"">+</div>","null","html-keyboard-response","334","388650","0.0-6.0-0.164","LABU","4","f","rechts","24","","fixation","","","",""
"1043","img/30_90.png","74","image-keyboard-response","335","389694","0.0-6.0-1.164","LABU","4","f","rechts","24","","","self","j","30","true"
"null","<div style=""font-size:60px;"">+</div>","null","html-keyboard-response","336","390096","0.0-6.0-0.165","LABU","4","f","rechts","24","","fixation","","","",""
"635","img/0_270.png","70","image-keyboard-response","337","390732","0.0-6.0-1.165","LABU","4","f","rechts","24","","","self","f","0","true"
"null","<div style=""font-size:60px;"">+</div>","null","html-keyboard-response","338","391184","0.0-6.0-0.166","LABU","4","f","rechts","24","","fixation","","","",""
"677","img/60_90.png","74","image-keyboard-response","339","391862","0.0-6.0-1.166","LABU","4","f","rechts","24","","","self","j","60","true"
"null","<div style=""font-size:60px;"">+</div>","null","html-keyboard-response","340","392163","0.0-6.0-0.167","LABU","4","f","rechts","24","","fixation","","","",""
"779","img/90_300.png","70","image-keyboard-response","341","392943","0.0-6.0-1.167","LABU","4","f","rechts","24","","","self","f","90","true"
"null","<div style=""font-size:60px;"">+</div>","null","html-keyboard-response","342","393345","0.0-6.0-0.168","LABU","4","f","rechts","24","","fixation","","","",""
"696","img/0_210.png","70","image-keyboard-response","343","394043","0.0-6.0-1.168","LABU","4","f","rechts","24","","","self","f","0","true"
"null","<div style=""font-size:60px;"">+</div>","null","html-keyboard-response","344","394344","0.0-6.0-0.169","LABU","4","f","rechts","24","","fixation","","","",""
"893","img/120_30.png","74","image-keyboard-response","345","395238","0.0-6.0-1.169","LABU","4","f","rechts","24","","","self","j","120","true"
"null","<div style=""font-size:60px;"">+</div>","null","html-keyboard-response","346","395640","0.0-6.0-0.170","LABU","4","f","rechts","24","","fixation","","","",""
"895","img/30_120.png","74","image-keyboard-response","347","396536","0.0-6.0-1.170","LABU","4","f","rechts","24","","","self","j","30","true"
"null","<div style=""font-size:60px;"">+</div>","null","html-keyboard-response","348","397038","0.0-6.0-0.171","LABU","4","f","rechts","24","","fixation","","","",""
"711","img/90_60.png","74","image-keyboard-response","349","397749","0.0-6.0-1.171","LABU","4","f","rechts","24","","","self","j","90","true"
"null","<div style=""font-size:60px;"">+</div>","null","html-keyboard-response","350","398201","0.0-6.0-0.172","LABU","4","f","rechts","24","","fixation","","","",""
"795","img/90_240.png","74","image-keyboard-response","351","398996","0.0-6.0-1.172","LABU","4","f","rechts","24","","","self","j","90","true"
"null","<div style=""font-size:60px;"">+</div>","null","html-keyboard-response","352","399298","0.0-6.0-0.173","LABU","4","f","rechts","24","","fixation","","","",""
"823","img/90_210.png","74","image-keyboard-response","353","400122","0.0-6.0-1.173","LABU","4","f","rechts","24","","","self","j","90","true"
"null","<div style=""font-size:60px;"">+</div>","null","html-keyboard-response","354","400424","0.0-6.0-0.174","LABU","4","f","rechts","24","","fixation","","","",""
"632","img/60_180.png","74","image-keyboard-response","355","401057","0.0-6.0-1.174","LABU","4","f","rechts","24","","","self","j","60","true"
"null","<div style=""font-size:60px;"">+</div>","null","html-keyboard-response","356","401409","0.0-6.0-0.175","LABU","4","f","rechts","24","","fixation","","","",""
"803","img/120_330.png","70","image-keyboard-response","357","402213","0.0-6.0-1.175","LABU","4","f","rechts","24","","","self","f","120","true"
"null","<div style=""font-size:60px;"">+</div>","null","html-keyboard-response","358","402665","0.0-6.0-0.176","LABU","4","f","rechts","24","","fixation","","","",""
"884","img/120_90.png","70","image-keyboard-response","359","403549","0.0-6.0-1.176","LABU","4","f","rechts","24","","","self","f","120","true"
"null","<div style=""font-size:60px;"">+</div>","null","html-keyboard-response","360","403901","0.0-6.0-0.177","LABU","4","f","rechts","24","","fixation","","","",""
"739","img/0_150.png","74","image-keyboard-response","361","404640","0.0-6.0-1.177","LABU","4","f","rechts","24","","","self","j","0","true"
"null","<div style=""font-size:60px;"">+</div>","null","html-keyboard-response","362","404942","0.0-6.0-0.178","LABU","4","f","rechts","24","","fixation","","","",""
"921","img/60_150.png","70","image-keyboard-response","363","405863","0.0-6.0-1.178","LABU","4","f","rechts","24","","","self","f","60","true"
"null","<div style=""font-size:60px;"">+</div>","null","html-keyboard-response","364","406165","0.0-6.0-0.179","LABU","4","f","rechts","24","","fixation","","","",""
"660","img/L90_180.png","70","image-keyboard-response","365","406825","0.0-6.0-1.179","LABU","4","f","rechts","24","","","self","f","90","true"
"null","<div style=""font-size:60px;"">+</div>","null","html-keyboard-response","366","407177","0.0-6.0-0.180","LABU","4","f","rechts","24","","fixation","","","",""
"703","img/150_120.png","70","image-keyboard-response","367","407881","0.0-6.0-1.180","LABU","4","f","rechts","24","","","self","f","150","true"
"null","<div style=""font-size:60px;"">+</div>","null","html-keyboard-response","368","408233","0.0-6.0-0.181","LABU","4","f","rechts","24","","fixation","","","",""
"734","img/120_210.png","74","image-keyboard-response","369","408968","0.0-6.0-1.181","LABU","4","f","rechts","24","","","self","j","120","true"
"null","<div style=""font-size:60px;"">+</div>","null","html-keyboard-response","370","409420","0.0-6.0-0.182","LABU","4","f","rechts","24","","fixation","","","",""
"691","img/30_180.png","74","image-keyboard-response","371","410111","0.0-6.0-1.182","LABU","4","f","rechts","24","","","self","j","30","true"
"null","<div style=""font-size:60px;"">+</div>","null","html-keyboard-response","372","410463","0.0-6.0-0.183","LABU","4","f","rechts","24","","fixation","","","",""
"698","img/120_270.png","74","image-keyboard-response","373","411162","0.0-6.0-1.183","LABU","4","f","rechts","24","","","self","j","120","true"
"null","<div style=""font-size:60px;"">+</div>","null","html-keyboard-response","374","411563","0.0-6.0-0.184","LABU","4","f","rechts","24","","fixation","","","",""
"652","img/150_60.png","70","image-keyboard-response","375","412216","0.0-6.0-1.184","LABU","4","f","rechts","24","","","self","f","150","true"
"null","<div style=""font-size:60px;"">+</div>","null","html-keyboard-response","376","412718","0.0-6.0-0.185","LABU","4","f","rechts","24","","fixation","","","",""
"663","img/60_330.png","70","image-keyboard-response","377","413381","0.0-6.0-1.185","LABU","4","f","rechts","24","","","self","f","60","true"
"null","<div style=""font-size:60px;"">+</div>","null","html-keyboard-response","378","413883","0.0-6.0-0.186","LABU","4","f","rechts","24","","fixation","","","",""
"813","img/L150_180.png","70","image-keyboard-response","379","414696","0.0-6.0-1.186","LABU","4","f","rechts","24","","","self","f","150","true"
"null","<div style=""font-size:60px;"">+</div>","null","html-keyboard-response","380","415047","0.0-6.0-0.187","LABU","4","f","rechts","24","","fixation","","","",""
"740","img/30_300.png","70","image-keyboard-response","381","415788","0.0-6.0-1.187","LABU","4","f","rechts","24","","","self","f","30","true"
"null","<div style=""font-size:60px;"">+</div>","null","html-keyboard-response","382","416240","0.0-6.0-0.188","LABU","4","f","rechts","24","","fixation","","","",""
"748","img/L60_180.png","70","image-keyboard-response","383","416988","0.0-6.0-1.188","LABU","4","f","rechts","24","","","self","f","60","true"
"null","<div style=""font-size:60px;"">+</div>","null","html-keyboard-response","384","417289","0.0-6.0-0.189","LABU","4","f","rechts","24","","fixation","","","",""
"756","img/60_30.png","74","image-keyboard-response","385","418046","0.0-6.0-1.189","LABU","4","f","rechts","24","","","self","j","60","true"
"null","<div style=""font-size:60px;"">+</div>","null","html-keyboard-response","386","418397","0.0-6.0-0.190","LABU","4","f","rechts","24","","fixation","","","",""
"652","img/0_330.png","70","image-keyboard-response","387","419050","0.0-6.0-1.190","LABU","4","f","rechts","24","","","self","f","0","true"
"null","<div style=""font-size:60px;"">+</div>","null","html-keyboard-response","388","419351","0.0-6.0-0.191","LABU","4","f","rechts","24","","fixation","","","",""
"893","img/90_30.png","74","image-keyboard-response","389","420245","0.0-6.0-1.191","LABU","4","f","rechts","24","","","self","j","90","true"
"null","<div style=""font-size:60px;"">+</div>","null","html-keyboard-response","390","420647","0.0-6.0-0.192","LABU","4","f","rechts","24","","fixation","","","",""
"691","img/0_240.png","70","image-keyboard-response","391","421338","0.0-6.0-1.192","LABU","4","f","rechts","24","","","self","f","0","true"
"null","<div style=""font-size:60px;"">+</div>","null","html-keyboard-response","392","421689","0.0-6.0-0.193","LABU","4","f","rechts","24","","fixation","","","",""
"686","img/120_180.png","74","image-keyboard-response","393","422376","0.0-6.0-1.193","LABU","4","f","rechts","24","","","self","j","120","true"
"null","<div style=""font-size:60px;"">+</div>","null","html-keyboard-response","394","422777","0.0-6.0-0.194","LABU","4","f","rechts","24","","fixation","","","",""
"672","img/90_330.png","70","image-keyboard-response","395","423450","0.0-6.0-1.194","LABU","4","f","rechts","24","","","self","f","90","true"
"null","<div style=""font-size:60px;"">+</div>","null","html-keyboard-response","396","423952","0.0-6.0-0.195","LABU","4","f","rechts","24","","fixation","","","",""
"865","img/150_300.png","74","image-keyboard-response","397","424817","0.0-6.0-1.195","LABU","4","f","rechts","24","","","self","j","150","true"
"null","<div style=""font-size:60px;"">+</div>","null","html-keyboard-response","398","425319","0.0-6.0-0.196","LABU","4","f","rechts","24","","fixation","","","",""
"723","img/150_90.png","70","image-keyboard-response","399","426043","0.0-6.0-1.196","LABU","4","f","rechts","24","","","self","f","150","true"
"null","<div style=""font-size:60px;"">+</div>","null","html-keyboard-response","400","426544","0.0-6.0-0.197","LABU","4","f","rechts","24","","fixation","","","",""
"688","img/150_240.png","74","image-keyboard-response","401","427233","0.0-6.0-1.197","LABU","4","f","rechts","24","","","self","j","150","true"
"null","<div style=""font-size:60px;"">+</div>","null","html-keyboard-response","402","427734","0.0-6.0-0.198","LABU","4","f","rechts","24","","fixation","","","",""
"635","img/0_300.png","70","image-keyboard-response","403","428370","0.0-6.0-1.198","LABU","4","f","rechts","24","","","self","f","0","true"
"null","<div style=""font-size:60px;"">+</div>","null","html-keyboard-response","404","428722","0.0-6.0-0.199","LABU","4","f","rechts","24","","fixation","","","",""
"827","img/L120_180.png","70","image-keyboard-response","405","429551","0.0-6.0-1.199","LABU","4","f","rechts","24","","","self","f","120","true"
"null","<div style=""font-size:60px;"">+</div>","null","html-keyboard-response","406","429952","0.0-6.0-0.200","LABU","4","f","rechts","24","","fixation","","","",""
"753","img/150_180.png","74","image-keyboard-response","407","430707","0.0-6.0-1.200","LABU","4","f","rechts","24","","","self","j","150","true"
"null","<div style=""font-size:60px;"">+</div>","null","html-keyboard-response","408","431008","0.0-6.0-0.201","LABU","4","f","rechts","24","","fixation","","","",""
"704","img/30_270.png","70","image-keyboard-response","409","431714","0.0-6.0-1.201","LABU","4","f","rechts","24","","","self","f","30","true"
"null","<div style=""font-size:60px;"">+</div>","null","html-keyboard-response","410","432065","0.0-6.0-0.202","LABU","4","f","rechts","24","","fixation","","","",""
"589","img/150_270.png","74","image-keyboard-response","411","432656","0.0-6.0-1.202","LABU","4","f","rechts","24","","","self","j","150","true"
"null","<div style=""font-size:60px;"">+</div>","null","html-keyboard-response","412","433157","0.0-6.0-0.203","LABU","4","f","rechts","24","","fixation","","","",""
"611","img/0_60.png","74","image-keyboard-response","413","433769","0.0-6.0-1.203","LABU","4","f","rechts","24","","","self","j","0","true"
"null","<div style=""font-size:60px;"">+</div>","null","html-keyboard-response","414","434171","0.0-6.0-0.204","LABU","4","f","rechts","24","","fixation","","","",""
"668","img/60_210.png","74","image-keyboard-response","415","434841","0.0-6.0-1.204","LABU","4","f","rechts","24","","","self","j","60","true"
"null","<div style=""font-size:60px;"">+</div>","null","html-keyboard-response","416","435342","0.0-6.0-0.205","LABU","4","f","rechts","24","","fixation","","","",""
"763","img/30_60.png","74","image-keyboard-response","417","436106","0.0-6.0-1.205","LABU","4","f","rechts","24","","","self","j","30","true"
"null","<div style=""font-size:60px;"">+</div>","null","html-keyboard-response","418","436458","0.0-6.0-0.206","LABU","4","f","rechts","24","","fixation","","","",""
"753","img/120_150.png","70","image-keyboard-response","419","437213","0.0-6.0-1.206","LABU","4","f","rechts","24","","","self","f","120","true"
"null","<div style=""font-size:60px;"">+</div>","null","html-keyboard-response","420","437664","0.0-6.0-0.207","LABU","4","f","rechts","24","","fixation","","","",""
"755","img/90_120.png","70","image-keyboard-response","421","438421","0.0-6.0-1.207","LABU","4","f","rechts","24","","","self","f","90","true"
"10115","<p>Du hast in 95% der Versuche korrekt entschieden.</p><p>Deine durchschnittliche Reaktionszeit war  730ms.</p><p>Dr&uuml;cke eine beliebige Taste, um die Session zu beenden. Vielen Dank!</p>","72","html-keyboard-response","422","448536","0.0-7.0","LABU","4","f","rechts","24","","","","","",""
