"rt","stimulus","key_press","trial_type","trial_index","time_elapsed","internal_node_id","subject","session","sex","handedness","age","responses","test_part","condition","correct_response","angle","correct"
"4185","<p>Mental Rotation Experiment.</p> <p>Dr&uuml;cke eine beliebige Taste, um anzufangen.</p>","70","html-keyboard-response","0","4188","0.0-0.0","LABU","1","f","rechts","24","","","","","",""
"4089","","","survey-text","1","8278","0.0-1.0","LABU","1","f","rechts","24","{""Q0"":""LABU""}","","","","",""
"9336","","","survey-text","2","17615","0.0-2.0","LABU","1","f","rechts","24","{""Q0"":""1""}","","","","",""
"29028","","","survey-multi-choice","3","46646","0.0-3.0","LABU","1","f","rechts","24","{""Q0"":""f"",""Q1"":""rechts""}","","","","",""
"3407","","","survey-text","4","50055","0.0-4.0","LABU","1","f","rechts","24","{""Q0"":""24""}","","","","",""
"8407","<p> Stell dir vor, dass du vor einem runden Tisch stehst, auf dem sich ein blauer Ball am Tischrand befindet. Entlang des Tischrands ist jeweils ein verschieden langer Pfeil. Nun bewegst du dich entlang dieses Pfeils bis an seine Spitze. Wenn du am Ende des Pfeils angekommen bist, schau zur Tischmitte. </p> <img src='img/90_180.png'></img> <br> <p>Entscheide dann, ob der Ball von deiner neuen (vorgestellten) Position links oder rechts von dir liegt.</p> <p>Dr&uuml;cke die <strong>'f'</strong>-Taste f&uuml;r links, die <strong>'j'</strong>-Taste f&uuml;r rechts.</p> <br><p> Das Bild wird jeweils 1 Sekunde lang pr&auml;sentiert. Du hast 3 Sekunden Zeit eine Entscheidung zu treffen.</p>","74","html-keyboard-response","5","58464","0.0-5.0","LABU","1","f","rechts","24","","","","","",""
"null","<div style=""font-size:60px;"">+</div>","null","html-keyboard-response","6","59817","0.0-6.0-0.0","LABU","1","f","rechts","24","","fixation","","","",""
"952","img/150_240.png","74","image-keyboard-response","7","60771","0.0-6.0-1.0","LABU","1","f","rechts","24","","","self","j","150","true"
"null","<div style=""font-size:60px;"">+</div>","null","html-keyboard-response","8","61173","0.0-6.0-0.1","LABU","1","f","rechts","24","","fixation","","","",""
"888","img/L90_180.png","70","image-keyboard-response","9","62062","0.0-6.0-1.1","LABU","1","f","rechts","24","","","self","f","90","true"
"null","<div style=""font-size:60px;"">+</div>","null","html-keyboard-response","10","62564","0.0-6.0-0.2","LABU","1","f","rechts","24","","fixation","","","",""
"786","img/30_90.png","70","image-keyboard-response","11","63351","0.0-6.0-1.2","LABU","1","f","rechts","24","","","self","j","30","false"
"null","<div style=""font-size:60px;"">+</div>","null","html-keyboard-response","12","63653","0.0-6.0-0.3","LABU","1","f","rechts","24","","fixation","","","",""
"1110","img/90_300.png","70","image-keyboard-response","13","64764","0.0-6.0-1.3","LABU","1","f","rechts","24","","","self","f","90","true"
"null","<div style=""font-size:60px;"">+</div>","null","html-keyboard-response","14","65215","0.0-6.0-0.4","LABU","1","f","rechts","24","","fixation","","","",""
"818","img/0_210.png","70","image-keyboard-response","15","66036","0.0-6.0-1.4","LABU","1","f","rechts","24","","","self","f","0","true"
"null","<div style=""font-size:60px;"">+</div>","null","html-keyboard-response","16","66437","0.0-6.0-0.5","LABU","1","f","rechts","24","","fixation","","","",""
"1196","img/60_90.png","74","image-keyboard-response","17","67635","0.0-6.0-1.5","LABU","1","f","rechts","24","","","self","j","60","true"
"null","<div style=""font-size:60px;"">+</div>","null","html-keyboard-response","18","67986","0.0-6.0-0.6","LABU","1","f","rechts","24","","fixation","","","",""
"879","img/90_60.png","74","image-keyboard-response","19","68867","0.0-6.0-1.6","LABU","1","f","rechts","24","","","self","j","90","true"
"null","<div style=""font-size:60px;"">+</div>","null","html-keyboard-response","20","69218","0.0-6.0-0.7","LABU","1","f","rechts","24","","fixation","","","",""
"1259","img/150_120.png","70","image-keyboard-response","21","70479","0.0-6.0-1.7","LABU","1","f","rechts","24","","","self","f","150","true"
"null","<div style=""font-size:60px;"">+</div>","null","html-keyboard-response","22","70930","0.0-6.0-0.8","LABU","1","f","rechts","24","","fixation","","","",""
"1178","img/90_210.png","74","image-keyboard-response","23","72110","0.0-6.0-1.8","LABU","1","f","rechts","24","","","self","j","90","true"
"null","<div style=""font-size:60px;"">+</div>","null","html-keyboard-response","24","72511","0.0-6.0-0.9","LABU","1","f","rechts","24","","fixation","","","",""
"1354","img/30_120.png","70","image-keyboard-response","25","73867","0.0-6.0-1.9","LABU","1","f","rechts","24","","","self","j","30","false"
"null","<div style=""font-size:60px;"">+</div>","null","html-keyboard-response","26","74368","0.0-6.0-0.10","LABU","1","f","rechts","24","","fixation","","","",""
"900","img/0_30.png","74","image-keyboard-response","27","75270","0.0-6.0-1.10","LABU","1","f","rechts","24","","","self","j","0","true"
"null","<div style=""font-size:60px;"">+</div>","null","html-keyboard-response","28","75721","0.0-6.0-0.11","LABU","1","f","rechts","24","","fixation","","","",""
"1129","img/60_30.png","74","image-keyboard-response","29","76852","0.0-6.0-1.11","LABU","1","f","rechts","24","","","self","j","60","true"
"null","<div style=""font-size:60px;"">+</div>","null","html-keyboard-response","30","77254","0.0-6.0-0.12","LABU","1","f","rechts","24","","fixation","","","",""
"715","img/0_120.png","74","image-keyboard-response","31","77971","0.0-6.0-1.12","LABU","1","f","rechts","24","","","self","j","0","true"
"null","<div style=""font-size:60px;"">+</div>","null","html-keyboard-response","32","78322","0.0-6.0-0.13","LABU","1","f","rechts","24","","fixation","","","",""
"1239","img/120_30.png","70","image-keyboard-response","33","79562","0.0-6.0-1.13","LABU","1","f","rechts","24","","","self","j","120","false"
"null","<div style=""font-size:60px;"">+</div>","null","html-keyboard-response","34","79914","0.0-6.0-0.14","LABU","1","f","rechts","24","","fixation","","","",""
"1102","img/120_330.png","70","image-keyboard-response","35","81017","0.0-6.0-1.14","LABU","1","f","rechts","24","","","self","f","120","true"
"null","<div style=""font-size:60px;"">+</div>","null","html-keyboard-response","36","81319","0.0-6.0-0.15","LABU","1","f","rechts","24","","fixation","","","",""
"1016","img/L60_180.png","70","image-keyboard-response","37","82336","0.0-6.0-1.15","LABU","1","f","rechts","24","","","self","f","60","true"
"null","<div style=""font-size:60px;"">+</div>","null","html-keyboard-response","38","82688","0.0-6.0-0.16","LABU","1","f","rechts","24","","fixation","","","",""
"857","img/0_90.png","74","image-keyboard-response","39","83546","0.0-6.0-1.16","LABU","1","f","rechts","24","","","self","j","0","true"
"null","<div style=""font-size:60px;"">+</div>","null","html-keyboard-response","40","83998","0.0-6.0-0.17","LABU","1","f","rechts","24","","fixation","","","",""
"1249","img/90_180.png","74","image-keyboard-response","41","85248","0.0-6.0-1.17","LABU","1","f","rechts","24","","","self","j","90","true"
"null","<div style=""font-size:60px;"">+</div>","null","html-keyboard-response","42","85700","0.0-6.0-0.18","LABU","1","f","rechts","24","","fixation","","","",""
"786","img/120_210.png","74","image-keyboard-response","43","86487","0.0-6.0-1.18","LABU","1","f","rechts","24","","","self","j","120","true"
"null","<div style=""font-size:60px;"">+</div>","null","html-keyboard-response","44","86889","0.0-6.0-0.19","LABU","1","f","rechts","24","","fixation","","","",""
"872","img/0_270.png","70","image-keyboard-response","45","87762","0.0-6.0-1.19","LABU","1","f","rechts","24","","","self","f","0","true"
"null","<div style=""font-size:60px;"">+</div>","null","html-keyboard-response","46","88264","0.0-6.0-0.20","LABU","1","f","rechts","24","","fixation","","","",""
"742","img/0_240.png","70","image-keyboard-response","47","89007","0.0-6.0-1.20","LABU","1","f","rechts","24","","","self","f","0","true"
"null","<div style=""font-size:60px;"">+</div>","null","html-keyboard-response","48","89459","0.0-6.0-0.21","LABU","1","f","rechts","24","","fixation","","","",""
"1131","img/L120_180.png","70","image-keyboard-response","49","90591","0.0-6.0-1.21","LABU","1","f","rechts","24","","","self","f","120","true"
"null","<div style=""font-size:60px;"">+</div>","null","html-keyboard-response","50","91043","0.0-6.0-0.22","LABU","1","f","rechts","24","","fixation","","","",""
"1061","img/30_60.png","74","image-keyboard-response","51","92105","0.0-6.0-1.22","LABU","1","f","rechts","24","","","self","j","30","true"
"null","<div style=""font-size:60px;"">+</div>","null","html-keyboard-response","52","92407","0.0-6.0-0.23","LABU","1","f","rechts","24","","fixation","","","",""
"778","img/0_60.png","74","image-keyboard-response","53","93186","0.0-6.0-1.23","LABU","1","f","rechts","24","","","self","j","0","true"
"null","<div style=""font-size:60px;"">+</div>","null","html-keyboard-response","54","93538","0.0-6.0-0.24","LABU","1","f","rechts","24","","fixation","","","",""
"941","img/150_270.png","74","image-keyboard-response","55","94480","0.0-6.0-1.24","LABU","1","f","rechts","24","","","self","j","150","true"
"null","<div style=""font-size:60px;"">+</div>","null","html-keyboard-response","56","94982","0.0-6.0-0.25","LABU","1","f","rechts","24","","fixation","","","",""
"1135","img/60_270.png","70","image-keyboard-response","57","96118","0.0-6.0-1.25","LABU","1","f","rechts","24","","","self","f","60","true"
"null","<div style=""font-size:60px;"">+</div>","null","html-keyboard-response","58","96620","0.0-6.0-0.26","LABU","1","f","rechts","24","","fixation","","","",""
"1083","img/90_30.png","74","image-keyboard-response","59","97704","0.0-6.0-1.26","LABU","1","f","rechts","24","","","self","j","90","true"
"null","<div style=""font-size:60px;"">+</div>","null","html-keyboard-response","60","98156","0.0-6.0-0.27","LABU","1","f","rechts","24","","fixation","","","",""
"742","img/0_150.png","74","image-keyboard-response","61","98899","0.0-6.0-1.27","LABU","1","f","rechts","24","","","self","j","0","true"
"null","<div style=""font-size:60px;"">+</div>","null","html-keyboard-response","62","99301","0.0-6.0-0.28","LABU","1","f","rechts","24","","fixation","","","",""
"1070","img/120_270.png","74","image-keyboard-response","63","100372","0.0-6.0-1.28","LABU","1","f","rechts","24","","","self","j","120","true"
"null","<div style=""font-size:60px;"">+</div>","null","html-keyboard-response","64","100823","0.0-6.0-0.29","LABU","1","f","rechts","24","","fixation","","","",""
"872","img/90_330.png","70","image-keyboard-response","65","101696","0.0-6.0-1.29","LABU","1","f","rechts","24","","","self","f","90","true"
"null","<div style=""font-size:60px;"">+</div>","null","html-keyboard-response","66","102048","0.0-6.0-0.30","LABU","1","f","rechts","24","","fixation","","","",""
"1194","img/90_120.png","70","image-keyboard-response","67","103244","0.0-6.0-1.30","LABU","1","f","rechts","24","","","self","f","90","true"
"null","<div style=""font-size:60px;"">+</div>","null","html-keyboard-response","68","103745","0.0-6.0-0.31","LABU","1","f","rechts","24","","fixation","","","",""
"1511","img/150_180.png","74","image-keyboard-response","69","105257","0.0-6.0-1.31","LABU","1","f","rechts","24","","","self","j","150","true"
"null","<div style=""font-size:60px;"">+</div>","null","html-keyboard-response","70","105758","0.0-6.0-0.32","LABU","1","f","rechts","24","","fixation","","","",""
"935","img/150_300.png","74","image-keyboard-response","71","106694","0.0-6.0-1.32","LABU","1","f","rechts","24","","","self","j","150","true"
"null","<div style=""font-size:60px;"">+</div>","null","html-keyboard-response","72","107096","0.0-6.0-0.33","LABU","1","f","rechts","24","","fixation","","","",""
"1291","img/150_90.png","70","image-keyboard-response","73","108388","0.0-6.0-1.33","LABU","1","f","rechts","24","","","self","f","150","true"
"null","<div style=""font-size:60px;"">+</div>","null","html-keyboard-response","74","108890","0.0-6.0-0.34","LABU","1","f","rechts","24","","fixation","","","",""
"998","img/150_60.png","70","image-keyboard-response","75","109889","0.0-6.0-1.34","LABU","1","f","rechts","24","","","self","f","150","true"
"null","<div style=""font-size:60px;"">+</div>","null","html-keyboard-response","76","110341","0.0-6.0-0.35","LABU","1","f","rechts","24","","fixation","","","",""
"1181","img/60_180.png","74","image-keyboard-response","77","111523","0.0-6.0-1.35","LABU","1","f","rechts","24","","","self","j","60","true"
"null","<div style=""font-size:60px;"">+</div>","null","html-keyboard-response","78","111825","0.0-6.0-0.36","LABU","1","f","rechts","24","","fixation","","","",""
"874","img/60_210.png","74","image-keyboard-response","79","112700","0.0-6.0-1.36","LABU","1","f","rechts","24","","","self","j","60","true"
"null","<div style=""font-size:60px;"">+</div>","null","html-keyboard-response","80","113051","0.0-6.0-0.37","LABU","1","f","rechts","24","","fixation","","","",""
"674","img/30_270.png","70","image-keyboard-response","81","113727","0.0-6.0-1.37","LABU","1","f","rechts","24","","","self","f","30","true"
"null","<div style=""font-size:60px;"">+</div>","null","html-keyboard-response","82","114078","0.0-6.0-0.38","LABU","1","f","rechts","24","","fixation","","","",""
"1284","img/90_150.png","70","image-keyboard-response","83","115364","0.0-6.0-1.38","LABU","1","f","rechts","24","","","self","f","90","true"
"null","<div style=""font-size:60px;"">+</div>","null","html-keyboard-response","84","115815","0.0-6.0-0.39","LABU","1","f","rechts","24","","fixation","","","",""
"755","img/120_150.png","70","image-keyboard-response","85","116572","0.0-6.0-1.39","LABU","1","f","rechts","24","","","self","f","120","true"
"null","<div style=""font-size:60px;"">+</div>","null","html-keyboard-response","86","116973","0.0-6.0-0.40","LABU","1","f","rechts","24","","fixation","","","",""
"1081","img/30_300.png","70","image-keyboard-response","87","118055","0.0-6.0-1.40","LABU","1","f","rechts","24","","","self","f","30","true"
"null","<div style=""font-size:60px;"">+</div>","null","html-keyboard-response","88","118357","0.0-6.0-0.41","LABU","1","f","rechts","24","","fixation","","","",""
"820","img/60_330.png","70","image-keyboard-response","89","119179","0.0-6.0-1.41","LABU","1","f","rechts","24","","","self","f","60","true"
"null","<div style=""font-size:60px;"">+</div>","null","html-keyboard-response","90","119580","0.0-6.0-0.42","LABU","1","f","rechts","24","","fixation","","","",""
"1272","img/120_90.png","70","image-keyboard-response","91","120854","0.0-6.0-1.42","LABU","1","f","rechts","24","","","self","f","120","true"
"null","<div style=""font-size:60px;"">+</div>","null","html-keyboard-response","92","121155","0.0-6.0-0.43","LABU","1","f","rechts","24","","fixation","","","",""
"931","img/30_180.png","74","image-keyboard-response","93","122089","0.0-6.0-1.43","LABU","1","f","rechts","24","","","self","j","30","true"
"null","<div style=""font-size:60px;"">+</div>","null","html-keyboard-response","94","122490","0.0-6.0-0.44","LABU","1","f","rechts","24","","fixation","","","",""
"724","img/0_300.png","70","image-keyboard-response","95","123216","0.0-6.0-1.44","LABU","1","f","rechts","24","","","self","f","0","true"
"null","<div style=""font-size:60px;"">+</div>","null","html-keyboard-response","96","123518","0.0-6.0-0.45","LABU","1","f","rechts","24","","fixation","","","",""
"995","img/60_150.png","70","image-keyboard-response","97","124515","0.0-6.0-1.45","LABU","1","f","rechts","24","","","self","f","60","true"
"null","<div style=""font-size:60px;"">+</div>","null","html-keyboard-response","98","124816","0.0-6.0-0.46","LABU","1","f","rechts","24","","fixation","","","",""
"1151","img/L150_180.png","70","image-keyboard-response","99","125969","0.0-6.0-1.46","LABU","1","f","rechts","24","","","self","f","150","true"
"null","<div style=""font-size:60px;"">+</div>","null","html-keyboard-response","100","126271","0.0-6.0-0.47","LABU","1","f","rechts","24","","fixation","","","",""
"919","img/90_240.png","74","image-keyboard-response","101","127192","0.0-6.0-1.47","LABU","1","f","rechts","24","","","self","j","90","true"
"null","<div style=""font-size:60px;"">+</div>","null","html-keyboard-response","102","127593","0.0-6.0-0.48","LABU","1","f","rechts","24","","fixation","","","",""
"647","img/0_330.png","70","image-keyboard-response","103","128241","0.0-6.0-1.48","LABU","1","f","rechts","24","","","self","f","0","true"
"null","<div style=""font-size:60px;"">+</div>","null","html-keyboard-response","104","128693","0.0-6.0-0.49","LABU","1","f","rechts","24","","fixation","","","",""
"762","img/L30_180.png","70","image-keyboard-response","105","129456","0.0-6.0-1.49","LABU","1","f","rechts","24","","","self","f","30","true"
"null","<div style=""font-size:60px;"">+</div>","null","html-keyboard-response","106","129758","0.0-6.0-0.50","LABU","1","f","rechts","24","","fixation","","","",""
"857","img/120_180.png","74","image-keyboard-response","107","130616","0.0-6.0-1.50","LABU","1","f","rechts","24","","","self","j","120","true"
"null","<div style=""font-size:60px;"">+</div>","null","html-keyboard-response","108","131018","0.0-6.0-0.51","LABU","1","f","rechts","24","","fixation","","","",""
"889","img/30_240.png","70","image-keyboard-response","109","131908","0.0-6.0-1.51","LABU","1","f","rechts","24","","","self","f","30","true"
"null","<div style=""font-size:60px;"">+</div>","null","html-keyboard-response","110","132361","0.0-6.0-0.52","LABU","1","f","rechts","24","","fixation","","","",""
"930","img/90_240.png","70","image-keyboard-response","111","133292","0.0-6.0-1.52","LABU","1","f","rechts","24","","","self","j","90","false"
"null","<div style=""font-size:60px;"">+</div>","null","html-keyboard-response","112","133593","0.0-6.0-0.53","LABU","1","f","rechts","24","","fixation","","","",""
"788","img/150_270.png","74","image-keyboard-response","113","134382","0.0-6.0-1.53","LABU","1","f","rechts","24","","","self","j","150","true"
"null","<div style=""font-size:60px;"">+</div>","null","html-keyboard-response","114","134734","0.0-6.0-0.54","LABU","1","f","rechts","24","","fixation","","","",""
"1170","img/30_90.png","74","image-keyboard-response","115","135905","0.0-6.0-1.54","LABU","1","f","rechts","24","","","self","j","30","true"
"null","<div style=""font-size:60px;"">+</div>","null","html-keyboard-response","116","136407","0.0-6.0-0.55","LABU","1","f","rechts","24","","fixation","","","",""
"1137","img/90_120.png","70","image-keyboard-response","117","137545","0.0-6.0-1.55","LABU","1","f","rechts","24","","","self","f","90","true"
"null","<div style=""font-size:60px;"">+</div>","null","html-keyboard-response","118","138047","0.0-6.0-0.56","LABU","1","f","rechts","24","","fixation","","","",""
"874","img/120_210.png","74","image-keyboard-response","119","138922","0.0-6.0-1.56","LABU","1","f","rechts","24","","","self","j","120","true"
"null","<div style=""font-size:60px;"">+</div>","null","html-keyboard-response","120","139324","0.0-6.0-0.57","LABU","1","f","rechts","24","","fixation","","","",""
"749","img/150_180.png","74","image-keyboard-response","121","140074","0.0-6.0-1.57","LABU","1","f","rechts","24","","","self","j","150","true"
"null","<div style=""font-size:60px;"">+</div>","null","html-keyboard-response","122","140526","0.0-6.0-0.58","LABU","1","f","rechts","24","","fixation","","","",""
"1070","img/150_60.png","70","image-keyboard-response","123","141596","0.0-6.0-1.58","LABU","1","f","rechts","24","","","self","f","150","true"
"null","<div style=""font-size:60px;"">+</div>","null","html-keyboard-response","124","141948","0.0-6.0-0.59","LABU","1","f","rechts","24","","fixation","","","",""
"914","img/30_180.png","74","image-keyboard-response","125","142862","0.0-6.0-1.59","LABU","1","f","rechts","24","","","self","j","30","true"
"null","<div style=""font-size:60px;"">+</div>","null","html-keyboard-response","126","143164","0.0-6.0-0.60","LABU","1","f","rechts","24","","fixation","","","",""
"1530","img/90_30.png","74","image-keyboard-response","127","144695","0.0-6.0-1.60","LABU","1","f","rechts","24","","","self","j","90","true"
"null","<div style=""font-size:60px;"">+</div>","null","html-keyboard-response","128","145197","0.0-6.0-0.61","LABU","1","f","rechts","24","","fixation","","","",""
"1136","img/30_300.png","70","image-keyboard-response","129","146333","0.0-6.0-1.61","LABU","1","f","rechts","24","","","self","f","30","true"
"null","<div style=""font-size:60px;"">+</div>","null","html-keyboard-response","130","146735","0.0-6.0-0.62","LABU","1","f","rechts","24","","fixation","","","",""
"926","img/30_60.png","74","image-keyboard-response","131","147661","0.0-6.0-1.62","LABU","1","f","rechts","24","","","self","j","30","true"
"null","<div style=""font-size:60px;"">+</div>","null","html-keyboard-response","132","148063","0.0-6.0-0.63","LABU","1","f","rechts","24","","fixation","","","",""
"870","img/90_300.png","70","image-keyboard-response","133","148934","0.0-6.0-1.63","LABU","1","f","rechts","24","","","self","f","90","true"
"null","<div style=""font-size:60px;"">+</div>","null","html-keyboard-response","134","149436","0.0-6.0-0.64","LABU","1","f","rechts","24","","fixation","","","",""
"774","img/0_210.png","70","image-keyboard-response","135","150210","0.0-6.0-1.64","LABU","1","f","rechts","24","","","self","f","0","true"
"null","<div style=""font-size:60px;"">+</div>","null","html-keyboard-response","136","150612","0.0-6.0-0.65","LABU","1","f","rechts","24","","fixation","","","",""
"1003","img/120_270.png","74","image-keyboard-response","137","151616","0.0-6.0-1.65","LABU","1","f","rechts","24","","","self","j","120","true"
"null","<div style=""font-size:60px;"">+</div>","null","html-keyboard-response","138","152018","0.0-6.0-0.66","LABU","1","f","rechts","24","","fixation","","","",""
"817","img/L60_180.png","70","image-keyboard-response","139","152836","0.0-6.0-1.66","LABU","1","f","rechts","24","","","self","f","60","true"
"null","<div style=""font-size:60px;"">+</div>","null","html-keyboard-response","140","153238","0.0-6.0-0.67","LABU","1","f","rechts","24","","fixation","","","",""
"1126","img/L90_180.png","70","image-keyboard-response","141","154364","0.0-6.0-1.67","LABU","1","f","rechts","24","","","self","f","90","true"
"null","<div style=""font-size:60px;"">+</div>","null","html-keyboard-response","142","154816","0.0-6.0-0.68","LABU","1","f","rechts","24","","fixation","","","",""
"804","img/60_210.png","74","image-keyboard-response","143","155620","0.0-6.0-1.68","LABU","1","f","rechts","24","","","self","j","60","true"
"null","<div style=""font-size:60px;"">+</div>","null","html-keyboard-response","144","155972","0.0-6.0-0.69","LABU","1","f","rechts","24","","fixation","","","",""
"895","img/60_180.png","74","image-keyboard-response","145","156867","0.0-6.0-1.69","LABU","1","f","rechts","24","","","self","j","60","true"
"null","<div style=""font-size:60px;"">+</div>","null","html-keyboard-response","146","157219","0.0-6.0-0.70","LABU","1","f","rechts","24","","fixation","","","",""
"860","img/0_90.png","74","image-keyboard-response","147","158079","0.0-6.0-1.70","LABU","1","f","rechts","24","","","self","j","0","true"
"null","<div style=""font-size:60px;"">+</div>","null","html-keyboard-response","148","158431","0.0-6.0-0.71","LABU","1","f","rechts","24","","fixation","","","",""
"827","img/90_330.png","70","image-keyboard-response","149","159258","0.0-6.0-1.71","LABU","1","f","rechts","24","","","self","f","90","true"
"null","<div style=""font-size:60px;"">+</div>","null","html-keyboard-response","150","159610","0.0-6.0-0.72","LABU","1","f","rechts","24","","fixation","","","",""
"811","img/0_330.png","70","image-keyboard-response","151","160422","0.0-6.0-1.72","LABU","1","f","rechts","24","","","self","f","0","true"
"null","<div style=""font-size:60px;"">+</div>","null","html-keyboard-response","152","160823","0.0-6.0-0.73","LABU","1","f","rechts","24","","fixation","","","",""
"807","img/0_60.png","74","image-keyboard-response","153","161631","0.0-6.0-1.73","LABU","1","f","rechts","24","","","self","j","0","true"
"null","<div style=""font-size:60px;"">+</div>","null","html-keyboard-response","154","162083","0.0-6.0-0.74","LABU","1","f","rechts","24","","fixation","","","",""
"584","img/0_300.png","70","image-keyboard-response","155","162667","0.0-6.0-1.74","LABU","1","f","rechts","24","","","self","f","0","true"
"null","<div style=""font-size:60px;"">+</div>","null","html-keyboard-response","156","163169","0.0-6.0-0.75","LABU","1","f","rechts","24","","fixation","","","",""
"767","img/90_180.png","74","image-keyboard-response","157","163937","0.0-6.0-1.75","LABU","1","f","rechts","24","","","self","j","90","true"
"null","<div style=""font-size:60px;"">+</div>","null","html-keyboard-response","158","164388","0.0-6.0-0.76","LABU","1","f","rechts","24","","fixation","","","",""
"1268","img/120_150.png","70","image-keyboard-response","159","165657","0.0-6.0-1.76","LABU","1","f","rechts","24","","","self","f","120","true"
"null","<div style=""font-size:60px;"">+</div>","null","html-keyboard-response","160","166109","0.0-6.0-0.77","LABU","1","f","rechts","24","","fixation","","","",""
"999","img/120_30.png","74","image-keyboard-response","161","167110","0.0-6.0-1.77","LABU","1","f","rechts","24","","","self","j","120","true"
"null","<div style=""font-size:60px;"">+</div>","null","html-keyboard-response","162","167561","0.0-6.0-0.78","LABU","1","f","rechts","24","","fixation","","","",""
"852","img/60_90.png","74","image-keyboard-response","163","168415","0.0-6.0-1.78","LABU","1","f","rechts","24","","","self","j","60","true"
"null","<div style=""font-size:60px;"">+</div>","null","html-keyboard-response","164","168816","0.0-6.0-0.79","LABU","1","f","rechts","24","","fixation","","","",""
"709","img/0_270.png","70","image-keyboard-response","165","169526","0.0-6.0-1.79","LABU","1","f","rechts","24","","","self","f","0","true"
"null","<div style=""font-size:60px;"">+</div>","null","html-keyboard-response","166","169877","0.0-6.0-0.80","LABU","1","f","rechts","24","","fixation","","","",""
"850","img/120_90.png","70","image-keyboard-response","167","170728","0.0-6.0-1.80","LABU","1","f","rechts","24","","","self","f","120","true"
"null","<div style=""font-size:60px;"">+</div>","null","html-keyboard-response","168","171130","0.0-6.0-0.81","LABU","1","f","rechts","24","","fixation","","","",""
"947","img/60_330.png","70","image-keyboard-response","169","172079","0.0-6.0-1.81","LABU","1","f","rechts","24","","","self","f","60","true"
"null","<div style=""font-size:60px;"">+</div>","null","html-keyboard-response","170","172580","0.0-6.0-0.82","LABU","1","f","rechts","24","","fixation","","","",""
"860","img/30_270.png","70","image-keyboard-response","171","173442","0.0-6.0-1.82","LABU","1","f","rechts","24","","","self","f","30","true"
"null","<div style=""font-size:60px;"">+</div>","null","html-keyboard-response","172","173793","0.0-6.0-0.83","LABU","1","f","rechts","24","","fixation","","","",""
"877","img/120_330.png","74","image-keyboard-response","173","174672","0.0-6.0-1.83","LABU","1","f","rechts","24","","","self","f","120","false"
"null","<div style=""font-size:60px;"">+</div>","null","html-keyboard-response","174","175173","0.0-6.0-0.84","LABU","1","f","rechts","24","","fixation","","","",""
"941","img/0_150.png","74","image-keyboard-response","175","176116","0.0-6.0-1.84","LABU","1","f","rechts","24","","","self","j","0","true"
"null","<div style=""font-size:60px;"">+</div>","null","html-keyboard-response","176","176517","0.0-6.0-0.85","LABU","1","f","rechts","24","","fixation","","","",""
"948","img/60_150.png","70","image-keyboard-response","177","177467","0.0-6.0-1.85","LABU","1","f","rechts","24","","","self","f","60","true"
"null","<div style=""font-size:60px;"">+</div>","null","html-keyboard-response","178","177818","0.0-6.0-0.86","LABU","1","f","rechts","24","","fixation","","","",""
"937","img/150_120.png","70","image-keyboard-response","179","178757","0.0-6.0-1.86","LABU","1","f","rechts","24","","","self","f","150","true"
"null","<div style=""font-size:60px;"">+</div>","null","html-keyboard-response","180","179058","0.0-6.0-0.87","LABU","1","f","rechts","24","","fixation","","","",""
"902","img/120_180.png","74","image-keyboard-response","181","179962","0.0-6.0-1.87","LABU","1","f","rechts","24","","","self","j","120","true"
"null","<div style=""font-size:60px;"">+</div>","null","html-keyboard-response","182","180313","0.0-6.0-0.88","LABU","1","f","rechts","24","","fixation","","","",""
"886","img/30_240.png","74","image-keyboard-response","183","181200","0.0-6.0-1.88","LABU","1","f","rechts","24","","","self","f","30","false"
"null","<div style=""font-size:60px;"">+</div>","null","html-keyboard-response","184","181502","0.0-6.0-0.89","LABU","1","f","rechts","24","","fixation","","","",""
"1228","img/L150_180.png","70","image-keyboard-response","185","182731","0.0-6.0-1.89","LABU","1","f","rechts","24","","","self","f","150","true"
"null","<div style=""font-size:60px;"">+</div>","null","html-keyboard-response","186","183133","0.0-6.0-0.90","LABU","1","f","rechts","24","","fixation","","","",""
"962","img/60_30.png","74","image-keyboard-response","187","184096","0.0-6.0-1.90","LABU","1","f","rechts","24","","","self","j","60","true"
"null","<div style=""font-size:60px;"">+</div>","null","html-keyboard-response","188","184598","0.0-6.0-0.91","LABU","1","f","rechts","24","","fixation","","","",""
"706","img/0_240.png","70","image-keyboard-response","189","185305","0.0-6.0-1.91","LABU","1","f","rechts","24","","","self","f","0","true"
"null","<div style=""font-size:60px;"">+</div>","null","html-keyboard-response","190","185606","0.0-6.0-0.92","LABU","1","f","rechts","24","","fixation","","","",""
"925","img/150_240.png","74","image-keyboard-response","191","186532","0.0-6.0-1.92","LABU","1","f","rechts","24","","","self","j","150","true"
"null","<div style=""font-size:60px;"">+</div>","null","html-keyboard-response","192","186933","0.0-6.0-0.93","LABU","1","f","rechts","24","","fixation","","","",""
"1192","img/30_120.png","74","image-keyboard-response","193","188126","0.0-6.0-1.93","LABU","1","f","rechts","24","","","self","j","30","true"
"null","<div style=""font-size:60px;"">+</div>","null","html-keyboard-response","194","188628","0.0-6.0-0.94","LABU","1","f","rechts","24","","fixation","","","",""
"880","img/90_150.png","70","image-keyboard-response","195","189509","0.0-6.0-1.94","LABU","1","f","rechts","24","","","self","f","90","true"
"null","<div style=""font-size:60px;"">+</div>","null","html-keyboard-response","196","190011","0.0-6.0-0.95","LABU","1","f","rechts","24","","fixation","","","",""
"1075","img/60_270.png","70","image-keyboard-response","197","191088","0.0-6.0-1.95","LABU","1","f","rechts","24","","","self","f","60","true"
"null","<div style=""font-size:60px;"">+</div>","null","html-keyboard-response","198","191539","0.0-6.0-0.96","LABU","1","f","rechts","24","","fixation","","","",""
"1065","img/90_210.png","74","image-keyboard-response","199","192605","0.0-6.0-1.96","LABU","1","f","rechts","24","","","self","j","90","true"
"null","<div style=""font-size:60px;"">+</div>","null","html-keyboard-response","200","193006","0.0-6.0-0.97","LABU","1","f","rechts","24","","fixation","","","",""
"849","img/L30_180.png","70","image-keyboard-response","201","193856","0.0-6.0-1.97","LABU","1","f","rechts","24","","","self","f","30","true"
"null","<div style=""font-size:60px;"">+</div>","null","html-keyboard-response","202","194258","0.0-6.0-0.98","LABU","1","f","rechts","24","","fixation","","","",""
"847","img/0_120.png","74","image-keyboard-response","203","195105","0.0-6.0-1.98","LABU","1","f","rechts","24","","","self","j","0","true"
"null","<div style=""font-size:60px;"">+</div>","null","html-keyboard-response","204","195607","0.0-6.0-0.99","LABU","1","f","rechts","24","","fixation","","","",""
"815","img/0_30.png","74","image-keyboard-response","205","196422","0.0-6.0-1.99","LABU","1","f","rechts","24","","","self","j","0","true"
"null","<div style=""font-size:60px;"">+</div>","null","html-keyboard-response","206","196774","0.0-6.0-0.100","LABU","1","f","rechts","24","","fixation","","","",""
"984","img/90_60.png","74","image-keyboard-response","207","197759","0.0-6.0-1.100","LABU","1","f","rechts","24","","","self","j","90","true"
"null","<div style=""font-size:60px;"">+</div>","null","html-keyboard-response","208","198161","0.0-6.0-0.101","LABU","1","f","rechts","24","","fixation","","","",""
"1073","img/150_300.png","70","image-keyboard-response","209","199234","0.0-6.0-1.101","LABU","1","f","rechts","24","","","self","j","150","false"
"null","<div style=""font-size:60px;"">+</div>","null","html-keyboard-response","210","199686","0.0-6.0-0.102","LABU","1","f","rechts","24","","fixation","","","",""
"1136","img/150_90.png","70","image-keyboard-response","211","200822","0.0-6.0-1.102","LABU","1","f","rechts","24","","","self","f","150","true"
"null","<div style=""font-size:60px;"">+</div>","null","html-keyboard-response","212","201324","0.0-6.0-0.103","LABU","1","f","rechts","24","","fixation","","","",""
"947","img/L120_180.png","70","image-keyboard-response","213","202272","0.0-6.0-1.103","LABU","1","f","rechts","24","","","self","f","120","true"
"null","<div style=""font-size:60px;"">+</div>","null","html-keyboard-response","214","202624","0.0-6.0-0.104","LABU","1","f","rechts","24","","fixation","","","",""
"1096","img/L150_180.png","70","image-keyboard-response","215","203721","0.0-6.0-1.104","LABU","1","f","rechts","24","","","self","f","150","true"
"null","<div style=""font-size:60px;"">+</div>","null","html-keyboard-response","216","204173","0.0-6.0-0.105","LABU","1","f","rechts","24","","fixation","","","",""
"850","img/0_240.png","70","image-keyboard-response","217","205023","0.0-6.0-1.105","LABU","1","f","rechts","24","","","self","f","0","true"
"null","<div style=""font-size:60px;"">+</div>","null","html-keyboard-response","218","205523","0.0-6.0-0.106","LABU","1","f","rechts","24","","fixation","","","",""
"900","img/150_240.png","74","image-keyboard-response","219","206424","0.0-6.0-1.106","LABU","1","f","rechts","24","","","self","j","150","true"
"null","<div style=""font-size:60px;"">+</div>","null","html-keyboard-response","220","206725","0.0-6.0-0.107","LABU","1","f","rechts","24","","fixation","","","",""
"1068","img/90_150.png","70","image-keyboard-response","221","207794","0.0-6.0-1.107","LABU","1","f","rechts","24","","","self","f","90","true"
"null","<div style=""font-size:60px;"">+</div>","null","html-keyboard-response","222","208096","0.0-6.0-0.108","LABU","1","f","rechts","24","","fixation","","","",""
"1111","img/30_270.png","70","image-keyboard-response","223","209207","0.0-6.0-1.108","LABU","1","f","rechts","24","","","self","f","30","true"
"null","<div style=""font-size:60px;"">+</div>","null","html-keyboard-response","224","209608","0.0-6.0-0.109","LABU","1","f","rechts","24","","fixation","","","",""
"1176","img/L30_180.png","70","image-keyboard-response","225","210784","0.0-6.0-1.109","LABU","1","f","rechts","24","","","self","f","30","true"
"null","<div style=""font-size:60px;"">+</div>","null","html-keyboard-response","226","211285","0.0-6.0-0.110","LABU","1","f","rechts","24","","fixation","","","",""
"639","img/0_210.png","70","image-keyboard-response","227","211925","0.0-6.0-1.110","LABU","1","f","rechts","24","","","self","f","0","true"
"null","<div style=""font-size:60px;"">+</div>","null","html-keyboard-response","228","212376","0.0-6.0-0.111","LABU","1","f","rechts","24","","fixation","","","",""
"879","img/30_180.png","74","image-keyboard-response","229","213256","0.0-6.0-1.111","LABU","1","f","rechts","24","","","self","j","30","true"
"null","<div style=""font-size:60px;"">+</div>","null","html-keyboard-response","230","213657","0.0-6.0-0.112","LABU","1","f","rechts","24","","fixation","","","",""
"982","img/90_180.png","74","image-keyboard-response","231","214640","0.0-6.0-1.112","LABU","1","f","rechts","24","","","self","j","90","true"
"null","<div style=""font-size:60px;"">+</div>","null","html-keyboard-response","232","214992","0.0-6.0-0.113","LABU","1","f","rechts","24","","fixation","","","",""
"1065","img/120_270.png","74","image-keyboard-response","233","216058","0.0-6.0-1.113","LABU","1","f","rechts","24","","","self","j","120","true"
"null","<div style=""font-size:60px;"">+</div>","null","html-keyboard-response","234","216409","0.0-6.0-0.114","LABU","1","f","rechts","24","","fixation","","","",""
"932","img/30_90.png","70","image-keyboard-response","235","217342","0.0-6.0-1.114","LABU","1","f","rechts","24","","","self","j","30","false"
"null","<div style=""font-size:60px;"">+</div>","null","html-keyboard-response","236","217743","0.0-6.0-0.115","LABU","1","f","rechts","24","","fixation","","","",""
"963","img/90_300.png","70","image-keyboard-response","237","218708","0.0-6.0-1.115","LABU","1","f","rechts","24","","","self","f","90","true"
"null","<div style=""font-size:60px;"">+</div>","null","html-keyboard-response","238","219009","0.0-6.0-0.116","LABU","1","f","rechts","24","","fixation","","","",""
"885","img/0_30.png","74","image-keyboard-response","239","219896","0.0-6.0-1.116","LABU","1","f","rechts","24","","","self","j","0","true"
"null","<div style=""font-size:60px;"">+</div>","null","html-keyboard-response","240","220347","0.0-6.0-0.117","LABU","1","f","rechts","24","","fixation","","","",""
"938","img/60_180.png","74","image-keyboard-response","241","221286","0.0-6.0-1.117","LABU","1","f","rechts","24","","","self","j","60","true"
"null","<div style=""font-size:60px;"">+</div>","null","html-keyboard-response","242","221788","0.0-6.0-0.118","LABU","1","f","rechts","24","","fixation","","","",""
"932","img/90_210.png","74","image-keyboard-response","243","222722","0.0-6.0-1.118","LABU","1","f","rechts","24","","","self","j","90","true"
"null","<div style=""font-size:60px;"">+</div>","null","html-keyboard-response","244","223073","0.0-6.0-0.119","LABU","1","f","rechts","24","","fixation","","","",""
"982","img/90_60.png","70","image-keyboard-response","245","224057","0.0-6.0-1.119","LABU","1","f","rechts","24","","","self","j","90","false"
"null","<div style=""font-size:60px;"">+</div>","null","html-keyboard-response","246","224508","0.0-6.0-0.120","LABU","1","f","rechts","24","","fixation","","","",""
"835","img/0_270.png","70","image-keyboard-response","247","225344","0.0-6.0-1.120","LABU","1","f","rechts","24","","","self","f","0","true"
"null","<div style=""font-size:60px;"">+</div>","null","html-keyboard-response","248","225646","0.0-6.0-0.121","LABU","1","f","rechts","24","","fixation","","","",""
"1600","img/60_90.png","74","image-keyboard-response","249","227248","0.0-6.0-1.121","LABU","1","f","rechts","24","","","self","j","60","true"
"null","<div style=""font-size:60px;"">+</div>","null","html-keyboard-response","250","227699","0.0-6.0-0.122","LABU","1","f","rechts","24","","fixation","","","",""
"798","img/0_60.png","74","image-keyboard-response","251","228498","0.0-6.0-1.122","LABU","1","f","rechts","24","","","self","j","0","true"
"null","<div style=""font-size:60px;"">+</div>","null","html-keyboard-response","252","228949","0.0-6.0-0.123","LABU","1","f","rechts","24","","fixation","","","",""
"871","img/90_240.png","74","image-keyboard-response","253","229820","0.0-6.0-1.123","LABU","1","f","rechts","24","","","self","j","90","true"
"null","<div style=""font-size:60px;"">+</div>","null","html-keyboard-response","254","230322","0.0-6.0-0.124","LABU","1","f","rechts","24","","fixation","","","",""
"734","img/90_120.png","70","image-keyboard-response","255","231057","0.0-6.0-1.124","LABU","1","f","rechts","24","","","self","f","90","true"
"null","<div style=""font-size:60px;"">+</div>","null","html-keyboard-response","256","231509","0.0-6.0-0.125","LABU","1","f","rechts","24","","fixation","","","",""
"908","img/120_90.png","70","image-keyboard-response","257","232418","0.0-6.0-1.125","LABU","1","f","rechts","24","","","self","f","120","true"
"null","<div style=""font-size:60px;"">+</div>","null","html-keyboard-response","258","232770","0.0-6.0-0.126","LABU","1","f","rechts","24","","fixation","","","",""
"946","img/120_210.png","74","image-keyboard-response","259","233717","0.0-6.0-1.126","LABU","1","f","rechts","24","","","self","j","120","true"
"null","<div style=""font-size:60px;"">+</div>","null","html-keyboard-response","260","234219","0.0-6.0-0.127","LABU","1","f","rechts","24","","fixation","","","",""
"686","img/0_120.png","74","image-keyboard-response","261","234906","0.0-6.0-1.127","LABU","1","f","rechts","24","","","self","j","0","true"
"null","<div style=""font-size:60px;"">+</div>","null","html-keyboard-response","262","235358","0.0-6.0-0.128","LABU","1","f","rechts","24","","fixation","","","",""
"786","img/150_270.png","74","image-keyboard-response","263","236145","0.0-6.0-1.128","LABU","1","f","rechts","24","","","self","j","150","true"
"null","<div style=""font-size:60px;"">+</div>","null","html-keyboard-response","264","236647","0.0-6.0-0.129","LABU","1","f","rechts","24","","fixation","","","",""
"938","img/120_330.png","70","image-keyboard-response","265","237586","0.0-6.0-1.129","LABU","1","f","rechts","24","","","self","f","120","true"
"null","<div style=""font-size:60px;"">+</div>","null","html-keyboard-response","266","237888","0.0-6.0-0.130","LABU","1","f","rechts","24","","fixation","","","",""
"1067","img/60_270.png","70","image-keyboard-response","267","238956","0.0-6.0-1.130","LABU","1","f","rechts","24","","","self","f","60","true"
"null","<div style=""font-size:60px;"">+</div>","null","html-keyboard-response","268","239357","0.0-6.0-0.131","LABU","1","f","rechts","24","","fixation","","","",""
"687","img/30_120.png","74","image-keyboard-response","269","240045","0.0-6.0-1.131","LABU","1","f","rechts","24","","","self","j","30","true"
"null","<div style=""font-size:60px;"">+</div>","null","html-keyboard-response","270","240497","0.0-6.0-0.132","LABU","1","f","rechts","24","","fixation","","","",""
"1086","img/120_150.png","70","image-keyboard-response","271","241584","0.0-6.0-1.132","LABU","1","f","rechts","24","","","self","f","120","true"
"null","<div style=""font-size:60px;"">+</div>","null","html-keyboard-response","272","241886","0.0-6.0-0.133","LABU","1","f","rechts","24","","fixation","","","",""
"1117","img/30_300.png","70","image-keyboard-response","273","243004","0.0-6.0-1.133","LABU","1","f","rechts","24","","","self","f","30","true"
"null","<div style=""font-size:60px;"">+</div>","null","html-keyboard-response","274","243506","0.0-6.0-0.134","LABU","1","f","rechts","24","","fixation","","","",""
"1644","img/150_120.png","70","image-keyboard-response","275","245151","0.0-6.0-1.134","LABU","1","f","rechts","24","","","self","f","150","true"
"null","<div style=""font-size:60px;"">+</div>","null","html-keyboard-response","276","245653","0.0-6.0-0.135","LABU","1","f","rechts","24","","fixation","","","",""
"796","img/L60_180.png","70","image-keyboard-response","277","246450","0.0-6.0-1.135","LABU","1","f","rechts","24","","","self","f","60","true"
"null","<div style=""font-size:60px;"">+</div>","null","html-keyboard-response","278","246802","0.0-6.0-0.136","LABU","1","f","rechts","24","","fixation","","","",""
"1084","img/60_210.png","74","image-keyboard-response","279","247886","0.0-6.0-1.136","LABU","1","f","rechts","24","","","self","j","60","true"
"null","<div style=""font-size:60px;"">+</div>","null","html-keyboard-response","280","248288","0.0-6.0-0.137","LABU","1","f","rechts","24","","fixation","","","",""
"970","img/0_330.png","70","image-keyboard-response","281","249258","0.0-6.0-1.137","LABU","1","f","rechts","24","","","self","f","0","true"
"null","<div style=""font-size:60px;"">+</div>","null","html-keyboard-response","282","249560","0.0-6.0-0.138","LABU","1","f","rechts","24","","fixation","","","",""
"1499","img/150_90.png","70","image-keyboard-response","283","251059","0.0-6.0-1.138","LABU","1","f","rechts","24","","","self","f","150","true"
"null","<div style=""font-size:60px;"">+</div>","null","html-keyboard-response","284","251411","0.0-6.0-0.139","LABU","1","f","rechts","24","","fixation","","","",""
"1071","img/0_300.png","70","image-keyboard-response","285","252482","0.0-6.0-1.139","LABU","1","f","rechts","24","","","self","f","0","true"
"null","<div style=""font-size:60px;"">+</div>","null","html-keyboard-response","286","252834","0.0-6.0-0.140","LABU","1","f","rechts","24","","fixation","","","",""
"968","img/0_150.png","74","image-keyboard-response","287","253803","0.0-6.0-1.140","LABU","1","f","rechts","24","","","self","j","0","true"
"null","<div style=""font-size:60px;"">+</div>","null","html-keyboard-response","288","254305","0.0-6.0-0.141","LABU","1","f","rechts","24","","fixation","","","",""
"868","img/0_90.png","74","image-keyboard-response","289","255174","0.0-6.0-1.141","LABU","1","f","rechts","24","","","self","j","0","true"
"null","<div style=""font-size:60px;"">+</div>","null","html-keyboard-response","290","255575","0.0-6.0-0.142","LABU","1","f","rechts","24","","fixation","","","",""
"1064","img/60_150.png","70","image-keyboard-response","291","256639","0.0-6.0-1.142","LABU","1","f","rechts","24","","","self","f","60","true"
"null","<div style=""font-size:60px;"">+</div>","null","html-keyboard-response","292","257090","0.0-6.0-0.143","LABU","1","f","rechts","24","","fixation","","","",""
"1064","img/150_60.png","70","image-keyboard-response","293","258155","0.0-6.0-1.143","LABU","1","f","rechts","24","","","self","f","150","true"
"null","<div style=""font-size:60px;"">+</div>","null","html-keyboard-response","294","258556","0.0-6.0-0.144","LABU","1","f","rechts","24","","fixation","","","",""
"1065","img/150_300.png","74","image-keyboard-response","295","259622","0.0-6.0-1.144","LABU","1","f","rechts","24","","","self","j","150","true"
"null","<div style=""font-size:60px;"">+</div>","null","html-keyboard-response","296","260074","0.0-6.0-0.145","LABU","1","f","rechts","24","","fixation","","","",""
"1285","img/150_180.png","74","image-keyboard-response","297","261361","0.0-6.0-1.145","LABU","1","f","rechts","24","","","self","j","150","true"
"null","<div style=""font-size:60px;"">+</div>","null","html-keyboard-response","298","261762","0.0-6.0-0.146","LABU","1","f","rechts","24","","fixation","","","",""
"825","img/30_240.png","70","image-keyboard-response","299","262588","0.0-6.0-1.146","LABU","1","f","rechts","24","","","self","f","30","true"
"null","<div style=""font-size:60px;"">+</div>","null","html-keyboard-response","300","262990","0.0-6.0-0.147","LABU","1","f","rechts","24","","fixation","","","",""
"962","img/60_330.png","70","image-keyboard-response","301","263952","0.0-6.0-1.147","LABU","1","f","rechts","24","","","self","f","60","true"
"null","<div style=""font-size:60px;"">+</div>","null","html-keyboard-response","302","264303","0.0-6.0-0.148","LABU","1","f","rechts","24","","fixation","","","",""
"1634","img/L90_180.png","70","image-keyboard-response","303","265939","0.0-6.0-1.148","LABU","1","f","rechts","24","","","self","f","90","true"
"null","<div style=""font-size:60px;"">+</div>","null","html-keyboard-response","304","266440","0.0-6.0-0.149","LABU","1","f","rechts","24","","fixation","","","",""
"1074","img/90_330.png","74","image-keyboard-response","305","267515","0.0-6.0-1.149","LABU","1","f","rechts","24","","","self","f","90","false"
"null","<div style=""font-size:60px;"">+</div>","null","html-keyboard-response","306","268016","0.0-6.0-0.150","LABU","1","f","rechts","24","","fixation","","","",""
"1148","img/60_30.png","74","image-keyboard-response","307","269165","0.0-6.0-1.150","LABU","1","f","rechts","24","","","self","j","60","true"
"null","<div style=""font-size:60px;"">+</div>","null","html-keyboard-response","308","269466","0.0-6.0-0.151","LABU","1","f","rechts","24","","fixation","","","",""
"1380","img/30_60.png","74","image-keyboard-response","309","270847","0.0-6.0-1.151","LABU","1","f","rechts","24","","","self","j","30","true"
"null","<div style=""font-size:60px;"">+</div>","null","html-keyboard-response","310","271349","0.0-6.0-0.152","LABU","1","f","rechts","24","","fixation","","","",""
"955","img/120_30.png","70","image-keyboard-response","311","272304","0.0-6.0-1.152","LABU","1","f","rechts","24","","","self","j","120","false"
"null","<div style=""font-size:60px;"">+</div>","null","html-keyboard-response","312","272806","0.0-6.0-0.153","LABU","1","f","rechts","24","","fixation","","","",""
"1166","img/L120_180.png","70","image-keyboard-response","313","273973","0.0-6.0-1.153","LABU","1","f","rechts","24","","","self","f","120","true"
"null","<div style=""font-size:60px;"">+</div>","null","html-keyboard-response","314","274375","0.0-6.0-0.154","LABU","1","f","rechts","24","","fixation","","","",""
"853","img/120_180.png","74","image-keyboard-response","315","275228","0.0-6.0-1.154","LABU","1","f","rechts","24","","","self","j","120","true"
"null","<div style=""font-size:60px;"">+</div>","null","html-keyboard-response","316","275529","0.0-6.0-0.155","LABU","1","f","rechts","24","","fixation","","","",""
"1159","img/90_30.png","74","image-keyboard-response","317","276689","0.0-6.0-1.155","LABU","1","f","rechts","24","","","self","j","90","true"
"null","<div style=""font-size:60px;"">+</div>","null","html-keyboard-response","318","277191","0.0-6.0-0.156","LABU","1","f","rechts","24","","fixation","","","",""
"991","img/L120_180.png","70","image-keyboard-response","319","278183","0.0-6.0-1.156","LABU","1","f","rechts","24","","","self","f","120","true"
"null","<div style=""font-size:60px;"">+</div>","null","html-keyboard-response","320","278585","0.0-6.0-0.157","LABU","1","f","rechts","24","","fixation","","","",""
"1113","img/90_210.png","74","image-keyboard-response","321","279699","0.0-6.0-1.157","LABU","1","f","rechts","24","","","self","j","90","true"
"null","<div style=""font-size:60px;"">+</div>","null","html-keyboard-response","322","280051","0.0-6.0-0.158","LABU","1","f","rechts","24","","fixation","","","",""
"896","img/L90_180.png","70","image-keyboard-response","323","280949","0.0-6.0-1.158","LABU","1","f","rechts","24","","","self","f","90","true"
"null","<div style=""font-size:60px;"">+</div>","null","html-keyboard-response","324","281250","0.0-6.0-0.159","LABU","1","f","rechts","24","","fixation","","","",""
"1498","img/60_270.png","74","image-keyboard-response","325","282749","0.0-6.0-1.159","LABU","1","f","rechts","24","","","self","f","60","false"
"null","<div style=""font-size:60px;"">+</div>","null","html-keyboard-response","326","283101","0.0-6.0-0.160","LABU","1","f","rechts","24","","fixation","","","",""
"923","img/150_90.png","70","image-keyboard-response","327","284025","0.0-6.0-1.160","LABU","1","f","rechts","24","","","self","f","150","true"
"null","<div style=""font-size:60px;"">+</div>","null","html-keyboard-response","328","284376","0.0-6.0-0.161","LABU","1","f","rechts","24","","fixation","","","",""
"886","img/0_270.png","70","image-keyboard-response","329","285263","0.0-6.0-1.161","LABU","1","f","rechts","24","","","self","f","0","true"
"null","<div style=""font-size:60px;"">+</div>","null","html-keyboard-response","330","285715","0.0-6.0-0.162","LABU","1","f","rechts","24","","fixation","","","",""
"1519","img/90_120.png","70","image-keyboard-response","331","287234","0.0-6.0-1.162","LABU","1","f","rechts","24","","","self","f","90","true"
"null","<div style=""font-size:60px;"">+</div>","null","html-keyboard-response","332","287686","0.0-6.0-0.163","LABU","1","f","rechts","24","","fixation","","","",""
"1125","img/90_330.png","70","image-keyboard-response","333","288813","0.0-6.0-1.163","LABU","1","f","rechts","24","","","self","f","90","true"
"null","<div style=""font-size:60px;"">+</div>","null","html-keyboard-response","334","289214","0.0-6.0-0.164","LABU","1","f","rechts","24","","fixation","","","",""
"1067","img/60_150.png","70","image-keyboard-response","335","290282","0.0-6.0-1.164","LABU","1","f","rechts","24","","","self","f","60","true"
"null","<div style=""font-size:60px;"">+</div>","null","html-keyboard-response","336","290634","0.0-6.0-0.165","LABU","1","f","rechts","24","","fixation","","","",""
"1639","img/150_120.png","70","image-keyboard-response","337","292274","0.0-6.0-1.165","LABU","1","f","rechts","24","","","self","f","150","true"
"null","<div style=""font-size:60px;"">+</div>","null","html-keyboard-response","338","292776","0.0-6.0-0.166","LABU","1","f","rechts","24","","fixation","","","",""
"791","img/0_330.png","70","image-keyboard-response","339","293567","0.0-6.0-1.166","LABU","1","f","rechts","24","","","self","f","0","true"
"null","<div style=""font-size:60px;"">+</div>","null","html-keyboard-response","340","293969","0.0-6.0-0.167","LABU","1","f","rechts","24","","fixation","","","",""
"1360","img/L150_180.png","70","image-keyboard-response","341","295330","0.0-6.0-1.167","LABU","1","f","rechts","24","","","self","f","150","true"
"null","<div style=""font-size:60px;"">+</div>","null","html-keyboard-response","342","295681","0.0-6.0-0.168","LABU","1","f","rechts","24","","fixation","","","",""
"1095","img/90_150.png","70","image-keyboard-response","343","296777","0.0-6.0-1.168","LABU","1","f","rechts","24","","","self","f","90","true"
"null","<div style=""font-size:60px;"">+</div>","null","html-keyboard-response","344","297129","0.0-6.0-0.169","LABU","1","f","rechts","24","","fixation","","","",""
"1119","img/90_30.png","70","image-keyboard-response","345","298249","0.0-6.0-1.169","LABU","1","f","rechts","24","","","self","j","90","false"
"null","<div style=""font-size:60px;"">+</div>","null","html-keyboard-response","346","298651","0.0-6.0-0.170","LABU","1","f","rechts","24","","fixation","","","",""
"1179","img/150_270.png","74","image-keyboard-response","347","299830","0.0-6.0-1.170","LABU","1","f","rechts","24","","","self","j","150","true"
"null","<div style=""font-size:60px;"">+</div>","null","html-keyboard-response","348","300282","0.0-6.0-0.171","LABU","1","f","rechts","24","","fixation","","","",""
"2074","img/60_30.png","74","image-keyboard-response","349","302357","0.0-6.0-1.171","LABU","1","f","rechts","24","","","self","j","60","true"
"null","<div style=""font-size:60px;"">+</div>","null","html-keyboard-response","350","302659","0.0-6.0-0.172","LABU","1","f","rechts","24","","fixation","","","",""
"1323","img/120_330.png","74","image-keyboard-response","351","303983","0.0-6.0-1.172","LABU","1","f","rechts","24","","","self","f","120","false"
"null","<div style=""font-size:60px;"">+</div>","null","html-keyboard-response","352","304435","0.0-6.0-0.173","LABU","1","f","rechts","24","","fixation","","","",""
"796","img/L30_180.png","70","image-keyboard-response","353","305231","0.0-6.0-1.173","LABU","1","f","rechts","24","","","self","f","30","true"
"null","<div style=""font-size:60px;"">+</div>","null","html-keyboard-response","354","305733","0.0-6.0-0.174","LABU","1","f","rechts","24","","fixation","","","",""
"899","img/150_60.png","74","image-keyboard-response","355","306632","0.0-6.0-1.174","LABU","1","f","rechts","24","","","self","f","150","false"
"null","<div style=""font-size:60px;"">+</div>","null","html-keyboard-response","356","307083","0.0-6.0-0.175","LABU","1","f","rechts","24","","fixation","","","",""
"1151","img/150_180.png","74","image-keyboard-response","357","308235","0.0-6.0-1.175","LABU","1","f","rechts","24","","","self","j","150","true"
"null","<div style=""font-size:60px;"">+</div>","null","html-keyboard-response","358","308586","0.0-6.0-0.176","LABU","1","f","rechts","24","","fixation","","","",""
"869","img/0_240.png","70","image-keyboard-response","359","309457","0.0-6.0-1.176","LABU","1","f","rechts","24","","","self","f","0","true"
"null","<div style=""font-size:60px;"">+</div>","null","html-keyboard-response","360","309808","0.0-6.0-0.177","LABU","1","f","rechts","24","","fixation","","","",""
"657","img/0_60.png","74","image-keyboard-response","361","310466","0.0-6.0-1.177","LABU","1","f","rechts","24","","","self","j","0","true"
"null","<div style=""font-size:60px;"">+</div>","null","html-keyboard-response","362","310818","0.0-6.0-0.178","LABU","1","f","rechts","24","","fixation","","","",""
"879","img/30_270.png","70","image-keyboard-response","363","311697","0.0-6.0-1.178","LABU","1","f","rechts","24","","","self","f","30","true"
"null","<div style=""font-size:60px;"">+</div>","null","html-keyboard-response","364","312049","0.0-6.0-0.179","LABU","1","f","rechts","24","","fixation","","","",""
"1074","img/120_270.png","70","image-keyboard-response","365","313124","0.0-6.0-1.179","LABU","1","f","rechts","24","","","self","j","120","false"
"null","<div style=""font-size:60px;"">+</div>","null","html-keyboard-response","366","313476","0.0-6.0-0.180","LABU","1","f","rechts","24","","fixation","","","",""
"1312","img/0_30.png","74","image-keyboard-response","367","314790","0.0-6.0-1.180","LABU","1","f","rechts","24","","","self","j","0","true"
"null","<div style=""font-size:60px;"">+</div>","null","html-keyboard-response","368","315191","0.0-6.0-0.181","LABU","1","f","rechts","24","","fixation","","","",""
"1092","img/90_240.png","70","image-keyboard-response","369","316285","0.0-6.0-1.181","LABU","1","f","rechts","24","","","self","j","90","false"
"null","<div style=""font-size:60px;"">+</div>","null","html-keyboard-response","370","316786","0.0-6.0-0.182","LABU","1","f","rechts","24","","fixation","","","",""
"1146","img/60_90.png","74","image-keyboard-response","371","317933","0.0-6.0-1.182","LABU","1","f","rechts","24","","","self","j","60","true"
"null","<div style=""font-size:60px;"">+</div>","null","html-keyboard-response","372","318385","0.0-6.0-0.183","LABU","1","f","rechts","24","","fixation","","","",""
"1079","img/150_300.png","74","image-keyboard-response","373","319464","0.0-6.0-1.183","LABU","1","f","rechts","24","","","self","j","150","true"
"null","<div style=""font-size:60px;"">+</div>","null","html-keyboard-response","374","319766","0.0-6.0-0.184","LABU","1","f","rechts","24","","fixation","","","",""
"945","img/150_240.png","74","image-keyboard-response","375","320711","0.0-6.0-1.184","LABU","1","f","rechts","24","","","self","j","150","true"
"null","<div style=""font-size:60px;"">+</div>","null","html-keyboard-response","376","321013","0.0-6.0-0.185","LABU","1","f","rechts","24","","fixation","","","",""
"1076","img/90_300.png","70","image-keyboard-response","377","322090","0.0-6.0-1.185","LABU","1","f","rechts","24","","","self","f","90","true"
"null","<div style=""font-size:60px;"">+</div>","null","html-keyboard-response","378","322541","0.0-6.0-0.186","LABU","1","f","rechts","24","","fixation","","","",""
"1065","img/30_180.png","74","image-keyboard-response","379","323607","0.0-6.0-1.186","LABU","1","f","rechts","24","","","self","j","30","true"
"null","<div style=""font-size:60px;"">+</div>","null","html-keyboard-response","380","323908","0.0-6.0-0.187","LABU","1","f","rechts","24","","fixation","","","",""
"842","img/0_90.png","74","image-keyboard-response","381","324752","0.0-6.0-1.187","LABU","1","f","rechts","24","","","self","j","0","true"
"null","<div style=""font-size:60px;"">+</div>","null","html-keyboard-response","382","325053","0.0-6.0-0.188","LABU","1","f","rechts","24","","fixation","","","",""
"868","img/30_300.png","70","image-keyboard-response","383","325922","0.0-6.0-1.188","LABU","1","f","rechts","24","","","self","f","30","true"
"null","<div style=""font-size:60px;"">+</div>","null","html-keyboard-response","384","326273","0.0-6.0-0.189","LABU","1","f","rechts","24","","fixation","","","",""
"1093","img/0_210.png","70","image-keyboard-response","385","327367","0.0-6.0-1.189","LABU","1","f","rechts","24","","","self","f","0","true"
"null","<div style=""font-size:60px;"">+</div>","null","html-keyboard-response","386","327819","0.0-6.0-0.190","LABU","1","f","rechts","24","","fixation","","","",""
"1262","img/120_150.png","70","image-keyboard-response","387","329082","0.0-6.0-1.190","LABU","1","f","rechts","24","","","self","f","120","true"
"null","<div style=""font-size:60px;"">+</div>","null","html-keyboard-response","388","329434","0.0-6.0-0.191","LABU","1","f","rechts","24","","fixation","","","",""
"968","img/60_330.png","70","image-keyboard-response","389","330403","0.0-6.0-1.191","LABU","1","f","rechts","24","","","self","f","60","true"
"null","<div style=""font-size:60px;"">+</div>","null","html-keyboard-response","390","330755","0.0-6.0-0.192","LABU","1","f","rechts","24","","fixation","","","",""
"1077","img/120_90.png","74","image-keyboard-response","391","331833","0.0-6.0-1.192","LABU","1","f","rechts","24","","","self","f","120","false"
"null","<div style=""font-size:60px;"">+</div>","null","html-keyboard-response","392","332285","0.0-6.0-0.193","LABU","1","f","rechts","24","","fixation","","","",""
"1007","img/0_300.png","70","image-keyboard-response","393","333293","0.0-6.0-1.193","LABU","1","f","rechts","24","","","self","f","0","true"
"null","<div style=""font-size:60px;"">+</div>","null","html-keyboard-response","394","333695","0.0-6.0-0.194","LABU","1","f","rechts","24","","fixation","","","",""
"1058","img/30_60.png","74","image-keyboard-response","395","334754","0.0-6.0-1.194","LABU","1","f","rechts","24","","","self","j","30","true"
"null","<div style=""font-size:60px;"">+</div>","null","html-keyboard-response","396","335206","0.0-6.0-0.195","LABU","1","f","rechts","24","","fixation","","","",""
"966","img/60_210.png","70","image-keyboard-response","397","336172","0.0-6.0-1.195","LABU","1","f","rechts","24","","","self","j","60","false"
"null","<div style=""font-size:60px;"">+</div>","null","html-keyboard-response","398","336524","0.0-6.0-0.196","LABU","1","f","rechts","24","","fixation","","","",""
"1066","img/0_120.png","74","image-keyboard-response","399","337590","0.0-6.0-1.196","LABU","1","f","rechts","24","","","self","j","0","true"
"null","<div style=""font-size:60px;"">+</div>","null","html-keyboard-response","400","337942","0.0-6.0-0.197","LABU","1","f","rechts","24","","fixation","","","",""
"1227","img/90_60.png","74","image-keyboard-response","401","339169","0.0-6.0-1.197","LABU","1","f","rechts","24","","","self","j","90","true"
"null","<div style=""font-size:60px;"">+</div>","null","html-keyboard-response","402","339621","0.0-6.0-0.198","LABU","1","f","rechts","24","","fixation","","","",""
"1850","img/60_180.png","74","image-keyboard-response","403","341472","0.0-6.0-1.198","LABU","1","f","rechts","24","","","self","j","60","true"
"null","<div style=""font-size:60px;"">+</div>","null","html-keyboard-response","404","341974","0.0-6.0-0.199","LABU","1","f","rechts","24","","fixation","","","",""
"825","img/90_180.png","74","image-keyboard-response","405","342800","0.0-6.0-1.199","LABU","1","f","rechts","24","","","self","j","90","true"
"null","<div style=""font-size:60px;"">+</div>","null","html-keyboard-response","406","343102","0.0-6.0-0.200","LABU","1","f","rechts","24","","fixation","","","",""
"973","img/30_120.png","70","image-keyboard-response","407","344076","0.0-6.0-1.200","LABU","1","f","rechts","24","","","self","j","30","false"
"null","<div style=""font-size:60px;"">+</div>","null","html-keyboard-response","408","344528","0.0-6.0-0.201","LABU","1","f","rechts","24","","fixation","","","",""
"1248","img/120_30.png","70","image-keyboard-response","409","345777","0.0-6.0-1.201","LABU","1","f","rechts","24","","","self","j","120","false"
"null","<div style=""font-size:60px;"">+</div>","null","html-keyboard-response","410","346279","0.0-6.0-0.202","LABU","1","f","rechts","24","","fixation","","","",""
"1071","img/120_180.png","74","image-keyboard-response","411","347351","0.0-6.0-1.202","LABU","1","f","rechts","24","","","self","j","120","true"
"null","<div style=""font-size:60px;"">+</div>","null","html-keyboard-response","412","347853","0.0-6.0-0.203","LABU","1","f","rechts","24","","fixation","","","",""
"1461","img/30_240.png","70","image-keyboard-response","413","349315","0.0-6.0-1.203","LABU","1","f","rechts","24","","","self","f","30","true"
"null","<div style=""font-size:60px;"">+</div>","null","html-keyboard-response","414","349617","0.0-6.0-0.204","LABU","1","f","rechts","24","","fixation","","","",""
"1865","img/30_90.png","74","image-keyboard-response","415","351483","0.0-6.0-1.204","LABU","1","f","rechts","24","","","self","j","30","true"
"null","<div style=""font-size:60px;"">+</div>","null","html-keyboard-response","416","351834","0.0-6.0-0.205","LABU","1","f","rechts","24","","fixation","","","",""
"1188","img/120_210.png","74","image-keyboard-response","417","353023","0.0-6.0-1.205","LABU","1","f","rechts","24","","","self","j","120","true"
"null","<div style=""font-size:60px;"">+</div>","null","html-keyboard-response","418","353525","0.0-6.0-0.206","LABU","1","f","rechts","24","","fixation","","","",""
"842","img/0_150.png","74","image-keyboard-response","419","354367","0.0-6.0-1.206","LABU","1","f","rechts","24","","","self","j","0","true"
"null","<div style=""font-size:60px;"">+</div>","null","html-keyboard-response","420","354669","0.0-6.0-0.207","LABU","1","f","rechts","24","","fixation","","","",""
"1190","img/L60_180.png","70","image-keyboard-response","421","355860","0.0-6.0-1.207","LABU","1","f","rechts","24","","","self","f","60","true"
"20902","<p>Du hast in 87% der Versuche korrekt entschieden.</p><p>Deine durchschnittliche Reaktionszeit war  1014ms.</p><p>Dr&uuml;cke eine beliebige Taste, um die Session zu beenden. Vielen Dank!</p>","74","html-keyboard-response","422","376763","0.0-7.0","LABU","1","f","rechts","24","","","","","",""
