"rt","stimulus","key_press","trial_type","trial_index","time_elapsed","internal_node_id","subject","session","sex","handedness","age","responses","test_part","condition","correct_response","angle","correct"
"1376","<p>Mental Rotation Experiment.</p> <p>Dr&uuml;cke eine beliebige Taste, um anzufangen.</p>","71","html-keyboard-response","0","1379","0.0-0.0","LIGR","3","f","rechts","24","","","","","",""
"2251","","","survey-text","1","3632","0.0-1.0","LIGR","3","f","rechts","24","{""Q0"":""LIGR""}","","","","",""
"860","","","survey-text","2","4492","0.0-2.0","LIGR","3","f","rechts","24","{""Q0"":""3""}","","","","",""
"2671","","","survey-multi-choice","3","7165","0.0-3.0","LIGR","3","f","rechts","24","{""Q0"":""f"",""Q1"":""rechts""}","","","","",""
"1902","","","survey-text","4","9068","0.0-4.0","LIGR","3","f","rechts","24","{""Q0"":""24""}","","","","",""
"32440","<p>Stell dir vor, dass du vor einem runden Tisch stehst, auf dem sich ein blauer Ball am Tischrand befindet. Entlang des Tischrands ist jeweils ein verschieden langer Pfeil. Nun bleibst du an deinem Platz vor dem Tisch und rotierst den Tisch entlang des Pfeils (gleiche Richtung und Länge). </p> <img src='img/30_180.png'></img> <br><p> Nachdem du diese (vorgestellte) Rotation durchgef&uuml;hrt hast, schau in Richtung der Tischmitte, und entscheide dann, ob der Ball links oder rechts von dir liegt.</p> <p>Dr&uuml;cke die <strong>'f'</strong>-Taste f&uuml;r links, die <strong>'j'</strong>-Taste f&uuml;r rechts.</p><br><p> Das Bild wird jeweils 1 Sekunde lang pr&auml;sentiert. Du hast 3 Sekunden Zeit eine Entscheidung zu treffen.</p>","32","html-keyboard-response","5","41509","0.0-5.0","LIGR","3","f","rechts","24","","","","","",""
"null","<div style=""font-size:60px;"">+</div>","null","html-keyboard-response","6","42814","0.0-6.0-0.0","LIGR","3","f","rechts","24","","fixation","","","",""
"1450","img/L30_180.png","74","image-keyboard-response","7","44265","0.0-6.0-1.0","LIGR","3","f","rechts","24","","","object","j","30","true"
"null","<div style=""font-size:60px;"">+</div>","null","html-keyboard-response","8","44717","0.0-6.0-0.1","LIGR","3","f","rechts","24","","fixation","","","",""
"1148","img/150_270.png","74","image-keyboard-response","9","45865","0.0-6.0-1.1","LIGR","3","f","rechts","24","","","object","j","150","true"
"null","<div style=""font-size:60px;"">+</div>","null","html-keyboard-response","10","46317","0.0-6.0-0.2","LIGR","3","f","rechts","24","","fixation","","","",""
"1536","img/150_180.png","74","image-keyboard-response","11","47854","0.0-6.0-1.2","LIGR","3","f","rechts","24","","","object","f","150","false"
"null","<div style=""font-size:60px;"">+</div>","null","html-keyboard-response","12","48255","0.0-6.0-0.3","LIGR","3","f","rechts","24","","fixation","","","",""
"781","img/0_150.png","74","image-keyboard-response","13","49038","0.0-6.0-1.3","LIGR","3","f","rechts","24","","","object","j","0","true"
"null","<div style=""font-size:60px;"">+</div>","null","html-keyboard-response","14","49489","0.0-6.0-0.4","LIGR","3","f","rechts","24","","fixation","","","",""
"1137","img/150_60.png","70","image-keyboard-response","15","50628","0.0-6.0-1.4","LIGR","3","f","rechts","24","","","object","f","150","true"
"null","<div style=""font-size:60px;"">+</div>","null","html-keyboard-response","16","51029","0.0-6.0-0.5","LIGR","3","f","rechts","24","","fixation","","","",""
"793","img/90_60.png","70","image-keyboard-response","17","51824","0.0-6.0-1.5","LIGR","3","f","rechts","24","","","object","f","90","true"
"null","<div style=""font-size:60px;"">+</div>","null","html-keyboard-response","18","52225","0.0-6.0-0.6","LIGR","3","f","rechts","24","","fixation","","","",""
"1343","img/120_210.png","74","image-keyboard-response","19","53569","0.0-6.0-1.6","LIGR","3","f","rechts","24","","","object","f","120","false"
"null","<div style=""font-size:60px;"">+</div>","null","html-keyboard-response","20","54021","0.0-6.0-0.7","LIGR","3","f","rechts","24","","fixation","","","",""
"763","img/90_30.png","70","image-keyboard-response","21","54786","0.0-6.0-1.7","LIGR","3","f","rechts","24","","","object","f","90","true"
"null","<div style=""font-size:60px;"">+</div>","null","html-keyboard-response","22","55137","0.0-6.0-0.8","LIGR","3","f","rechts","24","","fixation","","","",""
"643","img/0_120.png","74","image-keyboard-response","23","55781","0.0-6.0-1.8","LIGR","3","f","rechts","24","","","object","j","0","true"
"null","<div style=""font-size:60px;"">+</div>","null","html-keyboard-response","24","56183","0.0-6.0-0.9","LIGR","3","f","rechts","24","","fixation","","","",""
"565","img/0_330.png","70","image-keyboard-response","25","56748","0.0-6.0-1.9","LIGR","3","f","rechts","24","","","object","f","0","true"
"null","<div style=""font-size:60px;"">+</div>","null","html-keyboard-response","26","57200","0.0-6.0-0.10","LIGR","3","f","rechts","24","","fixation","","","",""
"1279","img/90_150.png","70","image-keyboard-response","27","58480","0.0-6.0-1.10","LIGR","3","f","rechts","24","","","object","j","90","false"
"null","<div style=""font-size:60px;"">+</div>","null","html-keyboard-response","28","58882","0.0-6.0-0.11","LIGR","3","f","rechts","24","","fixation","","","",""
"1435","img/60_90.png","74","image-keyboard-response","29","60317","0.0-6.0-1.11","LIGR","3","f","rechts","24","","","object","j","60","true"
"null","<div style=""font-size:60px;"">+</div>","null","html-keyboard-response","30","60669","0.0-6.0-0.12","LIGR","3","f","rechts","24","","fixation","","","",""
"619","img/0_300.png","70","image-keyboard-response","31","61289","0.0-6.0-1.12","LIGR","3","f","rechts","24","","","object","f","0","true"
"null","<div style=""font-size:60px;"">+</div>","null","html-keyboard-response","32","61691","0.0-6.0-0.13","LIGR","3","f","rechts","24","","fixation","","","",""
"1071","img/90_120.png","70","image-keyboard-response","33","62762","0.0-6.0-1.13","LIGR","3","f","rechts","24","","","object","j","90","false"
"null","<div style=""font-size:60px;"">+</div>","null","html-keyboard-response","34","63114","0.0-6.0-0.14","LIGR","3","f","rechts","24","","fixation","","","",""
"993","img/150_120.png","70","image-keyboard-response","35","64108","0.0-6.0-1.14","LIGR","3","f","rechts","24","","","object","f","150","true"
"null","<div style=""font-size:60px;"">+</div>","null","html-keyboard-response","36","64609","0.0-6.0-0.15","LIGR","3","f","rechts","24","","fixation","","","",""
"918","img/120_330.png","74","image-keyboard-response","37","65528","0.0-6.0-1.15","LIGR","3","f","rechts","24","","","object","j","120","true"
"null","<div style=""font-size:60px;"">+</div>","null","html-keyboard-response","38","65830","0.0-6.0-0.16","LIGR","3","f","rechts","24","","fixation","","","",""
"978","img/120_90.png","70","image-keyboard-response","39","66809","0.0-6.0-1.16","LIGR","3","f","rechts","24","","","object","f","120","true"
"null","<div style=""font-size:60px;"">+</div>","null","html-keyboard-response","40","67161","0.0-6.0-0.17","LIGR","3","f","rechts","24","","fixation","","","",""
"2110","img/L90_180.png","74","image-keyboard-response","41","69272","0.0-6.0-1.17","LIGR","3","f","rechts","24","","","object","j","90","true"
"null","<div style=""font-size:60px;"">+</div>","null","html-keyboard-response","42","69674","0.0-6.0-0.18","LIGR","3","f","rechts","24","","fixation","","","",""
"601","img/0_210.png","70","image-keyboard-response","43","70276","0.0-6.0-1.18","LIGR","3","f","rechts","24","","","object","f","0","true"
"null","<div style=""font-size:60px;"">+</div>","null","html-keyboard-response","44","70678","0.0-6.0-0.19","LIGR","3","f","rechts","24","","fixation","","","",""
"830","img/0_90.png","74","image-keyboard-response","45","71509","0.0-6.0-1.19","LIGR","3","f","rechts","24","","","object","j","0","true"
"null","<div style=""font-size:60px;"">+</div>","null","html-keyboard-response","46","71961","0.0-6.0-0.20","LIGR","3","f","rechts","24","","fixation","","","",""
"635","img/0_60.png","74","image-keyboard-response","47","72597","0.0-6.0-1.20","LIGR","3","f","rechts","24","","","object","j","0","true"
"null","<div style=""font-size:60px;"">+</div>","null","html-keyboard-response","48","72949","0.0-6.0-0.21","LIGR","3","f","rechts","24","","fixation","","","",""
"941","img/30_60.png","74","image-keyboard-response","49","73891","0.0-6.0-1.21","LIGR","3","f","rechts","24","","","object","j","30","true"
"null","<div style=""font-size:60px;"">+</div>","null","html-keyboard-response","50","74192","0.0-6.0-0.22","LIGR","3","f","rechts","24","","fixation","","","",""
"1138","img/120_150.png","70","image-keyboard-response","51","75332","0.0-6.0-1.22","LIGR","3","f","rechts","24","","","object","j","120","false"
"null","<div style=""font-size:60px;"">+</div>","null","html-keyboard-response","52","75684","0.0-6.0-0.23","LIGR","3","f","rechts","24","","fixation","","","",""
"633","img/0_270.png","70","image-keyboard-response","53","76318","0.0-6.0-1.23","LIGR","3","f","rechts","24","","","object","f","0","true"
"null","<div style=""font-size:60px;"">+</div>","null","html-keyboard-response","54","76720","0.0-6.0-0.24","LIGR","3","f","rechts","24","","fixation","","","",""
"1078","img/30_180.png","74","image-keyboard-response","55","77798","0.0-6.0-1.24","LIGR","3","f","rechts","24","","","object","f","30","false"
"null","<div style=""font-size:60px;"">+</div>","null","html-keyboard-response","56","78250","0.0-6.0-0.25","LIGR","3","f","rechts","24","","fixation","","","",""
"1688","img/30_240.png","70","image-keyboard-response","57","79939","0.0-6.0-1.25","LIGR","3","f","rechts","24","","","object","f","30","true"
"null","<div style=""font-size:60px;"">+</div>","null","html-keyboard-response","58","80341","0.0-6.0-0.26","LIGR","3","f","rechts","24","","fixation","","","",""
"1185","img/60_270.png","74","image-keyboard-response","59","81527","0.0-6.0-1.26","LIGR","3","f","rechts","24","","","object","f","60","false"
"null","<div style=""font-size:60px;"">+</div>","null","html-keyboard-response","60","82028","0.0-6.0-0.27","LIGR","3","f","rechts","24","","fixation","","","",""
"998","img/L120_180.png","70","image-keyboard-response","61","83027","0.0-6.0-1.27","LIGR","3","f","rechts","24","","","object","j","120","false"
"null","<div style=""font-size:60px;"">+</div>","null","html-keyboard-response","62","83428","0.0-6.0-0.28","LIGR","3","f","rechts","24","","fixation","","","",""
"1321","img/60_210.png","70","image-keyboard-response","63","84751","0.0-6.0-1.28","LIGR","3","f","rechts","24","","","object","f","60","true"
"null","<div style=""font-size:60px;"">+</div>","null","html-keyboard-response","64","85202","0.0-6.0-0.29","LIGR","3","f","rechts","24","","fixation","","","",""
"675","img/0_30.png","74","image-keyboard-response","65","85878","0.0-6.0-1.29","LIGR","3","f","rechts","24","","","object","j","0","true"
"null","<div style=""font-size:60px;"">+</div>","null","html-keyboard-response","66","86280","0.0-6.0-0.30","LIGR","3","f","rechts","24","","fixation","","","",""
"847","img/30_120.png","74","image-keyboard-response","67","87128","0.0-6.0-1.30","LIGR","3","f","rechts","24","","","object","j","30","true"
"null","<div style=""font-size:60px;"">+</div>","null","html-keyboard-response","68","87429","0.0-6.0-0.31","LIGR","3","f","rechts","24","","fixation","","","",""
"1063","img/60_150.png","74","image-keyboard-response","69","88493","0.0-6.0-1.31","LIGR","3","f","rechts","24","","","object","j","60","true"
"null","<div style=""font-size:60px;"">+</div>","null","html-keyboard-response","70","88844","0.0-6.0-0.32","LIGR","3","f","rechts","24","","fixation","","","",""
"877","img/60_330.png","74","image-keyboard-response","71","89723","0.0-6.0-1.32","LIGR","3","f","rechts","24","","","object","j","60","true"
"null","<div style=""font-size:60px;"">+</div>","null","html-keyboard-response","72","90124","0.0-6.0-0.33","LIGR","3","f","rechts","24","","fixation","","","",""
"981","img/150_240.png","74","image-keyboard-response","73","91107","0.0-6.0-1.33","LIGR","3","f","rechts","24","","","object","j","150","true"
"null","<div style=""font-size:60px;"">+</div>","null","html-keyboard-response","74","91458","0.0-6.0-0.34","LIGR","3","f","rechts","24","","fixation","","","",""
"879","img/120_30.png","70","image-keyboard-response","75","92339","0.0-6.0-1.34","LIGR","3","f","rechts","24","","","object","f","120","true"
"null","<div style=""font-size:60px;"">+</div>","null","html-keyboard-response","76","92690","0.0-6.0-0.35","LIGR","3","f","rechts","24","","fixation","","","",""
"705","img/60_30.png","70","image-keyboard-response","77","93397","0.0-6.0-1.35","LIGR","3","f","rechts","24","","","object","f","60","true"
"null","<div style=""font-size:60px;"">+</div>","null","html-keyboard-response","78","93798","0.0-6.0-0.36","LIGR","3","f","rechts","24","","fixation","","","",""
"651","img/0_240.png","70","image-keyboard-response","79","94451","0.0-6.0-1.36","LIGR","3","f","rechts","24","","","object","f","0","true"
"null","<div style=""font-size:60px;"">+</div>","null","html-keyboard-response","80","94751","0.0-6.0-0.37","LIGR","3","f","rechts","24","","fixation","","","",""
"1039","img/150_300.png","74","image-keyboard-response","81","95791","0.0-6.0-1.37","LIGR","3","f","rechts","24","","","object","j","150","true"
"null","<div style=""font-size:60px;"">+</div>","null","html-keyboard-response","82","96293","0.0-6.0-0.38","LIGR","3","f","rechts","24","","fixation","","","",""
"975","img/30_90.png","74","image-keyboard-response","83","97269","0.0-6.0-1.38","LIGR","3","f","rechts","24","","","object","j","30","true"
"null","<div style=""font-size:60px;"">+</div>","null","html-keyboard-response","84","97721","0.0-6.0-0.39","LIGR","3","f","rechts","24","","fixation","","","",""
"2307","img/L150_180.png","74","image-keyboard-response","85","100029","0.0-6.0-1.39","LIGR","3","f","rechts","24","","","object","j","150","true"
"null","<div style=""font-size:60px;"">+</div>","null","html-keyboard-response","86","100481","0.0-6.0-0.40","LIGR","3","f","rechts","24","","fixation","","","",""
"948","img/L60_180.png","74","image-keyboard-response","87","101430","0.0-6.0-1.40","LIGR","3","f","rechts","24","","","object","j","60","true"
"null","<div style=""font-size:60px;"">+</div>","null","html-keyboard-response","88","101932","0.0-6.0-0.41","LIGR","3","f","rechts","24","","fixation","","","",""
"1328","img/120_180.png","70","image-keyboard-response","89","103261","0.0-6.0-1.41","LIGR","3","f","rechts","24","","","object","f","120","true"
"null","<div style=""font-size:60px;"">+</div>","null","html-keyboard-response","90","103563","0.0-6.0-0.42","LIGR","3","f","rechts","24","","fixation","","","",""
"1291","img/150_90.png","70","image-keyboard-response","91","104855","0.0-6.0-1.42","LIGR","3","f","rechts","24","","","object","f","150","true"
"null","<div style=""font-size:60px;"">+</div>","null","html-keyboard-response","92","105207","0.0-6.0-0.43","LIGR","3","f","rechts","24","","fixation","","","",""
"1195","img/90_300.png","74","image-keyboard-response","93","106403","0.0-6.0-1.43","LIGR","3","f","rechts","24","","","object","j","90","true"
"null","<div style=""font-size:60px;"">+</div>","null","html-keyboard-response","94","106705","0.0-6.0-0.44","LIGR","3","f","rechts","24","","fixation","","","",""
"1067","img/30_270.png","70","image-keyboard-response","95","107774","0.0-6.0-1.44","LIGR","3","f","rechts","24","","","object","f","30","true"
"null","<div style=""font-size:60px;"">+</div>","null","html-keyboard-response","96","108075","0.0-6.0-0.45","LIGR","3","f","rechts","24","","fixation","","","",""
"747","img/30_300.png","70","image-keyboard-response","97","108823","0.0-6.0-1.45","LIGR","3","f","rechts","24","","","object","f","30","true"
"null","<div style=""font-size:60px;"">+</div>","null","html-keyboard-response","98","109325","0.0-6.0-0.46","LIGR","3","f","rechts","24","","fixation","","","",""
"1065","img/120_270.png","74","image-keyboard-response","99","110391","0.0-6.0-1.46","LIGR","3","f","rechts","24","","","object","j","120","true"
"null","<div style=""font-size:60px;"">+</div>","null","html-keyboard-response","100","110692","0.0-6.0-0.47","LIGR","3","f","rechts","24","","fixation","","","",""
"1199","img/90_180.png","70","image-keyboard-response","101","111892","0.0-6.0-1.47","LIGR","3","f","rechts","24","","","object","f","90","true"
"null","<div style=""font-size:60px;"">+</div>","null","html-keyboard-response","102","112343","0.0-6.0-0.48","LIGR","3","f","rechts","24","","fixation","","","",""
"1069","img/90_240.png","74","image-keyboard-response","103","113413","0.0-6.0-1.48","LIGR","3","f","rechts","24","","","object","f","90","false"
"null","<div style=""font-size:60px;"">+</div>","null","html-keyboard-response","104","113715","0.0-6.0-0.49","LIGR","3","f","rechts","24","","fixation","","","",""
"733","img/90_330.png","74","image-keyboard-response","105","114448","0.0-6.0-1.49","LIGR","3","f","rechts","24","","","object","j","90","true"
"null","<div style=""font-size:60px;"">+</div>","null","html-keyboard-response","106","114800","0.0-6.0-0.50","LIGR","3","f","rechts","24","","fixation","","","",""
"942","img/60_180.png","70","image-keyboard-response","107","115743","0.0-6.0-1.50","LIGR","3","f","rechts","24","","","object","f","60","true"
"null","<div style=""font-size:60px;"">+</div>","null","html-keyboard-response","108","116045","0.0-6.0-0.51","LIGR","3","f","rechts","24","","fixation","","","",""
"1158","img/90_210.png","70","image-keyboard-response","109","117204","0.0-6.0-1.51","LIGR","3","f","rechts","24","","","object","f","90","true"
"null","<div style=""font-size:60px;"">+</div>","null","html-keyboard-response","110","117555","0.0-6.0-0.52","LIGR","3","f","rechts","24","","fixation","","","",""
"1063","img/120_150.png","70","image-keyboard-response","111","118619","0.0-6.0-1.52","LIGR","3","f","rechts","24","","","object","j","120","false"
"null","<div style=""font-size:60px;"">+</div>","null","html-keyboard-response","112","119121","0.0-6.0-0.53","LIGR","3","f","rechts","24","","fixation","","","",""
"667","img/0_150.png","74","image-keyboard-response","113","119789","0.0-6.0-1.53","LIGR","3","f","rechts","24","","","object","j","0","true"
"null","<div style=""font-size:60px;"">+</div>","null","html-keyboard-response","114","120191","0.0-6.0-0.54","LIGR","3","f","rechts","24","","fixation","","","",""
"1232","img/L150_180.png","70","image-keyboard-response","115","121423","0.0-6.0-1.54","LIGR","3","f","rechts","24","","","object","j","150","false"
"null","<div style=""font-size:60px;"">+</div>","null","html-keyboard-response","116","121775","0.0-6.0-0.55","LIGR","3","f","rechts","24","","fixation","","","",""
"1495","img/L120_180.png","74","image-keyboard-response","117","123270","0.0-6.0-1.55","LIGR","3","f","rechts","24","","","object","j","120","true"
"null","<div style=""font-size:60px;"">+</div>","null","html-keyboard-response","118","123572","0.0-6.0-0.56","LIGR","3","f","rechts","24","","fixation","","","",""
"1218","img/60_180.png","70","image-keyboard-response","119","124791","0.0-6.0-1.56","LIGR","3","f","rechts","24","","","object","f","60","true"
"null","<div style=""font-size:60px;"">+</div>","null","html-keyboard-response","120","125292","0.0-6.0-0.57","LIGR","3","f","rechts","24","","fixation","","","",""
"1198","img/120_330.png","74","image-keyboard-response","121","126491","0.0-6.0-1.57","LIGR","3","f","rechts","24","","","object","j","120","true"
"null","<div style=""font-size:60px;"">+</div>","null","html-keyboard-response","122","126942","0.0-6.0-0.58","LIGR","3","f","rechts","24","","fixation","","","",""
"1190","img/150_120.png","70","image-keyboard-response","123","128133","0.0-6.0-1.58","LIGR","3","f","rechts","24","","","object","f","150","true"
"null","<div style=""font-size:60px;"">+</div>","null","html-keyboard-response","124","128434","0.0-6.0-0.59","LIGR","3","f","rechts","24","","fixation","","","",""
"982","img/60_90.png","74","image-keyboard-response","125","129417","0.0-6.0-1.59","LIGR","3","f","rechts","24","","","object","j","60","true"
"null","<div style=""font-size:60px;"">+</div>","null","html-keyboard-response","126","129718","0.0-6.0-0.60","LIGR","3","f","rechts","24","","fixation","","","",""
"925","img/60_270.png","70","image-keyboard-response","127","130643","0.0-6.0-1.60","LIGR","3","f","rechts","24","","","object","f","60","true"
"null","<div style=""font-size:60px;"">+</div>","null","html-keyboard-response","128","131044","0.0-6.0-0.61","LIGR","3","f","rechts","24","","fixation","","","",""
"1014","img/L90_180.png","74","image-keyboard-response","129","132058","0.0-6.0-1.61","LIGR","3","f","rechts","24","","","object","j","90","true"
"null","<div style=""font-size:60px;"">+</div>","null","html-keyboard-response","130","132560","0.0-6.0-0.62","LIGR","3","f","rechts","24","","fixation","","","",""
"900","img/150_270.png","74","image-keyboard-response","131","133460","0.0-6.0-1.62","LIGR","3","f","rechts","24","","","object","j","150","true"
"null","<div style=""font-size:60px;"">+</div>","null","html-keyboard-response","132","133761","0.0-6.0-0.63","LIGR","3","f","rechts","24","","fixation","","","",""
"1241","img/90_180.png","70","image-keyboard-response","133","135004","0.0-6.0-1.63","LIGR","3","f","rechts","24","","","object","f","90","true"
"null","<div style=""font-size:60px;"">+</div>","null","html-keyboard-response","134","135305","0.0-6.0-0.64","LIGR","3","f","rechts","24","","fixation","","","",""
"1012","img/90_240.png","74","image-keyboard-response","135","136319","0.0-6.0-1.64","LIGR","3","f","rechts","24","","","object","f","90","false"
"null","<div style=""font-size:60px;"">+</div>","null","html-keyboard-response","136","136721","0.0-6.0-0.65","LIGR","3","f","rechts","24","","fixation","","","",""
"778","img/30_300.png","70","image-keyboard-response","137","137500","0.0-6.0-1.65","LIGR","3","f","rechts","24","","","object","f","30","true"
"null","<div style=""font-size:60px;"">+</div>","null","html-keyboard-response","138","137901","0.0-6.0-0.66","LIGR","3","f","rechts","24","","fixation","","","",""
"676","img/0_60.png","74","image-keyboard-response","139","138579","0.0-6.0-1.66","LIGR","3","f","rechts","24","","","object","j","0","true"
"null","<div style=""font-size:60px;"">+</div>","null","html-keyboard-response","140","139080","0.0-6.0-0.67","LIGR","3","f","rechts","24","","fixation","","","",""
"841","img/90_60.png","70","image-keyboard-response","141","139922","0.0-6.0-1.67","LIGR","3","f","rechts","24","","","object","f","90","true"
"null","<div style=""font-size:60px;"">+</div>","null","html-keyboard-response","142","140373","0.0-6.0-0.68","LIGR","3","f","rechts","24","","fixation","","","",""
"1096","img/150_60.png","70","image-keyboard-response","143","141470","0.0-6.0-1.68","LIGR","3","f","rechts","24","","","object","f","150","true"
"null","<div style=""font-size:60px;"">+</div>","null","html-keyboard-response","144","141921","0.0-6.0-0.69","LIGR","3","f","rechts","24","","fixation","","","",""
"640","img/0_30.png","74","image-keyboard-response","145","142563","0.0-6.0-1.69","LIGR","3","f","rechts","24","","","object","j","0","true"
"null","<div style=""font-size:60px;"">+</div>","null","html-keyboard-response","146","142964","0.0-6.0-0.70","LIGR","3","f","rechts","24","","fixation","","","",""
"1285","img/150_90.png","70","image-keyboard-response","147","144251","0.0-6.0-1.70","LIGR","3","f","rechts","24","","","object","f","150","true"
"null","<div style=""font-size:60px;"">+</div>","null","html-keyboard-response","148","144753","0.0-6.0-0.71","LIGR","3","f","rechts","24","","fixation","","","",""
"1314","img/90_120.png","70","image-keyboard-response","149","146067","0.0-6.0-1.71","LIGR","3","f","rechts","24","","","object","j","90","false"
"null","<div style=""font-size:60px;"">+</div>","null","html-keyboard-response","150","146519","0.0-6.0-0.72","LIGR","3","f","rechts","24","","fixation","","","",""
"718","img/0_240.png","70","image-keyboard-response","151","147238","0.0-6.0-1.72","LIGR","3","f","rechts","24","","","object","f","0","true"
"null","<div style=""font-size:60px;"">+</div>","null","html-keyboard-response","152","147540","0.0-6.0-0.73","LIGR","3","f","rechts","24","","fixation","","","",""
"1117","img/90_210.png","74","image-keyboard-response","153","148658","0.0-6.0-1.73","LIGR","3","f","rechts","24","","","object","f","90","false"
"null","<div style=""font-size:60px;"">+</div>","null","html-keyboard-response","154","149110","0.0-6.0-0.74","LIGR","3","f","rechts","24","","fixation","","","",""
"635","img/0_90.png","74","image-keyboard-response","155","149747","0.0-6.0-1.74","LIGR","3","f","rechts","24","","","object","j","0","true"
"null","<div style=""font-size:60px;"">+</div>","null","html-keyboard-response","156","150047","0.0-6.0-0.75","LIGR","3","f","rechts","24","","fixation","","","",""
"680","img/120_90.png","70","image-keyboard-response","157","150728","0.0-6.0-1.75","LIGR","3","f","rechts","24","","","object","f","120","true"
"null","<div style=""font-size:60px;"">+</div>","null","html-keyboard-response","158","151030","0.0-6.0-0.76","LIGR","3","f","rechts","24","","fixation","","","",""
"1753","img/150_180.png","70","image-keyboard-response","159","152784","0.0-6.0-1.76","LIGR","3","f","rechts","24","","","object","f","150","true"
"null","<div style=""font-size:60px;"">+</div>","null","html-keyboard-response","160","153136","0.0-6.0-0.77","LIGR","3","f","rechts","24","","fixation","","","",""
"1267","img/150_240.png","74","image-keyboard-response","161","154404","0.0-6.0-1.77","LIGR","3","f","rechts","24","","","object","j","150","true"
"null","<div style=""font-size:60px;"">+</div>","null","html-keyboard-response","162","154756","0.0-6.0-0.78","LIGR","3","f","rechts","24","","fixation","","","",""
"698","img/0_210.png","70","image-keyboard-response","163","155455","0.0-6.0-1.78","LIGR","3","f","rechts","24","","","object","f","0","true"
"null","<div style=""font-size:60px;"">+</div>","null","html-keyboard-response","164","155907","0.0-6.0-0.79","LIGR","3","f","rechts","24","","fixation","","","",""
"1376","img/60_150.png","74","image-keyboard-response","165","157284","0.0-6.0-1.79","LIGR","3","f","rechts","24","","","object","j","60","true"
"null","<div style=""font-size:60px;"">+</div>","null","html-keyboard-response","166","157686","0.0-6.0-0.80","LIGR","3","f","rechts","24","","fixation","","","",""
"802","img/90_300.png","74","image-keyboard-response","167","158489","0.0-6.0-1.80","LIGR","3","f","rechts","24","","","object","j","90","true"
"null","<div style=""font-size:60px;"">+</div>","null","html-keyboard-response","168","158990","0.0-6.0-0.81","LIGR","3","f","rechts","24","","fixation","","","",""
"619","img/0_120.png","74","image-keyboard-response","169","159610","0.0-6.0-1.81","LIGR","3","f","rechts","24","","","object","j","0","true"
"null","<div style=""font-size:60px;"">+</div>","null","html-keyboard-response","170","160112","0.0-6.0-0.82","LIGR","3","f","rechts","24","","fixation","","","",""
"997","img/90_330.png","74","image-keyboard-response","171","161110","0.0-6.0-1.82","LIGR","3","f","rechts","24","","","object","j","90","true"
"null","<div style=""font-size:60px;"">+</div>","null","html-keyboard-response","172","161562","0.0-6.0-0.83","LIGR","3","f","rechts","24","","fixation","","","",""
"611","img/60_30.png","70","image-keyboard-response","173","162173","0.0-6.0-1.83","LIGR","3","f","rechts","24","","","object","f","60","true"
"null","<div style=""font-size:60px;"">+</div>","null","html-keyboard-response","174","162574","0.0-6.0-0.84","LIGR","3","f","rechts","24","","fixation","","","",""
"666","img/30_90.png","70","image-keyboard-response","175","163240","0.0-6.0-1.84","LIGR","3","f","rechts","24","","","object","j","30","false"
"null","<div style=""font-size:60px;"">+</div>","null","html-keyboard-response","176","163592","0.0-6.0-0.85","LIGR","3","f","rechts","24","","fixation","","","",""
"604","img/120_30.png","70","image-keyboard-response","177","164196","0.0-6.0-1.85","LIGR","3","f","rechts","24","","","object","f","120","true"
"null","<div style=""font-size:60px;"">+</div>","null","html-keyboard-response","178","164648","0.0-6.0-0.86","LIGR","3","f","rechts","24","","fixation","","","",""
"629","img/90_30.png","70","image-keyboard-response","179","165277","0.0-6.0-1.86","LIGR","3","f","rechts","24","","","object","f","90","true"
"null","<div style=""font-size:60px;"">+</div>","null","html-keyboard-response","180","165679","0.0-6.0-0.87","LIGR","3","f","rechts","24","","fixation","","","",""
"899","img/90_150.png","74","image-keyboard-response","181","166578","0.0-6.0-1.87","LIGR","3","f","rechts","24","","","object","j","90","true"
"null","<div style=""font-size:60px;"">+</div>","null","html-keyboard-response","182","166880","0.0-6.0-0.88","LIGR","3","f","rechts","24","","fixation","","","",""
"855","img/30_270.png","70","image-keyboard-response","183","167735","0.0-6.0-1.88","LIGR","3","f","rechts","24","","","object","f","30","true"
"null","<div style=""font-size:60px;"">+</div>","null","html-keyboard-response","184","168237","0.0-6.0-0.89","LIGR","3","f","rechts","24","","fixation","","","",""
"1221","img/30_180.png","70","image-keyboard-response","185","169459","0.0-6.0-1.89","LIGR","3","f","rechts","24","","","object","f","30","true"
"null","<div style=""font-size:60px;"">+</div>","null","html-keyboard-response","186","169810","0.0-6.0-0.90","LIGR","3","f","rechts","24","","fixation","","","",""
"1210","img/120_180.png","70","image-keyboard-response","187","171021","0.0-6.0-1.90","LIGR","3","f","rechts","24","","","object","f","120","true"
"null","<div style=""font-size:60px;"">+</div>","null","html-keyboard-response","188","171322","0.0-6.0-0.91","LIGR","3","f","rechts","24","","fixation","","","",""
"888","img/30_240.png","70","image-keyboard-response","189","172211","0.0-6.0-1.91","LIGR","3","f","rechts","24","","","object","f","30","true"
"null","<div style=""font-size:60px;"">+</div>","null","html-keyboard-response","190","172513","0.0-6.0-0.92","LIGR","3","f","rechts","24","","fixation","","","",""
"710","img/60_330.png","74","image-keyboard-response","191","173223","0.0-6.0-1.92","LIGR","3","f","rechts","24","","","object","j","60","true"
"null","<div style=""font-size:60px;"">+</div>","null","html-keyboard-response","192","173575","0.0-6.0-0.93","LIGR","3","f","rechts","24","","fixation","","","",""
"613","img/0_330.png","70","image-keyboard-response","193","174188","0.0-6.0-1.93","LIGR","3","f","rechts","24","","","object","f","0","true"
"null","<div style=""font-size:60px;"">+</div>","null","html-keyboard-response","194","174639","0.0-6.0-0.94","LIGR","3","f","rechts","24","","fixation","","","",""
"865","img/60_210.png","70","image-keyboard-response","195","175504","0.0-6.0-1.94","LIGR","3","f","rechts","24","","","object","f","60","true"
"null","<div style=""font-size:60px;"">+</div>","null","html-keyboard-response","196","175805","0.0-6.0-0.95","LIGR","3","f","rechts","24","","fixation","","","",""
"1498","img/30_60.png","74","image-keyboard-response","197","177304","0.0-6.0-1.95","LIGR","3","f","rechts","24","","","object","j","30","true"
"null","<div style=""font-size:60px;"">+</div>","null","html-keyboard-response","198","177605","0.0-6.0-0.96","LIGR","3","f","rechts","24","","fixation","","","",""
"1072","img/150_300.png","74","image-keyboard-response","199","178679","0.0-6.0-1.96","LIGR","3","f","rechts","24","","","object","j","150","true"
"null","<div style=""font-size:60px;"">+</div>","null","html-keyboard-response","200","179080","0.0-6.0-0.97","LIGR","3","f","rechts","24","","fixation","","","",""
"887","img/30_120.png","74","image-keyboard-response","201","179968","0.0-6.0-1.97","LIGR","3","f","rechts","24","","","object","j","30","true"
"null","<div style=""font-size:60px;"">+</div>","null","html-keyboard-response","202","180469","0.0-6.0-0.98","LIGR","3","f","rechts","24","","fixation","","","",""
"1115","img/120_210.png","70","image-keyboard-response","203","181586","0.0-6.0-1.98","LIGR","3","f","rechts","24","","","object","f","120","true"
"null","<div style=""font-size:60px;"">+</div>","null","html-keyboard-response","204","181937","0.0-6.0-0.99","LIGR","3","f","rechts","24","","fixation","","","",""
"660","img/0_300.png","70","image-keyboard-response","205","182598","0.0-6.0-1.99","LIGR","3","f","rechts","24","","","object","f","0","true"
"null","<div style=""font-size:60px;"">+</div>","null","html-keyboard-response","206","183100","0.0-6.0-0.100","LIGR","3","f","rechts","24","","fixation","","","",""
"1189","img/L60_180.png","74","image-keyboard-response","207","184290","0.0-6.0-1.100","LIGR","3","f","rechts","24","","","object","j","60","true"
"null","<div style=""font-size:60px;"">+</div>","null","html-keyboard-response","208","184741","0.0-6.0-0.101","LIGR","3","f","rechts","24","","fixation","","","",""
"1091","img/L30_180.png","74","image-keyboard-response","209","185833","0.0-6.0-1.101","LIGR","3","f","rechts","24","","","object","j","30","true"
"null","<div style=""font-size:60px;"">+</div>","null","html-keyboard-response","210","186284","0.0-6.0-0.102","LIGR","3","f","rechts","24","","fixation","","","",""
"664","img/0_270.png","70","image-keyboard-response","211","186950","0.0-6.0-1.102","LIGR","3","f","rechts","24","","","object","f","0","true"
"null","<div style=""font-size:60px;"">+</div>","null","html-keyboard-response","212","187451","0.0-6.0-0.103","LIGR","3","f","rechts","24","","fixation","","","",""
"1215","img/120_270.png","74","image-keyboard-response","213","188668","0.0-6.0-1.103","LIGR","3","f","rechts","24","","","object","j","120","true"
"null","<div style=""font-size:60px;"">+</div>","null","html-keyboard-response","214","189169","0.0-6.0-0.104","LIGR","3","f","rechts","24","","fixation","","","",""
"744","img/0_300.png","70","image-keyboard-response","215","189915","0.0-6.0-1.104","LIGR","3","f","rechts","24","","","object","f","0","true"
"null","<div style=""font-size:60px;"">+</div>","null","html-keyboard-response","216","190216","0.0-6.0-0.105","LIGR","3","f","rechts","24","","fixation","","","",""
"1072","img/90_180.png","70","image-keyboard-response","217","191290","0.0-6.0-1.105","LIGR","3","f","rechts","24","","","object","f","90","true"
"null","<div style=""font-size:60px;"">+</div>","null","html-keyboard-response","218","191791","0.0-6.0-0.106","LIGR","3","f","rechts","24","","fixation","","","",""
"651","img/0_210.png","70","image-keyboard-response","219","192444","0.0-6.0-1.106","LIGR","3","f","rechts","24","","","object","f","0","true"
"null","<div style=""font-size:60px;"">+</div>","null","html-keyboard-response","220","192795","0.0-6.0-0.107","LIGR","3","f","rechts","24","","fixation","","","",""
"707","img/0_90.png","74","image-keyboard-response","221","193504","0.0-6.0-1.107","LIGR","3","f","rechts","24","","","object","j","0","true"
"null","<div style=""font-size:60px;"">+</div>","null","html-keyboard-response","222","193955","0.0-6.0-0.108","LIGR","3","f","rechts","24","","fixation","","","",""
"1076","img/150_60.png","70","image-keyboard-response","223","195032","0.0-6.0-1.108","LIGR","3","f","rechts","24","","","object","f","150","true"
"null","<div style=""font-size:60px;"">+</div>","null","html-keyboard-response","224","195433","0.0-6.0-0.109","LIGR","3","f","rechts","24","","fixation","","","",""
"1078","img/60_210.png","70","image-keyboard-response","225","196512","0.0-6.0-1.109","LIGR","3","f","rechts","24","","","object","f","60","true"
"null","<div style=""font-size:60px;"">+</div>","null","html-keyboard-response","226","196864","0.0-6.0-0.110","LIGR","3","f","rechts","24","","fixation","","","",""
"795","img/30_90.png","74","image-keyboard-response","227","197660","0.0-6.0-1.110","LIGR","3","f","rechts","24","","","object","j","30","true"
"null","<div style=""font-size:60px;"">+</div>","null","html-keyboard-response","228","198162","0.0-6.0-0.111","LIGR","3","f","rechts","24","","fixation","","","",""
"1102","img/L30_180.png","74","image-keyboard-response","229","199265","0.0-6.0-1.111","LIGR","3","f","rechts","24","","","object","j","30","true"
"null","<div style=""font-size:60px;"">+</div>","null","html-keyboard-response","230","199667","0.0-6.0-0.112","LIGR","3","f","rechts","24","","fixation","","","",""
"1357","img/150_300.png","74","image-keyboard-response","231","201025","0.0-6.0-1.112","LIGR","3","f","rechts","24","","","object","j","150","true"
"null","<div style=""font-size:60px;"">+</div>","null","html-keyboard-response","232","201427","0.0-6.0-0.113","LIGR","3","f","rechts","24","","fixation","","","",""
"881","img/0_60.png","74","image-keyboard-response","233","202309","0.0-6.0-1.113","LIGR","3","f","rechts","24","","","object","j","0","true"
"null","<div style=""font-size:60px;"">+</div>","null","html-keyboard-response","234","202661","0.0-6.0-0.114","LIGR","3","f","rechts","24","","fixation","","","",""
"1130","img/150_270.png","74","image-keyboard-response","235","203792","0.0-6.0-1.114","LIGR","3","f","rechts","24","","","object","j","150","true"
"null","<div style=""font-size:60px;"">+</div>","null","html-keyboard-response","236","204144","0.0-6.0-0.115","LIGR","3","f","rechts","24","","fixation","","","",""
"698","img/0_330.png","70","image-keyboard-response","237","204843","0.0-6.0-1.115","LIGR","3","f","rechts","24","","","object","f","0","true"
"null","<div style=""font-size:60px;"">+</div>","null","html-keyboard-response","238","205345","0.0-6.0-0.116","LIGR","3","f","rechts","24","","fixation","","","",""
"1467","img/120_180.png","70","image-keyboard-response","239","206813","0.0-6.0-1.116","LIGR","3","f","rechts","24","","","object","f","120","true"
"null","<div style=""font-size:60px;"">+</div>","null","html-keyboard-response","240","207165","0.0-6.0-0.117","LIGR","3","f","rechts","24","","fixation","","","",""
"911","img/60_270.png","74","image-keyboard-response","241","208077","0.0-6.0-1.117","LIGR","3","f","rechts","24","","","object","f","60","false"
"null","<div style=""font-size:60px;"">+</div>","null","html-keyboard-response","242","208429","0.0-6.0-0.118","LIGR","3","f","rechts","24","","fixation","","","",""
"864","img/90_240.png","74","image-keyboard-response","243","209294","0.0-6.0-1.118","LIGR","3","f","rechts","24","","","object","f","90","false"
"null","<div style=""font-size:60px;"">+</div>","null","html-keyboard-response","244","209696","0.0-6.0-0.119","LIGR","3","f","rechts","24","","fixation","","","",""
"1077","img/30_300.png","70","image-keyboard-response","245","210774","0.0-6.0-1.119","LIGR","3","f","rechts","24","","","object","f","30","true"
"null","<div style=""font-size:60px;"">+</div>","null","html-keyboard-response","246","211075","0.0-6.0-0.120","LIGR","3","f","rechts","24","","fixation","","","",""
"1489","img/90_210.png","74","image-keyboard-response","247","212565","0.0-6.0-1.120","LIGR","3","f","rechts","24","","","object","f","90","false"
"null","<div style=""font-size:60px;"">+</div>","null","html-keyboard-response","248","213017","0.0-6.0-0.121","LIGR","3","f","rechts","24","","fixation","","","",""
"978","img/90_120.png","70","image-keyboard-response","249","213996","0.0-6.0-1.121","LIGR","3","f","rechts","24","","","object","j","90","false"
"null","<div style=""font-size:60px;"">+</div>","null","html-keyboard-response","250","214397","0.0-6.0-0.122","LIGR","3","f","rechts","24","","fixation","","","",""
"766","img/90_150.png","70","image-keyboard-response","251","215164","0.0-6.0-1.122","LIGR","3","f","rechts","24","","","object","j","90","false"
"null","<div style=""font-size:60px;"">+</div>","null","html-keyboard-response","252","215616","0.0-6.0-0.123","LIGR","3","f","rechts","24","","fixation","","","",""
"764","img/120_90.png","70","image-keyboard-response","253","216380","0.0-6.0-1.123","LIGR","3","f","rechts","24","","","object","f","120","true"
"null","<div style=""font-size:60px;"">+</div>","null","html-keyboard-response","254","216880","0.0-6.0-0.124","LIGR","3","f","rechts","24","","fixation","","","",""
"751","img/90_60.png","70","image-keyboard-response","255","217632","0.0-6.0-1.124","LIGR","3","f","rechts","24","","","object","f","90","true"
"null","<div style=""font-size:60px;"">+</div>","null","html-keyboard-response","256","217983","0.0-6.0-0.125","LIGR","3","f","rechts","24","","fixation","","","",""
"928","img/30_240.png","74","image-keyboard-response","257","218912","0.0-6.0-1.125","LIGR","3","f","rechts","24","","","object","f","30","false"
"null","<div style=""font-size:60px;"">+</div>","null","html-keyboard-response","258","219214","0.0-6.0-0.126","LIGR","3","f","rechts","24","","fixation","","","",""
"1161","img/60_180.png","70","image-keyboard-response","259","220375","0.0-6.0-1.126","LIGR","3","f","rechts","24","","","object","f","60","true"
"null","<div style=""font-size:60px;"">+</div>","null","html-keyboard-response","260","220776","0.0-6.0-0.127","LIGR","3","f","rechts","24","","fixation","","","",""
"1087","img/60_90.png","74","image-keyboard-response","261","221864","0.0-6.0-1.127","LIGR","3","f","rechts","24","","","object","j","60","true"
"null","<div style=""font-size:60px;"">+</div>","null","html-keyboard-response","262","222266","0.0-6.0-0.128","LIGR","3","f","rechts","24","","fixation","","","",""
"1165","img/60_30.png","70","image-keyboard-response","263","223431","0.0-6.0-1.128","LIGR","3","f","rechts","24","","","object","f","60","true"
"null","<div style=""font-size:60px;"">+</div>","null","html-keyboard-response","264","223783","0.0-6.0-0.129","LIGR","3","f","rechts","24","","fixation","","","",""
"1185","img/60_150.png","74","image-keyboard-response","265","224968","0.0-6.0-1.129","LIGR","3","f","rechts","24","","","object","j","60","true"
"null","<div style=""font-size:60px;"">+</div>","null","html-keyboard-response","266","225270","0.0-6.0-0.130","LIGR","3","f","rechts","24","","fixation","","","",""
"945","img/120_270.png","74","image-keyboard-response","267","226215","0.0-6.0-1.130","LIGR","3","f","rechts","24","","","object","j","120","true"
"null","<div style=""font-size:60px;"">+</div>","null","html-keyboard-response","268","226617","0.0-6.0-0.131","LIGR","3","f","rechts","24","","fixation","","","",""
"770","img/0_30.png","74","image-keyboard-response","269","227387","0.0-6.0-1.131","LIGR","3","f","rechts","24","","","object","j","0","true"
"null","<div style=""font-size:60px;"">+</div>","null","html-keyboard-response","270","227889","0.0-6.0-0.132","LIGR","3","f","rechts","24","","fixation","","","",""
"1394","img/150_240.png","74","image-keyboard-response","271","229283","0.0-6.0-1.132","LIGR","3","f","rechts","24","","","object","j","150","true"
"null","<div style=""font-size:60px;"">+</div>","null","html-keyboard-response","272","229685","0.0-6.0-0.133","LIGR","3","f","rechts","24","","fixation","","","",""
"1213","img/120_30.png","70","image-keyboard-response","273","230898","0.0-6.0-1.133","LIGR","3","f","rechts","24","","","object","f","120","true"
"null","<div style=""font-size:60px;"">+</div>","null","html-keyboard-response","274","231350","0.0-6.0-0.134","LIGR","3","f","rechts","24","","fixation","","","",""
"1341","img/30_180.png","70","image-keyboard-response","275","232691","0.0-6.0-1.134","LIGR","3","f","rechts","24","","","object","f","30","true"
"null","<div style=""font-size:60px;"">+</div>","null","html-keyboard-response","276","233093","0.0-6.0-0.135","LIGR","3","f","rechts","24","","fixation","","","",""
"1066","img/150_120.png","70","image-keyboard-response","277","234159","0.0-6.0-1.135","LIGR","3","f","rechts","24","","","object","f","150","true"
"null","<div style=""font-size:60px;"">+</div>","null","html-keyboard-response","278","234560","0.0-6.0-0.136","LIGR","3","f","rechts","24","","fixation","","","",""
"1069","img/30_120.png","74","image-keyboard-response","279","235630","0.0-6.0-1.136","LIGR","3","f","rechts","24","","","object","j","30","true"
"null","<div style=""font-size:60px;"">+</div>","null","html-keyboard-response","280","235930","0.0-6.0-0.137","LIGR","3","f","rechts","24","","fixation","","","",""
"643","img/0_120.png","74","image-keyboard-response","281","236574","0.0-6.0-1.137","LIGR","3","f","rechts","24","","","object","j","0","true"
"null","<div style=""font-size:60px;"">+</div>","null","html-keyboard-response","282","236876","0.0-6.0-0.138","LIGR","3","f","rechts","24","","fixation","","","",""
"856","img/0_270.png","70","image-keyboard-response","283","237734","0.0-6.0-1.138","LIGR","3","f","rechts","24","","","object","f","0","true"
"null","<div style=""font-size:60px;"">+</div>","null","html-keyboard-response","284","238235","0.0-6.0-0.139","LIGR","3","f","rechts","24","","fixation","","","",""
"1847","img/L120_180.png","74","image-keyboard-response","285","240084","0.0-6.0-1.139","LIGR","3","f","rechts","24","","","object","j","120","true"
"null","<div style=""font-size:60px;"">+</div>","null","html-keyboard-response","286","240486","0.0-6.0-0.140","LIGR","3","f","rechts","24","","fixation","","","",""
"1548","img/L90_180.png","74","image-keyboard-response","287","242035","0.0-6.0-1.140","LIGR","3","f","rechts","24","","","object","j","90","true"
"null","<div style=""font-size:60px;"">+</div>","null","html-keyboard-response","288","242436","0.0-6.0-0.141","LIGR","3","f","rechts","24","","fixation","","","",""
"891","img/30_60.png","74","image-keyboard-response","289","243329","0.0-6.0-1.141","LIGR","3","f","rechts","24","","","object","j","30","true"
"null","<div style=""font-size:60px;"">+</div>","null","html-keyboard-response","290","243630","0.0-6.0-0.142","LIGR","3","f","rechts","24","","fixation","","","",""
"924","img/L150_180.png","74","image-keyboard-response","291","244556","0.0-6.0-1.142","LIGR","3","f","rechts","24","","","object","j","150","true"
"null","<div style=""font-size:60px;"">+</div>","null","html-keyboard-response","292","244957","0.0-6.0-0.143","LIGR","3","f","rechts","24","","fixation","","","",""
"860","img/30_270.png","70","image-keyboard-response","293","245819","0.0-6.0-1.143","LIGR","3","f","rechts","24","","","object","f","30","true"
"null","<div style=""font-size:60px;"">+</div>","null","html-keyboard-response","294","246320","0.0-6.0-0.144","LIGR","3","f","rechts","24","","fixation","","","",""
"1066","img/L60_180.png","74","image-keyboard-response","295","247387","0.0-6.0-1.144","LIGR","3","f","rechts","24","","","object","j","60","true"
"null","<div style=""font-size:60px;"">+</div>","null","html-keyboard-response","296","247839","0.0-6.0-0.145","LIGR","3","f","rechts","24","","fixation","","","",""
"1187","img/120_330.png","74","image-keyboard-response","297","249027","0.0-6.0-1.145","LIGR","3","f","rechts","24","","","object","j","120","true"
"null","<div style=""font-size:60px;"">+</div>","null","html-keyboard-response","298","249329","0.0-6.0-0.146","LIGR","3","f","rechts","24","","fixation","","","",""
"684","img/90_300.png","74","image-keyboard-response","299","250014","0.0-6.0-1.146","LIGR","3","f","rechts","24","","","object","j","90","true"
"null","<div style=""font-size:60px;"">+</div>","null","html-keyboard-response","300","250366","0.0-6.0-0.147","LIGR","3","f","rechts","24","","fixation","","","",""
"681","img/0_150.png","74","image-keyboard-response","301","251048","0.0-6.0-1.147","LIGR","3","f","rechts","24","","","object","j","0","true"
"null","<div style=""font-size:60px;"">+</div>","null","html-keyboard-response","302","251400","0.0-6.0-0.148","LIGR","3","f","rechts","24","","fixation","","","",""
"610","img/0_240.png","70","image-keyboard-response","303","252011","0.0-6.0-1.148","LIGR","3","f","rechts","24","","","object","f","0","true"
"null","<div style=""font-size:60px;"">+</div>","null","html-keyboard-response","304","252513","0.0-6.0-0.149","LIGR","3","f","rechts","24","","fixation","","","",""
"1649","img/90_30.png","70","image-keyboard-response","305","254163","0.0-6.0-1.149","LIGR","3","f","rechts","24","","","object","f","90","true"
"null","<div style=""font-size:60px;"">+</div>","null","html-keyboard-response","306","254515","0.0-6.0-0.150","LIGR","3","f","rechts","24","","fixation","","","",""
"1775","img/150_180.png","70","image-keyboard-response","307","256291","0.0-6.0-1.150","LIGR","3","f","rechts","24","","","object","f","150","true"
"null","<div style=""font-size:60px;"">+</div>","null","html-keyboard-response","308","256743","0.0-6.0-0.151","LIGR","3","f","rechts","24","","fixation","","","",""
"1090","img/120_150.png","70","image-keyboard-response","309","257834","0.0-6.0-1.151","LIGR","3","f","rechts","24","","","object","j","120","false"
"null","<div style=""font-size:60px;"">+</div>","null","html-keyboard-response","310","258336","0.0-6.0-0.152","LIGR","3","f","rechts","24","","fixation","","","",""
"748","img/150_90.png","70","image-keyboard-response","311","259084","0.0-6.0-1.152","LIGR","3","f","rechts","24","","","object","f","150","true"
"null","<div style=""font-size:60px;"">+</div>","null","html-keyboard-response","312","259386","0.0-6.0-0.153","LIGR","3","f","rechts","24","","fixation","","","",""
"1068","img/120_210.png","74","image-keyboard-response","313","260455","0.0-6.0-1.153","LIGR","3","f","rechts","24","","","object","f","120","false"
"null","<div style=""font-size:60px;"">+</div>","null","html-keyboard-response","314","260756","0.0-6.0-0.154","LIGR","3","f","rechts","24","","fixation","","","",""
"1120","img/90_330.png","74","image-keyboard-response","315","261877","0.0-6.0-1.154","LIGR","3","f","rechts","24","","","object","j","90","true"
"null","<div style=""font-size:60px;"">+</div>","null","html-keyboard-response","316","262328","0.0-6.0-0.155","LIGR","3","f","rechts","24","","fixation","","","",""
"674","img/60_330.png","74","image-keyboard-response","317","263002","0.0-6.0-1.155","LIGR","3","f","rechts","24","","","object","j","60","true"
"null","<div style=""font-size:60px;"">+</div>","null","html-keyboard-response","318","263304","0.0-6.0-0.156","LIGR","3","f","rechts","24","","fixation","","","",""
"687","img/120_330.png","74","image-keyboard-response","319","263991","0.0-6.0-1.156","LIGR","3","f","rechts","24","","","object","j","120","true"
"null","<div style=""font-size:60px;"">+</div>","null","html-keyboard-response","320","264443","0.0-6.0-0.157","LIGR","3","f","rechts","24","","fixation","","","",""
"786","img/90_60.png","70","image-keyboard-response","321","265229","0.0-6.0-1.157","LIGR","3","f","rechts","24","","","object","f","90","true"
"null","<div style=""font-size:60px;"">+</div>","null","html-keyboard-response","322","265530","0.0-6.0-0.158","LIGR","3","f","rechts","24","","fixation","","","",""
"1064","img/L60_180.png","74","image-keyboard-response","323","266594","0.0-6.0-1.158","LIGR","3","f","rechts","24","","","object","j","60","true"
"null","<div style=""font-size:60px;"">+</div>","null","html-keyboard-response","324","266946","0.0-6.0-0.159","LIGR","3","f","rechts","24","","fixation","","","",""
"772","img/90_180.png","70","image-keyboard-response","325","267718","0.0-6.0-1.159","LIGR","3","f","rechts","24","","","object","f","90","true"
"null","<div style=""font-size:60px;"">+</div>","null","html-keyboard-response","326","268170","0.0-6.0-0.160","LIGR","3","f","rechts","24","","fixation","","","",""
"1071","img/90_150.png","74","image-keyboard-response","327","269241","0.0-6.0-1.160","LIGR","3","f","rechts","24","","","object","j","90","true"
"null","<div style=""font-size:60px;"">+</div>","null","html-keyboard-response","328","269643","0.0-6.0-0.161","LIGR","3","f","rechts","24","","fixation","","","",""
"659","img/0_210.png","70","image-keyboard-response","329","270302","0.0-6.0-1.161","LIGR","3","f","rechts","24","","","object","f","0","true"
"null","<div style=""font-size:60px;"">+</div>","null","html-keyboard-response","330","270704","0.0-6.0-0.162","LIGR","3","f","rechts","24","","fixation","","","",""
"878","img/30_270.png","70","image-keyboard-response","331","271583","0.0-6.0-1.162","LIGR","3","f","rechts","24","","","object","f","30","true"
"null","<div style=""font-size:60px;"">+</div>","null","html-keyboard-response","332","272084","0.0-6.0-0.163","LIGR","3","f","rechts","24","","fixation","","","",""
"846","img/60_330.png","74","image-keyboard-response","333","272931","0.0-6.0-1.163","LIGR","3","f","rechts","24","","","object","j","60","true"
"null","<div style=""font-size:60px;"">+</div>","null","html-keyboard-response","334","273383","0.0-6.0-0.164","LIGR","3","f","rechts","24","","fixation","","","",""
"723","img/0_30.png","74","image-keyboard-response","335","274106","0.0-6.0-1.164","LIGR","3","f","rechts","24","","","object","j","0","true"
"null","<div style=""font-size:60px;"">+</div>","null","html-keyboard-response","336","274407","0.0-6.0-0.165","LIGR","3","f","rechts","24","","fixation","","","",""
"1356","img/L30_180.png","74","image-keyboard-response","337","275764","0.0-6.0-1.165","LIGR","3","f","rechts","24","","","object","j","30","true"
"null","<div style=""font-size:60px;"">+</div>","null","html-keyboard-response","338","276265","0.0-6.0-0.166","LIGR","3","f","rechts","24","","fixation","","","",""
"1076","img/L90_180.png","74","image-keyboard-response","339","277342","0.0-6.0-1.166","LIGR","3","f","rechts","24","","","object","j","90","true"
"null","<div style=""font-size:60px;"">+</div>","null","html-keyboard-response","340","277744","0.0-6.0-0.167","LIGR","3","f","rechts","24","","fixation","","","",""
"635","img/0_270.png","70","image-keyboard-response","341","278379","0.0-6.0-1.167","LIGR","3","f","rechts","24","","","object","f","0","true"
"null","<div style=""font-size:60px;"">+</div>","null","html-keyboard-response","342","278881","0.0-6.0-0.168","LIGR","3","f","rechts","24","","fixation","","","",""
"842","img/90_330.png","74","image-keyboard-response","343","279723","0.0-6.0-1.168","LIGR","3","f","rechts","24","","","object","j","90","true"
"null","<div style=""font-size:60px;"">+</div>","null","html-keyboard-response","344","280075","0.0-6.0-0.169","LIGR","3","f","rechts","24","","fixation","","","",""
"1431","img/150_270.png","74","image-keyboard-response","345","281507","0.0-6.0-1.169","LIGR","3","f","rechts","24","","","object","j","150","true"
"null","<div style=""font-size:60px;"">+</div>","null","html-keyboard-response","346","281808","0.0-6.0-0.170","LIGR","3","f","rechts","24","","fixation","","","",""
"656","img/0_330.png","70","image-keyboard-response","347","282465","0.0-6.0-1.170","LIGR","3","f","rechts","24","","","object","f","0","true"
"null","<div style=""font-size:60px;"">+</div>","null","html-keyboard-response","348","282967","0.0-6.0-0.171","LIGR","3","f","rechts","24","","fixation","","","",""
"1124","img/60_270.png","74","image-keyboard-response","349","284093","0.0-6.0-1.171","LIGR","3","f","rechts","24","","","object","f","60","false"
"null","<div style=""font-size:60px;"">+</div>","null","html-keyboard-response","350","284444","0.0-6.0-0.172","LIGR","3","f","rechts","24","","fixation","","","",""
"1538","img/L120_180.png","74","image-keyboard-response","351","285983","0.0-6.0-1.172","LIGR","3","f","rechts","24","","","object","j","120","true"
"null","<div style=""font-size:60px;"">+</div>","null","html-keyboard-response","352","286385","0.0-6.0-0.173","LIGR","3","f","rechts","24","","fixation","","","",""
"658","img/0_300.png","70","image-keyboard-response","353","287044","0.0-6.0-1.173","LIGR","3","f","rechts","24","","","object","f","0","true"
"null","<div style=""font-size:60px;"">+</div>","null","html-keyboard-response","354","287395","0.0-6.0-0.174","LIGR","3","f","rechts","24","","fixation","","","",""
"1214","img/120_210.png","74","image-keyboard-response","355","288611","0.0-6.0-1.174","LIGR","3","f","rechts","24","","","object","f","120","false"
"null","<div style=""font-size:60px;"">+</div>","null","html-keyboard-response","356","289062","0.0-6.0-0.175","LIGR","3","f","rechts","24","","fixation","","","",""
"819","img/150_300.png","74","image-keyboard-response","357","289882","0.0-6.0-1.175","LIGR","3","f","rechts","24","","","object","j","150","true"
"null","<div style=""font-size:60px;"">+</div>","null","html-keyboard-response","358","290383","0.0-6.0-0.176","LIGR","3","f","rechts","24","","fixation","","","",""
"760","img/60_30.png","70","image-keyboard-response","359","291145","0.0-6.0-1.176","LIGR","3","f","rechts","24","","","object","f","60","true"
"null","<div style=""font-size:60px;"">+</div>","null","html-keyboard-response","360","291496","0.0-6.0-0.177","LIGR","3","f","rechts","24","","fixation","","","",""
"1235","img/60_90.png","70","image-keyboard-response","361","292732","0.0-6.0-1.177","LIGR","3","f","rechts","24","","","object","j","60","false"
"null","<div style=""font-size:60px;"">+</div>","null","html-keyboard-response","362","293234","0.0-6.0-0.178","LIGR","3","f","rechts","24","","fixation","","","",""
"979","img/30_300.png","70","image-keyboard-response","363","294213","0.0-6.0-1.178","LIGR","3","f","rechts","24","","","object","f","30","true"
"null","<div style=""font-size:60px;"">+</div>","null","html-keyboard-response","364","294665","0.0-6.0-0.179","LIGR","3","f","rechts","24","","fixation","","","",""
"1075","img/150_240.png","74","image-keyboard-response","365","295741","0.0-6.0-1.179","LIGR","3","f","rechts","24","","","object","j","150","true"
"null","<div style=""font-size:60px;"">+</div>","null","html-keyboard-response","366","296043","0.0-6.0-0.180","LIGR","3","f","rechts","24","","fixation","","","",""
"687","img/90_30.png","70","image-keyboard-response","367","296730","0.0-6.0-1.180","LIGR","3","f","rechts","24","","","object","f","90","true"
"null","<div style=""font-size:60px;"">+</div>","null","html-keyboard-response","368","297031","0.0-6.0-0.181","LIGR","3","f","rechts","24","","fixation","","","",""
"1328","img/120_90.png","70","image-keyboard-response","369","298361","0.0-6.0-1.181","LIGR","3","f","rechts","24","","","object","f","120","true"
"null","<div style=""font-size:60px;"">+</div>","null","html-keyboard-response","370","298762","0.0-6.0-0.182","LIGR","3","f","rechts","24","","fixation","","","",""
"1458","img/150_180.png","70","image-keyboard-response","371","300221","0.0-6.0-1.182","LIGR","3","f","rechts","24","","","object","f","150","true"
"null","<div style=""font-size:60px;"">+</div>","null","html-keyboard-response","372","300573","0.0-6.0-0.183","LIGR","3","f","rechts","24","","fixation","","","",""
"787","img/0_90.png","74","image-keyboard-response","373","301361","0.0-6.0-1.183","LIGR","3","f","rechts","24","","","object","j","0","true"
"null","<div style=""font-size:60px;"">+</div>","null","html-keyboard-response","374","301763","0.0-6.0-0.184","LIGR","3","f","rechts","24","","fixation","","","",""
"889","img/150_60.png","70","image-keyboard-response","375","302652","0.0-6.0-1.184","LIGR","3","f","rechts","24","","","object","f","150","true"
"null","<div style=""font-size:60px;"">+</div>","null","html-keyboard-response","376","302954","0.0-6.0-0.185","LIGR","3","f","rechts","24","","fixation","","","",""
"1215","img/90_210.png","74","image-keyboard-response","377","304170","0.0-6.0-1.185","LIGR","3","f","rechts","24","","","object","f","90","false"
"null","<div style=""font-size:60px;"">+</div>","null","html-keyboard-response","378","304522","0.0-6.0-0.186","LIGR","3","f","rechts","24","","fixation","","","",""
"786","img/90_240.png","74","image-keyboard-response","379","305309","0.0-6.0-1.186","LIGR","3","f","rechts","24","","","object","f","90","false"
"null","<div style=""font-size:60px;"">+</div>","null","html-keyboard-response","380","305611","0.0-6.0-0.187","LIGR","3","f","rechts","24","","fixation","","","",""
"676","img/0_120.png","74","image-keyboard-response","381","306288","0.0-6.0-1.187","LIGR","3","f","rechts","24","","","object","j","0","true"
"null","<div style=""font-size:60px;"">+</div>","null","html-keyboard-response","382","306590","0.0-6.0-0.188","LIGR","3","f","rechts","24","","fixation","","","",""
"812","img/L150_180.png","70","image-keyboard-response","383","307402","0.0-6.0-1.188","LIGR","3","f","rechts","24","","","object","j","150","false"
"null","<div style=""font-size:60px;"">+</div>","null","html-keyboard-response","384","307704","0.0-6.0-0.189","LIGR","3","f","rechts","24","","fixation","","","",""
"858","img/120_30.png","70","image-keyboard-response","385","308563","0.0-6.0-1.189","LIGR","3","f","rechts","24","","","object","f","120","true"
"null","<div style=""font-size:60px;"">+</div>","null","html-keyboard-response","386","309015","0.0-6.0-0.190","LIGR","3","f","rechts","24","","fixation","","","",""
"658","img/0_150.png","74","image-keyboard-response","387","309674","0.0-6.0-1.190","LIGR","3","f","rechts","24","","","object","j","0","true"
"null","<div style=""font-size:60px;"">+</div>","null","html-keyboard-response","388","310076","0.0-6.0-0.191","LIGR","3","f","rechts","24","","fixation","","","",""
"645","img/0_60.png","74","image-keyboard-response","389","310721","0.0-6.0-1.191","LIGR","3","f","rechts","24","","","object","j","0","true"
"null","<div style=""font-size:60px;"">+</div>","null","html-keyboard-response","390","311223","0.0-6.0-0.192","LIGR","3","f","rechts","24","","fixation","","","",""
"967","img/30_120.png","74","image-keyboard-response","391","312190","0.0-6.0-1.192","LIGR","3","f","rechts","24","","","object","j","30","true"
"null","<div style=""font-size:60px;"">+</div>","null","html-keyboard-response","392","312542","0.0-6.0-0.193","LIGR","3","f","rechts","24","","fixation","","","",""
"629","img/0_240.png","70","image-keyboard-response","393","313171","0.0-6.0-1.193","LIGR","3","f","rechts","24","","","object","f","0","true"
"null","<div style=""font-size:60px;"">+</div>","null","html-keyboard-response","394","313622","0.0-6.0-0.194","LIGR","3","f","rechts","24","","fixation","","","",""
"838","img/150_120.png","74","image-keyboard-response","395","314460","0.0-6.0-1.194","LIGR","3","f","rechts","24","","","object","f","150","false"
"null","<div style=""font-size:60px;"">+</div>","null","html-keyboard-response","396","314862","0.0-6.0-0.195","LIGR","3","f","rechts","24","","fixation","","","",""
"1341","img/60_150.png","74","image-keyboard-response","397","316203","0.0-6.0-1.195","LIGR","3","f","rechts","24","","","object","j","60","true"
"null","<div style=""font-size:60px;"">+</div>","null","html-keyboard-response","398","316705","0.0-6.0-0.196","LIGR","3","f","rechts","24","","fixation","","","",""
"793","img/30_240.png","70","image-keyboard-response","399","317498","0.0-6.0-1.196","LIGR","3","f","rechts","24","","","object","f","30","true"
"null","<div style=""font-size:60px;"">+</div>","null","html-keyboard-response","400","318000","0.0-6.0-0.197","LIGR","3","f","rechts","24","","fixation","","","",""
"1149","img/30_180.png","70","image-keyboard-response","401","319149","0.0-6.0-1.197","LIGR","3","f","rechts","24","","","object","f","30","true"
"null","<div style=""font-size:60px;"">+</div>","null","html-keyboard-response","402","319451","0.0-6.0-0.198","LIGR","3","f","rechts","24","","fixation","","","",""
"1513","img/120_180.png","70","image-keyboard-response","403","320964","0.0-6.0-1.198","LIGR","3","f","rechts","24","","","object","f","120","true"
"null","<div style=""font-size:60px;"">+</div>","null","html-keyboard-response","404","321316","0.0-6.0-0.199","LIGR","3","f","rechts","24","","fixation","","","",""
"759","img/60_180.png","70","image-keyboard-response","405","322076","0.0-6.0-1.199","LIGR","3","f","rechts","24","","","object","f","60","true"
"null","<div style=""font-size:60px;"">+</div>","null","html-keyboard-response","406","322577","0.0-6.0-0.200","LIGR","3","f","rechts","24","","fixation","","","",""
"926","img/60_210.png","70","image-keyboard-response","407","323504","0.0-6.0-1.200","LIGR","3","f","rechts","24","","","object","f","60","true"
"null","<div style=""font-size:60px;"">+</div>","null","html-keyboard-response","408","323956","0.0-6.0-0.201","LIGR","3","f","rechts","24","","fixation","","","",""
"685","img/90_300.png","74","image-keyboard-response","409","324641","0.0-6.0-1.201","LIGR","3","f","rechts","24","","","object","j","90","true"
"null","<div style=""font-size:60px;"">+</div>","null","html-keyboard-response","410","325043","0.0-6.0-0.202","LIGR","3","f","rechts","24","","fixation","","","",""
"979","img/30_90.png","74","image-keyboard-response","411","326022","0.0-6.0-1.202","LIGR","3","f","rechts","24","","","object","j","30","true"
"null","<div style=""font-size:60px;"">+</div>","null","html-keyboard-response","412","326323","0.0-6.0-0.203","LIGR","3","f","rechts","24","","fixation","","","",""
"786","img/120_270.png","70","image-keyboard-response","413","327110","0.0-6.0-1.203","LIGR","3","f","rechts","24","","","object","j","120","false"
"null","<div style=""font-size:60px;"">+</div>","null","html-keyboard-response","414","327461","0.0-6.0-0.204","LIGR","3","f","rechts","24","","fixation","","","",""
"1941","img/120_150.png","74","image-keyboard-response","415","329403","0.0-6.0-1.204","LIGR","3","f","rechts","24","","","object","j","120","true"
"null","<div style=""font-size:60px;"">+</div>","null","html-keyboard-response","416","329805","0.0-6.0-0.205","LIGR","3","f","rechts","24","","fixation","","","",""
"1007","img/150_90.png","70","image-keyboard-response","417","330812","0.0-6.0-1.205","LIGR","3","f","rechts","24","","","object","f","150","true"
"null","<div style=""font-size:60px;"">+</div>","null","html-keyboard-response","418","331213","0.0-6.0-0.206","LIGR","3","f","rechts","24","","fixation","","","",""
"1475","img/90_120.png","70","image-keyboard-response","419","332690","0.0-6.0-1.206","LIGR","3","f","rechts","24","","","object","j","90","false"
"null","<div style=""font-size:60px;"">+</div>","null","html-keyboard-response","420","333191","0.0-6.0-0.207","LIGR","3","f","rechts","24","","fixation","","","",""
"803","img/30_60.png","74","image-keyboard-response","421","333996","0.0-6.0-1.207","LIGR","3","f","rechts","24","","","object","j","30","true"
"6012","<p>Du hast in 82% der Versuche korrekt entschieden.</p><p>Deine durchschnittliche Reaktionszeit war  989ms.</p><p>Dr&uuml;cke eine beliebige Taste, um die Session zu beenden. Vielen Dank!</p>","74","html-keyboard-response","422","340010","0.0-7.0","LIGR","3","f","rechts","24","","","","","",""
