"rt","stimulus","key_press","trial_type","trial_index","time_elapsed","internal_node_id","subject","session","sex","handedness","age","responses","test_part","condition","correct_response","angle","correct"
"2579","<p>Mental Rotation Experiment.</p> <p>Dr&uuml;cke eine beliebige Taste, um anzufangen.</p>","71","html-keyboard-response","0","2580","0.0-0.0","LIGR","4","f","rechts","24","","","","","",""
"5805","","","survey-text","1","8388","0.0-1.0","LIGR","4","f","rechts","24","{""Q0"":""LIGR""}","","","","",""
"2214","","","survey-text","2","10603","0.0-2.0","LIGR","4","f","rechts","24","{""Q0"":""4""}","","","","",""
"18874","","","survey-multi-choice","3","29480","0.0-3.0","LIGR","4","f","rechts","24","{""Q0"":""f"",""Q1"":""rechts""}","","","","",""
"2944","","","survey-text","4","32426","0.0-4.0","LIGR","4","f","rechts","24","{""Q0"":""24""}","","","","",""
"52188","<p>Stell dir vor, dass du vor einem runden Tisch stehst, auf dem sich ein blauer Ball am Tischrand befindet. Entlang des Tischrands ist jeweils ein verschieden langer Pfeil. Nun bleibst du an deinem Platz vor dem Tisch und rotierst den Tisch entlang des Pfeils (gleiche Richtung und Länge). </p> <img src='img/30_180.png'></img> <br><p> Nachdem du diese (vorgestellte) Rotation durchgef&uuml;hrt hast, schau in Richtung der Tischmitte, und entscheide dann, ob der Ball links oder rechts von dir liegt.</p> <p>Dr&uuml;cke die <strong>'f'</strong>-Taste f&uuml;r links, die <strong>'j'</strong>-Taste f&uuml;r rechts.</p><br><p> Das Bild wird jeweils 1 Sekunde lang pr&auml;sentiert. Du hast 3 Sekunden Zeit eine Entscheidung zu treffen.</p>","32","html-keyboard-response","5","84615","0.0-5.0","LIGR","4","f","rechts","24","","","","","",""
"null","<div style=""font-size:60px;"">+</div>","null","html-keyboard-response","6","86119","0.0-6.0-0.0","LIGR","4","f","rechts","24","","fixation","","","",""
"915","img/30_240.png","70","image-keyboard-response","7","87036","0.0-6.0-1.0","LIGR","4","f","rechts","24","","","object","f","30","true"
"null","<div style=""font-size:60px;"">+</div>","null","html-keyboard-response","8","87337","0.0-6.0-0.1","LIGR","4","f","rechts","24","","fixation","","","",""
"941","img/120_90.png","70","image-keyboard-response","9","88280","0.0-6.0-1.1","LIGR","4","f","rechts","24","","","object","f","120","true"
"null","<div style=""font-size:60px;"">+</div>","null","html-keyboard-response","10","88732","0.0-6.0-0.2","LIGR","4","f","rechts","24","","fixation","","","",""
"1064","img/90_30.png","70","image-keyboard-response","11","89797","0.0-6.0-1.2","LIGR","4","f","rechts","24","","","object","f","90","true"
"null","<div style=""font-size:60px;"">+</div>","null","html-keyboard-response","12","90099","0.0-6.0-0.3","LIGR","4","f","rechts","24","","fixation","","","",""
"1105","img/90_240.png","70","image-keyboard-response","13","91205","0.0-6.0-1.3","LIGR","4","f","rechts","24","","","object","f","90","true"
"null","<div style=""font-size:60px;"">+</div>","null","html-keyboard-response","14","91707","0.0-6.0-0.4","LIGR","4","f","rechts","24","","fixation","","","",""
"824","img/120_270.png","74","image-keyboard-response","15","92533","0.0-6.0-1.4","LIGR","4","f","rechts","24","","","object","j","120","true"
"null","<div style=""font-size:60px;"">+</div>","null","html-keyboard-response","16","92884","0.0-6.0-0.5","LIGR","4","f","rechts","24","","fixation","","","",""
"778","img/0_60.png","74","image-keyboard-response","17","93664","0.0-6.0-1.5","LIGR","4","f","rechts","24","","","object","j","0","true"
"null","<div style=""font-size:60px;"">+</div>","null","html-keyboard-response","18","94015","0.0-6.0-0.6","LIGR","4","f","rechts","24","","fixation","","","",""
"973","img/60_210.png","70","image-keyboard-response","19","94990","0.0-6.0-1.6","LIGR","4","f","rechts","24","","","object","f","60","true"
"null","<div style=""font-size:60px;"">+</div>","null","html-keyboard-response","20","95340","0.0-6.0-0.7","LIGR","4","f","rechts","24","","fixation","","","",""
"610","img/0_30.png","74","image-keyboard-response","21","95952","0.0-6.0-1.7","LIGR","4","f","rechts","24","","","object","j","0","true"
"null","<div style=""font-size:60px;"">+</div>","null","html-keyboard-response","22","96253","0.0-6.0-0.8","LIGR","4","f","rechts","24","","fixation","","","",""
"1307","img/150_60.png","70","image-keyboard-response","23","97561","0.0-6.0-1.8","LIGR","4","f","rechts","24","","","object","f","150","true"
"null","<div style=""font-size:60px;"">+</div>","null","html-keyboard-response","24","97913","0.0-6.0-0.9","LIGR","4","f","rechts","24","","fixation","","","",""
"975","img/90_180.png","70","image-keyboard-response","25","98890","0.0-6.0-1.9","LIGR","4","f","rechts","24","","","object","f","90","true"
"null","<div style=""font-size:60px;"">+</div>","null","html-keyboard-response","26","99191","0.0-6.0-0.10","LIGR","4","f","rechts","24","","fixation","","","",""
"729","img/90_330.png","74","image-keyboard-response","27","99921","0.0-6.0-1.10","LIGR","4","f","rechts","24","","","object","j","90","true"
"null","<div style=""font-size:60px;"">+</div>","null","html-keyboard-response","28","100423","0.0-6.0-0.11","LIGR","4","f","rechts","24","","fixation","","","",""
"596","img/0_90.png","74","image-keyboard-response","29","101020","0.0-6.0-1.11","LIGR","4","f","rechts","24","","","object","j","0","true"
"null","<div style=""font-size:60px;"">+</div>","null","html-keyboard-response","30","101472","0.0-6.0-0.12","LIGR","4","f","rechts","24","","fixation","","","",""
"901","img/60_150.png","74","image-keyboard-response","31","102374","0.0-6.0-1.12","LIGR","4","f","rechts","24","","","object","j","60","true"
"null","<div style=""font-size:60px;"">+</div>","null","html-keyboard-response","32","102826","0.0-6.0-0.13","LIGR","4","f","rechts","24","","fixation","","","",""
"1245","img/90_120.png","70","image-keyboard-response","33","104072","0.0-6.0-1.13","LIGR","4","f","rechts","24","","","object","j","90","false"
"null","<div style=""font-size:60px;"">+</div>","null","html-keyboard-response","34","104424","0.0-6.0-0.14","LIGR","4","f","rechts","24","","fixation","","","",""
"859","img/150_240.png","74","image-keyboard-response","35","105284","0.0-6.0-1.14","LIGR","4","f","rechts","24","","","object","j","150","true"
"null","<div style=""font-size:60px;"">+</div>","null","html-keyboard-response","36","105586","0.0-6.0-0.15","LIGR","4","f","rechts","24","","fixation","","","",""
"1003","img/120_150.png","70","image-keyboard-response","37","106591","0.0-6.0-1.15","LIGR","4","f","rechts","24","","","object","j","120","false"
"null","<div style=""font-size:60px;"">+</div>","null","html-keyboard-response","38","106943","0.0-6.0-0.16","LIGR","4","f","rechts","24","","fixation","","","",""
"1078","img/30_60.png","74","image-keyboard-response","39","108022","0.0-6.0-1.16","LIGR","4","f","rechts","24","","","object","j","30","true"
"null","<div style=""font-size:60px;"">+</div>","null","html-keyboard-response","40","108324","0.0-6.0-0.17","LIGR","4","f","rechts","24","","fixation","","","",""
"952","img/120_180.png","70","image-keyboard-response","41","109277","0.0-6.0-1.17","LIGR","4","f","rechts","24","","","object","f","120","true"
"null","<div style=""font-size:60px;"">+</div>","null","html-keyboard-response","42","109629","0.0-6.0-0.18","LIGR","4","f","rechts","24","","fixation","","","",""
"945","img/150_90.png","70","image-keyboard-response","43","110576","0.0-6.0-1.18","LIGR","4","f","rechts","24","","","object","f","150","true"
"null","<div style=""font-size:60px;"">+</div>","null","html-keyboard-response","44","110927","0.0-6.0-0.19","LIGR","4","f","rechts","24","","fixation","","","",""
"null","img/60_90.png","null","image-keyboard-response","45","113931","0.0-6.0-1.19","LIGR","4","f","rechts","24","","","object","j","60","false"
"null","<div style=""font-size:60px;"">+</div>","null","html-keyboard-response","46","114432","0.0-6.0-0.20","LIGR","4","f","rechts","24","","fixation","","","",""
"1077","img/30_90.png","74","image-keyboard-response","47","115511","0.0-6.0-1.20","LIGR","4","f","rechts","24","","","object","j","30","true"
"null","<div style=""font-size:60px;"">+</div>","null","html-keyboard-response","48","115912","0.0-6.0-0.21","LIGR","4","f","rechts","24","","fixation","","","",""
"834","img/30_120.png","74","image-keyboard-response","49","116747","0.0-6.0-1.21","LIGR","4","f","rechts","24","","","object","j","30","true"
"null","<div style=""font-size:60px;"">+</div>","null","html-keyboard-response","50","117199","0.0-6.0-0.22","LIGR","4","f","rechts","24","","fixation","","","",""
"822","img/30_300.png","70","image-keyboard-response","51","118023","0.0-6.0-1.22","LIGR","4","f","rechts","24","","","object","f","30","true"
"null","<div style=""font-size:60px;"">+</div>","null","html-keyboard-response","52","118374","0.0-6.0-0.23","LIGR","4","f","rechts","24","","fixation","","","",""
"1253","img/90_150.png","74","image-keyboard-response","53","119629","0.0-6.0-1.23","LIGR","4","f","rechts","24","","","object","j","90","true"
"null","<div style=""font-size:60px;"">+</div>","null","html-keyboard-response","54","120029","0.0-6.0-0.24","LIGR","4","f","rechts","24","","fixation","","","",""
"686","img/0_120.png","74","image-keyboard-response","55","120716","0.0-6.0-1.24","LIGR","4","f","rechts","24","","","object","j","0","true"
"null","<div style=""font-size:60px;"">+</div>","null","html-keyboard-response","56","121117","0.0-6.0-0.25","LIGR","4","f","rechts","24","","fixation","","","",""
"823","img/0_240.png","70","image-keyboard-response","57","121941","0.0-6.0-1.25","LIGR","4","f","rechts","24","","","object","f","0","true"
"null","<div style=""font-size:60px;"">+</div>","null","html-keyboard-response","58","122442","0.0-6.0-0.26","LIGR","4","f","rechts","24","","fixation","","","",""
"1315","img/L120_180.png","74","image-keyboard-response","59","123758","0.0-6.0-1.26","LIGR","4","f","rechts","24","","","object","j","120","true"
"null","<div style=""font-size:60px;"">+</div>","null","html-keyboard-response","60","124210","0.0-6.0-0.27","LIGR","4","f","rechts","24","","fixation","","","",""
"1216","img/90_210.png","70","image-keyboard-response","61","125426","0.0-6.0-1.27","LIGR","4","f","rechts","24","","","object","f","90","true"
"null","<div style=""font-size:60px;"">+</div>","null","html-keyboard-response","62","125927","0.0-6.0-0.28","LIGR","4","f","rechts","24","","fixation","","","",""
"1079","img/150_120.png","70","image-keyboard-response","63","127007","0.0-6.0-1.28","LIGR","4","f","rechts","24","","","object","f","150","true"
"null","<div style=""font-size:60px;"">+</div>","null","html-keyboard-response","64","127509","0.0-6.0-0.29","LIGR","4","f","rechts","24","","fixation","","","",""
"1360","img/L90_180.png","74","image-keyboard-response","65","128870","0.0-6.0-1.29","LIGR","4","f","rechts","24","","","object","j","90","true"
"null","<div style=""font-size:60px;"">+</div>","null","html-keyboard-response","66","129272","0.0-6.0-0.30","LIGR","4","f","rechts","24","","fixation","","","",""
"1069","img/30_270.png","74","image-keyboard-response","67","130342","0.0-6.0-1.30","LIGR","4","f","rechts","24","","","object","f","30","false"
"null","<div style=""font-size:60px;"">+</div>","null","html-keyboard-response","68","130794","0.0-6.0-0.31","LIGR","4","f","rechts","24","","fixation","","","",""
"793","img/0_300.png","70","image-keyboard-response","69","131588","0.0-6.0-1.31","LIGR","4","f","rechts","24","","","object","f","0","true"
"null","<div style=""font-size:60px;"">+</div>","null","html-keyboard-response","70","132040","0.0-6.0-0.32","LIGR","4","f","rechts","24","","fixation","","","",""
"732","img/90_300.png","74","image-keyboard-response","71","132773","0.0-6.0-1.32","LIGR","4","f","rechts","24","","","object","j","90","true"
"null","<div style=""font-size:60px;"">+</div>","null","html-keyboard-response","72","133175","0.0-6.0-0.33","LIGR","4","f","rechts","24","","fixation","","","",""
"1179","img/L60_180.png","74","image-keyboard-response","73","134355","0.0-6.0-1.33","LIGR","4","f","rechts","24","","","object","j","60","true"
"null","<div style=""font-size:60px;"">+</div>","null","html-keyboard-response","74","134757","0.0-6.0-0.34","LIGR","4","f","rechts","24","","fixation","","","",""
"781","img/120_330.png","74","image-keyboard-response","75","135539","0.0-6.0-1.34","LIGR","4","f","rechts","24","","","object","j","120","true"
"null","<div style=""font-size:60px;"">+</div>","null","html-keyboard-response","76","135841","0.0-6.0-0.35","LIGR","4","f","rechts","24","","fixation","","","",""
"1542","img/60_270.png","74","image-keyboard-response","77","137383","0.0-6.0-1.35","LIGR","4","f","rechts","24","","","object","f","60","false"
"null","<div style=""font-size:60px;"">+</div>","null","html-keyboard-response","78","137885","0.0-6.0-0.36","LIGR","4","f","rechts","24","","fixation","","","",""
"807","img/0_330.png","70","image-keyboard-response","79","138693","0.0-6.0-1.36","LIGR","4","f","rechts","24","","","object","f","0","true"
"null","<div style=""font-size:60px;"">+</div>","null","html-keyboard-response","80","139045","0.0-6.0-0.37","LIGR","4","f","rechts","24","","fixation","","","",""
"982","img/120_210.png","70","image-keyboard-response","81","140028","0.0-6.0-1.37","LIGR","4","f","rechts","24","","","object","f","120","true"
"null","<div style=""font-size:60px;"">+</div>","null","html-keyboard-response","82","140380","0.0-6.0-0.38","LIGR","4","f","rechts","24","","fixation","","","",""
"1072","img/60_180.png","70","image-keyboard-response","83","141453","0.0-6.0-1.38","LIGR","4","f","rechts","24","","","object","f","60","true"
"null","<div style=""font-size:60px;"">+</div>","null","html-keyboard-response","84","141905","0.0-6.0-0.39","LIGR","4","f","rechts","24","","fixation","","","",""
"682","img/0_270.png","70","image-keyboard-response","85","142588","0.0-6.0-1.39","LIGR","4","f","rechts","24","","","object","f","0","true"
"null","<div style=""font-size:60px;"">+</div>","null","html-keyboard-response","86","142990","0.0-6.0-0.40","LIGR","4","f","rechts","24","","fixation","","","",""
"1086","img/120_30.png","70","image-keyboard-response","87","144077","0.0-6.0-1.40","LIGR","4","f","rechts","24","","","object","f","120","true"
"null","<div style=""font-size:60px;"">+</div>","null","html-keyboard-response","88","144579","0.0-6.0-0.41","LIGR","4","f","rechts","24","","fixation","","","",""
"874","img/150_270.png","74","image-keyboard-response","89","145454","0.0-6.0-1.41","LIGR","4","f","rechts","24","","","object","j","150","true"
"null","<div style=""font-size:60px;"">+</div>","null","html-keyboard-response","90","145806","0.0-6.0-0.42","LIGR","4","f","rechts","24","","fixation","","","",""
"1178","img/L150_180.png","74","image-keyboard-response","91","146985","0.0-6.0-1.42","LIGR","4","f","rechts","24","","","object","j","150","true"
"null","<div style=""font-size:60px;"">+</div>","null","html-keyboard-response","92","147487","0.0-6.0-0.43","LIGR","4","f","rechts","24","","fixation","","","",""
"1412","img/90_60.png","70","image-keyboard-response","93","148900","0.0-6.0-1.43","LIGR","4","f","rechts","24","","","object","f","90","true"
"null","<div style=""font-size:60px;"">+</div>","null","html-keyboard-response","94","149202","0.0-6.0-0.44","LIGR","4","f","rechts","24","","fixation","","","",""
"732","img/60_330.png","74","image-keyboard-response","95","149936","0.0-6.0-1.44","LIGR","4","f","rechts","24","","","object","j","60","true"
"null","<div style=""font-size:60px;"">+</div>","null","html-keyboard-response","96","150287","0.0-6.0-0.45","LIGR","4","f","rechts","24","","fixation","","","",""
"684","img/0_150.png","74","image-keyboard-response","97","150972","0.0-6.0-1.45","LIGR","4","f","rechts","24","","","object","j","0","true"
"null","<div style=""font-size:60px;"">+</div>","null","html-keyboard-response","98","151374","0.0-6.0-0.46","LIGR","4","f","rechts","24","","fixation","","","",""
"687","img/60_30.png","70","image-keyboard-response","99","152062","0.0-6.0-1.46","LIGR","4","f","rechts","24","","","object","f","60","true"
"null","<div style=""font-size:60px;"">+</div>","null","html-keyboard-response","100","152414","0.0-6.0-0.47","LIGR","4","f","rechts","24","","fixation","","","",""
"647","img/L30_180.png","70","image-keyboard-response","101","153062","0.0-6.0-1.47","LIGR","4","f","rechts","24","","","object","j","30","false"
"null","<div style=""font-size:60px;"">+</div>","null","html-keyboard-response","102","153564","0.0-6.0-0.48","LIGR","4","f","rechts","24","","fixation","","","",""
"796","img/30_180.png","70","image-keyboard-response","103","154361","0.0-6.0-1.48","LIGR","4","f","rechts","24","","","object","f","30","true"
"null","<div style=""font-size:60px;"">+</div>","null","html-keyboard-response","104","154713","0.0-6.0-0.49","LIGR","4","f","rechts","24","","fixation","","","",""
"720","img/0_210.png","70","image-keyboard-response","105","155434","0.0-6.0-1.49","LIGR","4","f","rechts","24","","","object","f","0","true"
"null","<div style=""font-size:60px;"">+</div>","null","html-keyboard-response","106","155836","0.0-6.0-0.50","LIGR","4","f","rechts","24","","fixation","","","",""
"971","img/150_180.png","70","image-keyboard-response","107","156808","0.0-6.0-1.50","LIGR","4","f","rechts","24","","","object","f","150","true"
"null","<div style=""font-size:60px;"">+</div>","null","html-keyboard-response","108","157159","0.0-6.0-0.51","LIGR","4","f","rechts","24","","fixation","","","",""
"932","img/150_300.png","74","image-keyboard-response","109","158092","0.0-6.0-1.51","LIGR","4","f","rechts","24","","","object","j","150","true"
"null","<div style=""font-size:60px;"">+</div>","null","html-keyboard-response","110","158394","0.0-6.0-0.52","LIGR","4","f","rechts","24","","fixation","","","",""
"964","img/60_150.png","74","image-keyboard-response","111","159358","0.0-6.0-1.52","LIGR","4","f","rechts","24","","","object","j","60","true"
"null","<div style=""font-size:60px;"">+</div>","null","html-keyboard-response","112","159860","0.0-6.0-0.53","LIGR","4","f","rechts","24","","fixation","","","",""
"832","img/120_180.png","70","image-keyboard-response","113","160692","0.0-6.0-1.53","LIGR","4","f","rechts","24","","","object","f","120","true"
"null","<div style=""font-size:60px;"">+</div>","null","html-keyboard-response","114","161094","0.0-6.0-0.54","LIGR","4","f","rechts","24","","fixation","","","",""
"787","img/0_150.png","74","image-keyboard-response","115","161882","0.0-6.0-1.54","LIGR","4","f","rechts","24","","","object","j","0","true"
"null","<div style=""font-size:60px;"">+</div>","null","html-keyboard-response","116","162234","0.0-6.0-0.55","LIGR","4","f","rechts","24","","fixation","","","",""
"722","img/30_270.png","70","image-keyboard-response","117","162957","0.0-6.0-1.55","LIGR","4","f","rechts","24","","","object","f","30","true"
"null","<div style=""font-size:60px;"">+</div>","null","html-keyboard-response","118","163409","0.0-6.0-0.56","LIGR","4","f","rechts","24","","fixation","","","",""
"890","img/30_120.png","74","image-keyboard-response","119","164299","0.0-6.0-1.56","LIGR","4","f","rechts","24","","","object","j","30","true"
"null","<div style=""font-size:60px;"">+</div>","null","html-keyboard-response","120","164601","0.0-6.0-0.57","LIGR","4","f","rechts","24","","fixation","","","",""
"740","img/0_240.png","70","image-keyboard-response","121","165341","0.0-6.0-1.57","LIGR","4","f","rechts","24","","","object","f","0","true"
"null","<div style=""font-size:60px;"">+</div>","null","html-keyboard-response","122","165743","0.0-6.0-0.58","LIGR","4","f","rechts","24","","fixation","","","",""
"875","img/60_30.png","70","image-keyboard-response","123","166619","0.0-6.0-1.58","LIGR","4","f","rechts","24","","","object","f","60","true"
"null","<div style=""font-size:60px;"">+</div>","null","html-keyboard-response","124","167021","0.0-6.0-0.59","LIGR","4","f","rechts","24","","fixation","","","",""
"931","img/120_90.png","70","image-keyboard-response","125","167953","0.0-6.0-1.59","LIGR","4","f","rechts","24","","","object","f","120","true"
"null","<div style=""font-size:60px;"">+</div>","null","html-keyboard-response","126","168405","0.0-6.0-0.60","LIGR","4","f","rechts","24","","fixation","","","",""
"982","img/60_270.png","74","image-keyboard-response","127","169387","0.0-6.0-1.60","LIGR","4","f","rechts","24","","","object","f","60","false"
"null","<div style=""font-size:60px;"">+</div>","null","html-keyboard-response","128","169889","0.0-6.0-0.61","LIGR","4","f","rechts","24","","fixation","","","",""
"1151","img/150_240.png","74","image-keyboard-response","129","171040","0.0-6.0-1.61","LIGR","4","f","rechts","24","","","object","j","150","true"
"null","<div style=""font-size:60px;"">+</div>","null","html-keyboard-response","130","171392","0.0-6.0-0.62","LIGR","4","f","rechts","24","","fixation","","","",""
"1112","img/L120_180.png","74","image-keyboard-response","131","172504","0.0-6.0-1.62","LIGR","4","f","rechts","24","","","object","j","120","true"
"null","<div style=""font-size:60px;"">+</div>","null","html-keyboard-response","132","172905","0.0-6.0-0.63","LIGR","4","f","rechts","24","","fixation","","","",""
"1006","img/30_300.png","70","image-keyboard-response","133","173911","0.0-6.0-1.63","LIGR","4","f","rechts","24","","","object","f","30","true"
"null","<div style=""font-size:60px;"">+</div>","null","html-keyboard-response","134","174263","0.0-6.0-0.64","LIGR","4","f","rechts","24","","fixation","","","",""
"950","img/90_30.png","70","image-keyboard-response","135","175213","0.0-6.0-1.64","LIGR","4","f","rechts","24","","","object","f","90","true"
"null","<div style=""font-size:60px;"">+</div>","null","html-keyboard-response","136","175615","0.0-6.0-0.65","LIGR","4","f","rechts","24","","fixation","","","",""
"1055","img/90_240.png","74","image-keyboard-response","137","176671","0.0-6.0-1.65","LIGR","4","f","rechts","24","","","object","f","90","false"
"null","<div style=""font-size:60px;"">+</div>","null","html-keyboard-response","138","177173","0.0-6.0-0.66","LIGR","4","f","rechts","24","","fixation","","","",""
"604","img/60_330.png","74","image-keyboard-response","139","177778","0.0-6.0-1.66","LIGR","4","f","rechts","24","","","object","j","60","true"
"null","<div style=""font-size:60px;"">+</div>","null","html-keyboard-response","140","178180","0.0-6.0-0.67","LIGR","4","f","rechts","24","","fixation","","","",""
"879","img/30_90.png","74","image-keyboard-response","141","179059","0.0-6.0-1.67","LIGR","4","f","rechts","24","","","object","j","30","true"
"null","<div style=""font-size:60px;"">+</div>","null","html-keyboard-response","142","179461","0.0-6.0-0.68","LIGR","4","f","rechts","24","","fixation","","","",""
"857","img/90_300.png","74","image-keyboard-response","143","180318","0.0-6.0-1.68","LIGR","4","f","rechts","24","","","object","j","90","true"
"null","<div style=""font-size:60px;"">+</div>","null","html-keyboard-response","144","180620","0.0-6.0-0.69","LIGR","4","f","rechts","24","","fixation","","","",""
"1010","img/60_180.png","70","image-keyboard-response","145","181630","0.0-6.0-1.69","LIGR","4","f","rechts","24","","","object","f","60","true"
"null","<div style=""font-size:60px;"">+</div>","null","html-keyboard-response","146","182081","0.0-6.0-0.70","LIGR","4","f","rechts","24","","fixation","","","",""
"959","img/150_90.png","70","image-keyboard-response","147","183041","0.0-6.0-1.70","LIGR","4","f","rechts","24","","","object","f","150","true"
"null","<div style=""font-size:60px;"">+</div>","null","html-keyboard-response","148","183493","0.0-6.0-0.71","LIGR","4","f","rechts","24","","fixation","","","",""
"902","img/30_240.png","70","image-keyboard-response","149","184395","0.0-6.0-1.71","LIGR","4","f","rechts","24","","","object","f","30","true"
"null","<div style=""font-size:60px;"">+</div>","null","html-keyboard-response","150","184697","0.0-6.0-0.72","LIGR","4","f","rechts","24","","fixation","","","",""
"991","img/90_210.png","70","image-keyboard-response","151","185688","0.0-6.0-1.72","LIGR","4","f","rechts","24","","","object","f","90","true"
"null","<div style=""font-size:60px;"">+</div>","null","html-keyboard-response","152","186190","0.0-6.0-0.73","LIGR","4","f","rechts","24","","fixation","","","",""
"1065","img/150_120.png","70","image-keyboard-response","153","187255","0.0-6.0-1.73","LIGR","4","f","rechts","24","","","object","f","150","true"
"null","<div style=""font-size:60px;"">+</div>","null","html-keyboard-response","154","187557","0.0-6.0-0.74","LIGR","4","f","rechts","24","","fixation","","","",""
"718","img/0_270.png","70","image-keyboard-response","155","188275","0.0-6.0-1.74","LIGR","4","f","rechts","24","","","object","f","0","true"
"null","<div style=""font-size:60px;"">+</div>","null","html-keyboard-response","156","188726","0.0-6.0-0.75","LIGR","4","f","rechts","24","","fixation","","","",""
"855","img/90_330.png","74","image-keyboard-response","157","189583","0.0-6.0-1.75","LIGR","4","f","rechts","24","","","object","j","90","true"
"null","<div style=""font-size:60px;"">+</div>","null","html-keyboard-response","158","189934","0.0-6.0-0.76","LIGR","4","f","rechts","24","","fixation","","","",""
"1921","img/150_180.png","70","image-keyboard-response","159","191856","0.0-6.0-1.76","LIGR","4","f","rechts","24","","","object","f","150","true"
"null","<div style=""font-size:60px;"">+</div>","null","html-keyboard-response","160","192358","0.0-6.0-0.77","LIGR","4","f","rechts","24","","fixation","","","",""
"1128","img/90_120.png","70","image-keyboard-response","161","193487","0.0-6.0-1.77","LIGR","4","f","rechts","24","","","object","j","90","false"
"null","<div style=""font-size:60px;"">+</div>","null","html-keyboard-response","162","193839","0.0-6.0-0.78","LIGR","4","f","rechts","24","","fixation","","","",""
"847","img/90_60.png","70","image-keyboard-response","163","194688","0.0-6.0-1.78","LIGR","4","f","rechts","24","","","object","f","90","true"
"null","<div style=""font-size:60px;"">+</div>","null","html-keyboard-response","164","194989","0.0-6.0-0.79","LIGR","4","f","rechts","24","","fixation","","","",""
"595","img/0_210.png","70","image-keyboard-response","165","195585","0.0-6.0-1.79","LIGR","4","f","rechts","24","","","object","f","0","true"
"null","<div style=""font-size:60px;"">+</div>","null","html-keyboard-response","166","195886","0.0-6.0-0.80","LIGR","4","f","rechts","24","","fixation","","","",""
"524","img/L60_180.png","70","image-keyboard-response","167","196412","0.0-6.0-1.80","LIGR","4","f","rechts","24","","","object","j","60","false"
"null","<div style=""font-size:60px;"">+</div>","null","html-keyboard-response","168","196713","0.0-6.0-0.81","LIGR","4","f","rechts","24","","fixation","","","",""
"1193","img/L90_180.png","74","image-keyboard-response","169","197908","0.0-6.0-1.81","LIGR","4","f","rechts","24","","","object","j","90","true"
"null","<div style=""font-size:60px;"">+</div>","null","html-keyboard-response","170","198259","0.0-6.0-0.82","LIGR","4","f","rechts","24","","fixation","","","",""
"960","img/30_60.png","74","image-keyboard-response","171","199221","0.0-6.0-1.82","LIGR","4","f","rechts","24","","","object","j","30","true"
"null","<div style=""font-size:60px;"">+</div>","null","html-keyboard-response","172","199524","0.0-6.0-0.83","LIGR","4","f","rechts","24","","fixation","","","",""
"639","img/0_330.png","70","image-keyboard-response","173","200163","0.0-6.0-1.83","LIGR","4","f","rechts","24","","","object","f","0","true"
"null","<div style=""font-size:60px;"">+</div>","null","html-keyboard-response","174","200615","0.0-6.0-0.84","LIGR","4","f","rechts","24","","fixation","","","",""
"819","img/120_30.png","70","image-keyboard-response","175","201435","0.0-6.0-1.84","LIGR","4","f","rechts","24","","","object","f","120","true"
"null","<div style=""font-size:60px;"">+</div>","null","html-keyboard-response","176","201937","0.0-6.0-0.85","LIGR","4","f","rechts","24","","fixation","","","",""
"1507","img/60_210.png","70","image-keyboard-response","177","203444","0.0-6.0-1.85","LIGR","4","f","rechts","24","","","object","f","60","true"
"null","<div style=""font-size:60px;"">+</div>","null","html-keyboard-response","178","203846","0.0-6.0-0.86","LIGR","4","f","rechts","24","","fixation","","","",""
"862","img/120_330.png","74","image-keyboard-response","179","204709","0.0-6.0-1.86","LIGR","4","f","rechts","24","","","object","j","120","true"
"null","<div style=""font-size:60px;"">+</div>","null","html-keyboard-response","180","205111","0.0-6.0-0.87","LIGR","4","f","rechts","24","","fixation","","","",""
"948","img/150_300.png","74","image-keyboard-response","181","206059","0.0-6.0-1.87","LIGR","4","f","rechts","24","","","object","j","150","true"
"null","<div style=""font-size:60px;"">+</div>","null","html-keyboard-response","182","206561","0.0-6.0-0.88","LIGR","4","f","rechts","24","","fixation","","","",""
"879","img/120_210.png","70","image-keyboard-response","183","207441","0.0-6.0-1.88","LIGR","4","f","rechts","24","","","object","f","120","true"
"null","<div style=""font-size:60px;"">+</div>","null","html-keyboard-response","184","207843","0.0-6.0-0.89","LIGR","4","f","rechts","24","","fixation","","","",""
"1574","img/L150_180.png","74","image-keyboard-response","185","209418","0.0-6.0-1.89","LIGR","4","f","rechts","24","","","object","j","150","true"
"null","<div style=""font-size:60px;"">+</div>","null","html-keyboard-response","186","209920","0.0-6.0-0.90","LIGR","4","f","rechts","24","","fixation","","","",""
"695","img/150_60.png","70","image-keyboard-response","187","210616","0.0-6.0-1.90","LIGR","4","f","rechts","24","","","object","f","150","true"
"null","<div style=""font-size:60px;"">+</div>","null","html-keyboard-response","188","211068","0.0-6.0-0.91","LIGR","4","f","rechts","24","","fixation","","","",""
"865","img/60_90.png","74","image-keyboard-response","189","211934","0.0-6.0-1.91","LIGR","4","f","rechts","24","","","object","j","60","true"
"null","<div style=""font-size:60px;"">+</div>","null","html-keyboard-response","190","212236","0.0-6.0-0.92","LIGR","4","f","rechts","24","","fixation","","","",""
"1263","img/90_180.png","70","image-keyboard-response","191","213500","0.0-6.0-1.92","LIGR","4","f","rechts","24","","","object","f","90","true"
"null","<div style=""font-size:60px;"">+</div>","null","html-keyboard-response","192","214002","0.0-6.0-0.93","LIGR","4","f","rechts","24","","fixation","","","",""
"976","img/150_270.png","74","image-keyboard-response","193","214979","0.0-6.0-1.93","LIGR","4","f","rechts","24","","","object","j","150","true"
"null","<div style=""font-size:60px;"">+</div>","null","html-keyboard-response","194","215331","0.0-6.0-0.94","LIGR","4","f","rechts","24","","fixation","","","",""
"835","img/30_180.png","70","image-keyboard-response","195","216167","0.0-6.0-1.94","LIGR","4","f","rechts","24","","","object","f","30","true"
"null","<div style=""font-size:60px;"">+</div>","null","html-keyboard-response","196","216669","0.0-6.0-0.95","LIGR","4","f","rechts","24","","fixation","","","",""
"786","img/0_120.png","74","image-keyboard-response","197","217456","0.0-6.0-1.95","LIGR","4","f","rechts","24","","","object","j","0","true"
"null","<div style=""font-size:60px;"">+</div>","null","html-keyboard-response","198","217858","0.0-6.0-0.96","LIGR","4","f","rechts","24","","fixation","","","",""
"916","img/120_270.png","74","image-keyboard-response","199","218774","0.0-6.0-1.96","LIGR","4","f","rechts","24","","","object","j","120","true"
"null","<div style=""font-size:60px;"">+</div>","null","html-keyboard-response","200","219226","0.0-6.0-0.97","LIGR","4","f","rechts","24","","fixation","","","",""
"635","img/0_30.png","74","image-keyboard-response","201","219862","0.0-6.0-1.97","LIGR","4","f","rechts","24","","","object","j","0","true"
"null","<div style=""font-size:60px;"">+</div>","null","html-keyboard-response","202","220364","0.0-6.0-0.98","LIGR","4","f","rechts","24","","fixation","","","",""
"1375","img/L30_180.png","70","image-keyboard-response","203","221739","0.0-6.0-1.98","LIGR","4","f","rechts","24","","","object","j","30","false"
"null","<div style=""font-size:60px;"">+</div>","null","html-keyboard-response","204","222241","0.0-6.0-0.99","LIGR","4","f","rechts","24","","fixation","","","",""
"969","img/0_300.png","70","image-keyboard-response","205","223210","0.0-6.0-1.99","LIGR","4","f","rechts","24","","","object","f","0","true"
"null","<div style=""font-size:60px;"">+</div>","null","html-keyboard-response","206","223711","0.0-6.0-0.100","LIGR","4","f","rechts","24","","fixation","","","",""
"1727","img/0_60.png","74","image-keyboard-response","207","225439","0.0-6.0-1.100","LIGR","4","f","rechts","24","","","object","j","0","true"
"null","<div style=""font-size:60px;"">+</div>","null","html-keyboard-response","208","225940","0.0-6.0-0.101","LIGR","4","f","rechts","24","","fixation","","","",""
"598","img/0_90.png","74","image-keyboard-response","209","226539","0.0-6.0-1.101","LIGR","4","f","rechts","24","","","object","j","0","true"
"null","<div style=""font-size:60px;"">+</div>","null","html-keyboard-response","210","226991","0.0-6.0-0.102","LIGR","4","f","rechts","24","","fixation","","","",""
"1250","img/90_150.png","74","image-keyboard-response","211","228241","0.0-6.0-1.102","LIGR","4","f","rechts","24","","","object","j","90","true"
"null","<div style=""font-size:60px;"">+</div>","null","html-keyboard-response","212","228543","0.0-6.0-0.103","LIGR","4","f","rechts","24","","fixation","","","",""
"1175","img/120_150.png","74","image-keyboard-response","213","229718","0.0-6.0-1.103","LIGR","4","f","rechts","24","","","object","j","120","true"
"null","<div style=""font-size:60px;"">+</div>","null","html-keyboard-response","214","230069","0.0-6.0-0.104","LIGR","4","f","rechts","24","","fixation","","","",""
"1014","img/150_270.png","74","image-keyboard-response","215","231084","0.0-6.0-1.104","LIGR","4","f","rechts","24","","","object","j","150","true"
"null","<div style=""font-size:60px;"">+</div>","null","html-keyboard-response","216","231436","0.0-6.0-0.105","LIGR","4","f","rechts","24","","fixation","","","",""
"910","img/120_330.png","74","image-keyboard-response","217","232346","0.0-6.0-1.105","LIGR","4","f","rechts","24","","","object","j","120","true"
"null","<div style=""font-size:60px;"">+</div>","null","html-keyboard-response","218","232747","0.0-6.0-0.106","LIGR","4","f","rechts","24","","fixation","","","",""
"865","img/90_60.png","70","image-keyboard-response","219","233613","0.0-6.0-1.106","LIGR","4","f","rechts","24","","","object","f","90","true"
"null","<div style=""font-size:60px;"">+</div>","null","html-keyboard-response","220","234115","0.0-6.0-0.107","LIGR","4","f","rechts","24","","fixation","","","",""
"1066","img/120_180.png","70","image-keyboard-response","221","235181","0.0-6.0-1.107","LIGR","4","f","rechts","24","","","object","f","120","true"
"null","<div style=""font-size:60px;"">+</div>","null","html-keyboard-response","222","235582","0.0-6.0-0.108","LIGR","4","f","rechts","24","","fixation","","","",""
"846","img/30_240.png","70","image-keyboard-response","223","236429","0.0-6.0-1.108","LIGR","4","f","rechts","24","","","object","f","30","true"
"null","<div style=""font-size:60px;"">+</div>","null","html-keyboard-response","224","236930","0.0-6.0-0.109","LIGR","4","f","rechts","24","","fixation","","","",""
"806","img/150_60.png","70","image-keyboard-response","225","237738","0.0-6.0-1.109","LIGR","4","f","rechts","24","","","object","f","150","true"
"null","<div style=""font-size:60px;"">+</div>","null","html-keyboard-response","226","238189","0.0-6.0-0.110","LIGR","4","f","rechts","24","","fixation","","","",""
"883","img/30_270.png","70","image-keyboard-response","227","239073","0.0-6.0-1.110","LIGR","4","f","rechts","24","","","object","f","30","true"
"null","<div style=""font-size:60px;"">+</div>","null","html-keyboard-response","228","239524","0.0-6.0-0.111","LIGR","4","f","rechts","24","","fixation","","","",""
"1136","img/L150_180.png","74","image-keyboard-response","229","240661","0.0-6.0-1.111","LIGR","4","f","rechts","24","","","object","j","150","true"
"null","<div style=""font-size:60px;"">+</div>","null","html-keyboard-response","230","241062","0.0-6.0-0.112","LIGR","4","f","rechts","24","","fixation","","","",""
"1180","img/60_180.png","70","image-keyboard-response","231","242243","0.0-6.0-1.112","LIGR","4","f","rechts","24","","","object","f","60","true"
"null","<div style=""font-size:60px;"">+</div>","null","html-keyboard-response","232","242594","0.0-6.0-0.113","LIGR","4","f","rechts","24","","fixation","","","",""
"697","img/60_210.png","70","image-keyboard-response","233","243293","0.0-6.0-1.113","LIGR","4","f","rechts","24","","","object","f","60","true"
"null","<div style=""font-size:60px;"">+</div>","null","html-keyboard-response","234","243694","0.0-6.0-0.114","LIGR","4","f","rechts","24","","fixation","","","",""
"713","img/0_30.png","74","image-keyboard-response","235","244408","0.0-6.0-1.114","LIGR","4","f","rechts","24","","","object","j","0","true"
"null","<div style=""font-size:60px;"">+</div>","null","html-keyboard-response","236","244859","0.0-6.0-0.115","LIGR","4","f","rechts","24","","fixation","","","",""
"1218","img/L60_180.png","74","image-keyboard-response","237","246079","0.0-6.0-1.115","LIGR","4","f","rechts","24","","","object","j","60","true"
"null","<div style=""font-size:60px;"">+</div>","null","html-keyboard-response","238","246380","0.0-6.0-0.116","LIGR","4","f","rechts","24","","fixation","","","",""
"1056","img/150_240.png","70","image-keyboard-response","239","247438","0.0-6.0-1.116","LIGR","4","f","rechts","24","","","object","j","150","false"
"null","<div style=""font-size:60px;"">+</div>","null","html-keyboard-response","240","247939","0.0-6.0-0.117","LIGR","4","f","rechts","24","","fixation","","","",""
"1927","img/60_30.png","70","image-keyboard-response","241","249868","0.0-6.0-1.117","LIGR","4","f","rechts","24","","","object","f","60","true"
"null","<div style=""font-size:60px;"">+</div>","null","html-keyboard-response","242","250169","0.0-6.0-0.118","LIGR","4","f","rechts","24","","fixation","","","",""
"912","img/30_60.png","74","image-keyboard-response","243","251082","0.0-6.0-1.118","LIGR","4","f","rechts","24","","","object","j","30","true"
"null","<div style=""font-size:60px;"">+</div>","null","html-keyboard-response","244","251383","0.0-6.0-0.119","LIGR","4","f","rechts","24","","fixation","","","",""
"972","img/90_240.png","70","image-keyboard-response","245","252355","0.0-6.0-1.119","LIGR","4","f","rechts","24","","","object","f","90","true"
"null","<div style=""font-size:60px;"">+</div>","null","html-keyboard-response","246","252807","0.0-6.0-0.120","LIGR","4","f","rechts","24","","fixation","","","",""
"826","img/0_210.png","70","image-keyboard-response","247","253634","0.0-6.0-1.120","LIGR","4","f","rechts","24","","","object","f","0","true"
"null","<div style=""font-size:60px;"">+</div>","null","html-keyboard-response","248","254036","0.0-6.0-0.121","LIGR","4","f","rechts","24","","fixation","","","",""
"1180","img/90_180.png","70","image-keyboard-response","249","255216","0.0-6.0-1.121","LIGR","4","f","rechts","24","","","object","f","90","true"
"null","<div style=""font-size:60px;"">+</div>","null","html-keyboard-response","250","255518","0.0-6.0-0.122","LIGR","4","f","rechts","24","","fixation","","","",""
"738","img/0_300.png","70","image-keyboard-response","251","256257","0.0-6.0-1.122","LIGR","4","f","rechts","24","","","object","f","0","true"
"null","<div style=""font-size:60px;"">+</div>","null","html-keyboard-response","252","256709","0.0-6.0-0.123","LIGR","4","f","rechts","24","","fixation","","","",""
"781","img/120_210.png","74","image-keyboard-response","253","257491","0.0-6.0-1.123","LIGR","4","f","rechts","24","","","object","f","120","false"
"null","<div style=""font-size:60px;"">+</div>","null","html-keyboard-response","254","257843","0.0-6.0-0.124","LIGR","4","f","rechts","24","","fixation","","","",""
"935","img/30_120.png","74","image-keyboard-response","255","258779","0.0-6.0-1.124","LIGR","4","f","rechts","24","","","object","j","30","true"
"null","<div style=""font-size:60px;"">+</div>","null","html-keyboard-response","256","259080","0.0-6.0-0.125","LIGR","4","f","rechts","24","","fixation","","","",""
"994","img/60_270.png","74","image-keyboard-response","257","260075","0.0-6.0-1.125","LIGR","4","f","rechts","24","","","object","f","60","false"
"null","<div style=""font-size:60px;"">+</div>","null","html-keyboard-response","258","260427","0.0-6.0-0.126","LIGR","4","f","rechts","24","","fixation","","","",""
"1268","img/L120_180.png","74","image-keyboard-response","259","261695","0.0-6.0-1.126","LIGR","4","f","rechts","24","","","object","j","120","true"
"null","<div style=""font-size:60px;"">+</div>","null","html-keyboard-response","260","262097","0.0-6.0-0.127","LIGR","4","f","rechts","24","","fixation","","","",""
"1152","img/L90_180.png","74","image-keyboard-response","261","263249","0.0-6.0-1.127","LIGR","4","f","rechts","24","","","object","j","90","true"
"null","<div style=""font-size:60px;"">+</div>","null","html-keyboard-response","262","263751","0.0-6.0-0.128","LIGR","4","f","rechts","24","","fixation","","","",""
"966","img/90_150.png","74","image-keyboard-response","263","264717","0.0-6.0-1.128","LIGR","4","f","rechts","24","","","object","j","90","true"
"null","<div style=""font-size:60px;"">+</div>","null","html-keyboard-response","264","265119","0.0-6.0-0.129","LIGR","4","f","rechts","24","","fixation","","","",""
"2155","img/L30_180.png","74","image-keyboard-response","265","267275","0.0-6.0-1.129","LIGR","4","f","rechts","24","","","object","j","30","true"
"null","<div style=""font-size:60px;"">+</div>","null","html-keyboard-response","266","267777","0.0-6.0-0.130","LIGR","4","f","rechts","24","","fixation","","","",""
"772","img/30_300.png","70","image-keyboard-response","267","268550","0.0-6.0-1.130","LIGR","4","f","rechts","24","","","object","f","30","true"
"null","<div style=""font-size:60px;"">+</div>","null","html-keyboard-response","268","269002","0.0-6.0-0.131","LIGR","4","f","rechts","24","","fixation","","","",""
"733","img/0_240.png","70","image-keyboard-response","269","269735","0.0-6.0-1.131","LIGR","4","f","rechts","24","","","object","f","0","true"
"null","<div style=""font-size:60px;"">+</div>","null","html-keyboard-response","270","270037","0.0-6.0-0.132","LIGR","4","f","rechts","24","","fixation","","","",""
"1073","img/150_300.png","74","image-keyboard-response","271","271111","0.0-6.0-1.132","LIGR","4","f","rechts","24","","","object","j","150","true"
"null","<div style=""font-size:60px;"">+</div>","null","html-keyboard-response","272","271563","0.0-6.0-0.133","LIGR","4","f","rechts","24","","fixation","","","",""
"596","img/0_270.png","70","image-keyboard-response","273","272159","0.0-6.0-1.133","LIGR","4","f","rechts","24","","","object","f","0","true"
"null","<div style=""font-size:60px;"">+</div>","null","html-keyboard-response","274","272561","0.0-6.0-0.134","LIGR","4","f","rechts","24","","fixation","","","",""
"740","img/90_300.png","74","image-keyboard-response","275","273301","0.0-6.0-1.134","LIGR","4","f","rechts","24","","","object","j","90","true"
"null","<div style=""font-size:60px;"">+</div>","null","html-keyboard-response","276","273802","0.0-6.0-0.135","LIGR","4","f","rechts","24","","fixation","","","",""
"923","img/120_90.png","70","image-keyboard-response","277","274726","0.0-6.0-1.135","LIGR","4","f","rechts","24","","","object","f","120","true"
"null","<div style=""font-size:60px;"">+</div>","null","html-keyboard-response","278","275127","0.0-6.0-0.136","LIGR","4","f","rechts","24","","fixation","","","",""
"717","img/0_330.png","70","image-keyboard-response","279","275844","0.0-6.0-1.136","LIGR","4","f","rechts","24","","","object","f","0","true"
"null","<div style=""font-size:60px;"">+</div>","null","html-keyboard-response","280","276196","0.0-6.0-0.137","LIGR","4","f","rechts","24","","fixation","","","",""
"1120","img/0_150.png","74","image-keyboard-response","281","277316","0.0-6.0-1.137","LIGR","4","f","rechts","24","","","object","j","0","true"
"null","<div style=""font-size:60px;"">+</div>","null","html-keyboard-response","282","277716","0.0-6.0-0.138","LIGR","4","f","rechts","24","","fixation","","","",""
"1904","img/120_150.png","74","image-keyboard-response","283","279621","0.0-6.0-1.138","LIGR","4","f","rechts","24","","","object","j","120","true"
"null","<div style=""font-size:60px;"">+</div>","null","html-keyboard-response","284","280023","0.0-6.0-0.139","LIGR","4","f","rechts","24","","fixation","","","",""
"585","img/0_120.png","74","image-keyboard-response","285","280608","0.0-6.0-1.139","LIGR","4","f","rechts","24","","","object","j","0","true"
"null","<div style=""font-size:60px;"">+</div>","null","html-keyboard-response","286","280910","0.0-6.0-0.140","LIGR","4","f","rechts","24","","fixation","","","",""
"1006","img/90_210.png","74","image-keyboard-response","287","281916","0.0-6.0-1.140","LIGR","4","f","rechts","24","","","object","f","90","false"
"null","<div style=""font-size:60px;"">+</div>","null","html-keyboard-response","288","282317","0.0-6.0-0.141","LIGR","4","f","rechts","24","","fixation","","","",""
"692","img/90_330.png","74","image-keyboard-response","289","283010","0.0-6.0-1.141","LIGR","4","f","rechts","24","","","object","j","90","true"
"null","<div style=""font-size:60px;"">+</div>","null","html-keyboard-response","290","283411","0.0-6.0-0.142","LIGR","4","f","rechts","24","","fixation","","","",""
"780","img/30_180.png","70","image-keyboard-response","291","284192","0.0-6.0-1.142","LIGR","4","f","rechts","24","","","object","f","30","true"
"null","<div style=""font-size:60px;"">+</div>","null","html-keyboard-response","292","284593","0.0-6.0-0.143","LIGR","4","f","rechts","24","","fixation","","","",""
"1517","img/150_180.png","70","image-keyboard-response","293","286111","0.0-6.0-1.143","LIGR","4","f","rechts","24","","","object","f","150","true"
"null","<div style=""font-size:60px;"">+</div>","null","html-keyboard-response","294","286463","0.0-6.0-0.144","LIGR","4","f","rechts","24","","fixation","","","",""
"1354","img/120_30.png","70","image-keyboard-response","295","287818","0.0-6.0-1.144","LIGR","4","f","rechts","24","","","object","f","120","true"
"null","<div style=""font-size:60px;"">+</div>","null","html-keyboard-response","296","288320","0.0-6.0-0.145","LIGR","4","f","rechts","24","","fixation","","","",""
"668","img/0_90.png","74","image-keyboard-response","297","288988","0.0-6.0-1.145","LIGR","4","f","rechts","24","","","object","j","0","true"
"null","<div style=""font-size:60px;"">+</div>","null","html-keyboard-response","298","289490","0.0-6.0-0.146","LIGR","4","f","rechts","24","","fixation","","","",""
"703","img/90_30.png","70","image-keyboard-response","299","290193","0.0-6.0-1.146","LIGR","4","f","rechts","24","","","object","f","90","true"
"null","<div style=""font-size:60px;"">+</div>","null","html-keyboard-response","300","290695","0.0-6.0-0.147","LIGR","4","f","rechts","24","","fixation","","","",""
"763","img/60_330.png","74","image-keyboard-response","301","291458","0.0-6.0-1.147","LIGR","4","f","rechts","24","","","object","j","60","true"
"null","<div style=""font-size:60px;"">+</div>","null","html-keyboard-response","302","291759","0.0-6.0-0.148","LIGR","4","f","rechts","24","","fixation","","","",""
"979","img/90_120.png","70","image-keyboard-response","303","292740","0.0-6.0-1.148","LIGR","4","f","rechts","24","","","object","j","90","false"
"null","<div style=""font-size:60px;"">+</div>","null","html-keyboard-response","304","293041","0.0-6.0-0.149","LIGR","4","f","rechts","24","","fixation","","","",""
"895","img/30_90.png","74","image-keyboard-response","305","293938","0.0-6.0-1.149","LIGR","4","f","rechts","24","","","object","j","30","true"
"null","<div style=""font-size:60px;"">+</div>","null","html-keyboard-response","306","294339","0.0-6.0-0.150","LIGR","4","f","rechts","24","","fixation","","","",""
"833","img/150_90.png","70","image-keyboard-response","307","295173","0.0-6.0-1.150","LIGR","4","f","rechts","24","","","object","f","150","true"
"null","<div style=""font-size:60px;"">+</div>","null","html-keyboard-response","308","295575","0.0-6.0-0.151","LIGR","4","f","rechts","24","","fixation","","","",""
"1229","img/150_120.png","70","image-keyboard-response","309","296806","0.0-6.0-1.151","LIGR","4","f","rechts","24","","","object","f","150","true"
"null","<div style=""font-size:60px;"">+</div>","null","html-keyboard-response","310","297207","0.0-6.0-0.152","LIGR","4","f","rechts","24","","fixation","","","",""
"856","img/60_90.png","70","image-keyboard-response","311","298065","0.0-6.0-1.152","LIGR","4","f","rechts","24","","","object","j","60","false"
"null","<div style=""font-size:60px;"">+</div>","null","html-keyboard-response","312","298366","0.0-6.0-0.153","LIGR","4","f","rechts","24","","fixation","","","",""
"1071","img/120_270.png","74","image-keyboard-response","313","299438","0.0-6.0-1.153","LIGR","4","f","rechts","24","","","object","j","120","true"
"null","<div style=""font-size:60px;"">+</div>","null","html-keyboard-response","314","299839","0.0-6.0-0.154","LIGR","4","f","rechts","24","","fixation","","","",""
"636","img/0_60.png","74","image-keyboard-response","315","300477","0.0-6.0-1.154","LIGR","4","f","rechts","24","","","object","j","0","true"
"null","<div style=""font-size:60px;"">+</div>","null","html-keyboard-response","316","300878","0.0-6.0-0.155","LIGR","4","f","rechts","24","","fixation","","","",""
"1119","img/60_150.png","74","image-keyboard-response","317","301997","0.0-6.0-1.155","LIGR","4","f","rechts","24","","","object","j","60","true"
"null","<div style=""font-size:60px;"">+</div>","null","html-keyboard-response","318","302349","0.0-6.0-0.156","LIGR","4","f","rechts","24","","fixation","","","",""
"741","img/90_60.png","70","image-keyboard-response","319","303091","0.0-6.0-1.156","LIGR","4","f","rechts","24","","","object","f","90","true"
"null","<div style=""font-size:60px;"">+</div>","null","html-keyboard-response","320","303493","0.0-6.0-0.157","LIGR","4","f","rechts","24","","fixation","","","",""
"669","img/0_150.png","74","image-keyboard-response","321","304162","0.0-6.0-1.157","LIGR","4","f","rechts","24","","","object","j","0","true"
"null","<div style=""font-size:60px;"">+</div>","null","html-keyboard-response","322","304514","0.0-6.0-0.158","LIGR","4","f","rechts","24","","fixation","","","",""
"1344","img/150_180.png","74","image-keyboard-response","323","305859","0.0-6.0-1.158","LIGR","4","f","rechts","24","","","object","f","150","false"
"null","<div style=""font-size:60px;"">+</div>","null","html-keyboard-response","324","306311","0.0-6.0-0.159","LIGR","4","f","rechts","24","","fixation","","","",""
"1459","img/L120_180.png","74","image-keyboard-response","325","307771","0.0-6.0-1.159","LIGR","4","f","rechts","24","","","object","j","120","true"
"null","<div style=""font-size:60px;"">+</div>","null","html-keyboard-response","326","308273","0.0-6.0-0.160","LIGR","4","f","rechts","24","","fixation","","","",""
"1132","img/150_240.png","74","image-keyboard-response","327","309406","0.0-6.0-1.160","LIGR","4","f","rechts","24","","","object","j","150","true"
"null","<div style=""font-size:60px;"">+</div>","null","html-keyboard-response","328","309908","0.0-6.0-0.161","LIGR","4","f","rechts","24","","fixation","","","",""
"629","img/0_240.png","70","image-keyboard-response","329","310538","0.0-6.0-1.161","LIGR","4","f","rechts","24","","","object","f","0","true"
"null","<div style=""font-size:60px;"">+</div>","null","html-keyboard-response","330","310840","0.0-6.0-0.162","LIGR","4","f","rechts","24","","fixation","","","",""
"649","img/0_30.png","74","image-keyboard-response","331","311489","0.0-6.0-1.162","LIGR","4","f","rechts","24","","","object","j","0","true"
"null","<div style=""font-size:60px;"">+</div>","null","html-keyboard-response","332","311991","0.0-6.0-0.163","LIGR","4","f","rechts","24","","fixation","","","",""
"1094","img/30_270.png","70","image-keyboard-response","333","313085","0.0-6.0-1.163","LIGR","4","f","rechts","24","","","object","f","30","true"
"null","<div style=""font-size:60px;"">+</div>","null","html-keyboard-response","334","313537","0.0-6.0-0.164","LIGR","4","f","rechts","24","","fixation","","","",""
"978","img/30_60.png","74","image-keyboard-response","335","314516","0.0-6.0-1.164","LIGR","4","f","rechts","24","","","object","j","30","true"
"null","<div style=""font-size:60px;"">+</div>","null","html-keyboard-response","336","314967","0.0-6.0-0.165","LIGR","4","f","rechts","24","","fixation","","","",""
"1142","img/L60_180.png","74","image-keyboard-response","337","316110","0.0-6.0-1.165","LIGR","4","f","rechts","24","","","object","j","60","true"
"null","<div style=""font-size:60px;"">+</div>","null","html-keyboard-response","338","316562","0.0-6.0-0.166","LIGR","4","f","rechts","24","","fixation","","","",""
"1163","img/120_150.png","74","image-keyboard-response","339","317725","0.0-6.0-1.166","LIGR","4","f","rechts","24","","","object","j","120","true"
"null","<div style=""font-size:60px;"">+</div>","null","html-keyboard-response","340","318126","0.0-6.0-0.167","LIGR","4","f","rechts","24","","fixation","","","",""
"840","img/30_90.png","74","image-keyboard-response","341","318966","0.0-6.0-1.167","LIGR","4","f","rechts","24","","","object","j","30","true"
"null","<div style=""font-size:60px;"">+</div>","null","html-keyboard-response","342","319468","0.0-6.0-0.168","LIGR","4","f","rechts","24","","fixation","","","",""
"965","img/60_270.png","70","image-keyboard-response","343","320433","0.0-6.0-1.168","LIGR","4","f","rechts","24","","","object","f","60","true"
"null","<div style=""font-size:60px;"">+</div>","null","html-keyboard-response","344","320734","0.0-6.0-0.169","LIGR","4","f","rechts","24","","fixation","","","",""
"960","img/60_30.png","70","image-keyboard-response","345","321695","0.0-6.0-1.169","LIGR","4","f","rechts","24","","","object","f","60","true"
"null","<div style=""font-size:60px;"">+</div>","null","html-keyboard-response","346","322097","0.0-6.0-0.170","LIGR","4","f","rechts","24","","fixation","","","",""
"583","img/0_300.png","70","image-keyboard-response","347","322680","0.0-6.0-1.170","LIGR","4","f","rechts","24","","","object","f","0","true"
"null","<div style=""font-size:60px;"">+</div>","null","html-keyboard-response","348","323082","0.0-6.0-0.171","LIGR","4","f","rechts","24","","fixation","","","",""
"850","img/L30_180.png","74","image-keyboard-response","349","323932","0.0-6.0-1.171","LIGR","4","f","rechts","24","","","object","j","30","true"
"null","<div style=""font-size:60px;"">+</div>","null","html-keyboard-response","350","324284","0.0-6.0-0.172","LIGR","4","f","rechts","24","","fixation","","","",""
"1074","img/120_210.png","70","image-keyboard-response","351","325358","0.0-6.0-1.172","LIGR","4","f","rechts","24","","","object","f","120","true"
"null","<div style=""font-size:60px;"">+</div>","null","html-keyboard-response","352","325859","0.0-6.0-0.173","LIGR","4","f","rechts","24","","fixation","","","",""
"1194","img/90_330.png","74","image-keyboard-response","353","327054","0.0-6.0-1.173","LIGR","4","f","rechts","24","","","object","j","90","true"
"null","<div style=""font-size:60px;"">+</div>","null","html-keyboard-response","354","327555","0.0-6.0-0.174","LIGR","4","f","rechts","24","","fixation","","","",""
"888","img/120_270.png","74","image-keyboard-response","355","328444","0.0-6.0-1.174","LIGR","4","f","rechts","24","","","object","j","120","true"
"null","<div style=""font-size:60px;"">+</div>","null","html-keyboard-response","356","328796","0.0-6.0-0.175","LIGR","4","f","rechts","24","","fixation","","","",""
"774","img/30_240.png","70","image-keyboard-response","357","329570","0.0-6.0-1.175","LIGR","4","f","rechts","24","","","object","f","30","true"
"null","<div style=""font-size:60px;"">+</div>","null","html-keyboard-response","358","329872","0.0-6.0-0.176","LIGR","4","f","rechts","24","","fixation","","","",""
"1111","img/150_60.png","70","image-keyboard-response","359","330983","0.0-6.0-1.176","LIGR","4","f","rechts","24","","","object","f","150","true"
"null","<div style=""font-size:60px;"">+</div>","null","html-keyboard-response","360","331435","0.0-6.0-0.177","LIGR","4","f","rechts","24","","fixation","","","",""
"1063","img/90_150.png","74","image-keyboard-response","361","332498","0.0-6.0-1.177","LIGR","4","f","rechts","24","","","object","j","90","true"
"null","<div style=""font-size:60px;"">+</div>","null","html-keyboard-response","362","332850","0.0-6.0-0.178","LIGR","4","f","rechts","24","","fixation","","","",""
"744","img/90_210.png","70","image-keyboard-response","363","333596","0.0-6.0-1.178","LIGR","4","f","rechts","24","","","object","f","90","true"
"null","<div style=""font-size:60px;"">+</div>","null","html-keyboard-response","364","334047","0.0-6.0-0.179","LIGR","4","f","rechts","24","","fixation","","","",""
"612","img/0_210.png","70","image-keyboard-response","365","334660","0.0-6.0-1.179","LIGR","4","f","rechts","24","","","object","f","0","true"
"null","<div style=""font-size:60px;"">+</div>","null","html-keyboard-response","366","335061","0.0-6.0-0.180","LIGR","4","f","rechts","24","","fixation","","","",""
"784","img/60_210.png","70","image-keyboard-response","367","335846","0.0-6.0-1.180","LIGR","4","f","rechts","24","","","object","f","60","true"
"null","<div style=""font-size:60px;"">+</div>","null","html-keyboard-response","368","336198","0.0-6.0-0.181","LIGR","4","f","rechts","24","","fixation","","","",""
"1155","img/0_330.png","70","image-keyboard-response","369","337354","0.0-6.0-1.181","LIGR","4","f","rechts","24","","","object","f","0","true"
"null","<div style=""font-size:60px;"">+</div>","null","html-keyboard-response","370","337704","0.0-6.0-0.182","LIGR","4","f","rechts","24","","fixation","","","",""
"905","img/90_300.png","74","image-keyboard-response","371","338611","0.0-6.0-1.182","LIGR","4","f","rechts","24","","","object","j","90","true"
"null","<div style=""font-size:60px;"">+</div>","null","html-keyboard-response","372","339012","0.0-6.0-0.183","LIGR","4","f","rechts","24","","fixation","","","",""
"830","img/120_330.png","74","image-keyboard-response","373","339843","0.0-6.0-1.183","LIGR","4","f","rechts","24","","","object","j","120","true"
"null","<div style=""font-size:60px;"">+</div>","null","html-keyboard-response","374","340194","0.0-6.0-0.184","LIGR","4","f","rechts","24","","fixation","","","",""
"1088","img/60_150.png","74","image-keyboard-response","375","341283","0.0-6.0-1.184","LIGR","4","f","rechts","24","","","object","j","60","true"
"null","<div style=""font-size:60px;"">+</div>","null","html-keyboard-response","376","341784","0.0-6.0-0.185","LIGR","4","f","rechts","24","","fixation","","","",""
"936","img/60_90.png","70","image-keyboard-response","377","342722","0.0-6.0-1.185","LIGR","4","f","rechts","24","","","object","j","60","false"
"null","<div style=""font-size:60px;"">+</div>","null","html-keyboard-response","378","343123","0.0-6.0-0.186","LIGR","4","f","rechts","24","","fixation","","","",""
"859","img/60_330.png","74","image-keyboard-response","379","343983","0.0-6.0-1.186","LIGR","4","f","rechts","24","","","object","j","60","true"
"null","<div style=""font-size:60px;"">+</div>","null","html-keyboard-response","380","344384","0.0-6.0-0.187","LIGR","4","f","rechts","24","","fixation","","","",""
"898","img/L90_180.png","74","image-keyboard-response","381","345282","0.0-6.0-1.187","LIGR","4","f","rechts","24","","","object","j","90","true"
"null","<div style=""font-size:60px;"">+</div>","null","html-keyboard-response","382","345783","0.0-6.0-0.188","LIGR","4","f","rechts","24","","fixation","","","",""
"767","img/0_90.png","74","image-keyboard-response","383","346552","0.0-6.0-1.188","LIGR","4","f","rechts","24","","","object","j","0","true"
"null","<div style=""font-size:60px;"">+</div>","null","html-keyboard-response","384","346853","0.0-6.0-0.189","LIGR","4","f","rechts","24","","fixation","","","",""
"1537","img/60_180.png","70","image-keyboard-response","385","348391","0.0-6.0-1.189","LIGR","4","f","rechts","24","","","object","f","60","true"
"null","<div style=""font-size:60px;"">+</div>","null","html-keyboard-response","386","348693","0.0-6.0-0.190","LIGR","4","f","rechts","24","","fixation","","","",""
"679","img/0_120.png","74","image-keyboard-response","387","349374","0.0-6.0-1.190","LIGR","4","f","rechts","24","","","object","j","0","true"
"null","<div style=""font-size:60px;"">+</div>","null","html-keyboard-response","388","349675","0.0-6.0-0.191","LIGR","4","f","rechts","24","","fixation","","","",""
"1478","img/150_90.png","70","image-keyboard-response","389","351154","0.0-6.0-1.191","LIGR","4","f","rechts","24","","","object","f","150","true"
"null","<div style=""font-size:60px;"">+</div>","null","html-keyboard-response","390","351456","0.0-6.0-0.192","LIGR","4","f","rechts","24","","fixation","","","",""
"1415","img/L150_180.png","74","image-keyboard-response","391","352872","0.0-6.0-1.192","LIGR","4","f","rechts","24","","","object","j","150","true"
"null","<div style=""font-size:60px;"">+</div>","null","html-keyboard-response","392","353274","0.0-6.0-0.193","LIGR","4","f","rechts","24","","fixation","","","",""
"981","img/30_300.png","70","image-keyboard-response","393","354257","0.0-6.0-1.193","LIGR","4","f","rechts","24","","","object","f","30","true"
"null","<div style=""font-size:60px;"">+</div>","null","html-keyboard-response","394","354658","0.0-6.0-0.194","LIGR","4","f","rechts","24","","fixation","","","",""
"858","img/120_30.png","70","image-keyboard-response","395","355516","0.0-6.0-1.194","LIGR","4","f","rechts","24","","","object","f","120","true"
"null","<div style=""font-size:60px;"">+</div>","null","html-keyboard-response","396","356018","0.0-6.0-0.195","LIGR","4","f","rechts","24","","fixation","","","",""
"664","img/90_30.png","70","image-keyboard-response","397","356683","0.0-6.0-1.195","LIGR","4","f","rechts","24","","","object","f","90","true"
"null","<div style=""font-size:60px;"">+</div>","null","html-keyboard-response","398","356985","0.0-6.0-0.196","LIGR","4","f","rechts","24","","fixation","","","",""
"1400","img/90_120.png","70","image-keyboard-response","399","358385","0.0-6.0-1.196","LIGR","4","f","rechts","24","","","object","j","90","false"
"null","<div style=""font-size:60px;"">+</div>","null","html-keyboard-response","400","358737","0.0-6.0-0.197","LIGR","4","f","rechts","24","","fixation","","","",""
"1403","img/30_180.png","70","image-keyboard-response","401","360140","0.0-6.0-1.197","LIGR","4","f","rechts","24","","","object","f","30","true"
"null","<div style=""font-size:60px;"">+</div>","null","html-keyboard-response","402","360592","0.0-6.0-0.198","LIGR","4","f","rechts","24","","fixation","","","",""
"709","img/0_270.png","70","image-keyboard-response","403","361302","0.0-6.0-1.198","LIGR","4","f","rechts","24","","","object","f","0","true"
"null","<div style=""font-size:60px;"">+</div>","null","html-keyboard-response","404","361603","0.0-6.0-0.199","LIGR","4","f","rechts","24","","fixation","","","",""
"1063","img/150_120.png","70","image-keyboard-response","405","362667","0.0-6.0-1.199","LIGR","4","f","rechts","24","","","object","f","150","true"
"null","<div style=""font-size:60px;"">+</div>","null","html-keyboard-response","406","363019","0.0-6.0-0.200","LIGR","4","f","rechts","24","","fixation","","","",""
"868","img/30_120.png","74","image-keyboard-response","407","363888","0.0-6.0-1.200","LIGR","4","f","rechts","24","","","object","j","30","true"
"null","<div style=""font-size:60px;"">+</div>","null","html-keyboard-response","408","364390","0.0-6.0-0.201","LIGR","4","f","rechts","24","","fixation","","","",""
"1231","img/150_300.png","74","image-keyboard-response","409","365622","0.0-6.0-1.201","LIGR","4","f","rechts","24","","","object","j","150","true"
"null","<div style=""font-size:60px;"">+</div>","null","html-keyboard-response","410","365924","0.0-6.0-0.202","LIGR","4","f","rechts","24","","fixation","","","",""
"1065","img/90_240.png","70","image-keyboard-response","411","366990","0.0-6.0-1.202","LIGR","4","f","rechts","24","","","object","f","90","true"
"null","<div style=""font-size:60px;"">+</div>","null","html-keyboard-response","412","367442","0.0-6.0-0.203","LIGR","4","f","rechts","24","","fixation","","","",""
"890","img/120_90.png","70","image-keyboard-response","413","368332","0.0-6.0-1.203","LIGR","4","f","rechts","24","","","object","f","120","true"
"null","<div style=""font-size:60px;"">+</div>","null","html-keyboard-response","414","368734","0.0-6.0-0.204","LIGR","4","f","rechts","24","","fixation","","","",""
"973","img/90_180.png","70","image-keyboard-response","415","369708","0.0-6.0-1.204","LIGR","4","f","rechts","24","","","object","f","90","true"
"null","<div style=""font-size:60px;"">+</div>","null","html-keyboard-response","416","370010","0.0-6.0-0.205","LIGR","4","f","rechts","24","","fixation","","","",""
"903","img/150_270.png","74","image-keyboard-response","417","370914","0.0-6.0-1.205","LIGR","4","f","rechts","24","","","object","j","150","true"
"null","<div style=""font-size:60px;"">+</div>","null","html-keyboard-response","418","371366","0.0-6.0-0.206","LIGR","4","f","rechts","24","","fixation","","","",""
"717","img/0_60.png","74","image-keyboard-response","419","372084","0.0-6.0-1.206","LIGR","4","f","rechts","24","","","object","j","0","true"
"null","<div style=""font-size:60px;"">+</div>","null","html-keyboard-response","420","372536","0.0-6.0-0.207","LIGR","4","f","rechts","24","","fixation","","","",""
"845","img/120_180.png","70","image-keyboard-response","421","373381","0.0-6.0-1.207","LIGR","4","f","rechts","24","","","object","f","120","true"
"5730","<p>Du hast in 88% der Versuche korrekt entschieden.</p><p>Deine durchschnittliche Reaktionszeit war  963ms.</p><p>Dr&uuml;cke eine beliebige Taste, um die Session zu beenden. Vielen Dank!</p>","74","html-keyboard-response","422","379112","0.0-7.0","LIGR","4","f","rechts","24","","","","","",""
