"rt","stimulus","key_press","trial_type","trial_index","time_elapsed","internal_node_id","subject","session","sex","handedness","age","responses","test_part","condition","correct_response","angle","correct"
"2831","<p>Mental Rotation Experiment.</p> <p>Dr&uuml;cke eine beliebige Taste, um anzufangen.</p>","70","html-keyboard-response","0","2835","0.0-0.0","LIGR","2","f","rechts","24","","","","","",""
"9808","","","survey-text","1","12644","0.0-1.0","LIGR","2","f","rechts","24","{""Q0"":""LIGR""}","","","","",""
"2063","","","survey-text","2","14708","0.0-2.0","LIGR","2","f","rechts","24","{""Q0"":""2""}","","","","",""
"2735","","","survey-multi-choice","3","17445","0.0-3.0","LIGR","2","f","rechts","24","{""Q0"":""f"",""Q1"":""rechts""}","","","","",""
"4732","","","survey-text","4","22179","0.0-4.0","LIGR","2","f","rechts","24","{""Q0"":""24""}","","","","",""
"775932","<p>Stell dir vor, dass du vor einem runden Tisch stehst, auf dem sich ein blauer Ball am Tischrand befindet. Entlang des Tischrands ist jeweils ein verschieden langer Pfeil. Nun bleibst du an deinem Platz vor dem Tisch und rotierst den Tisch entlang des Pfeils (gleiche Richtung und Länge). </p> <img src='img/30_180.png'></img> <br><p> Nachdem du diese (vorgestellte) Rotation durchgef&uuml;hrt hast, schau in Richtung der Tischmitte, und entscheide dann, ob der Ball links oder rechts von dir liegt.</p> <p>Dr&uuml;cke die <strong>'f'</strong>-Taste f&uuml;r links, die <strong>'j'</strong>-Taste f&uuml;r rechts.</p><br><p> Das Bild wird jeweils 1 Sekunde lang pr&auml;sentiert. Du hast 3 Sekunden Zeit eine Entscheidung zu treffen.</p>","32","html-keyboard-response","5","798113","0.0-5.0","LIGR","2","f","rechts","24","","","","","",""
"null","<div style=""font-size:60px;"">+</div>","null","html-keyboard-response","6","799618","0.0-6.0-0.0","LIGR","2","f","rechts","24","","fixation","","","",""
"1769","img/0_30.png","74","image-keyboard-response","7","801390","0.0-6.0-1.0","LIGR","2","f","rechts","24","","","object","j","0","true"
"null","<div style=""font-size:60px;"">+</div>","null","html-keyboard-response","8","801792","0.0-6.0-0.1","LIGR","2","f","rechts","24","","fixation","","","",""
"1660","img/60_90.png","74","image-keyboard-response","9","803454","0.0-6.0-1.1","LIGR","2","f","rechts","24","","","object","j","60","true"
"null","<div style=""font-size:60px;"">+</div>","null","html-keyboard-response","10","803856","0.0-6.0-0.2","LIGR","2","f","rechts","24","","fixation","","","",""
"706","img/0_300.png","70","image-keyboard-response","11","804564","0.0-6.0-1.2","LIGR","2","f","rechts","24","","","object","f","0","true"
"null","<div style=""font-size:60px;"">+</div>","null","html-keyboard-response","12","805014","0.0-6.0-0.3","LIGR","2","f","rechts","24","","fixation","","","",""
"1297","img/90_180.png","70","image-keyboard-response","13","806313","0.0-6.0-1.3","LIGR","2","f","rechts","24","","","object","f","90","true"
"null","<div style=""font-size:60px;"">+</div>","null","html-keyboard-response","14","806764","0.0-6.0-0.4","LIGR","2","f","rechts","24","","fixation","","","",""
"1576","img/90_240.png","74","image-keyboard-response","15","808342","0.0-6.0-1.4","LIGR","2","f","rechts","24","","","object","f","90","false"
"null","<div style=""font-size:60px;"">+</div>","null","html-keyboard-response","16","808643","0.0-6.0-0.5","LIGR","2","f","rechts","24","","fixation","","","",""
"1122","img/L60_180.png","74","image-keyboard-response","17","809766","0.0-6.0-1.5","LIGR","2","f","rechts","24","","","object","j","60","true"
"null","<div style=""font-size:60px;"">+</div>","null","html-keyboard-response","18","810068","0.0-6.0-0.6","LIGR","2","f","rechts","24","","fixation","","","",""
"1416","img/150_240.png","74","image-keyboard-response","19","811485","0.0-6.0-1.6","LIGR","2","f","rechts","24","","","object","j","150","true"
"null","<div style=""font-size:60px;"">+</div>","null","html-keyboard-response","20","811937","0.0-6.0-0.7","LIGR","2","f","rechts","24","","fixation","","","",""
"825","img/0_60.png","74","image-keyboard-response","21","812764","0.0-6.0-1.7","LIGR","2","f","rechts","24","","","object","j","0","true"
"null","<div style=""font-size:60px;"">+</div>","null","html-keyboard-response","22","813115","0.0-6.0-0.8","LIGR","2","f","rechts","24","","fixation","","","",""
"823","img/0_240.png","70","image-keyboard-response","23","813940","0.0-6.0-1.8","LIGR","2","f","rechts","24","","","object","f","0","true"
"null","<div style=""font-size:60px;"">+</div>","null","html-keyboard-response","24","814441","0.0-6.0-0.9","LIGR","2","f","rechts","24","","fixation","","","",""
"1262","img/90_150.png","70","image-keyboard-response","25","815704","0.0-6.0-1.9","LIGR","2","f","rechts","24","","","object","j","90","false"
"null","<div style=""font-size:60px;"">+</div>","null","html-keyboard-response","26","816006","0.0-6.0-0.10","LIGR","2","f","rechts","24","","fixation","","","",""
"1380","img/L150_180.png","70","image-keyboard-response","27","817387","0.0-6.0-1.10","LIGR","2","f","rechts","24","","","object","j","150","false"
"null","<div style=""font-size:60px;"">+</div>","null","html-keyboard-response","28","817839","0.0-6.0-0.11","LIGR","2","f","rechts","24","","fixation","","","",""
"1293","img/60_180.png","70","image-keyboard-response","29","819133","0.0-6.0-1.11","LIGR","2","f","rechts","24","","","object","f","60","true"
"null","<div style=""font-size:60px;"">+</div>","null","html-keyboard-response","30","819585","0.0-6.0-0.12","LIGR","2","f","rechts","24","","fixation","","","",""
"1127","img/90_120.png","70","image-keyboard-response","31","820713","0.0-6.0-1.12","LIGR","2","f","rechts","24","","","object","j","90","false"
"null","<div style=""font-size:60px;"">+</div>","null","html-keyboard-response","32","821065","0.0-6.0-0.13","LIGR","2","f","rechts","24","","fixation","","","",""
"1266","img/30_180.png","70","image-keyboard-response","33","822332","0.0-6.0-1.13","LIGR","2","f","rechts","24","","","object","f","30","true"
"null","<div style=""font-size:60px;"">+</div>","null","html-keyboard-response","34","822834","0.0-6.0-0.14","LIGR","2","f","rechts","24","","fixation","","","",""
"1221","img/60_270.png","74","image-keyboard-response","35","824056","0.0-6.0-1.14","LIGR","2","f","rechts","24","","","object","f","60","false"
"null","<div style=""font-size:60px;"">+</div>","null","html-keyboard-response","36","824358","0.0-6.0-0.15","LIGR","2","f","rechts","24","","fixation","","","",""
"1173","img/150_120.png","70","image-keyboard-response","37","825532","0.0-6.0-1.15","LIGR","2","f","rechts","24","","","object","f","150","true"
"null","<div style=""font-size:60px;"">+</div>","null","html-keyboard-response","38","825884","0.0-6.0-0.16","LIGR","2","f","rechts","24","","fixation","","","",""
"1416","img/60_210.png","74","image-keyboard-response","39","827301","0.0-6.0-1.16","LIGR","2","f","rechts","24","","","object","f","60","false"
"null","<div style=""font-size:60px;"">+</div>","null","html-keyboard-response","40","827653","0.0-6.0-0.17","LIGR","2","f","rechts","24","","fixation","","","",""
"1120","img/150_300.png","74","image-keyboard-response","41","828774","0.0-6.0-1.17","LIGR","2","f","rechts","24","","","object","j","150","true"
"null","<div style=""font-size:60px;"">+</div>","null","html-keyboard-response","42","829276","0.0-6.0-0.18","LIGR","2","f","rechts","24","","fixation","","","",""
"645","img/0_270.png","70","image-keyboard-response","43","829922","0.0-6.0-1.18","LIGR","2","f","rechts","24","","","object","f","0","true"
"null","<div style=""font-size:60px;"">+</div>","null","html-keyboard-response","44","830324","0.0-6.0-0.19","LIGR","2","f","rechts","24","","fixation","","","",""
"722","img/0_120.png","74","image-keyboard-response","45","831047","0.0-6.0-1.19","LIGR","2","f","rechts","24","","","object","j","0","true"
"null","<div style=""font-size:60px;"">+</div>","null","html-keyboard-response","46","831349","0.0-6.0-0.20","LIGR","2","f","rechts","24","","fixation","","","",""
"1249","img/L90_180.png","74","image-keyboard-response","47","832599","0.0-6.0-1.20","LIGR","2","f","rechts","24","","","object","j","90","true"
"null","<div style=""font-size:60px;"">+</div>","null","html-keyboard-response","48","832900","0.0-6.0-0.21","LIGR","2","f","rechts","24","","fixation","","","",""
"1244","img/90_60.png","70","image-keyboard-response","49","834146","0.0-6.0-1.21","LIGR","2","f","rechts","24","","","object","f","90","true"
"null","<div style=""font-size:60px;"">+</div>","null","html-keyboard-response","50","834648","0.0-6.0-0.22","LIGR","2","f","rechts","24","","fixation","","","",""
"1347","img/120_210.png","74","image-keyboard-response","51","835996","0.0-6.0-1.22","LIGR","2","f","rechts","24","","","object","f","120","false"
"null","<div style=""font-size:60px;"">+</div>","null","html-keyboard-response","52","836298","0.0-6.0-0.23","LIGR","2","f","rechts","24","","fixation","","","",""
"1502","img/60_150.png","70","image-keyboard-response","53","837801","0.0-6.0-1.23","LIGR","2","f","rechts","24","","","object","j","60","false"
"null","<div style=""font-size:60px;"">+</div>","null","html-keyboard-response","54","838103","0.0-6.0-0.24","LIGR","2","f","rechts","24","","fixation","","","",""
"700","img/0_210.png","70","image-keyboard-response","55","838804","0.0-6.0-1.24","LIGR","2","f","rechts","24","","","object","f","0","true"
"null","<div style=""font-size:60px;"">+</div>","null","html-keyboard-response","56","839156","0.0-6.0-0.25","LIGR","2","f","rechts","24","","fixation","","","",""
"2277","img/150_90.png","70","image-keyboard-response","57","841434","0.0-6.0-1.25","LIGR","2","f","rechts","24","","","object","f","150","true"
"null","<div style=""font-size:60px;"">+</div>","null","html-keyboard-response","58","841785","0.0-6.0-0.26","LIGR","2","f","rechts","24","","fixation","","","",""
"1580","img/30_300.png","70","image-keyboard-response","59","843367","0.0-6.0-1.26","LIGR","2","f","rechts","24","","","object","f","30","true"
"null","<div style=""font-size:60px;"">+</div>","null","html-keyboard-response","60","843868","0.0-6.0-0.27","LIGR","2","f","rechts","24","","fixation","","","",""
"1008","img/30_90.png","74","image-keyboard-response","61","844878","0.0-6.0-1.27","LIGR","2","f","rechts","24","","","object","j","30","true"
"null","<div style=""font-size:60px;"">+</div>","null","html-keyboard-response","62","845229","0.0-6.0-0.28","LIGR","2","f","rechts","24","","fixation","","","",""
"727","img/0_330.png","70","image-keyboard-response","63","845958","0.0-6.0-1.28","LIGR","2","f","rechts","24","","","object","f","0","true"
"null","<div style=""font-size:60px;"">+</div>","null","html-keyboard-response","64","846459","0.0-6.0-0.29","LIGR","2","f","rechts","24","","fixation","","","",""
"1651","img/60_30.png","70","image-keyboard-response","65","848111","0.0-6.0-1.29","LIGR","2","f","rechts","24","","","object","f","60","true"
"null","<div style=""font-size:60px;"">+</div>","null","html-keyboard-response","66","848613","0.0-6.0-0.30","LIGR","2","f","rechts","24","","fixation","","","",""
"936","img/120_30.png","70","image-keyboard-response","67","849551","0.0-6.0-1.30","LIGR","2","f","rechts","24","","","object","f","120","true"
"null","<div style=""font-size:60px;"">+</div>","null","html-keyboard-response","68","849952","0.0-6.0-0.31","LIGR","2","f","rechts","24","","fixation","","","",""
"895","img/90_300.png","74","image-keyboard-response","69","850849","0.0-6.0-1.31","LIGR","2","f","rechts","24","","","object","j","90","true"
"null","<div style=""font-size:60px;"">+</div>","null","html-keyboard-response","70","851351","0.0-6.0-0.32","LIGR","2","f","rechts","24","","fixation","","","",""
"1517","img/120_180.png","70","image-keyboard-response","71","852868","0.0-6.0-1.32","LIGR","2","f","rechts","24","","","object","f","120","true"
"null","<div style=""font-size:60px;"">+</div>","null","html-keyboard-response","72","853270","0.0-6.0-0.33","LIGR","2","f","rechts","24","","fixation","","","",""
"932","img/30_60.png","74","image-keyboard-response","73","854204","0.0-6.0-1.33","LIGR","2","f","rechts","24","","","object","j","30","true"
"null","<div style=""font-size:60px;"">+</div>","null","html-keyboard-response","74","854556","0.0-6.0-0.34","LIGR","2","f","rechts","24","","fixation","","","",""
"687","img/0_90.png","74","image-keyboard-response","75","855245","0.0-6.0-1.34","LIGR","2","f","rechts","24","","","object","j","0","true"
"null","<div style=""font-size:60px;"">+</div>","null","html-keyboard-response","76","855546","0.0-6.0-0.35","LIGR","2","f","rechts","24","","fixation","","","",""
"1119","img/150_60.png","70","image-keyboard-response","77","856667","0.0-6.0-1.35","LIGR","2","f","rechts","24","","","object","f","150","true"
"null","<div style=""font-size:60px;"">+</div>","null","html-keyboard-response","78","856969","0.0-6.0-0.36","LIGR","2","f","rechts","24","","fixation","","","",""
"1177","img/L120_180.png","74","image-keyboard-response","79","858148","0.0-6.0-1.36","LIGR","2","f","rechts","24","","","object","j","120","true"
"null","<div style=""font-size:60px;"">+</div>","null","html-keyboard-response","80","858549","0.0-6.0-0.37","LIGR","2","f","rechts","24","","fixation","","","",""
"874","img/30_270.png","70","image-keyboard-response","81","859425","0.0-6.0-1.37","LIGR","2","f","rechts","24","","","object","f","30","true"
"null","<div style=""font-size:60px;"">+</div>","null","html-keyboard-response","82","859926","0.0-6.0-0.38","LIGR","2","f","rechts","24","","fixation","","","",""
"1205","img/90_30.png","70","image-keyboard-response","83","861132","0.0-6.0-1.38","LIGR","2","f","rechts","24","","","object","f","90","true"
"null","<div style=""font-size:60px;"">+</div>","null","html-keyboard-response","84","861534","0.0-6.0-0.39","LIGR","2","f","rechts","24","","fixation","","","",""
"1007","img/150_270.png","74","image-keyboard-response","85","862543","0.0-6.0-1.39","LIGR","2","f","rechts","24","","","object","j","150","true"
"null","<div style=""font-size:60px;"">+</div>","null","html-keyboard-response","86","862944","0.0-6.0-0.40","LIGR","2","f","rechts","24","","fixation","","","",""
"776","img/0_150.png","74","image-keyboard-response","87","863721","0.0-6.0-1.40","LIGR","2","f","rechts","24","","","object","j","0","true"
"null","<div style=""font-size:60px;"">+</div>","null","html-keyboard-response","88","864123","0.0-6.0-0.41","LIGR","2","f","rechts","24","","fixation","","","",""
"833","img/90_330.png","74","image-keyboard-response","89","864957","0.0-6.0-1.41","LIGR","2","f","rechts","24","","","object","j","90","true"
"null","<div style=""font-size:60px;"">+</div>","null","html-keyboard-response","90","865409","0.0-6.0-0.42","LIGR","2","f","rechts","24","","fixation","","","",""
"1092","img/120_330.png","74","image-keyboard-response","91","866502","0.0-6.0-1.42","LIGR","2","f","rechts","24","","","object","j","120","true"
"null","<div style=""font-size:60px;"">+</div>","null","html-keyboard-response","92","866904","0.0-6.0-0.43","LIGR","2","f","rechts","24","","fixation","","","",""
"1159","img/30_120.png","74","image-keyboard-response","93","868065","0.0-6.0-1.43","LIGR","2","f","rechts","24","","","object","j","30","true"
"null","<div style=""font-size:60px;"">+</div>","null","html-keyboard-response","94","868417","0.0-6.0-0.44","LIGR","2","f","rechts","24","","fixation","","","",""
"1012","img/120_90.png","70","image-keyboard-response","95","869430","0.0-6.0-1.44","LIGR","2","f","rechts","24","","","object","f","120","true"
"null","<div style=""font-size:60px;"">+</div>","null","html-keyboard-response","96","869832","0.0-6.0-0.45","LIGR","2","f","rechts","24","","fixation","","","",""
"960","img/90_210.png","70","image-keyboard-response","97","870793","0.0-6.0-1.45","LIGR","2","f","rechts","24","","","object","f","90","true"
"null","<div style=""font-size:60px;"">+</div>","null","html-keyboard-response","98","871294","0.0-6.0-0.46","LIGR","2","f","rechts","24","","fixation","","","",""
"848","img/120_270.png","74","image-keyboard-response","99","872144","0.0-6.0-1.46","LIGR","2","f","rechts","24","","","object","j","120","true"
"null","<div style=""font-size:60px;"">+</div>","null","html-keyboard-response","100","872646","0.0-6.0-0.47","LIGR","2","f","rechts","24","","fixation","","","",""
"878","img/30_240.png","70","image-keyboard-response","101","873525","0.0-6.0-1.47","LIGR","2","f","rechts","24","","","object","f","30","true"
"null","<div style=""font-size:60px;"">+</div>","null","html-keyboard-response","102","874027","0.0-6.0-0.48","LIGR","2","f","rechts","24","","fixation","","","",""
"1062","img/L30_180.png","74","image-keyboard-response","103","875091","0.0-6.0-1.48","LIGR","2","f","rechts","24","","","object","j","30","true"
"null","<div style=""font-size:60px;"">+</div>","null","html-keyboard-response","104","875492","0.0-6.0-0.49","LIGR","2","f","rechts","24","","fixation","","","",""
"788","img/60_330.png","74","image-keyboard-response","105","876281","0.0-6.0-1.49","LIGR","2","f","rechts","24","","","object","j","60","true"
"null","<div style=""font-size:60px;"">+</div>","null","html-keyboard-response","106","876582","0.0-6.0-0.50","LIGR","2","f","rechts","24","","fixation","","","",""
"1332","img/120_150.png","70","image-keyboard-response","107","877915","0.0-6.0-1.50","LIGR","2","f","rechts","24","","","object","j","120","false"
"null","<div style=""font-size:60px;"">+</div>","null","html-keyboard-response","108","878367","0.0-6.0-0.51","LIGR","2","f","rechts","24","","fixation","","","",""
"1168","img/150_180.png","74","image-keyboard-response","109","879536","0.0-6.0-1.51","LIGR","2","f","rechts","24","","","object","f","150","false"
"null","<div style=""font-size:60px;"">+</div>","null","html-keyboard-response","110","879838","0.0-6.0-0.52","LIGR","2","f","rechts","24","","fixation","","","",""
"1009","img/120_90.png","70","image-keyboard-response","111","880847","0.0-6.0-1.52","LIGR","2","f","rechts","24","","","object","f","120","true"
"null","<div style=""font-size:60px;"">+</div>","null","html-keyboard-response","112","881149","0.0-6.0-0.53","LIGR","2","f","rechts","24","","fixation","","","",""
"1066","img/120_150.png","70","image-keyboard-response","113","882215","0.0-6.0-1.53","LIGR","2","f","rechts","24","","","object","j","120","false"
"null","<div style=""font-size:60px;"">+</div>","null","html-keyboard-response","114","882717","0.0-6.0-0.54","LIGR","2","f","rechts","24","","fixation","","","",""
"1187","img/90_210.png","70","image-keyboard-response","115","883905","0.0-6.0-1.54","LIGR","2","f","rechts","24","","","object","f","90","true"
"null","<div style=""font-size:60px;"">+</div>","null","html-keyboard-response","116","884307","0.0-6.0-0.55","LIGR","2","f","rechts","24","","fixation","","","",""
"777","img/0_300.png","70","image-keyboard-response","117","885084","0.0-6.0-1.55","LIGR","2","f","rechts","24","","","object","f","0","true"
"null","<div style=""font-size:60px;"">+</div>","null","html-keyboard-response","118","885486","0.0-6.0-0.56","LIGR","2","f","rechts","24","","fixation","","","",""
"781","img/0_270.png","70","image-keyboard-response","119","886267","0.0-6.0-1.56","LIGR","2","f","rechts","24","","","object","f","0","true"
"null","<div style=""font-size:60px;"">+</div>","null","html-keyboard-response","120","886619","0.0-6.0-0.57","LIGR","2","f","rechts","24","","fixation","","","",""
"962","img/30_240.png","70","image-keyboard-response","121","887582","0.0-6.0-1.57","LIGR","2","f","rechts","24","","","object","f","30","true"
"null","<div style=""font-size:60px;"">+</div>","null","html-keyboard-response","122","887984","0.0-6.0-0.58","LIGR","2","f","rechts","24","","fixation","","","",""
"2148","img/L30_180.png","74","image-keyboard-response","123","890132","0.0-6.0-1.58","LIGR","2","f","rechts","24","","","object","j","30","true"
"null","<div style=""font-size:60px;"">+</div>","null","html-keyboard-response","124","890534","0.0-6.0-0.59","LIGR","2","f","rechts","24","","fixation","","","",""
"1324","img/90_240.png","74","image-keyboard-response","125","891859","0.0-6.0-1.59","LIGR","2","f","rechts","24","","","object","f","90","false"
"null","<div style=""font-size:60px;"">+</div>","null","html-keyboard-response","126","892361","0.0-6.0-0.60","LIGR","2","f","rechts","24","","fixation","","","",""
"1345","img/30_60.png","74","image-keyboard-response","127","893706","0.0-6.0-1.60","LIGR","2","f","rechts","24","","","object","j","30","true"
"null","<div style=""font-size:60px;"">+</div>","null","html-keyboard-response","128","894007","0.0-6.0-0.61","LIGR","2","f","rechts","24","","fixation","","","",""
"817","img/90_300.png","74","image-keyboard-response","129","894825","0.0-6.0-1.61","LIGR","2","f","rechts","24","","","object","j","90","true"
"null","<div style=""font-size:60px;"">+</div>","null","html-keyboard-response","130","895327","0.0-6.0-0.62","LIGR","2","f","rechts","24","","fixation","","","",""
"1112","img/90_150.png","74","image-keyboard-response","131","896440","0.0-6.0-1.62","LIGR","2","f","rechts","24","","","object","j","90","true"
"null","<div style=""font-size:60px;"">+</div>","null","html-keyboard-response","132","896941","0.0-6.0-0.63","LIGR","2","f","rechts","24","","fixation","","","",""
"1329","img/90_180.png","70","image-keyboard-response","133","898272","0.0-6.0-1.63","LIGR","2","f","rechts","24","","","object","f","90","true"
"null","<div style=""font-size:60px;"">+</div>","null","html-keyboard-response","134","898623","0.0-6.0-0.64","LIGR","2","f","rechts","24","","fixation","","","",""
"1278","img/120_270.png","74","image-keyboard-response","135","899903","0.0-6.0-1.64","LIGR","2","f","rechts","24","","","object","j","120","true"
"null","<div style=""font-size:60px;"">+</div>","null","html-keyboard-response","136","900404","0.0-6.0-0.65","LIGR","2","f","rechts","24","","fixation","","","",""
"939","img/120_30.png","70","image-keyboard-response","137","901344","0.0-6.0-1.65","LIGR","2","f","rechts","24","","","object","f","120","true"
"null","<div style=""font-size:60px;"">+</div>","null","html-keyboard-response","138","901845","0.0-6.0-0.66","LIGR","2","f","rechts","24","","fixation","","","",""
"836","img/30_270.png","70","image-keyboard-response","139","902682","0.0-6.0-1.66","LIGR","2","f","rechts","24","","","object","f","30","true"
"null","<div style=""font-size:60px;"">+</div>","null","html-keyboard-response","140","903134","0.0-6.0-0.67","LIGR","2","f","rechts","24","","fixation","","","",""
"1004","img/150_90.png","70","image-keyboard-response","141","904140","0.0-6.0-1.67","LIGR","2","f","rechts","24","","","object","f","150","true"
"null","<div style=""font-size:60px;"">+</div>","null","html-keyboard-response","142","904541","0.0-6.0-0.68","LIGR","2","f","rechts","24","","fixation","","","",""
"841","img/30_120.png","74","image-keyboard-response","143","905384","0.0-6.0-1.68","LIGR","2","f","rechts","24","","","object","j","30","true"
"null","<div style=""font-size:60px;"">+</div>","null","html-keyboard-response","144","905735","0.0-6.0-0.69","LIGR","2","f","rechts","24","","fixation","","","",""
"2091","img/150_180.png","70","image-keyboard-response","145","907828","0.0-6.0-1.69","LIGR","2","f","rechts","24","","","object","f","150","true"
"null","<div style=""font-size:60px;"">+</div>","null","html-keyboard-response","146","908329","0.0-6.0-0.70","LIGR","2","f","rechts","24","","fixation","","","",""
"902","img/60_30.png","70","image-keyboard-response","147","909232","0.0-6.0-1.70","LIGR","2","f","rechts","24","","","object","f","60","true"
"null","<div style=""font-size:60px;"">+</div>","null","html-keyboard-response","148","909634","0.0-6.0-0.71","LIGR","2","f","rechts","24","","fixation","","","",""
"879","img/30_90.png","74","image-keyboard-response","149","910514","0.0-6.0-1.71","LIGR","2","f","rechts","24","","","object","j","30","true"
"null","<div style=""font-size:60px;"">+</div>","null","html-keyboard-response","150","910966","0.0-6.0-0.72","LIGR","2","f","rechts","24","","fixation","","","",""
"1040","img/150_240.png","74","image-keyboard-response","151","912007","0.0-6.0-1.72","LIGR","2","f","rechts","24","","","object","j","150","true"
"null","<div style=""font-size:60px;"">+</div>","null","html-keyboard-response","152","912359","0.0-6.0-0.73","LIGR","2","f","rechts","24","","fixation","","","",""
"1002","img/90_120.png","70","image-keyboard-response","153","913363","0.0-6.0-1.73","LIGR","2","f","rechts","24","","","object","j","90","false"
"null","<div style=""font-size:60px;"">+</div>","null","html-keyboard-response","154","913865","0.0-6.0-0.74","LIGR","2","f","rechts","24","","fixation","","","",""
"1274","img/120_210.png","74","image-keyboard-response","155","915139","0.0-6.0-1.74","LIGR","2","f","rechts","24","","","object","f","120","false"
"null","<div style=""font-size:60px;"">+</div>","null","html-keyboard-response","156","915591","0.0-6.0-0.75","LIGR","2","f","rechts","24","","fixation","","","",""
"913","img/150_270.png","74","image-keyboard-response","157","916505","0.0-6.0-1.75","LIGR","2","f","rechts","24","","","object","j","150","true"
"null","<div style=""font-size:60px;"">+</div>","null","html-keyboard-response","158","916957","0.0-6.0-0.76","LIGR","2","f","rechts","24","","fixation","","","",""
"885","img/150_300.png","74","image-keyboard-response","159","917842","0.0-6.0-1.76","LIGR","2","f","rechts","24","","","object","j","150","true"
"null","<div style=""font-size:60px;"">+</div>","null","html-keyboard-response","160","918244","0.0-6.0-0.77","LIGR","2","f","rechts","24","","fixation","","","",""
"800","img/120_330.png","74","image-keyboard-response","161","919045","0.0-6.0-1.77","LIGR","2","f","rechts","24","","","object","j","120","true"
"null","<div style=""font-size:60px;"">+</div>","null","html-keyboard-response","162","919347","0.0-6.0-0.78","LIGR","2","f","rechts","24","","fixation","","","",""
"1064","img/30_300.png","70","image-keyboard-response","163","920411","0.0-6.0-1.78","LIGR","2","f","rechts","24","","","object","f","30","true"
"null","<div style=""font-size:60px;"">+</div>","null","html-keyboard-response","164","920913","0.0-6.0-0.79","LIGR","2","f","rechts","24","","fixation","","","",""
"684","img/0_240.png","70","image-keyboard-response","165","921597","0.0-6.0-1.79","LIGR","2","f","rechts","24","","","object","f","0","true"
"null","<div style=""font-size:60px;"">+</div>","null","html-keyboard-response","166","921999","0.0-6.0-0.80","LIGR","2","f","rechts","24","","fixation","","","",""
"1381","img/L150_180.png","74","image-keyboard-response","167","923380","0.0-6.0-1.80","LIGR","2","f","rechts","24","","","object","j","150","true"
"null","<div style=""font-size:60px;"">+</div>","null","html-keyboard-response","168","923732","0.0-6.0-0.81","LIGR","2","f","rechts","24","","fixation","","","",""
"1474","img/60_90.png","74","image-keyboard-response","169","925207","0.0-6.0-1.81","LIGR","2","f","rechts","24","","","object","j","60","true"
"null","<div style=""font-size:60px;"">+</div>","null","html-keyboard-response","170","925659","0.0-6.0-0.82","LIGR","2","f","rechts","24","","fixation","","","",""
"920","img/150_120.png","70","image-keyboard-response","171","926579","0.0-6.0-1.82","LIGR","2","f","rechts","24","","","object","f","150","true"
"null","<div style=""font-size:60px;"">+</div>","null","html-keyboard-response","172","926931","0.0-6.0-0.83","LIGR","2","f","rechts","24","","fixation","","","",""
"1221","img/120_180.png","70","image-keyboard-response","173","928152","0.0-6.0-1.83","LIGR","2","f","rechts","24","","","object","f","120","true"
"null","<div style=""font-size:60px;"">+</div>","null","html-keyboard-response","174","928604","0.0-6.0-0.84","LIGR","2","f","rechts","24","","fixation","","","",""
"752","img/90_30.png","70","image-keyboard-response","175","929356","0.0-6.0-1.84","LIGR","2","f","rechts","24","","","object","f","90","true"
"null","<div style=""font-size:60px;"">+</div>","null","html-keyboard-response","176","929858","0.0-6.0-0.85","LIGR","2","f","rechts","24","","fixation","","","",""
"1395","img/L120_180.png","74","image-keyboard-response","177","931253","0.0-6.0-1.85","LIGR","2","f","rechts","24","","","object","j","120","true"
"null","<div style=""font-size:60px;"">+</div>","null","html-keyboard-response","178","931705","0.0-6.0-0.86","LIGR","2","f","rechts","24","","fixation","","","",""
"638","img/0_330.png","70","image-keyboard-response","179","932344","0.0-6.0-1.86","LIGR","2","f","rechts","24","","","object","f","0","true"
"null","<div style=""font-size:60px;"">+</div>","null","html-keyboard-response","180","932845","0.0-6.0-0.87","LIGR","2","f","rechts","24","","fixation","","","",""
"972","img/60_330.png","74","image-keyboard-response","181","933819","0.0-6.0-1.87","LIGR","2","f","rechts","24","","","object","j","60","true"
"null","<div style=""font-size:60px;"">+</div>","null","html-keyboard-response","182","934271","0.0-6.0-0.88","LIGR","2","f","rechts","24","","fixation","","","",""
"1244","img/60_180.png","70","image-keyboard-response","183","935516","0.0-6.0-1.88","LIGR","2","f","rechts","24","","","object","f","60","true"
"null","<div style=""font-size:60px;"">+</div>","null","html-keyboard-response","184","935917","0.0-6.0-0.89","LIGR","2","f","rechts","24","","fixation","","","",""
"653","img/0_90.png","74","image-keyboard-response","185","936571","0.0-6.0-1.89","LIGR","2","f","rechts","24","","","object","j","0","true"
"null","<div style=""font-size:60px;"">+</div>","null","html-keyboard-response","186","937023","0.0-6.0-0.90","LIGR","2","f","rechts","24","","fixation","","","",""
"1135","img/150_60.png","74","image-keyboard-response","187","938158","0.0-6.0-1.90","LIGR","2","f","rechts","24","","","object","f","150","false"
"null","<div style=""font-size:60px;"">+</div>","null","html-keyboard-response","188","938510","0.0-6.0-0.91","LIGR","2","f","rechts","24","","fixation","","","",""
"925","img/0_60.png","74","image-keyboard-response","189","939435","0.0-6.0-1.91","LIGR","2","f","rechts","24","","","object","j","0","true"
"null","<div style=""font-size:60px;"">+</div>","null","html-keyboard-response","190","939737","0.0-6.0-0.92","LIGR","2","f","rechts","24","","fixation","","","",""
"1078","img/L60_180.png","74","image-keyboard-response","191","940815","0.0-6.0-1.92","LIGR","2","f","rechts","24","","","object","j","60","true"
"null","<div style=""font-size:60px;"">+</div>","null","html-keyboard-response","192","941267","0.0-6.0-0.93","LIGR","2","f","rechts","24","","fixation","","","",""
"868","img/60_210.png","70","image-keyboard-response","193","942136","0.0-6.0-1.93","LIGR","2","f","rechts","24","","","object","f","60","true"
"null","<div style=""font-size:60px;"">+</div>","null","html-keyboard-response","194","942637","0.0-6.0-0.94","LIGR","2","f","rechts","24","","fixation","","","",""
"961","img/30_180.png","70","image-keyboard-response","195","943600","0.0-6.0-1.94","LIGR","2","f","rechts","24","","","object","f","30","true"
"null","<div style=""font-size:60px;"">+</div>","null","html-keyboard-response","196","943901","0.0-6.0-0.95","LIGR","2","f","rechts","24","","fixation","","","",""
"979","img/90_60.png","70","image-keyboard-response","197","944881","0.0-6.0-1.95","LIGR","2","f","rechts","24","","","object","f","90","true"
"null","<div style=""font-size:60px;"">+</div>","null","html-keyboard-response","198","945383","0.0-6.0-0.96","LIGR","2","f","rechts","24","","fixation","","","",""
"820","img/60_150.png","74","image-keyboard-response","199","946204","0.0-6.0-1.96","LIGR","2","f","rechts","24","","","object","j","60","true"
"null","<div style=""font-size:60px;"">+</div>","null","html-keyboard-response","200","946655","0.0-6.0-0.97","LIGR","2","f","rechts","24","","fixation","","","",""
"638","img/0_210.png","70","image-keyboard-response","201","947295","0.0-6.0-1.97","LIGR","2","f","rechts","24","","","object","f","0","true"
"null","<div style=""font-size:60px;"">+</div>","null","html-keyboard-response","202","947746","0.0-6.0-0.98","LIGR","2","f","rechts","24","","fixation","","","",""
"644","img/0_30.png","74","image-keyboard-response","203","948391","0.0-6.0-1.98","LIGR","2","f","rechts","24","","","object","j","0","true"
"null","<div style=""font-size:60px;"">+</div>","null","html-keyboard-response","204","948843","0.0-6.0-0.99","LIGR","2","f","rechts","24","","fixation","","","",""
"1200","img/60_270.png","74","image-keyboard-response","205","950043","0.0-6.0-1.99","LIGR","2","f","rechts","24","","","object","f","60","false"
"null","<div style=""font-size:60px;"">+</div>","null","html-keyboard-response","206","950495","0.0-6.0-0.100","LIGR","2","f","rechts","24","","fixation","","","",""
"820","img/0_150.png","74","image-keyboard-response","207","951317","0.0-6.0-1.100","LIGR","2","f","rechts","24","","","object","j","0","true"
"null","<div style=""font-size:60px;"">+</div>","null","html-keyboard-response","208","951618","0.0-6.0-0.101","LIGR","2","f","rechts","24","","fixation","","","",""
"1364","img/L90_180.png","74","image-keyboard-response","209","952984","0.0-6.0-1.101","LIGR","2","f","rechts","24","","","object","j","90","true"
"null","<div style=""font-size:60px;"">+</div>","null","html-keyboard-response","210","953435","0.0-6.0-0.102","LIGR","2","f","rechts","24","","fixation","","","",""
"654","img/0_120.png","74","image-keyboard-response","211","954091","0.0-6.0-1.102","LIGR","2","f","rechts","24","","","object","j","0","true"
"null","<div style=""font-size:60px;"">+</div>","null","html-keyboard-response","212","954492","0.0-6.0-0.103","LIGR","2","f","rechts","24","","fixation","","","",""
"808","img/90_330.png","74","image-keyboard-response","213","955301","0.0-6.0-1.103","LIGR","2","f","rechts","24","","","object","j","90","true"
"null","<div style=""font-size:60px;"">+</div>","null","html-keyboard-response","214","955803","0.0-6.0-0.104","LIGR","2","f","rechts","24","","fixation","","","",""
"1004","img/120_90.png","70","image-keyboard-response","215","956809","0.0-6.0-1.104","LIGR","2","f","rechts","24","","","object","f","120","true"
"null","<div style=""font-size:60px;"">+</div>","null","html-keyboard-response","216","957110","0.0-6.0-0.105","LIGR","2","f","rechts","24","","fixation","","","",""
"1115","img/90_150.png","70","image-keyboard-response","217","958226","0.0-6.0-1.105","LIGR","2","f","rechts","24","","","object","j","90","false"
"null","<div style=""font-size:60px;"">+</div>","null","html-keyboard-response","218","958628","0.0-6.0-0.106","LIGR","2","f","rechts","24","","fixation","","","",""
"707","img/60_90.png","70","image-keyboard-response","219","959336","0.0-6.0-1.106","LIGR","2","f","rechts","24","","","object","j","60","false"
"null","<div style=""font-size:60px;"">+</div>","null","html-keyboard-response","220","959788","0.0-6.0-0.107","LIGR","2","f","rechts","24","","fixation","","","",""
"1210","img/150_270.png","74","image-keyboard-response","221","960999","0.0-6.0-1.107","LIGR","2","f","rechts","24","","","object","j","150","true"
"null","<div style=""font-size:60px;"">+</div>","null","html-keyboard-response","222","961501","0.0-6.0-0.108","LIGR","2","f","rechts","24","","fixation","","","",""
"895","img/30_120.png","74","image-keyboard-response","223","962397","0.0-6.0-1.108","LIGR","2","f","rechts","24","","","object","j","30","true"
"null","<div style=""font-size:60px;"">+</div>","null","html-keyboard-response","224","962749","0.0-6.0-0.109","LIGR","2","f","rechts","24","","fixation","","","",""
"1267","img/60_150.png","74","image-keyboard-response","225","964017","0.0-6.0-1.109","LIGR","2","f","rechts","24","","","object","j","60","true"
"null","<div style=""font-size:60px;"">+</div>","null","html-keyboard-response","226","964419","0.0-6.0-0.110","LIGR","2","f","rechts","24","","fixation","","","",""
"665","img/0_60.png","74","image-keyboard-response","227","965085","0.0-6.0-1.110","LIGR","2","f","rechts","24","","","object","j","0","true"
"null","<div style=""font-size:60px;"">+</div>","null","html-keyboard-response","228","965437","0.0-6.0-0.111","LIGR","2","f","rechts","24","","fixation","","","",""
"1092","img/150_180.png","70","image-keyboard-response","229","966529","0.0-6.0-1.111","LIGR","2","f","rechts","24","","","object","f","150","true"
"null","<div style=""font-size:60px;"">+</div>","null","html-keyboard-response","230","966831","0.0-6.0-0.112","LIGR","2","f","rechts","24","","fixation","","","",""
"934","img/30_240.png","70","image-keyboard-response","231","967765","0.0-6.0-1.112","LIGR","2","f","rechts","24","","","object","f","30","true"
"null","<div style=""font-size:60px;"">+</div>","null","html-keyboard-response","232","968167","0.0-6.0-0.113","LIGR","2","f","rechts","24","","fixation","","","",""
"652","img/0_150.png","74","image-keyboard-response","233","968819","0.0-6.0-1.113","LIGR","2","f","rechts","24","","","object","j","0","true"
"null","<div style=""font-size:60px;"">+</div>","null","html-keyboard-response","234","969271","0.0-6.0-0.114","LIGR","2","f","rechts","24","","fixation","","","",""
"857","img/120_30.png","70","image-keyboard-response","235","970129","0.0-6.0-1.114","LIGR","2","f","rechts","24","","","object","f","120","true"
"null","<div style=""font-size:60px;"">+</div>","null","html-keyboard-response","236","970531","0.0-6.0-0.115","LIGR","2","f","rechts","24","","fixation","","","",""
"924","img/L90_180.png","74","image-keyboard-response","237","971456","0.0-6.0-1.115","LIGR","2","f","rechts","24","","","object","j","90","true"
"null","<div style=""font-size:60px;"">+</div>","null","html-keyboard-response","238","971858","0.0-6.0-0.116","LIGR","2","f","rechts","24","","fixation","","","",""
"1068","img/150_300.png","70","image-keyboard-response","239","972926","0.0-6.0-1.116","LIGR","2","f","rechts","24","","","object","j","150","false"
"null","<div style=""font-size:60px;"">+</div>","null","html-keyboard-response","240","973228","0.0-6.0-0.117","LIGR","2","f","rechts","24","","fixation","","","",""
"1970","img/L150_180.png","74","image-keyboard-response","241","975198","0.0-6.0-1.117","LIGR","2","f","rechts","24","","","object","j","150","true"
"null","<div style=""font-size:60px;"">+</div>","null","html-keyboard-response","242","975500","0.0-6.0-0.118","LIGR","2","f","rechts","24","","fixation","","","",""
"665","img/0_270.png","70","image-keyboard-response","243","976165","0.0-6.0-1.118","LIGR","2","f","rechts","24","","","object","f","0","true"
"null","<div style=""font-size:60px;"">+</div>","null","html-keyboard-response","244","976517","0.0-6.0-0.119","LIGR","2","f","rechts","24","","fixation","","","",""
"1106","img/60_270.png","70","image-keyboard-response","245","977623","0.0-6.0-1.119","LIGR","2","f","rechts","24","","","object","f","60","true"
"null","<div style=""font-size:60px;"">+</div>","null","html-keyboard-response","246","978075","0.0-6.0-0.120","LIGR","2","f","rechts","24","","fixation","","","",""
"601","img/0_240.png","70","image-keyboard-response","247","978676","0.0-6.0-1.120","LIGR","2","f","rechts","24","","","object","f","0","true"
"null","<div style=""font-size:60px;"">+</div>","null","html-keyboard-response","248","979027","0.0-6.0-0.121","LIGR","2","f","rechts","24","","fixation","","","",""
"973","img/60_30.png","70","image-keyboard-response","249","980001","0.0-6.0-1.121","LIGR","2","f","rechts","24","","","object","f","60","true"
"null","<div style=""font-size:60px;"">+</div>","null","html-keyboard-response","250","980353","0.0-6.0-0.122","LIGR","2","f","rechts","24","","fixation","","","",""
"1278","img/60_210.png","70","image-keyboard-response","251","981631","0.0-6.0-1.122","LIGR","2","f","rechts","24","","","object","f","60","true"
"null","<div style=""font-size:60px;"">+</div>","null","html-keyboard-response","252","982133","0.0-6.0-0.123","LIGR","2","f","rechts","24","","fixation","","","",""
"787","img/90_330.png","74","image-keyboard-response","253","982920","0.0-6.0-1.123","LIGR","2","f","rechts","24","","","object","j","90","true"
"null","<div style=""font-size:60px;"">+</div>","null","html-keyboard-response","254","983422","0.0-6.0-0.124","LIGR","2","f","rechts","24","","fixation","","","",""
"893","img/90_60.png","70","image-keyboard-response","255","984315","0.0-6.0-1.124","LIGR","2","f","rechts","24","","","object","f","90","true"
"null","<div style=""font-size:60px;"">+</div>","null","html-keyboard-response","256","984667","0.0-6.0-0.125","LIGR","2","f","rechts","24","","fixation","","","",""
"726","img/60_330.png","74","image-keyboard-response","257","985393","0.0-6.0-1.125","LIGR","2","f","rechts","24","","","object","j","60","true"
"null","<div style=""font-size:60px;"">+</div>","null","html-keyboard-response","258","985895","0.0-6.0-0.126","LIGR","2","f","rechts","24","","fixation","","","",""
"855","img/90_240.png","70","image-keyboard-response","259","986750","0.0-6.0-1.126","LIGR","2","f","rechts","24","","","object","f","90","true"
"null","<div style=""font-size:60px;"">+</div>","null","html-keyboard-response","260","987051","0.0-6.0-0.127","LIGR","2","f","rechts","24","","fixation","","","",""
"1315","img/120_180.png","70","image-keyboard-response","261","988367","0.0-6.0-1.127","LIGR","2","f","rechts","24","","","object","f","120","true"
"null","<div style=""font-size:60px;"">+</div>","null","html-keyboard-response","262","988869","0.0-6.0-0.128","LIGR","2","f","rechts","24","","fixation","","","",""
"852","img/90_210.png","70","image-keyboard-response","263","989721","0.0-6.0-1.128","LIGR","2","f","rechts","24","","","object","f","90","true"
"null","<div style=""font-size:60px;"">+</div>","null","html-keyboard-response","264","990123","0.0-6.0-0.129","LIGR","2","f","rechts","24","","fixation","","","",""
"689","img/0_90.png","74","image-keyboard-response","265","990813","0.0-6.0-1.129","LIGR","2","f","rechts","24","","","object","j","0","true"
"null","<div style=""font-size:60px;"">+</div>","null","html-keyboard-response","266","991264","0.0-6.0-0.130","LIGR","2","f","rechts","24","","fixation","","","",""
"963","img/150_240.png","74","image-keyboard-response","267","992228","0.0-6.0-1.130","LIGR","2","f","rechts","24","","","object","j","150","true"
"null","<div style=""font-size:60px;"">+</div>","null","html-keyboard-response","268","992730","0.0-6.0-0.131","LIGR","2","f","rechts","24","","fixation","","","",""
"1144","img/150_120.png","70","image-keyboard-response","269","993875","0.0-6.0-1.131","LIGR","2","f","rechts","24","","","object","f","150","true"
"null","<div style=""font-size:60px;"">+</div>","null","html-keyboard-response","270","994226","0.0-6.0-0.132","LIGR","2","f","rechts","24","","fixation","","","",""
"1313","img/60_180.png","70","image-keyboard-response","271","995541","0.0-6.0-1.132","LIGR","2","f","rechts","24","","","object","f","60","true"
"null","<div style=""font-size:60px;"">+</div>","null","html-keyboard-response","272","996042","0.0-6.0-0.133","LIGR","2","f","rechts","24","","fixation","","","",""
"1069","img/120_330.png","74","image-keyboard-response","273","997112","0.0-6.0-1.133","LIGR","2","f","rechts","24","","","object","j","120","true"
"null","<div style=""font-size:60px;"">+</div>","null","html-keyboard-response","274","997564","0.0-6.0-0.134","LIGR","2","f","rechts","24","","fixation","","","",""
"1306","img/150_60.png","70","image-keyboard-response","275","998872","0.0-6.0-1.134","LIGR","2","f","rechts","24","","","object","f","150","true"
"null","<div style=""font-size:60px;"">+</div>","null","html-keyboard-response","276","999173","0.0-6.0-0.135","LIGR","2","f","rechts","24","","fixation","","","",""
"636","img/0_330.png","70","image-keyboard-response","277","999811","0.0-6.0-1.135","LIGR","2","f","rechts","24","","","object","f","0","true"
"null","<div style=""font-size:60px;"">+</div>","null","html-keyboard-response","278","1000212","0.0-6.0-0.136","LIGR","2","f","rechts","24","","fixation","","","",""
"1413","img/L60_180.png","74","image-keyboard-response","279","1001626","0.0-6.0-1.136","LIGR","2","f","rechts","24","","","object","j","60","true"
"null","<div style=""font-size:60px;"">+</div>","null","html-keyboard-response","280","1001978","0.0-6.0-0.137","LIGR","2","f","rechts","24","","fixation","","","",""
"1145","img/90_120.png","70","image-keyboard-response","281","1003124","0.0-6.0-1.137","LIGR","2","f","rechts","24","","","object","j","90","false"
"null","<div style=""font-size:60px;"">+</div>","null","html-keyboard-response","282","1003626","0.0-6.0-0.138","LIGR","2","f","rechts","24","","fixation","","","",""
"677","img/0_30.png","74","image-keyboard-response","283","1004304","0.0-6.0-1.138","LIGR","2","f","rechts","24","","","object","j","0","true"
"null","<div style=""font-size:60px;"">+</div>","null","html-keyboard-response","284","1004706","0.0-6.0-0.139","LIGR","2","f","rechts","24","","fixation","","","",""
"1139","img/30_270.png","70","image-keyboard-response","285","1005846","0.0-6.0-1.139","LIGR","2","f","rechts","24","","","object","f","30","true"
"null","<div style=""font-size:60px;"">+</div>","null","html-keyboard-response","286","1006148","0.0-6.0-0.140","LIGR","2","f","rechts","24","","fixation","","","",""
"611","img/0_300.png","70","image-keyboard-response","287","1006760","0.0-6.0-1.140","LIGR","2","f","rechts","24","","","object","f","0","true"
"null","<div style=""font-size:60px;"">+</div>","null","html-keyboard-response","288","1007062","0.0-6.0-0.141","LIGR","2","f","rechts","24","","fixation","","","",""
"1275","img/30_90.png","74","image-keyboard-response","289","1008338","0.0-6.0-1.141","LIGR","2","f","rechts","24","","","object","j","30","true"
"null","<div style=""font-size:60px;"">+</div>","null","html-keyboard-response","290","1008690","0.0-6.0-0.142","LIGR","2","f","rechts","24","","fixation","","","",""
"1225","img/120_210.png","70","image-keyboard-response","291","1009916","0.0-6.0-1.142","LIGR","2","f","rechts","24","","","object","f","120","true"
"null","<div style=""font-size:60px;"">+</div>","null","html-keyboard-response","292","1010368","0.0-6.0-0.143","LIGR","2","f","rechts","24","","fixation","","","",""
"1456","img/L120_180.png","74","image-keyboard-response","293","1011825","0.0-6.0-1.143","LIGR","2","f","rechts","24","","","object","j","120","true"
"null","<div style=""font-size:60px;"">+</div>","null","html-keyboard-response","294","1012177","0.0-6.0-0.144","LIGR","2","f","rechts","24","","fixation","","","",""
"1276","img/150_90.png","70","image-keyboard-response","295","1013454","0.0-6.0-1.144","LIGR","2","f","rechts","24","","","object","f","150","true"
"null","<div style=""font-size:60px;"">+</div>","null","html-keyboard-response","296","1013806","0.0-6.0-0.145","LIGR","2","f","rechts","24","","fixation","","","",""
"641","img/0_210.png","70","image-keyboard-response","297","1014447","0.0-6.0-1.145","LIGR","2","f","rechts","24","","","object","f","0","true"
"null","<div style=""font-size:60px;"">+</div>","null","html-keyboard-response","298","1014899","0.0-6.0-0.146","LIGR","2","f","rechts","24","","fixation","","","",""
"935","img/120_150.png","70","image-keyboard-response","299","1015835","0.0-6.0-1.146","LIGR","2","f","rechts","24","","","object","j","120","false"
"null","<div style=""font-size:60px;"">+</div>","null","html-keyboard-response","300","1016137","0.0-6.0-0.147","LIGR","2","f","rechts","24","","fixation","","","",""
"1381","img/90_180.png","70","image-keyboard-response","301","1017519","0.0-6.0-1.147","LIGR","2","f","rechts","24","","","object","f","90","true"
"null","<div style=""font-size:60px;"">+</div>","null","html-keyboard-response","302","1017871","0.0-6.0-0.148","LIGR","2","f","rechts","24","","fixation","","","",""
"858","img/30_60.png","74","image-keyboard-response","303","1018730","0.0-6.0-1.148","LIGR","2","f","rechts","24","","","object","j","30","true"
"null","<div style=""font-size:60px;"">+</div>","null","html-keyboard-response","304","1019082","0.0-6.0-0.149","LIGR","2","f","rechts","24","","fixation","","","",""
"1225","img/120_270.png","74","image-keyboard-response","305","1020308","0.0-6.0-1.149","LIGR","2","f","rechts","24","","","object","j","120","true"
"null","<div style=""font-size:60px;"">+</div>","null","html-keyboard-response","306","1020760","0.0-6.0-0.150","LIGR","2","f","rechts","24","","fixation","","","",""
"1215","img/30_180.png","70","image-keyboard-response","307","1021975","0.0-6.0-1.150","LIGR","2","f","rechts","24","","","object","f","30","true"
"null","<div style=""font-size:60px;"">+</div>","null","html-keyboard-response","308","1022327","0.0-6.0-0.151","LIGR","2","f","rechts","24","","fixation","","","",""
"931","img/0_120.png","74","image-keyboard-response","309","1023258","0.0-6.0-1.151","LIGR","2","f","rechts","24","","","object","j","0","true"
"null","<div style=""font-size:60px;"">+</div>","null","html-keyboard-response","310","1023660","0.0-6.0-0.152","LIGR","2","f","rechts","24","","fixation","","","",""
"1079","img/L30_180.png","70","image-keyboard-response","311","1024740","0.0-6.0-1.152","LIGR","2","f","rechts","24","","","object","j","30","false"
"null","<div style=""font-size:60px;"">+</div>","null","html-keyboard-response","312","1025242","0.0-6.0-0.153","LIGR","2","f","rechts","24","","fixation","","","",""
"864","img/90_300.png","74","image-keyboard-response","313","1026106","0.0-6.0-1.153","LIGR","2","f","rechts","24","","","object","j","90","true"
"null","<div style=""font-size:60px;"">+</div>","null","html-keyboard-response","314","1026407","0.0-6.0-0.154","LIGR","2","f","rechts","24","","fixation","","","",""
"677","img/90_30.png","70","image-keyboard-response","315","1027085","0.0-6.0-1.154","LIGR","2","f","rechts","24","","","object","f","90","true"
"null","<div style=""font-size:60px;"">+</div>","null","html-keyboard-response","316","1027537","0.0-6.0-0.155","LIGR","2","f","rechts","24","","fixation","","","",""
"911","img/30_300.png","70","image-keyboard-response","317","1028448","0.0-6.0-1.155","LIGR","2","f","rechts","24","","","object","f","30","true"
"null","<div style=""font-size:60px;"">+</div>","null","html-keyboard-response","318","1028750","0.0-6.0-0.156","LIGR","2","f","rechts","24","","fixation","","","",""
"1067","img/60_210.png","70","image-keyboard-response","319","1029817","0.0-6.0-1.156","LIGR","2","f","rechts","24","","","object","f","60","true"
"null","<div style=""font-size:60px;"">+</div>","null","html-keyboard-response","320","1030269","0.0-6.0-0.157","LIGR","2","f","rechts","24","","fixation","","","",""
"821","img/30_90.png","74","image-keyboard-response","321","1031091","0.0-6.0-1.157","LIGR","2","f","rechts","24","","","object","j","30","true"
"null","<div style=""font-size:60px;"">+</div>","null","html-keyboard-response","322","1031592","0.0-6.0-0.158","LIGR","2","f","rechts","24","","fixation","","","",""
"1222","img/90_240.png","74","image-keyboard-response","323","1032814","0.0-6.0-1.158","LIGR","2","f","rechts","24","","","object","f","90","false"
"null","<div style=""font-size:60px;"">+</div>","null","html-keyboard-response","324","1033264","0.0-6.0-0.159","LIGR","2","f","rechts","24","","fixation","","","",""
"752","img/120_270.png","74","image-keyboard-response","325","1034017","0.0-6.0-1.159","LIGR","2","f","rechts","24","","","object","j","120","true"
"null","<div style=""font-size:60px;"">+</div>","null","html-keyboard-response","326","1034419","0.0-6.0-0.160","LIGR","2","f","rechts","24","","fixation","","","",""
"1395","img/60_150.png","70","image-keyboard-response","327","1035814","0.0-6.0-1.160","LIGR","2","f","rechts","24","","","object","j","60","false"
"null","<div style=""font-size:60px;"">+</div>","null","html-keyboard-response","328","1036166","0.0-6.0-0.161","LIGR","2","f","rechts","24","","fixation","","","",""
"864","img/120_330.png","74","image-keyboard-response","329","1037030","0.0-6.0-1.161","LIGR","2","f","rechts","24","","","object","j","120","true"
"null","<div style=""font-size:60px;"">+</div>","null","html-keyboard-response","330","1037532","0.0-6.0-0.162","LIGR","2","f","rechts","24","","fixation","","","",""
"766","img/90_330.png","74","image-keyboard-response","331","1038298","0.0-6.0-1.162","LIGR","2","f","rechts","24","","","object","j","90","true"
"null","<div style=""font-size:60px;"">+</div>","null","html-keyboard-response","332","1038650","0.0-6.0-0.163","LIGR","2","f","rechts","24","","fixation","","","",""
"935","img/30_120.png","74","image-keyboard-response","333","1039585","0.0-6.0-1.163","LIGR","2","f","rechts","24","","","object","j","30","true"
"null","<div style=""font-size:60px;"">+</div>","null","html-keyboard-response","334","1039986","0.0-6.0-0.164","LIGR","2","f","rechts","24","","fixation","","","",""
"1348","img/150_300.png","74","image-keyboard-response","335","1041336","0.0-6.0-1.164","LIGR","2","f","rechts","24","","","object","j","150","true"
"null","<div style=""font-size:60px;"">+</div>","null","html-keyboard-response","336","1041838","0.0-6.0-0.165","LIGR","2","f","rechts","24","","fixation","","","",""
"1224","img/120_210.png","74","image-keyboard-response","337","1043063","0.0-6.0-1.165","LIGR","2","f","rechts","24","","","object","f","120","false"
"null","<div style=""font-size:60px;"">+</div>","null","html-keyboard-response","338","1043514","0.0-6.0-0.166","LIGR","2","f","rechts","24","","fixation","","","",""
"657","img/0_150.png","74","image-keyboard-response","339","1044172","0.0-6.0-1.166","LIGR","2","f","rechts","24","","","object","j","0","true"
"null","<div style=""font-size:60px;"">+</div>","null","html-keyboard-response","340","1044474","0.0-6.0-0.167","LIGR","2","f","rechts","24","","fixation","","","",""
"797","img/30_270.png","70","image-keyboard-response","341","1045273","0.0-6.0-1.167","LIGR","2","f","rechts","24","","","object","f","30","true"
"null","<div style=""font-size:60px;"">+</div>","null","html-keyboard-response","342","1045674","0.0-6.0-0.168","LIGR","2","f","rechts","24","","fixation","","","",""
"1077","img/90_300.png","74","image-keyboard-response","343","1046752","0.0-6.0-1.168","LIGR","2","f","rechts","24","","","object","j","90","true"
"null","<div style=""font-size:60px;"">+</div>","null","html-keyboard-response","344","1047254","0.0-6.0-0.169","LIGR","2","f","rechts","24","","fixation","","","",""
"685","img/0_90.png","74","image-keyboard-response","345","1047941","0.0-6.0-1.169","LIGR","2","f","rechts","24","","","object","j","0","true"
"null","<div style=""font-size:60px;"">+</div>","null","html-keyboard-response","346","1048292","0.0-6.0-0.170","LIGR","2","f","rechts","24","","fixation","","","",""
"1229","img/L30_180.png","70","image-keyboard-response","347","1049522","0.0-6.0-1.170","LIGR","2","f","rechts","24","","","object","j","30","false"
"null","<div style=""font-size:60px;"">+</div>","null","html-keyboard-response","348","1049924","0.0-6.0-0.171","LIGR","2","f","rechts","24","","fixation","","","",""
"1620","img/0_240.png","70","image-keyboard-response","349","1051545","0.0-6.0-1.171","LIGR","2","f","rechts","24","","","object","f","0","true"
"null","<div style=""font-size:60px;"">+</div>","null","html-keyboard-response","350","1051947","0.0-6.0-0.172","LIGR","2","f","rechts","24","","fixation","","","",""
"1086","img/90_120.png","70","image-keyboard-response","351","1053034","0.0-6.0-1.172","LIGR","2","f","rechts","24","","","object","j","90","false"
"null","<div style=""font-size:60px;"">+</div>","null","html-keyboard-response","352","1053486","0.0-6.0-0.173","LIGR","2","f","rechts","24","","fixation","","","",""
"1272","img/L90_180.png","74","image-keyboard-response","353","1054759","0.0-6.0-1.173","LIGR","2","f","rechts","24","","","object","j","90","true"
"null","<div style=""font-size:60px;"">+</div>","null","html-keyboard-response","354","1055261","0.0-6.0-0.174","LIGR","2","f","rechts","24","","fixation","","","",""
"1274","img/90_180.png","70","image-keyboard-response","355","1056536","0.0-6.0-1.174","LIGR","2","f","rechts","24","","","object","f","90","true"
"null","<div style=""font-size:60px;"">+</div>","null","html-keyboard-response","356","1056988","0.0-6.0-0.175","LIGR","2","f","rechts","24","","fixation","","","",""
"969","img/120_90.png","70","image-keyboard-response","357","1057958","0.0-6.0-1.175","LIGR","2","f","rechts","24","","","object","f","120","true"
"null","<div style=""font-size:60px;"">+</div>","null","html-keyboard-response","358","1058410","0.0-6.0-0.176","LIGR","2","f","rechts","24","","fixation","","","",""
"1065","img/120_180.png","70","image-keyboard-response","359","1059476","0.0-6.0-1.176","LIGR","2","f","rechts","24","","","object","f","120","true"
"null","<div style=""font-size:60px;"">+</div>","null","html-keyboard-response","360","1059978","0.0-6.0-0.177","LIGR","2","f","rechts","24","","fixation","","","",""
"744","img/0_330.png","70","image-keyboard-response","361","1060722","0.0-6.0-1.177","LIGR","2","f","rechts","24","","","object","f","0","true"
"null","<div style=""font-size:60px;"">+</div>","null","html-keyboard-response","362","1061124","0.0-6.0-0.178","LIGR","2","f","rechts","24","","fixation","","","",""
"579","img/0_210.png","70","image-keyboard-response","363","1061704","0.0-6.0-1.178","LIGR","2","f","rechts","24","","","object","f","0","true"
"null","<div style=""font-size:60px;"">+</div>","null","html-keyboard-response","364","1062206","0.0-6.0-0.179","LIGR","2","f","rechts","24","","fixation","","","",""
"1257","img/90_150.png","70","image-keyboard-response","365","1063464","0.0-6.0-1.179","LIGR","2","f","rechts","24","","","object","j","90","false"
"null","<div style=""font-size:60px;"">+</div>","null","html-keyboard-response","366","1063866","0.0-6.0-0.180","LIGR","2","f","rechts","24","","fixation","","","",""
"862","img/120_30.png","70","image-keyboard-response","367","1064729","0.0-6.0-1.180","LIGR","2","f","rechts","24","","","object","f","120","true"
"null","<div style=""font-size:60px;"">+</div>","null","html-keyboard-response","368","1065231","0.0-6.0-0.181","LIGR","2","f","rechts","24","","fixation","","","",""
"1406","img/L120_180.png","74","image-keyboard-response","369","1066638","0.0-6.0-1.181","LIGR","2","f","rechts","24","","","object","j","120","true"
"null","<div style=""font-size:60px;"">+</div>","null","html-keyboard-response","370","1067090","0.0-6.0-0.182","LIGR","2","f","rechts","24","","fixation","","","",""
"750","img/90_60.png","70","image-keyboard-response","371","1067840","0.0-6.0-1.182","LIGR","2","f","rechts","24","","","object","f","90","true"
"null","<div style=""font-size:60px;"">+</div>","null","html-keyboard-response","372","1068142","0.0-6.0-0.183","LIGR","2","f","rechts","24","","fixation","","","",""
"1155","img/150_60.png","70","image-keyboard-response","373","1069298","0.0-6.0-1.183","LIGR","2","f","rechts","24","","","object","f","150","true"
"null","<div style=""font-size:60px;"">+</div>","null","html-keyboard-response","374","1069749","0.0-6.0-0.184","LIGR","2","f","rechts","24","","fixation","","","",""
"716","img/0_300.png","70","image-keyboard-response","375","1070466","0.0-6.0-1.184","LIGR","2","f","rechts","24","","","object","f","0","true"
"null","<div style=""font-size:60px;"">+</div>","null","html-keyboard-response","376","1070966","0.0-6.0-0.185","LIGR","2","f","rechts","24","","fixation","","","",""
"1243","img/30_180.png","70","image-keyboard-response","377","1072210","0.0-6.0-1.185","LIGR","2","f","rechts","24","","","object","f","30","true"
"null","<div style=""font-size:60px;"">+</div>","null","html-keyboard-response","378","1072662","0.0-6.0-0.186","LIGR","2","f","rechts","24","","fixation","","","",""
"1297","img/90_210.png","70","image-keyboard-response","379","1073959","0.0-6.0-1.186","LIGR","2","f","rechts","24","","","object","f","90","true"
"null","<div style=""font-size:60px;"">+</div>","null","html-keyboard-response","380","1074311","0.0-6.0-0.187","LIGR","2","f","rechts","24","","fixation","","","",""
"1069","img/150_180.png","70","image-keyboard-response","381","1075380","0.0-6.0-1.187","LIGR","2","f","rechts","24","","","object","f","150","true"
"null","<div style=""font-size:60px;"">+</div>","null","html-keyboard-response","382","1075782","0.0-6.0-0.188","LIGR","2","f","rechts","24","","fixation","","","",""
"822","img/0_120.png","74","image-keyboard-response","383","1076604","0.0-6.0-1.188","LIGR","2","f","rechts","24","","","object","j","0","true"
"null","<div style=""font-size:60px;"">+</div>","null","html-keyboard-response","384","1076906","0.0-6.0-0.189","LIGR","2","f","rechts","24","","fixation","","","",""
"1632","img/60_180.png","70","image-keyboard-response","385","1078538","0.0-6.0-1.189","LIGR","2","f","rechts","24","","","object","f","60","true"
"null","<div style=""font-size:60px;"">+</div>","null","html-keyboard-response","386","1079040","0.0-6.0-0.190","LIGR","2","f","rechts","24","","fixation","","","",""
"1235","img/150_120.png","70","image-keyboard-response","387","1080275","0.0-6.0-1.190","LIGR","2","f","rechts","24","","","object","f","150","true"
"null","<div style=""font-size:60px;"">+</div>","null","html-keyboard-response","388","1080777","0.0-6.0-0.191","LIGR","2","f","rechts","24","","fixation","","","",""
"1079","img/150_270.png","74","image-keyboard-response","389","1081857","0.0-6.0-1.191","LIGR","2","f","rechts","24","","","object","j","150","true"
"null","<div style=""font-size:60px;"">+</div>","null","html-keyboard-response","390","1082209","0.0-6.0-0.192","LIGR","2","f","rechts","24","","fixation","","","",""
"659","img/0_270.png","70","image-keyboard-response","391","1082869","0.0-6.0-1.192","LIGR","2","f","rechts","24","","","object","f","0","true"
"null","<div style=""font-size:60px;"">+</div>","null","html-keyboard-response","392","1083370","0.0-6.0-0.193","LIGR","2","f","rechts","24","","fixation","","","",""
"1869","img/90_30.png","70","image-keyboard-response","393","1085240","0.0-6.0-1.193","LIGR","2","f","rechts","24","","","object","f","90","true"
"null","<div style=""font-size:60px;"">+</div>","null","html-keyboard-response","394","1085742","0.0-6.0-0.194","LIGR","2","f","rechts","24","","fixation","","","",""
"720","img/0_30.png","74","image-keyboard-response","395","1086462","0.0-6.0-1.194","LIGR","2","f","rechts","24","","","object","j","0","true"
"null","<div style=""font-size:60px;"">+</div>","null","html-keyboard-response","396","1086814","0.0-6.0-0.195","LIGR","2","f","rechts","24","","fixation","","","",""
"941","img/60_90.png","70","image-keyboard-response","397","1087756","0.0-6.0-1.195","LIGR","2","f","rechts","24","","","object","j","60","false"
"null","<div style=""font-size:60px;"">+</div>","null","html-keyboard-response","398","1088157","0.0-6.0-0.196","LIGR","2","f","rechts","24","","fixation","","","",""
"1543","img/30_240.png","70","image-keyboard-response","399","1089702","0.0-6.0-1.196","LIGR","2","f","rechts","24","","","object","f","30","true"
"null","<div style=""font-size:60px;"">+</div>","null","html-keyboard-response","400","1090003","0.0-6.0-0.197","LIGR","2","f","rechts","24","","fixation","","","",""
"1505","img/150_90.png","70","image-keyboard-response","401","1091509","0.0-6.0-1.197","LIGR","2","f","rechts","24","","","object","f","150","true"
"null","<div style=""font-size:60px;"">+</div>","null","html-keyboard-response","402","1092010","0.0-6.0-0.198","LIGR","2","f","rechts","24","","fixation","","","",""
"843","img/60_330.png","74","image-keyboard-response","403","1092854","0.0-6.0-1.198","LIGR","2","f","rechts","24","","","object","j","60","true"
"null","<div style=""font-size:60px;"">+</div>","null","html-keyboard-response","404","1093306","0.0-6.0-0.199","LIGR","2","f","rechts","24","","fixation","","","",""
"933","img/30_300.png","70","image-keyboard-response","405","1094241","0.0-6.0-1.199","LIGR","2","f","rechts","24","","","object","f","30","true"
"null","<div style=""font-size:60px;"">+</div>","null","html-keyboard-response","406","1094542","0.0-6.0-0.200","LIGR","2","f","rechts","24","","fixation","","","",""
"1288","img/120_150.png","70","image-keyboard-response","407","1095831","0.0-6.0-1.200","LIGR","2","f","rechts","24","","","object","j","120","false"
"null","<div style=""font-size:60px;"">+</div>","null","html-keyboard-response","408","1096233","0.0-6.0-0.201","LIGR","2","f","rechts","24","","fixation","","","",""
"719","img/0_60.png","74","image-keyboard-response","409","1096953","0.0-6.0-1.201","LIGR","2","f","rechts","24","","","object","j","0","true"
"null","<div style=""font-size:60px;"">+</div>","null","html-keyboard-response","410","1097254","0.0-6.0-0.202","LIGR","2","f","rechts","24","","fixation","","","",""
"1606","img/150_240.png","74","image-keyboard-response","411","1098861","0.0-6.0-1.202","LIGR","2","f","rechts","24","","","object","j","150","true"
"null","<div style=""font-size:60px;"">+</div>","null","html-keyboard-response","412","1099363","0.0-6.0-0.203","LIGR","2","f","rechts","24","","fixation","","","",""
"1638","img/L60_180.png","74","image-keyboard-response","413","1101002","0.0-6.0-1.203","LIGR","2","f","rechts","24","","","object","j","60","true"
"null","<div style=""font-size:60px;"">+</div>","null","html-keyboard-response","414","1101404","0.0-6.0-0.204","LIGR","2","f","rechts","24","","fixation","","","",""
"952","img/30_60.png","74","image-keyboard-response","415","1102357","0.0-6.0-1.204","LIGR","2","f","rechts","24","","","object","j","30","true"
"null","<div style=""font-size:60px;"">+</div>","null","html-keyboard-response","416","1102809","0.0-6.0-0.205","LIGR","2","f","rechts","24","","fixation","","","",""
"1680","img/L150_180.png","74","image-keyboard-response","417","1104490","0.0-6.0-1.205","LIGR","2","f","rechts","24","","","object","j","150","true"
"null","<div style=""font-size:60px;"">+</div>","null","html-keyboard-response","418","1104892","0.0-6.0-0.206","LIGR","2","f","rechts","24","","fixation","","","",""
"1095","img/60_270.png","70","image-keyboard-response","419","1105988","0.0-6.0-1.206","LIGR","2","f","rechts","24","","","object","f","60","true"
"null","<div style=""font-size:60px;"">+</div>","null","html-keyboard-response","420","1106340","0.0-6.0-0.207","LIGR","2","f","rechts","24","","fixation","","","",""
"791","img/60_30.png","70","image-keyboard-response","421","1107132","0.0-6.0-1.207","LIGR","2","f","rechts","24","","","object","f","60","true"
"65447","<p>Du hast in 83% der Versuche korrekt entschieden.</p><p>Deine durchschnittliche Reaktionszeit war  1047ms.</p><p>Dr&uuml;cke eine beliebige Taste, um die Session zu beenden. Vielen Dank!</p>","72","html-keyboard-response","422","1172581","0.0-7.0","LIGR","2","f","rechts","24","","","","","",""
