"rt","stimulus","key_press","trial_type","trial_index","time_elapsed","internal_node_id","subject","session","sex","handedness","age","responses","test_part","condition","correct_response","angle","correct"
"2530","<p>Mental Rotation Experiment.</p> <p>Dr&uuml;cke eine beliebige Taste, um anzufangen.</p>","72","html-keyboard-response","0","2534","0.0-0.0","LIGR","1","f","rechts","24","","","","","",""
"4412","","","survey-text","1","6948","0.0-1.0","LIGR","1","f","rechts","24","{""Q0"":""LIGR""}","","","","",""
"1009","","","survey-text","2","7958","0.0-2.0","LIGR","1","f","rechts","24","{""Q0"":""1""}","","","","",""
"2610","","","survey-multi-choice","3","10571","0.0-3.0","LIGR","1","f","rechts","24","{""Q0"":""f"",""Q1"":""rechts""}","","","","",""
"1763","","","survey-text","4","12336","0.0-4.0","LIGR","1","f","rechts","24","{""Q0"":""24""}","","","","",""
"16692","<p>Stell dir vor, dass du vor einem runden Tisch stehst, auf dem sich ein blauer Ball am Tischrand befindet. Entlang des Tischrands ist jeweils ein verschieden langer Pfeil. Nun bleibst du an deinem Platz vor dem Tisch und rotierst den Tisch entlang des Pfeils (gleiche Richtung und Länge). </p> <img src='img/30_180.png'></img> <br><p> Nachdem du diese (vorgestellte) Rotation durchgef&uuml;hrt hast, schau in Richtung der Tischmitte, und entscheide dann, ob der Ball links oder rechts von dir liegt.</p> <p>Dr&uuml;cke die <strong>'f'</strong>-Taste f&uuml;r links, die <strong>'j'</strong>-Taste f&uuml;r rechts.</p><br><p> Das Bild wird jeweils 1 Sekunde lang pr&auml;sentiert. Du hast 3 Sekunden Zeit eine Entscheidung zu treffen.</p>","74","html-keyboard-response","5","29029","0.0-5.0","LIGR","1","f","rechts","24","","","","","",""
"null","<div style=""font-size:60px;"">+</div>","null","html-keyboard-response","6","30483","0.0-6.0-0.0","LIGR","1","f","rechts","24","","fixation","","","",""
"null","img/0_270.png","null","image-keyboard-response","7","33487","0.0-6.0-1.0","LIGR","1","f","rechts","24","","","object","f","0","false"
"null","<div style=""font-size:60px;"">+</div>","null","html-keyboard-response","8","33989","0.0-6.0-0.1","LIGR","1","f","rechts","24","","fixation","","","",""
"1067","img/0_90.png","74","image-keyboard-response","9","35057","0.0-6.0-1.1","LIGR","1","f","rechts","24","","","object","j","0","true"
"null","<div style=""font-size:60px;"">+</div>","null","html-keyboard-response","10","35508","0.0-6.0-0.2","LIGR","1","f","rechts","24","","fixation","","","",""
"null","img/30_270.png","null","image-keyboard-response","11","38511","0.0-6.0-1.2","LIGR","1","f","rechts","24","","","object","f","30","false"
"null","<div style=""font-size:60px;"">+</div>","null","html-keyboard-response","12","39012","0.0-6.0-0.3","LIGR","1","f","rechts","24","","fixation","","","",""
"null","img/150_90.png","null","image-keyboard-response","13","42015","0.0-6.0-1.3","LIGR","1","f","rechts","24","","","object","f","150","false"
"null","<div style=""font-size:60px;"">+</div>","null","html-keyboard-response","14","42366","0.0-6.0-0.4","LIGR","1","f","rechts","24","","fixation","","","",""
"64","img/120_270.png","70","image-keyboard-response","15","42433","0.0-6.0-1.4","LIGR","1","f","rechts","24","","","object","j","120","false"
"null","<div style=""font-size:60px;"">+</div>","null","html-keyboard-response","16","42785","0.0-6.0-0.5","LIGR","1","f","rechts","24","","fixation","","","",""
"794","img/0_30.png","74","image-keyboard-response","17","43580","0.0-6.0-1.5","LIGR","1","f","rechts","24","","","object","j","0","true"
"null","<div style=""font-size:60px;"">+</div>","null","html-keyboard-response","18","43881","0.0-6.0-0.6","LIGR","1","f","rechts","24","","fixation","","","",""
"782","img/0_60.png","74","image-keyboard-response","19","44665","0.0-6.0-1.6","LIGR","1","f","rechts","24","","","object","j","0","true"
"null","<div style=""font-size:60px;"">+</div>","null","html-keyboard-response","20","44967","0.0-6.0-0.7","LIGR","1","f","rechts","24","","fixation","","","",""
"1639","img/60_270.png","70","image-keyboard-response","21","46607","0.0-6.0-1.7","LIGR","1","f","rechts","24","","","object","f","60","true"
"null","<div style=""font-size:60px;"">+</div>","null","html-keyboard-response","22","46907","0.0-6.0-0.8","LIGR","1","f","rechts","24","","fixation","","","",""
"1233","img/60_30.png","70","image-keyboard-response","23","48143","0.0-6.0-1.8","LIGR","1","f","rechts","24","","","object","f","60","true"
"null","<div style=""font-size:60px;"">+</div>","null","html-keyboard-response","24","48444","0.0-6.0-0.9","LIGR","1","f","rechts","24","","fixation","","","",""
"1198","img/30_300.png","74","image-keyboard-response","25","49643","0.0-6.0-1.9","LIGR","1","f","rechts","24","","","object","f","30","false"
"null","<div style=""font-size:60px;"">+</div>","null","html-keyboard-response","26","50145","0.0-6.0-0.10","LIGR","1","f","rechts","24","","fixation","","","",""
"1675","img/120_210.png","74","image-keyboard-response","27","51822","0.0-6.0-1.10","LIGR","1","f","rechts","24","","","object","f","120","false"
"null","<div style=""font-size:60px;"">+</div>","null","html-keyboard-response","28","52223","0.0-6.0-0.11","LIGR","1","f","rechts","24","","fixation","","","",""
"1232","img/90_180.png","70","image-keyboard-response","29","53457","0.0-6.0-1.11","LIGR","1","f","rechts","24","","","object","f","90","true"
"null","<div style=""font-size:60px;"">+</div>","null","html-keyboard-response","30","53758","0.0-6.0-0.12","LIGR","1","f","rechts","24","","fixation","","","",""
"1480","img/L30_180.png","74","image-keyboard-response","31","55240","0.0-6.0-1.12","LIGR","1","f","rechts","24","","","object","j","30","true"
"null","<div style=""font-size:60px;"">+</div>","null","html-keyboard-response","32","55542","0.0-6.0-0.13","LIGR","1","f","rechts","24","","fixation","","","",""
"1075","img/60_210.png","70","image-keyboard-response","33","56618","0.0-6.0-1.13","LIGR","1","f","rechts","24","","","object","f","60","true"
"null","<div style=""font-size:60px;"">+</div>","null","html-keyboard-response","34","56970","0.0-6.0-0.14","LIGR","1","f","rechts","24","","fixation","","","",""
"1735","img/L120_180.png","70","image-keyboard-response","35","58707","0.0-6.0-1.14","LIGR","1","f","rechts","24","","","object","j","120","false"
"null","<div style=""font-size:60px;"">+</div>","null","html-keyboard-response","36","59209","0.0-6.0-0.15","LIGR","1","f","rechts","24","","fixation","","","",""
"2576","img/150_270.png","70","image-keyboard-response","37","61786","0.0-6.0-1.15","LIGR","1","f","rechts","24","","","object","j","150","false"
"null","<div style=""font-size:60px;"">+</div>","null","html-keyboard-response","38","62288","0.0-6.0-0.16","LIGR","1","f","rechts","24","","fixation","","","",""
"1956","img/120_30.png","70","image-keyboard-response","39","64245","0.0-6.0-1.16","LIGR","1","f","rechts","24","","","object","f","120","true"
"null","<div style=""font-size:60px;"">+</div>","null","html-keyboard-response","40","64597","0.0-6.0-0.17","LIGR","1","f","rechts","24","","fixation","","","",""
"1382","img/60_330.png","74","image-keyboard-response","41","65980","0.0-6.0-1.17","LIGR","1","f","rechts","24","","","object","j","60","true"
"null","<div style=""font-size:60px;"">+</div>","null","html-keyboard-response","42","66482","0.0-6.0-0.18","LIGR","1","f","rechts","24","","fixation","","","",""
"1535","img/120_180.png","70","image-keyboard-response","43","68018","0.0-6.0-1.18","LIGR","1","f","rechts","24","","","object","f","120","true"
"null","<div style=""font-size:60px;"">+</div>","null","html-keyboard-response","44","68320","0.0-6.0-0.19","LIGR","1","f","rechts","24","","fixation","","","",""
"1589","img/60_90.png","70","image-keyboard-response","45","69910","0.0-6.0-1.19","LIGR","1","f","rechts","24","","","object","j","60","false"
"null","<div style=""font-size:60px;"">+</div>","null","html-keyboard-response","46","70412","0.0-6.0-0.20","LIGR","1","f","rechts","24","","fixation","","","",""
"1777","img/60_150.png","74","image-keyboard-response","47","72190","0.0-6.0-1.20","LIGR","1","f","rechts","24","","","object","j","60","true"
"null","<div style=""font-size:60px;"">+</div>","null","html-keyboard-response","48","72492","0.0-6.0-0.21","LIGR","1","f","rechts","24","","fixation","","","",""
"1517","img/90_210.png","74","image-keyboard-response","49","74010","0.0-6.0-1.21","LIGR","1","f","rechts","24","","","object","f","90","false"
"null","<div style=""font-size:60px;"">+</div>","null","html-keyboard-response","50","74412","0.0-6.0-0.22","LIGR","1","f","rechts","24","","fixation","","","",""
"1513","img/90_240.png","74","image-keyboard-response","51","75926","0.0-6.0-1.22","LIGR","1","f","rechts","24","","","object","f","90","false"
"null","<div style=""font-size:60px;"">+</div>","null","html-keyboard-response","52","76328","0.0-6.0-0.23","LIGR","1","f","rechts","24","","fixation","","","",""
"695","img/0_150.png","74","image-keyboard-response","53","77024","0.0-6.0-1.23","LIGR","1","f","rechts","24","","","object","j","0","true"
"null","<div style=""font-size:60px;"">+</div>","null","html-keyboard-response","54","77426","0.0-6.0-0.24","LIGR","1","f","rechts","24","","fixation","","","",""
"1169","img/30_240.png","70","image-keyboard-response","55","78596","0.0-6.0-1.24","LIGR","1","f","rechts","24","","","object","f","30","true"
"null","<div style=""font-size:60px;"">+</div>","null","html-keyboard-response","56","78948","0.0-6.0-0.25","LIGR","1","f","rechts","24","","fixation","","","",""
"1309","img/90_330.png","74","image-keyboard-response","57","80258","0.0-6.0-1.25","LIGR","1","f","rechts","24","","","object","j","90","true"
"null","<div style=""font-size:60px;"">+</div>","null","html-keyboard-response","58","80560","0.0-6.0-0.26","LIGR","1","f","rechts","24","","fixation","","","",""
"769","img/0_210.png","70","image-keyboard-response","59","81330","0.0-6.0-1.26","LIGR","1","f","rechts","24","","","object","f","0","true"
"null","<div style=""font-size:60px;"">+</div>","null","html-keyboard-response","60","81782","0.0-6.0-0.27","LIGR","1","f","rechts","24","","fixation","","","",""
"2226","img/30_120.png","74","image-keyboard-response","61","84009","0.0-6.0-1.27","LIGR","1","f","rechts","24","","","object","j","30","true"
"null","<div style=""font-size:60px;"">+</div>","null","html-keyboard-response","62","84461","0.0-6.0-0.28","LIGR","1","f","rechts","24","","fixation","","","",""
"1316","img/0_240.png","70","image-keyboard-response","63","85778","0.0-6.0-1.28","LIGR","1","f","rechts","24","","","object","f","0","true"
"null","<div style=""font-size:60px;"">+</div>","null","html-keyboard-response","64","86278","0.0-6.0-0.29","LIGR","1","f","rechts","24","","fixation","","","",""
"2352","img/30_90.png","74","image-keyboard-response","65","88631","0.0-6.0-1.29","LIGR","1","f","rechts","24","","","object","j","30","true"
"null","<div style=""font-size:60px;"">+</div>","null","html-keyboard-response","66","89033","0.0-6.0-0.30","LIGR","1","f","rechts","24","","fixation","","","",""
"1975","img/90_120.png","70","image-keyboard-response","67","91009","0.0-6.0-1.30","LIGR","1","f","rechts","24","","","object","j","90","false"
"null","<div style=""font-size:60px;"">+</div>","null","html-keyboard-response","68","91360","0.0-6.0-0.31","LIGR","1","f","rechts","24","","fixation","","","",""
"1901","img/90_150.png","70","image-keyboard-response","69","93262","0.0-6.0-1.31","LIGR","1","f","rechts","24","","","object","j","90","false"
"null","<div style=""font-size:60px;"">+</div>","null","html-keyboard-response","70","93564","0.0-6.0-0.32","LIGR","1","f","rechts","24","","fixation","","","",""
"1612","img/60_180.png","70","image-keyboard-response","71","95177","0.0-6.0-1.32","LIGR","1","f","rechts","24","","","object","f","60","true"
"null","<div style=""font-size:60px;"">+</div>","null","html-keyboard-response","72","95479","0.0-6.0-0.33","LIGR","1","f","rechts","24","","fixation","","","",""
"1721","img/150_120.png","70","image-keyboard-response","73","97201","0.0-6.0-1.33","LIGR","1","f","rechts","24","","","object","f","150","true"
"null","<div style=""font-size:60px;"">+</div>","null","html-keyboard-response","74","97653","0.0-6.0-0.34","LIGR","1","f","rechts","24","","fixation","","","",""
"1899","img/L60_180.png","74","image-keyboard-response","75","99553","0.0-6.0-1.34","LIGR","1","f","rechts","24","","","object","j","60","true"
"null","<div style=""font-size:60px;"">+</div>","null","html-keyboard-response","76","100005","0.0-6.0-0.35","LIGR","1","f","rechts","24","","fixation","","","",""
"1780","img/L150_180.png","70","image-keyboard-response","77","101787","0.0-6.0-1.35","LIGR","1","f","rechts","24","","","object","j","150","false"
"null","<div style=""font-size:60px;"">+</div>","null","html-keyboard-response","78","102138","0.0-6.0-0.36","LIGR","1","f","rechts","24","","fixation","","","",""
"1336","img/120_150.png","70","image-keyboard-response","79","103477","0.0-6.0-1.36","LIGR","1","f","rechts","24","","","object","j","120","false"
"null","<div style=""font-size:60px;"">+</div>","null","html-keyboard-response","80","103928","0.0-6.0-0.37","LIGR","1","f","rechts","24","","fixation","","","",""
"1395","img/90_30.png","70","image-keyboard-response","81","105324","0.0-6.0-1.37","LIGR","1","f","rechts","24","","","object","f","90","true"
"null","<div style=""font-size:60px;"">+</div>","null","html-keyboard-response","82","105776","0.0-6.0-0.38","LIGR","1","f","rechts","24","","fixation","","","",""
"1246","img/0_120.png","74","image-keyboard-response","83","107024","0.0-6.0-1.38","LIGR","1","f","rechts","24","","","object","j","0","true"
"null","<div style=""font-size:60px;"">+</div>","null","html-keyboard-response","84","107525","0.0-6.0-0.39","LIGR","1","f","rechts","24","","fixation","","","",""
"2078","img/30_180.png","70","image-keyboard-response","85","109604","0.0-6.0-1.39","LIGR","1","f","rechts","24","","","object","f","30","true"
"null","<div style=""font-size:60px;"">+</div>","null","html-keyboard-response","86","109906","0.0-6.0-0.40","LIGR","1","f","rechts","24","","fixation","","","",""
"1425","img/L90_180.png","74","image-keyboard-response","87","111333","0.0-6.0-1.40","LIGR","1","f","rechts","24","","","object","j","90","true"
"null","<div style=""font-size:60px;"">+</div>","null","html-keyboard-response","88","111834","0.0-6.0-0.41","LIGR","1","f","rechts","24","","fixation","","","",""
"2617","img/150_300.png","70","image-keyboard-response","89","114453","0.0-6.0-1.41","LIGR","1","f","rechts","24","","","object","j","150","false"
"null","<div style=""font-size:60px;"">+</div>","null","html-keyboard-response","90","114855","0.0-6.0-0.42","LIGR","1","f","rechts","24","","fixation","","","",""
"2674","img/90_300.png","74","image-keyboard-response","91","117530","0.0-6.0-1.42","LIGR","1","f","rechts","24","","","object","j","90","true"
"null","<div style=""font-size:60px;"">+</div>","null","html-keyboard-response","92","117982","0.0-6.0-0.43","LIGR","1","f","rechts","24","","fixation","","","",""
"1937","img/120_90.png","70","image-keyboard-response","93","119921","0.0-6.0-1.43","LIGR","1","f","rechts","24","","","object","f","120","true"
"null","<div style=""font-size:60px;"">+</div>","null","html-keyboard-response","94","120223","0.0-6.0-0.44","LIGR","1","f","rechts","24","","fixation","","","",""
"2287","img/150_240.png","74","image-keyboard-response","95","122511","0.0-6.0-1.44","LIGR","1","f","rechts","24","","","object","j","150","true"
"null","<div style=""font-size:60px;"">+</div>","null","html-keyboard-response","96","122963","0.0-6.0-0.45","LIGR","1","f","rechts","24","","fixation","","","",""
"1205","img/30_60.png","74","image-keyboard-response","97","124169","0.0-6.0-1.45","LIGR","1","f","rechts","24","","","object","j","30","true"
"null","<div style=""font-size:60px;"">+</div>","null","html-keyboard-response","98","124520","0.0-6.0-0.46","LIGR","1","f","rechts","24","","fixation","","","",""
"1094","img/0_300.png","70","image-keyboard-response","99","125616","0.0-6.0-1.46","LIGR","1","f","rechts","24","","","object","f","0","true"
"null","<div style=""font-size:60px;"">+</div>","null","html-keyboard-response","100","125917","0.0-6.0-0.47","LIGR","1","f","rechts","24","","fixation","","","",""
"1805","img/120_330.png","74","image-keyboard-response","101","127723","0.0-6.0-1.47","LIGR","1","f","rechts","24","","","object","j","120","true"
"null","<div style=""font-size:60px;"">+</div>","null","html-keyboard-response","102","128025","0.0-6.0-0.48","LIGR","1","f","rechts","24","","fixation","","","",""
"1861","img/150_60.png","70","image-keyboard-response","103","129887","0.0-6.0-1.48","LIGR","1","f","rechts","24","","","object","f","150","true"
"null","<div style=""font-size:60px;"">+</div>","null","html-keyboard-response","104","130239","0.0-6.0-0.49","LIGR","1","f","rechts","24","","fixation","","","",""
"1545","img/90_60.png","70","image-keyboard-response","105","131785","0.0-6.0-1.49","LIGR","1","f","rechts","24","","","object","f","90","true"
"null","<div style=""font-size:60px;"">+</div>","null","html-keyboard-response","106","132237","0.0-6.0-0.50","LIGR","1","f","rechts","24","","fixation","","","",""
"2702","img/150_180.png","70","image-keyboard-response","107","134940","0.0-6.0-1.50","LIGR","1","f","rechts","24","","","object","f","150","true"
"null","<div style=""font-size:60px;"">+</div>","null","html-keyboard-response","108","135442","0.0-6.0-0.51","LIGR","1","f","rechts","24","","fixation","","","",""
"749","img/0_330.png","70","image-keyboard-response","109","136192","0.0-6.0-1.51","LIGR","1","f","rechts","24","","","object","f","0","true"
"null","<div style=""font-size:60px;"">+</div>","null","html-keyboard-response","110","136594","0.0-6.0-0.52","LIGR","1","f","rechts","24","","fixation","","","",""
"1377","img/90_330.png","74","image-keyboard-response","111","137972","0.0-6.0-1.52","LIGR","1","f","rechts","24","","","object","j","90","true"
"null","<div style=""font-size:60px;"">+</div>","null","html-keyboard-response","112","138424","0.0-6.0-0.53","LIGR","1","f","rechts","24","","fixation","","","",""
"2303","img/90_240.png","74","image-keyboard-response","113","140729","0.0-6.0-1.53","LIGR","1","f","rechts","24","","","object","f","90","false"
"null","<div style=""font-size:60px;"">+</div>","null","html-keyboard-response","114","141080","0.0-6.0-0.54","LIGR","1","f","rechts","24","","fixation","","","",""
"1235","img/120_330.png","74","image-keyboard-response","115","142315","0.0-6.0-1.54","LIGR","1","f","rechts","24","","","object","j","120","true"
"null","<div style=""font-size:60px;"">+</div>","null","html-keyboard-response","116","142816","0.0-6.0-0.55","LIGR","1","f","rechts","24","","fixation","","","",""
"1391","img/L120_180.png","70","image-keyboard-response","117","144208","0.0-6.0-1.55","LIGR","1","f","rechts","24","","","object","j","120","false"
"null","<div style=""font-size:60px;"">+</div>","null","html-keyboard-response","118","144560","0.0-6.0-0.56","LIGR","1","f","rechts","24","","fixation","","","",""
"686","img/0_30.png","74","image-keyboard-response","119","145246","0.0-6.0-1.56","LIGR","1","f","rechts","24","","","object","j","0","true"
"null","<div style=""font-size:60px;"">+</div>","null","html-keyboard-response","120","145748","0.0-6.0-0.57","LIGR","1","f","rechts","24","","fixation","","","",""
"1733","img/90_210.png","74","image-keyboard-response","121","147481","0.0-6.0-1.57","LIGR","1","f","rechts","24","","","object","f","90","false"
"null","<div style=""font-size:60px;"">+</div>","null","html-keyboard-response","122","147933","0.0-6.0-0.58","LIGR","1","f","rechts","24","","fixation","","","",""
"750","img/0_330.png","70","image-keyboard-response","123","148683","0.0-6.0-1.58","LIGR","1","f","rechts","24","","","object","f","0","true"
"null","<div style=""font-size:60px;"">+</div>","null","html-keyboard-response","124","149034","0.0-6.0-0.59","LIGR","1","f","rechts","24","","fixation","","","",""
"1376","img/150_120.png","70","image-keyboard-response","125","150412","0.0-6.0-1.59","LIGR","1","f","rechts","24","","","object","f","150","true"
"null","<div style=""font-size:60px;"">+</div>","null","html-keyboard-response","126","150864","0.0-6.0-0.60","LIGR","1","f","rechts","24","","fixation","","","",""
"1721","img/L60_180.png","74","image-keyboard-response","127","152586","0.0-6.0-1.60","LIGR","1","f","rechts","24","","","object","j","60","true"
"null","<div style=""font-size:60px;"">+</div>","null","html-keyboard-response","128","152887","0.0-6.0-0.61","LIGR","1","f","rechts","24","","fixation","","","",""
"1309","img/90_180.png","70","image-keyboard-response","129","154197","0.0-6.0-1.61","LIGR","1","f","rechts","24","","","object","f","90","true"
"null","<div style=""font-size:60px;"">+</div>","null","html-keyboard-response","130","154498","0.0-6.0-0.62","LIGR","1","f","rechts","24","","fixation","","","",""
"1458","img/150_180.png","74","image-keyboard-response","131","155957","0.0-6.0-1.62","LIGR","1","f","rechts","24","","","object","f","150","false"
"null","<div style=""font-size:60px;"">+</div>","null","html-keyboard-response","132","156359","0.0-6.0-0.63","LIGR","1","f","rechts","24","","fixation","","","",""
"1256","img/60_210.png","70","image-keyboard-response","133","157616","0.0-6.0-1.63","LIGR","1","f","rechts","24","","","object","f","60","true"
"null","<div style=""font-size:60px;"">+</div>","null","html-keyboard-response","134","157968","0.0-6.0-0.64","LIGR","1","f","rechts","24","","fixation","","","",""
"1534","img/60_90.png","70","image-keyboard-response","135","159503","0.0-6.0-1.64","LIGR","1","f","rechts","24","","","object","j","60","false"
"null","<div style=""font-size:60px;"">+</div>","null","html-keyboard-response","136","160004","0.0-6.0-0.65","LIGR","1","f","rechts","24","","fixation","","","",""
"2223","img/150_60.png","74","image-keyboard-response","137","162229","0.0-6.0-1.65","LIGR","1","f","rechts","24","","","object","f","150","false"
"null","<div style=""font-size:60px;"">+</div>","null","html-keyboard-response","138","162630","0.0-6.0-0.66","LIGR","1","f","rechts","24","","fixation","","","",""
"2276","img/120_90.png","70","image-keyboard-response","139","164907","0.0-6.0-1.66","LIGR","1","f","rechts","24","","","object","f","120","true"
"null","<div style=""font-size:60px;"">+</div>","null","html-keyboard-response","140","165359","0.0-6.0-0.67","LIGR","1","f","rechts","24","","fixation","","","",""
"1389","img/60_180.png","70","image-keyboard-response","141","166749","0.0-6.0-1.67","LIGR","1","f","rechts","24","","","object","f","60","true"
"null","<div style=""font-size:60px;"">+</div>","null","html-keyboard-response","142","167201","0.0-6.0-0.68","LIGR","1","f","rechts","24","","fixation","","","",""
"1653","img/30_60.png","74","image-keyboard-response","143","168855","0.0-6.0-1.68","LIGR","1","f","rechts","24","","","object","j","30","true"
"null","<div style=""font-size:60px;"">+</div>","null","html-keyboard-response","144","169157","0.0-6.0-0.69","LIGR","1","f","rechts","24","","fixation","","","",""
"2250","img/150_270.png","74","image-keyboard-response","145","171408","0.0-6.0-1.69","LIGR","1","f","rechts","24","","","object","j","150","true"
"null","<div style=""font-size:60px;"">+</div>","null","html-keyboard-response","146","171810","0.0-6.0-0.70","LIGR","1","f","rechts","24","","fixation","","","",""
"1076","img/30_270.png","70","image-keyboard-response","147","172887","0.0-6.0-1.70","LIGR","1","f","rechts","24","","","object","f","30","true"
"null","<div style=""font-size:60px;"">+</div>","null","html-keyboard-response","148","173289","0.0-6.0-0.71","LIGR","1","f","rechts","24","","fixation","","","",""
"796","img/0_60.png","74","image-keyboard-response","149","174086","0.0-6.0-1.71","LIGR","1","f","rechts","24","","","object","j","0","true"
"null","<div style=""font-size:60px;"">+</div>","null","html-keyboard-response","150","174438","0.0-6.0-0.72","LIGR","1","f","rechts","24","","fixation","","","",""
"2008","img/150_240.png","74","image-keyboard-response","151","176447","0.0-6.0-1.72","LIGR","1","f","rechts","24","","","object","j","150","true"
"null","<div style=""font-size:60px;"">+</div>","null","html-keyboard-response","152","176899","0.0-6.0-0.73","LIGR","1","f","rechts","24","","fixation","","","",""
"843","img/0_270.png","70","image-keyboard-response","153","177742","0.0-6.0-1.73","LIGR","1","f","rechts","24","","","object","f","0","true"
"null","<div style=""font-size:60px;"">+</div>","null","html-keyboard-response","154","178144","0.0-6.0-0.74","LIGR","1","f","rechts","24","","fixation","","","",""
"1581","img/60_270.png","74","image-keyboard-response","155","179725","0.0-6.0-1.74","LIGR","1","f","rechts","24","","","object","f","60","false"
"null","<div style=""font-size:60px;"">+</div>","null","html-keyboard-response","156","180126","0.0-6.0-0.75","LIGR","1","f","rechts","24","","fixation","","","",""
"1692","img/90_120.png","70","image-keyboard-response","157","181819","0.0-6.0-1.75","LIGR","1","f","rechts","24","","","object","j","90","false"
"null","<div style=""font-size:60px;"">+</div>","null","html-keyboard-response","158","182220","0.0-6.0-0.76","LIGR","1","f","rechts","24","","fixation","","","",""
"1077","img/30_240.png","70","image-keyboard-response","159","183298","0.0-6.0-1.76","LIGR","1","f","rechts","24","","","object","f","30","true"
"null","<div style=""font-size:60px;"">+</div>","null","html-keyboard-response","160","183700","0.0-6.0-0.77","LIGR","1","f","rechts","24","","fixation","","","",""
"1419","img/150_300.png","74","image-keyboard-response","161","185119","0.0-6.0-1.77","LIGR","1","f","rechts","24","","","object","j","150","true"
"null","<div style=""font-size:60px;"">+</div>","null","html-keyboard-response","162","185421","0.0-6.0-0.78","LIGR","1","f","rechts","24","","fixation","","","",""
"2107","img/120_180.png","74","image-keyboard-response","163","187528","0.0-6.0-1.78","LIGR","1","f","rechts","24","","","object","f","120","false"
"null","<div style=""font-size:60px;"">+</div>","null","html-keyboard-response","164","188030","0.0-6.0-0.79","LIGR","1","f","rechts","24","","fixation","","","",""
"1477","img/120_150.png","70","image-keyboard-response","165","189507","0.0-6.0-1.79","LIGR","1","f","rechts","24","","","object","j","120","false"
"null","<div style=""font-size:60px;"">+</div>","null","html-keyboard-response","166","189809","0.0-6.0-0.80","LIGR","1","f","rechts","24","","fixation","","","",""
"1469","img/L30_180.png","74","image-keyboard-response","167","191278","0.0-6.0-1.80","LIGR","1","f","rechts","24","","","object","j","30","true"
"null","<div style=""font-size:60px;"">+</div>","null","html-keyboard-response","168","191629","0.0-6.0-0.81","LIGR","1","f","rechts","24","","fixation","","","",""
"1235","img/30_90.png","74","image-keyboard-response","169","192865","0.0-6.0-1.81","LIGR","1","f","rechts","24","","","object","j","30","true"
"null","<div style=""font-size:60px;"">+</div>","null","html-keyboard-response","170","193316","0.0-6.0-0.82","LIGR","1","f","rechts","24","","fixation","","","",""
"1541","img/30_300.png","74","image-keyboard-response","171","194859","0.0-6.0-1.82","LIGR","1","f","rechts","24","","","object","f","30","false"
"null","<div style=""font-size:60px;"">+</div>","null","html-keyboard-response","172","195310","0.0-6.0-0.83","LIGR","1","f","rechts","24","","fixation","","","",""
"1440","img/120_270.png","74","image-keyboard-response","173","196751","0.0-6.0-1.83","LIGR","1","f","rechts","24","","","object","j","120","true"
"null","<div style=""font-size:60px;"">+</div>","null","html-keyboard-response","174","197203","0.0-6.0-0.84","LIGR","1","f","rechts","24","","fixation","","","",""
"2145","img/60_150.png","70","image-keyboard-response","175","199349","0.0-6.0-1.84","LIGR","1","f","rechts","24","","","object","j","60","false"
"null","<div style=""font-size:60px;"">+</div>","null","html-keyboard-response","176","199851","0.0-6.0-0.85","LIGR","1","f","rechts","24","","fixation","","","",""
"1413","img/120_210.png","74","image-keyboard-response","177","201265","0.0-6.0-1.85","LIGR","1","f","rechts","24","","","object","f","120","false"
"null","<div style=""font-size:60px;"">+</div>","null","html-keyboard-response","178","201616","0.0-6.0-0.86","LIGR","1","f","rechts","24","","fixation","","","",""
"1091","img/90_30.png","70","image-keyboard-response","179","202708","0.0-6.0-1.86","LIGR","1","f","rechts","24","","","object","f","90","true"
"null","<div style=""font-size:60px;"">+</div>","null","html-keyboard-response","180","203060","0.0-6.0-0.87","LIGR","1","f","rechts","24","","fixation","","","",""
"805","img/0_120.png","74","image-keyboard-response","181","203867","0.0-6.0-1.87","LIGR","1","f","rechts","24","","","object","j","0","true"
"null","<div style=""font-size:60px;"">+</div>","null","html-keyboard-response","182","204318","0.0-6.0-0.88","LIGR","1","f","rechts","24","","fixation","","","",""
"891","img/60_30.png","70","image-keyboard-response","183","205211","0.0-6.0-1.88","LIGR","1","f","rechts","24","","","object","f","60","true"
"null","<div style=""font-size:60px;"">+</div>","null","html-keyboard-response","184","205712","0.0-6.0-0.89","LIGR","1","f","rechts","24","","fixation","","","",""
"1078","img/60_330.png","74","image-keyboard-response","185","206791","0.0-6.0-1.89","LIGR","1","f","rechts","24","","","object","j","60","true"
"null","<div style=""font-size:60px;"">+</div>","null","html-keyboard-response","186","207092","0.0-6.0-0.90","LIGR","1","f","rechts","24","","fixation","","","",""
"2196","img/30_180.png","70","image-keyboard-response","187","209290","0.0-6.0-1.90","LIGR","1","f","rechts","24","","","object","f","30","true"
"null","<div style=""font-size:60px;"">+</div>","null","html-keyboard-response","188","209791","0.0-6.0-0.91","LIGR","1","f","rechts","24","","fixation","","","",""
"863","img/0_210.png","70","image-keyboard-response","189","210655","0.0-6.0-1.91","LIGR","1","f","rechts","24","","","object","f","0","true"
"null","<div style=""font-size:60px;"">+</div>","null","html-keyboard-response","190","210957","0.0-6.0-0.92","LIGR","1","f","rechts","24","","fixation","","","",""
"2203","img/90_60.png","70","image-keyboard-response","191","213161","0.0-6.0-1.92","LIGR","1","f","rechts","24","","","object","f","90","true"
"null","<div style=""font-size:60px;"">+</div>","null","html-keyboard-response","192","213613","0.0-6.0-0.93","LIGR","1","f","rechts","24","","fixation","","","",""
"677","img/0_240.png","70","image-keyboard-response","193","214291","0.0-6.0-1.93","LIGR","1","f","rechts","24","","","object","f","0","true"
"null","<div style=""font-size:60px;"">+</div>","null","html-keyboard-response","194","214743","0.0-6.0-0.94","LIGR","1","f","rechts","24","","fixation","","","",""
"1454","img/30_120.png","74","image-keyboard-response","195","216198","0.0-6.0-1.94","LIGR","1","f","rechts","24","","","object","j","30","true"
"null","<div style=""font-size:60px;"">+</div>","null","html-keyboard-response","196","216550","0.0-6.0-0.95","LIGR","1","f","rechts","24","","fixation","","","",""
"1259","img/90_300.png","74","image-keyboard-response","197","217810","0.0-6.0-1.95","LIGR","1","f","rechts","24","","","object","j","90","true"
"null","<div style=""font-size:60px;"">+</div>","null","html-keyboard-response","198","218162","0.0-6.0-0.96","LIGR","1","f","rechts","24","","fixation","","","",""
"1550","img/150_90.png","70","image-keyboard-response","199","219713","0.0-6.0-1.96","LIGR","1","f","rechts","24","","","object","f","150","true"
"null","<div style=""font-size:60px;"">+</div>","null","html-keyboard-response","200","220064","0.0-6.0-0.97","LIGR","1","f","rechts","24","","fixation","","","",""
"860","img/0_150.png","74","image-keyboard-response","201","220924","0.0-6.0-1.97","LIGR","1","f","rechts","24","","","object","j","0","true"
"null","<div style=""font-size:60px;"">+</div>","null","html-keyboard-response","202","221426","0.0-6.0-0.98","LIGR","1","f","rechts","24","","fixation","","","",""
"625","img/0_300.png","70","image-keyboard-response","203","222051","0.0-6.0-1.98","LIGR","1","f","rechts","24","","","object","f","0","true"
"null","<div style=""font-size:60px;"">+</div>","null","html-keyboard-response","204","222503","0.0-6.0-0.99","LIGR","1","f","rechts","24","","fixation","","","",""
"636","img/0_90.png","74","image-keyboard-response","205","223140","0.0-6.0-1.99","LIGR","1","f","rechts","24","","","object","j","0","true"
"null","<div style=""font-size:60px;"">+</div>","null","html-keyboard-response","206","223492","0.0-6.0-0.100","LIGR","1","f","rechts","24","","fixation","","","",""
"1572","img/90_150.png","70","image-keyboard-response","207","225064","0.0-6.0-1.100","LIGR","1","f","rechts","24","","","object","j","90","false"
"null","<div style=""font-size:60px;"">+</div>","null","html-keyboard-response","208","225466","0.0-6.0-0.101","LIGR","1","f","rechts","24","","fixation","","","",""
"1460","img/L150_180.png","70","image-keyboard-response","209","226927","0.0-6.0-1.101","LIGR","1","f","rechts","24","","","object","j","150","false"
"null","<div style=""font-size:60px;"">+</div>","null","html-keyboard-response","210","227429","0.0-6.0-0.102","LIGR","1","f","rechts","24","","fixation","","","",""
"1487","img/120_30.png","70","image-keyboard-response","211","228916","0.0-6.0-1.102","LIGR","1","f","rechts","24","","","object","f","120","true"
"null","<div style=""font-size:60px;"">+</div>","null","html-keyboard-response","212","229418","0.0-6.0-0.103","LIGR","1","f","rechts","24","","fixation","","","",""
"1857","img/L90_180.png","74","image-keyboard-response","213","231275","0.0-6.0-1.103","LIGR","1","f","rechts","24","","","object","j","90","true"
"null","<div style=""font-size:60px;"">+</div>","null","html-keyboard-response","214","231627","0.0-6.0-0.104","LIGR","1","f","rechts","24","","fixation","","","",""
"715","img/0_330.png","70","image-keyboard-response","215","232342","0.0-6.0-1.104","LIGR","1","f","rechts","24","","","object","f","0","true"
"null","<div style=""font-size:60px;"">+</div>","null","html-keyboard-response","216","232694","0.0-6.0-0.105","LIGR","1","f","rechts","24","","fixation","","","",""
"1434","img/150_90.png","70","image-keyboard-response","217","234128","0.0-6.0-1.105","LIGR","1","f","rechts","24","","","object","f","150","true"
"null","<div style=""font-size:60px;"">+</div>","null","html-keyboard-response","218","234528","0.0-6.0-0.106","LIGR","1","f","rechts","24","","fixation","","","",""
"999","img/0_270.png","70","image-keyboard-response","219","235528","0.0-6.0-1.106","LIGR","1","f","rechts","24","","","object","f","0","true"
"null","<div style=""font-size:60px;"">+</div>","null","html-keyboard-response","220","235830","0.0-6.0-0.107","LIGR","1","f","rechts","24","","fixation","","","",""
"1688","img/150_120.png","70","image-keyboard-response","221","237519","0.0-6.0-1.107","LIGR","1","f","rechts","24","","","object","f","150","true"
"null","<div style=""font-size:60px;"">+</div>","null","html-keyboard-response","222","238020","0.0-6.0-0.108","LIGR","1","f","rechts","24","","fixation","","","",""
"1423","img/60_330.png","74","image-keyboard-response","223","239443","0.0-6.0-1.108","LIGR","1","f","rechts","24","","","object","j","60","true"
"null","<div style=""font-size:60px;"">+</div>","null","html-keyboard-response","224","239895","0.0-6.0-0.109","LIGR","1","f","rechts","24","","fixation","","","",""
"867","img/90_30.png","70","image-keyboard-response","225","240762","0.0-6.0-1.109","LIGR","1","f","rechts","24","","","object","f","90","true"
"null","<div style=""font-size:60px;"">+</div>","null","html-keyboard-response","226","241114","0.0-6.0-0.110","LIGR","1","f","rechts","24","","fixation","","","",""
"972","img/120_30.png","70","image-keyboard-response","227","242086","0.0-6.0-1.110","LIGR","1","f","rechts","24","","","object","f","120","true"
"null","<div style=""font-size:60px;"">+</div>","null","html-keyboard-response","228","242587","0.0-6.0-0.111","LIGR","1","f","rechts","24","","fixation","","","",""
"1228","img/60_180.png","70","image-keyboard-response","229","243817","0.0-6.0-1.111","LIGR","1","f","rechts","24","","","object","f","60","true"
"null","<div style=""font-size:60px;"">+</div>","null","html-keyboard-response","230","244119","0.0-6.0-0.112","LIGR","1","f","rechts","24","","fixation","","","",""
"1843","img/60_270.png","74","image-keyboard-response","231","245962","0.0-6.0-1.112","LIGR","1","f","rechts","24","","","object","f","60","false"
"null","<div style=""font-size:60px;"">+</div>","null","html-keyboard-response","232","246464","0.0-6.0-0.113","LIGR","1","f","rechts","24","","fixation","","","",""
"1100","img/60_90.png","70","image-keyboard-response","233","247566","0.0-6.0-1.113","LIGR","1","f","rechts","24","","","object","j","60","false"
"null","<div style=""font-size:60px;"">+</div>","null","html-keyboard-response","234","248016","0.0-6.0-0.114","LIGR","1","f","rechts","24","","fixation","","","",""
"1312","img/120_150.png","70","image-keyboard-response","235","249329","0.0-6.0-1.114","LIGR","1","f","rechts","24","","","object","j","120","false"
"null","<div style=""font-size:60px;"">+</div>","null","html-keyboard-response","236","249680","0.0-6.0-0.115","LIGR","1","f","rechts","24","","fixation","","","",""
"964","img/90_330.png","74","image-keyboard-response","237","250645","0.0-6.0-1.115","LIGR","1","f","rechts","24","","","object","j","90","true"
"null","<div style=""font-size:60px;"">+</div>","null","html-keyboard-response","238","251047","0.0-6.0-0.116","LIGR","1","f","rechts","24","","fixation","","","",""
"1259","img/150_300.png","74","image-keyboard-response","239","252308","0.0-6.0-1.116","LIGR","1","f","rechts","24","","","object","j","150","true"
"null","<div style=""font-size:60px;"">+</div>","null","html-keyboard-response","240","252709","0.0-6.0-0.117","LIGR","1","f","rechts","24","","fixation","","","",""
"735","img/0_150.png","74","image-keyboard-response","241","253446","0.0-6.0-1.117","LIGR","1","f","rechts","24","","","object","j","0","true"
"null","<div style=""font-size:60px;"">+</div>","null","html-keyboard-response","242","253847","0.0-6.0-0.118","LIGR","1","f","rechts","24","","fixation","","","",""
"678","img/0_30.png","74","image-keyboard-response","243","254526","0.0-6.0-1.118","LIGR","1","f","rechts","24","","","object","j","0","true"
"null","<div style=""font-size:60px;"">+</div>","null","html-keyboard-response","244","254878","0.0-6.0-0.119","LIGR","1","f","rechts","24","","fixation","","","",""
"1358","img/60_150.png","74","image-keyboard-response","245","256237","0.0-6.0-1.119","LIGR","1","f","rechts","24","","","object","j","60","true"
"null","<div style=""font-size:60px;"">+</div>","null","html-keyboard-response","246","256589","0.0-6.0-0.120","LIGR","1","f","rechts","24","","fixation","","","",""
"1020","img/120_90.png","70","image-keyboard-response","247","257609","0.0-6.0-1.120","LIGR","1","f","rechts","24","","","object","f","120","true"
"null","<div style=""font-size:60px;"">+</div>","null","html-keyboard-response","248","257911","0.0-6.0-0.121","LIGR","1","f","rechts","24","","fixation","","","",""
"726","img/0_240.png","70","image-keyboard-response","249","258638","0.0-6.0-1.121","LIGR","1","f","rechts","24","","","object","f","0","true"
"null","<div style=""font-size:60px;"">+</div>","null","html-keyboard-response","250","259090","0.0-6.0-0.122","LIGR","1","f","rechts","24","","fixation","","","",""
"1246","img/120_210.png","74","image-keyboard-response","251","260337","0.0-6.0-1.122","LIGR","1","f","rechts","24","","","object","f","120","false"
"null","<div style=""font-size:60px;"">+</div>","null","html-keyboard-response","252","260839","0.0-6.0-0.123","LIGR","1","f","rechts","24","","fixation","","","",""
"1064","img/150_60.png","70","image-keyboard-response","253","261904","0.0-6.0-1.123","LIGR","1","f","rechts","24","","","object","f","150","true"
"null","<div style=""font-size:60px;"">+</div>","null","html-keyboard-response","254","262356","0.0-6.0-0.124","LIGR","1","f","rechts","24","","fixation","","","",""
"739","img/0_90.png","74","image-keyboard-response","255","263095","0.0-6.0-1.124","LIGR","1","f","rechts","24","","","object","j","0","true"
"null","<div style=""font-size:60px;"">+</div>","null","html-keyboard-response","256","263397","0.0-6.0-0.125","LIGR","1","f","rechts","24","","fixation","","","",""
"839","img/60_30.png","70","image-keyboard-response","257","264237","0.0-6.0-1.125","LIGR","1","f","rechts","24","","","object","f","60","true"
"null","<div style=""font-size:60px;"">+</div>","null","html-keyboard-response","258","264739","0.0-6.0-0.126","LIGR","1","f","rechts","24","","fixation","","","",""
"1320","img/90_180.png","70","image-keyboard-response","259","266060","0.0-6.0-1.126","LIGR","1","f","rechts","24","","","object","f","90","true"
"null","<div style=""font-size:60px;"">+</div>","null","html-keyboard-response","260","266512","0.0-6.0-0.127","LIGR","1","f","rechts","24","","fixation","","","",""
"1240","img/L90_180.png","74","image-keyboard-response","261","267753","0.0-6.0-1.127","LIGR","1","f","rechts","24","","","object","j","90","true"
"null","<div style=""font-size:60px;"">+</div>","null","html-keyboard-response","262","268055","0.0-6.0-0.128","LIGR","1","f","rechts","24","","fixation","","","",""
"960","img/0_120.png","74","image-keyboard-response","263","269015","0.0-6.0-1.128","LIGR","1","f","rechts","24","","","object","j","0","true"
"null","<div style=""font-size:60px;"">+</div>","null","html-keyboard-response","264","269517","0.0-6.0-0.129","LIGR","1","f","rechts","24","","fixation","","","",""
"1392","img/150_270.png","74","image-keyboard-response","265","270910","0.0-6.0-1.129","LIGR","1","f","rechts","24","","","object","j","150","true"
"null","<div style=""font-size:60px;"">+</div>","null","html-keyboard-response","266","271362","0.0-6.0-0.130","LIGR","1","f","rechts","24","","fixation","","","",""
"1178","img/90_60.png","70","image-keyboard-response","267","272541","0.0-6.0-1.130","LIGR","1","f","rechts","24","","","object","f","90","true"
"null","<div style=""font-size:60px;"">+</div>","null","html-keyboard-response","268","273043","0.0-6.0-0.131","LIGR","1","f","rechts","24","","fixation","","","",""
"1590","img/120_180.png","70","image-keyboard-response","269","274633","0.0-6.0-1.131","LIGR","1","f","rechts","24","","","object","f","120","true"
"null","<div style=""font-size:60px;"">+</div>","null","html-keyboard-response","270","274985","0.0-6.0-0.132","LIGR","1","f","rechts","24","","fixation","","","",""
"1407","img/120_330.png","74","image-keyboard-response","271","276393","0.0-6.0-1.132","LIGR","1","f","rechts","24","","","object","j","120","true"
"null","<div style=""font-size:60px;"">+</div>","null","html-keyboard-response","272","276745","0.0-6.0-0.133","LIGR","1","f","rechts","24","","fixation","","","",""
"1312","img/90_300.png","74","image-keyboard-response","273","278057","0.0-6.0-1.133","LIGR","1","f","rechts","24","","","object","j","90","true"
"null","<div style=""font-size:60px;"">+</div>","null","html-keyboard-response","274","278559","0.0-6.0-0.134","LIGR","1","f","rechts","24","","fixation","","","",""
"1495","img/L150_180.png","70","image-keyboard-response","275","280055","0.0-6.0-1.134","LIGR","1","f","rechts","24","","","object","j","150","false"
"null","<div style=""font-size:60px;"">+</div>","null","html-keyboard-response","276","280507","0.0-6.0-0.135","LIGR","1","f","rechts","24","","fixation","","","",""
"1164","img/30_120.png","74","image-keyboard-response","277","281671","0.0-6.0-1.135","LIGR","1","f","rechts","24","","","object","j","30","true"
"null","<div style=""font-size:60px;"">+</div>","null","html-keyboard-response","278","282123","0.0-6.0-0.136","LIGR","1","f","rechts","24","","fixation","","","",""
"1583","img/120_270.png","74","image-keyboard-response","279","283706","0.0-6.0-1.136","LIGR","1","f","rechts","24","","","object","j","120","true"
"null","<div style=""font-size:60px;"">+</div>","null","html-keyboard-response","280","284108","0.0-6.0-0.137","LIGR","1","f","rechts","24","","fixation","","","",""
"729","img/0_210.png","70","image-keyboard-response","281","284837","0.0-6.0-1.137","LIGR","1","f","rechts","24","","","object","f","0","true"
"null","<div style=""font-size:60px;"">+</div>","null","html-keyboard-response","282","285188","0.0-6.0-0.138","LIGR","1","f","rechts","24","","fixation","","","",""
"897","img/30_240.png","74","image-keyboard-response","283","286086","0.0-6.0-1.138","LIGR","1","f","rechts","24","","","object","f","30","false"
"null","<div style=""font-size:60px;"">+</div>","null","html-keyboard-response","284","286537","0.0-6.0-0.139","LIGR","1","f","rechts","24","","fixation","","","",""
"1735","img/150_240.png","74","image-keyboard-response","285","288274","0.0-6.0-1.139","LIGR","1","f","rechts","24","","","object","j","150","true"
"null","<div style=""font-size:60px;"">+</div>","null","html-keyboard-response","286","288725","0.0-6.0-0.140","LIGR","1","f","rechts","24","","fixation","","","",""
"1231","img/90_120.png","70","image-keyboard-response","287","289957","0.0-6.0-1.140","LIGR","1","f","rechts","24","","","object","j","90","false"
"null","<div style=""font-size:60px;"">+</div>","null","html-keyboard-response","288","290409","0.0-6.0-0.141","LIGR","1","f","rechts","24","","fixation","","","",""
"631","img/0_60.png","74","image-keyboard-response","289","291041","0.0-6.0-1.141","LIGR","1","f","rechts","24","","","object","j","0","true"
"null","<div style=""font-size:60px;"">+</div>","null","html-keyboard-response","290","291342","0.0-6.0-0.142","LIGR","1","f","rechts","24","","fixation","","","",""
"1364","img/30_300.png","74","image-keyboard-response","291","292707","0.0-6.0-1.142","LIGR","1","f","rechts","24","","","object","f","30","false"
"null","<div style=""font-size:60px;"">+</div>","null","html-keyboard-response","292","293008","0.0-6.0-0.143","LIGR","1","f","rechts","24","","fixation","","","",""
"851","img/30_60.png","70","image-keyboard-response","293","293861","0.0-6.0-1.143","LIGR","1","f","rechts","24","","","object","j","30","false"
"null","<div style=""font-size:60px;"">+</div>","null","html-keyboard-response","294","294262","0.0-6.0-0.144","LIGR","1","f","rechts","24","","fixation","","","",""
"1922","img/L120_180.png","74","image-keyboard-response","295","296186","0.0-6.0-1.144","LIGR","1","f","rechts","24","","","object","j","120","true"
"null","<div style=""font-size:60px;"">+</div>","null","html-keyboard-response","296","296587","0.0-6.0-0.145","LIGR","1","f","rechts","24","","fixation","","","",""
"2136","img/30_180.png","70","image-keyboard-response","297","298725","0.0-6.0-1.145","LIGR","1","f","rechts","24","","","object","f","30","true"
"null","<div style=""font-size:60px;"">+</div>","null","html-keyboard-response","298","299076","0.0-6.0-0.146","LIGR","1","f","rechts","24","","fixation","","","",""
"1669","img/90_150.png","74","image-keyboard-response","299","300747","0.0-6.0-1.146","LIGR","1","f","rechts","24","","","object","j","90","true"
"null","<div style=""font-size:60px;"">+</div>","null","html-keyboard-response","300","301198","0.0-6.0-0.147","LIGR","1","f","rechts","24","","fixation","","","",""
"1333","img/30_270.png","70","image-keyboard-response","301","302533","0.0-6.0-1.147","LIGR","1","f","rechts","24","","","object","f","30","true"
"null","<div style=""font-size:60px;"">+</div>","null","html-keyboard-response","302","302884","0.0-6.0-0.148","LIGR","1","f","rechts","24","","fixation","","","",""
"972","img/30_90.png","74","image-keyboard-response","303","303858","0.0-6.0-1.148","LIGR","1","f","rechts","24","","","object","j","30","true"
"null","<div style=""font-size:60px;"">+</div>","null","html-keyboard-response","304","304259","0.0-6.0-0.149","LIGR","1","f","rechts","24","","fixation","","","",""
"1306","img/L60_180.png","74","image-keyboard-response","305","305567","0.0-6.0-1.149","LIGR","1","f","rechts","24","","","object","j","60","true"
"null","<div style=""font-size:60px;"">+</div>","null","html-keyboard-response","306","306068","0.0-6.0-0.150","LIGR","1","f","rechts","24","","fixation","","","",""
"715","img/0_300.png","70","image-keyboard-response","307","306784","0.0-6.0-1.150","LIGR","1","f","rechts","24","","","object","f","0","true"
"null","<div style=""font-size:60px;"">+</div>","null","html-keyboard-response","308","307186","0.0-6.0-0.151","LIGR","1","f","rechts","24","","fixation","","","",""
"1415","img/90_240.png","74","image-keyboard-response","309","308602","0.0-6.0-1.151","LIGR","1","f","rechts","24","","","object","f","90","false"
"null","<div style=""font-size:60px;"">+</div>","null","html-keyboard-response","310","309104","0.0-6.0-0.152","LIGR","1","f","rechts","24","","fixation","","","",""
"1144","img/60_210.png","70","image-keyboard-response","311","310249","0.0-6.0-1.152","LIGR","1","f","rechts","24","","","object","f","60","true"
"null","<div style=""font-size:60px;"">+</div>","null","html-keyboard-response","312","310751","0.0-6.0-0.153","LIGR","1","f","rechts","24","","fixation","","","",""
"2064","img/150_180.png","74","image-keyboard-response","313","312816","0.0-6.0-1.153","LIGR","1","f","rechts","24","","","object","f","150","false"
"null","<div style=""font-size:60px;"">+</div>","null","html-keyboard-response","314","313267","0.0-6.0-0.154","LIGR","1","f","rechts","24","","fixation","","","",""
"1819","img/L30_180.png","74","image-keyboard-response","315","315087","0.0-6.0-1.154","LIGR","1","f","rechts","24","","","object","j","30","true"
"null","<div style=""font-size:60px;"">+</div>","null","html-keyboard-response","316","315539","0.0-6.0-0.155","LIGR","1","f","rechts","24","","fixation","","","",""
"1151","img/90_210.png","74","image-keyboard-response","317","316691","0.0-6.0-1.155","LIGR","1","f","rechts","24","","","object","f","90","false"
"null","<div style=""font-size:60px;"">+</div>","null","html-keyboard-response","318","317093","0.0-6.0-0.156","LIGR","1","f","rechts","24","","fixation","","","",""
"1537","img/150_270.png","74","image-keyboard-response","319","318631","0.0-6.0-1.156","LIGR","1","f","rechts","24","","","object","j","150","true"
"null","<div style=""font-size:60px;"">+</div>","null","html-keyboard-response","320","319033","0.0-6.0-0.157","LIGR","1","f","rechts","24","","fixation","","","",""
"1679","img/120_30.png","70","image-keyboard-response","321","320713","0.0-6.0-1.157","LIGR","1","f","rechts","24","","","object","f","120","true"
"null","<div style=""font-size:60px;"">+</div>","null","html-keyboard-response","322","321115","0.0-6.0-0.158","LIGR","1","f","rechts","24","","fixation","","","",""
"791","img/0_150.png","74","image-keyboard-response","323","321906","0.0-6.0-1.158","LIGR","1","f","rechts","24","","","object","j","0","true"
"null","<div style=""font-size:60px;"">+</div>","null","html-keyboard-response","324","322408","0.0-6.0-0.159","LIGR","1","f","rechts","24","","fixation","","","",""
"1695","img/120_180.png","74","image-keyboard-response","325","324104","0.0-6.0-1.159","LIGR","1","f","rechts","24","","","object","f","120","false"
"null","<div style=""font-size:60px;"">+</div>","null","html-keyboard-response","326","324556","0.0-6.0-0.160","LIGR","1","f","rechts","24","","fixation","","","",""
"1067","img/60_30.png","70","image-keyboard-response","327","325625","0.0-6.0-1.160","LIGR","1","f","rechts","24","","","object","f","60","true"
"null","<div style=""font-size:60px;"">+</div>","null","html-keyboard-response","328","325926","0.0-6.0-0.161","LIGR","1","f","rechts","24","","fixation","","","",""
"1131","img/0_30.png","74","image-keyboard-response","329","327058","0.0-6.0-1.161","LIGR","1","f","rechts","24","","","object","j","0","true"
"null","<div style=""font-size:60px;"">+</div>","null","html-keyboard-response","330","327460","0.0-6.0-0.162","LIGR","1","f","rechts","24","","fixation","","","",""
"2066","img/90_150.png","70","image-keyboard-response","331","329527","0.0-6.0-1.162","LIGR","1","f","rechts","24","","","object","j","90","false"
"null","<div style=""font-size:60px;"">+</div>","null","html-keyboard-response","332","329978","0.0-6.0-0.163","LIGR","1","f","rechts","24","","fixation","","","",""
"1480","img/150_60.png","70","image-keyboard-response","333","331459","0.0-6.0-1.163","LIGR","1","f","rechts","24","","","object","f","150","true"
"null","<div style=""font-size:60px;"">+</div>","null","html-keyboard-response","334","331911","0.0-6.0-0.164","LIGR","1","f","rechts","24","","fixation","","","",""
"1762","img/90_120.png","74","image-keyboard-response","335","333673","0.0-6.0-1.164","LIGR","1","f","rechts","24","","","object","j","90","true"
"null","<div style=""font-size:60px;"">+</div>","null","html-keyboard-response","336","334124","0.0-6.0-0.165","LIGR","1","f","rechts","24","","fixation","","","",""
"1289","img/150_240.png","74","image-keyboard-response","337","335413","0.0-6.0-1.165","LIGR","1","f","rechts","24","","","object","j","150","true"
"null","<div style=""font-size:60px;"">+</div>","null","html-keyboard-response","338","335865","0.0-6.0-0.166","LIGR","1","f","rechts","24","","fixation","","","",""
"1195","img/120_90.png","70","image-keyboard-response","339","337060","0.0-6.0-1.166","LIGR","1","f","rechts","24","","","object","f","120","true"
"null","<div style=""font-size:60px;"">+</div>","null","html-keyboard-response","340","337412","0.0-6.0-0.167","LIGR","1","f","rechts","24","","fixation","","","",""
"650","img/0_120.png","74","image-keyboard-response","341","338062","0.0-6.0-1.167","LIGR","1","f","rechts","24","","","object","j","0","true"
"null","<div style=""font-size:60px;"">+</div>","null","html-keyboard-response","342","338513","0.0-6.0-0.168","LIGR","1","f","rechts","24","","fixation","","","",""
"1913","img/60_150.png","74","image-keyboard-response","343","340427","0.0-6.0-1.168","LIGR","1","f","rechts","24","","","object","j","60","true"
"null","<div style=""font-size:60px;"">+</div>","null","html-keyboard-response","344","340928","0.0-6.0-0.169","LIGR","1","f","rechts","24","","fixation","","","",""
"1407","img/90_300.png","74","image-keyboard-response","345","342336","0.0-6.0-1.169","LIGR","1","f","rechts","24","","","object","j","90","true"
"null","<div style=""font-size:60px;"">+</div>","null","html-keyboard-response","346","342837","0.0-6.0-0.170","LIGR","1","f","rechts","24","","fixation","","","",""
"914","img/0_330.png","70","image-keyboard-response","347","343753","0.0-6.0-1.170","LIGR","1","f","rechts","24","","","object","f","0","true"
"null","<div style=""font-size:60px;"">+</div>","null","html-keyboard-response","348","344255","0.0-6.0-0.171","LIGR","1","f","rechts","24","","fixation","","","",""
"1146","img/120_330.png","74","image-keyboard-response","349","345401","0.0-6.0-1.171","LIGR","1","f","rechts","24","","","object","j","120","true"
"null","<div style=""font-size:60px;"">+</div>","null","html-keyboard-response","350","345702","0.0-6.0-0.172","LIGR","1","f","rechts","24","","fixation","","","",""
"1179","img/60_180.png","70","image-keyboard-response","351","346882","0.0-6.0-1.172","LIGR","1","f","rechts","24","","","object","f","60","true"
"null","<div style=""font-size:60px;"">+</div>","null","html-keyboard-response","352","347284","0.0-6.0-0.173","LIGR","1","f","rechts","24","","fixation","","","",""
"885","img/30_180.png","70","image-keyboard-response","353","348171","0.0-6.0-1.173","LIGR","1","f","rechts","24","","","object","f","30","true"
"null","<div style=""font-size:60px;"">+</div>","null","html-keyboard-response","354","348672","0.0-6.0-0.174","LIGR","1","f","rechts","24","","fixation","","","",""
"871","img/0_60.png","74","image-keyboard-response","355","349545","0.0-6.0-1.174","LIGR","1","f","rechts","24","","","object","j","0","true"
"null","<div style=""font-size:60px;"">+</div>","null","html-keyboard-response","356","349846","0.0-6.0-0.175","LIGR","1","f","rechts","24","","fixation","","","",""
"1112","img/60_210.png","70","image-keyboard-response","357","350958","0.0-6.0-1.175","LIGR","1","f","rechts","24","","","object","f","60","true"
"null","<div style=""font-size:60px;"">+</div>","null","html-keyboard-response","358","351310","0.0-6.0-0.176","LIGR","1","f","rechts","24","","fixation","","","",""
"2032","img/L120_180.png","74","image-keyboard-response","359","353343","0.0-6.0-1.176","LIGR","1","f","rechts","24","","","object","j","120","true"
"null","<div style=""font-size:60px;"">+</div>","null","html-keyboard-response","360","353695","0.0-6.0-0.177","LIGR","1","f","rechts","24","","fixation","","","",""
"1302","img/120_210.png","74","image-keyboard-response","361","354998","0.0-6.0-1.177","LIGR","1","f","rechts","24","","","object","f","120","false"
"null","<div style=""font-size:60px;"">+</div>","null","html-keyboard-response","362","355400","0.0-6.0-0.178","LIGR","1","f","rechts","24","","fixation","","","",""
"1280","img/90_240.png","74","image-keyboard-response","363","356681","0.0-6.0-1.178","LIGR","1","f","rechts","24","","","object","f","90","false"
"null","<div style=""font-size:60px;"">+</div>","null","html-keyboard-response","364","357083","0.0-6.0-0.179","LIGR","1","f","rechts","24","","fixation","","","",""
"1264","img/L60_180.png","74","image-keyboard-response","365","358348","0.0-6.0-1.179","LIGR","1","f","rechts","24","","","object","j","60","true"
"null","<div style=""font-size:60px;"">+</div>","null","html-keyboard-response","366","358850","0.0-6.0-0.180","LIGR","1","f","rechts","24","","fixation","","","",""
"1404","img/150_90.png","70","image-keyboard-response","367","360255","0.0-6.0-1.180","LIGR","1","f","rechts","24","","","object","f","150","true"
"null","<div style=""font-size:60px;"">+</div>","null","html-keyboard-response","368","360707","0.0-6.0-0.181","LIGR","1","f","rechts","24","","fixation","","","",""
"976","img/30_270.png","74","image-keyboard-response","369","361684","0.0-6.0-1.181","LIGR","1","f","rechts","24","","","object","f","30","false"
"null","<div style=""font-size:60px;"">+</div>","null","html-keyboard-response","370","362086","0.0-6.0-0.182","LIGR","1","f","rechts","24","","fixation","","","",""
"1422","img/150_300.png","74","image-keyboard-response","371","363509","0.0-6.0-1.182","LIGR","1","f","rechts","24","","","object","j","150","true"
"null","<div style=""font-size:60px;"">+</div>","null","html-keyboard-response","372","363861","0.0-6.0-0.183","LIGR","1","f","rechts","24","","fixation","","","",""
"1248","img/90_60.png","70","image-keyboard-response","373","365110","0.0-6.0-1.183","LIGR","1","f","rechts","24","","","object","f","90","true"
"null","<div style=""font-size:60px;"">+</div>","null","html-keyboard-response","374","365562","0.0-6.0-0.184","LIGR","1","f","rechts","24","","fixation","","","",""
"1273","img/120_270.png","74","image-keyboard-response","375","366836","0.0-6.0-1.184","LIGR","1","f","rechts","24","","","object","j","120","true"
"null","<div style=""font-size:60px;"">+</div>","null","html-keyboard-response","376","367288","0.0-6.0-0.185","LIGR","1","f","rechts","24","","fixation","","","",""
"1352","img/L90_180.png","70","image-keyboard-response","377","368641","0.0-6.0-1.185","LIGR","1","f","rechts","24","","","object","j","90","false"
"null","<div style=""font-size:60px;"">+</div>","null","html-keyboard-response","378","368943","0.0-6.0-0.186","LIGR","1","f","rechts","24","","fixation","","","",""
"1635","img/60_90.png","70","image-keyboard-response","379","370579","0.0-6.0-1.186","LIGR","1","f","rechts","24","","","object","j","60","false"
"null","<div style=""font-size:60px;"">+</div>","null","html-keyboard-response","380","370981","0.0-6.0-0.187","LIGR","1","f","rechts","24","","fixation","","","",""
"2198","img/90_210.png","70","image-keyboard-response","381","373180","0.0-6.0-1.187","LIGR","1","f","rechts","24","","","object","f","90","true"
"null","<div style=""font-size:60px;"">+</div>","null","html-keyboard-response","382","373682","0.0-6.0-0.188","LIGR","1","f","rechts","24","","fixation","","","",""
"1829","img/120_150.png","70","image-keyboard-response","383","375512","0.0-6.0-1.188","LIGR","1","f","rechts","24","","","object","j","120","false"
"null","<div style=""font-size:60px;"">+</div>","null","html-keyboard-response","384","375914","0.0-6.0-0.189","LIGR","1","f","rechts","24","","fixation","","","",""
"726","img/0_300.png","70","image-keyboard-response","385","376641","0.0-6.0-1.189","LIGR","1","f","rechts","24","","","object","f","0","true"
"null","<div style=""font-size:60px;"">+</div>","null","html-keyboard-response","386","377043","0.0-6.0-0.190","LIGR","1","f","rechts","24","","fixation","","","",""
"656","img/0_240.png","70","image-keyboard-response","387","377699","0.0-6.0-1.190","LIGR","1","f","rechts","24","","","object","f","0","true"
"null","<div style=""font-size:60px;"">+</div>","null","html-keyboard-response","388","378101","0.0-6.0-0.191","LIGR","1","f","rechts","24","","fixation","","","",""
"584","img/0_270.png","70","image-keyboard-response","389","378686","0.0-6.0-1.191","LIGR","1","f","rechts","24","","","object","f","0","true"
"null","<div style=""font-size:60px;"">+</div>","null","html-keyboard-response","390","379038","0.0-6.0-0.192","LIGR","1","f","rechts","24","","fixation","","","",""
"1166","img/60_270.png","74","image-keyboard-response","391","380205","0.0-6.0-1.192","LIGR","1","f","rechts","24","","","object","f","60","false"
"null","<div style=""font-size:60px;"">+</div>","null","html-keyboard-response","392","380706","0.0-6.0-0.193","LIGR","1","f","rechts","24","","fixation","","","",""
"1062","img/30_90.png","74","image-keyboard-response","393","381769","0.0-6.0-1.193","LIGR","1","f","rechts","24","","","object","j","30","true"
"null","<div style=""font-size:60px;"">+</div>","null","html-keyboard-response","394","382120","0.0-6.0-0.194","LIGR","1","f","rechts","24","","fixation","","","",""
"1231","img/90_180.png","70","image-keyboard-response","395","383352","0.0-6.0-1.194","LIGR","1","f","rechts","24","","","object","f","90","true"
"null","<div style=""font-size:60px;"">+</div>","null","html-keyboard-response","396","383804","0.0-6.0-0.195","LIGR","1","f","rechts","24","","fixation","","","",""
"775","img/0_210.png","70","image-keyboard-response","397","384579","0.0-6.0-1.195","LIGR","1","f","rechts","24","","","object","f","0","true"
"null","<div style=""font-size:60px;"">+</div>","null","html-keyboard-response","398","385081","0.0-6.0-0.196","LIGR","1","f","rechts","24","","fixation","","","",""
"1831","img/150_120.png","70","image-keyboard-response","399","386913","0.0-6.0-1.196","LIGR","1","f","rechts","24","","","object","f","150","true"
"null","<div style=""font-size:60px;"">+</div>","null","html-keyboard-response","400","387265","0.0-6.0-0.197","LIGR","1","f","rechts","24","","fixation","","","",""
"1385","img/150_180.png","74","image-keyboard-response","401","388650","0.0-6.0-1.197","LIGR","1","f","rechts","24","","","object","f","150","false"
"null","<div style=""font-size:60px;"">+</div>","null","html-keyboard-response","402","389152","0.0-6.0-0.198","LIGR","1","f","rechts","24","","fixation","","","",""
"1555","img/30_60.png","74","image-keyboard-response","403","390707","0.0-6.0-1.198","LIGR","1","f","rechts","24","","","object","j","30","true"
"null","<div style=""font-size:60px;"">+</div>","null","html-keyboard-response","404","391209","0.0-6.0-0.199","LIGR","1","f","rechts","24","","fixation","","","",""
"1238","img/90_30.png","70","image-keyboard-response","405","392448","0.0-6.0-1.199","LIGR","1","f","rechts","24","","","object","f","90","true"
"null","<div style=""font-size:60px;"">+</div>","null","html-keyboard-response","406","392749","0.0-6.0-0.200","LIGR","1","f","rechts","24","","fixation","","","",""
"1154","img/30_240.png","74","image-keyboard-response","407","393905","0.0-6.0-1.200","LIGR","1","f","rechts","24","","","object","f","30","false"
"null","<div style=""font-size:60px;"">+</div>","null","html-keyboard-response","408","394405","0.0-6.0-0.201","LIGR","1","f","rechts","24","","fixation","","","",""
"1079","img/30_300.png","70","image-keyboard-response","409","395485","0.0-6.0-1.201","LIGR","1","f","rechts","24","","","object","f","30","true"
"null","<div style=""font-size:60px;"">+</div>","null","html-keyboard-response","410","395787","0.0-6.0-0.202","LIGR","1","f","rechts","24","","fixation","","","",""
"1202","img/L30_180.png","74","image-keyboard-response","411","396990","0.0-6.0-1.202","LIGR","1","f","rechts","24","","","object","j","30","true"
"null","<div style=""font-size:60px;"">+</div>","null","html-keyboard-response","412","397491","0.0-6.0-0.203","LIGR","1","f","rechts","24","","fixation","","","",""
"1689","img/30_120.png","74","image-keyboard-response","413","399181","0.0-6.0-1.203","LIGR","1","f","rechts","24","","","object","j","30","true"
"null","<div style=""font-size:60px;"">+</div>","null","html-keyboard-response","414","399633","0.0-6.0-0.204","LIGR","1","f","rechts","24","","fixation","","","",""
"1553","img/60_330.png","74","image-keyboard-response","415","401188","0.0-6.0-1.204","LIGR","1","f","rechts","24","","","object","j","60","true"
"null","<div style=""font-size:60px;"">+</div>","null","html-keyboard-response","416","401639","0.0-6.0-0.205","LIGR","1","f","rechts","24","","fixation","","","",""
"845","img/0_90.png","74","image-keyboard-response","417","402485","0.0-6.0-1.205","LIGR","1","f","rechts","24","","","object","j","0","true"
"null","<div style=""font-size:60px;"">+</div>","null","html-keyboard-response","418","402886","0.0-6.0-0.206","LIGR","1","f","rechts","24","","fixation","","","",""
"1131","img/90_330.png","74","image-keyboard-response","419","404018","0.0-6.0-1.206","LIGR","1","f","rechts","24","","","object","j","90","true"
"null","<div style=""font-size:60px;"">+</div>","null","html-keyboard-response","420","404470","0.0-6.0-0.207","LIGR","1","f","rechts","24","","fixation","","","",""
"1541","img/L150_180.png","70","image-keyboard-response","421","406012","0.0-6.0-1.207","LIGR","1","f","rechts","24","","","object","j","150","false"
"5865","<p>Du hast in 71% der Versuche korrekt entschieden.</p><p>Deine durchschnittliche Reaktionszeit war  1315ms.</p><p>Dr&uuml;cke eine beliebige Taste, um die Session zu beenden. Vielen Dank!</p>","70","html-keyboard-response","422","411879","0.0-7.0","LIGR","1","f","rechts","24","","","","","",""
