"rt","stimulus","key_press","trial_type","trial_index","time_elapsed","internal_node_id","subject","session","sex","handedness","age","responses","test_part","condition","correct_response","angle","correct"
"10051","<p>Mental Rotation Experiment.</p> <p>Dr&uuml;cke eine beliebige Taste, um anzufangen.</p>","71","html-keyboard-response","0","10051","0.0-0.0","LIGR","2","f","rechts","24","","","","","",""
"6312","","","survey-text","1","16365","0.0-1.0","LIGR","2","f","rechts","24","{""Q0"":""LIGR""}","","","","",""
"11951","","","survey-text","2","28317","0.0-2.0","LIGR","2","f","rechts","24","{""Q0"":""2""}","","","","",""
"3250","","","survey-multi-choice","3","31569","0.0-3.0","LIGR","2","f","rechts","24","{""Q0"":""f"",""Q1"":""rechts""}","","","","",""
"1827","","","survey-text","4","33398","0.0-4.0","LIGR","2","f","rechts","24","{""Q0"":""24""}","","","","",""
"714059","<p> Stell dir vor, dass du vor einem runden Tisch stehst, auf dem sich ein blauer Ball am Tischrand befindet. Entlang des Tischrands ist jeweils ein verschieden langer Pfeil. Nun bewegst du dich entlang dieses Pfeils bis an seine Spitze. Wenn du am Ende des Pfeils angekommen bist, schau zur Tischmitte. </p> <img src='img/90_180.png'></img> <br> <p>Entscheide dann, ob der Ball von deiner neuen (vorgestellten) Position links oder rechts von dir liegt.</p> <p>Dr&uuml;cke die <strong>'f'</strong>-Taste f&uuml;r links, die <strong>'j'</strong>-Taste f&uuml;r rechts.</p> <br><p> Das Bild wird jeweils 1 Sekunde lang pr&auml;sentiert. Du hast 3 Sekunden Zeit eine Entscheidung zu treffen.</p>","32","html-keyboard-response","5","747459","0.0-5.0","LIGR","2","f","rechts","24","","","","","",""
"null","<div style=""font-size:60px;"">+</div>","null","html-keyboard-response","6","748864","0.0-6.0-0.0","LIGR","2","f","rechts","24","","fixation","","","",""
"839","img/150_270.png","74","image-keyboard-response","7","749704","0.0-6.0-1.0","LIGR","2","f","rechts","24","","","self","j","150","true"
"null","<div style=""font-size:60px;"">+</div>","null","html-keyboard-response","8","750006","0.0-6.0-0.1","LIGR","2","f","rechts","24","","fixation","","","",""
"948","img/90_150.png","70","image-keyboard-response","9","750955","0.0-6.0-1.1","LIGR","2","f","rechts","24","","","self","f","90","true"
"null","<div style=""font-size:60px;"">+</div>","null","html-keyboard-response","10","751357","0.0-6.0-0.2","LIGR","2","f","rechts","24","","fixation","","","",""
"935","img/150_180.png","74","image-keyboard-response","11","752293","0.0-6.0-1.2","LIGR","2","f","rechts","24","","","self","j","150","true"
"null","<div style=""font-size:60px;"">+</div>","null","html-keyboard-response","12","752594","0.0-6.0-0.3","LIGR","2","f","rechts","24","","fixation","","","",""
"890","img/90_120.png","70","image-keyboard-response","13","753485","0.0-6.0-1.3","LIGR","2","f","rechts","24","","","self","f","90","true"
"null","<div style=""font-size:60px;"">+</div>","null","html-keyboard-response","14","753986","0.0-6.0-0.4","LIGR","2","f","rechts","24","","fixation","","","",""
"800","img/120_270.png","74","image-keyboard-response","15","754788","0.0-6.0-1.4","LIGR","2","f","rechts","24","","","self","j","120","true"
"null","<div style=""font-size:60px;"">+</div>","null","html-keyboard-response","16","755189","0.0-6.0-0.5","LIGR","2","f","rechts","24","","fixation","","","",""
"975","img/30_240.png","70","image-keyboard-response","17","756166","0.0-6.0-1.5","LIGR","2","f","rechts","24","","","self","f","30","true"
"null","<div style=""font-size:60px;"">+</div>","null","html-keyboard-response","18","756668","0.0-6.0-0.6","LIGR","2","f","rechts","24","","fixation","","","",""
"1010","img/150_120.png","70","image-keyboard-response","19","757678","0.0-6.0-1.6","LIGR","2","f","rechts","24","","","self","f","150","true"
"null","<div style=""font-size:60px;"">+</div>","null","html-keyboard-response","20","758080","0.0-6.0-0.7","LIGR","2","f","rechts","24","","fixation","","","",""
"795","img/90_210.png","74","image-keyboard-response","21","758877","0.0-6.0-1.7","LIGR","2","f","rechts","24","","","self","j","90","true"
"null","<div style=""font-size:60px;"">+</div>","null","html-keyboard-response","22","759278","0.0-6.0-0.8","LIGR","2","f","rechts","24","","fixation","","","",""
"772","img/150_300.png","74","image-keyboard-response","23","760051","0.0-6.0-1.8","LIGR","2","f","rechts","24","","","self","j","150","true"
"null","<div style=""font-size:60px;"">+</div>","null","html-keyboard-response","24","760553","0.0-6.0-0.9","LIGR","2","f","rechts","24","","fixation","","","",""
"757","img/L120_180.png","70","image-keyboard-response","25","761311","0.0-6.0-1.9","LIGR","2","f","rechts","24","","","self","f","120","true"
"null","<div style=""font-size:60px;"">+</div>","null","html-keyboard-response","26","761813","0.0-6.0-0.10","LIGR","2","f","rechts","24","","fixation","","","",""
"708","img/0_210.png","70","image-keyboard-response","27","762522","0.0-6.0-1.10","LIGR","2","f","rechts","24","","","self","f","0","true"
"null","<div style=""font-size:60px;"">+</div>","null","html-keyboard-response","28","762824","0.0-6.0-0.11","LIGR","2","f","rechts","24","","fixation","","","",""
"646","img/L30_180.png","70","image-keyboard-response","29","763471","0.0-6.0-1.11","LIGR","2","f","rechts","24","","","self","f","30","true"
"null","<div style=""font-size:60px;"">+</div>","null","html-keyboard-response","30","763773","0.0-6.0-0.12","LIGR","2","f","rechts","24","","fixation","","","",""
"836","img/60_210.png","74","image-keyboard-response","31","764610","0.0-6.0-1.12","LIGR","2","f","rechts","24","","","self","j","60","true"
"null","<div style=""font-size:60px;"">+</div>","null","html-keyboard-response","32","764962","0.0-6.0-0.13","LIGR","2","f","rechts","24","","fixation","","","",""
"717","img/0_270.png","70","image-keyboard-response","33","765680","0.0-6.0-1.13","LIGR","2","f","rechts","24","","","self","f","0","true"
"null","<div style=""font-size:60px;"">+</div>","null","html-keyboard-response","34","766032","0.0-6.0-0.14","LIGR","2","f","rechts","24","","fixation","","","",""
"775","img/0_120.png","74","image-keyboard-response","35","766808","0.0-6.0-1.14","LIGR","2","f","rechts","24","","","self","j","0","true"
"null","<div style=""font-size:60px;"">+</div>","null","html-keyboard-response","36","767110","0.0-6.0-0.15","LIGR","2","f","rechts","24","","fixation","","","",""
"1132","img/30_60.png","74","image-keyboard-response","37","768243","0.0-6.0-1.15","LIGR","2","f","rechts","24","","","self","j","30","true"
"null","<div style=""font-size:60px;"">+</div>","null","html-keyboard-response","38","768545","0.0-6.0-0.16","LIGR","2","f","rechts","24","","fixation","","","",""
"886","img/30_300.png","70","image-keyboard-response","39","769431","0.0-6.0-1.16","LIGR","2","f","rechts","24","","","self","f","30","true"
"null","<div style=""font-size:60px;"">+</div>","null","html-keyboard-response","40","769832","0.0-6.0-0.17","LIGR","2","f","rechts","24","","fixation","","","",""
"756","img/30_270.png","70","image-keyboard-response","41","770589","0.0-6.0-1.17","LIGR","2","f","rechts","24","","","self","f","30","true"
"null","<div style=""font-size:60px;"">+</div>","null","html-keyboard-response","42","770991","0.0-6.0-0.18","LIGR","2","f","rechts","24","","fixation","","","",""
"721","img/120_210.png","74","image-keyboard-response","43","771713","0.0-6.0-1.18","LIGR","2","f","rechts","24","","","self","j","120","true"
"null","<div style=""font-size:60px;"">+</div>","null","html-keyboard-response","44","772014","0.0-6.0-0.19","LIGR","2","f","rechts","24","","fixation","","","",""
"914","img/30_120.png","74","image-keyboard-response","45","772930","0.0-6.0-1.19","LIGR","2","f","rechts","24","","","self","j","30","true"
"null","<div style=""font-size:60px;"">+</div>","null","html-keyboard-response","46","773231","0.0-6.0-0.20","LIGR","2","f","rechts","24","","fixation","","","",""
"1243","img/120_30.png","74","image-keyboard-response","47","774476","0.0-6.0-1.20","LIGR","2","f","rechts","24","","","self","j","120","true"
"null","<div style=""font-size:60px;"">+</div>","null","html-keyboard-response","48","774978","0.0-6.0-0.21","LIGR","2","f","rechts","24","","fixation","","","",""
"737","img/90_60.png","74","image-keyboard-response","49","775716","0.0-6.0-1.21","LIGR","2","f","rechts","24","","","self","j","90","true"
"null","<div style=""font-size:60px;"">+</div>","null","html-keyboard-response","50","776168","0.0-6.0-0.22","LIGR","2","f","rechts","24","","fixation","","","",""
"908","img/90_330.png","70","image-keyboard-response","51","777078","0.0-6.0-1.22","LIGR","2","f","rechts","24","","","self","f","90","true"
"null","<div style=""font-size:60px;"">+</div>","null","html-keyboard-response","52","777479","0.0-6.0-0.23","LIGR","2","f","rechts","24","","fixation","","","",""
"782","img/90_240.png","74","image-keyboard-response","53","778262","0.0-6.0-1.23","LIGR","2","f","rechts","24","","","self","j","90","true"
"null","<div style=""font-size:60px;"">+</div>","null","html-keyboard-response","54","778714","0.0-6.0-0.24","LIGR","2","f","rechts","24","","fixation","","","",""
"991","img/L150_180.png","70","image-keyboard-response","55","779707","0.0-6.0-1.24","LIGR","2","f","rechts","24","","","self","f","150","true"
"null","<div style=""font-size:60px;"">+</div>","null","html-keyboard-response","56","780107","0.0-6.0-0.25","LIGR","2","f","rechts","24","","fixation","","","",""
"944","img/150_240.png","74","image-keyboard-response","57","781052","0.0-6.0-1.25","LIGR","2","f","rechts","24","","","self","j","150","true"
"null","<div style=""font-size:60px;"">+</div>","null","html-keyboard-response","58","781454","0.0-6.0-0.26","LIGR","2","f","rechts","24","","fixation","","","",""
"844","img/60_90.png","74","image-keyboard-response","59","782299","0.0-6.0-1.26","LIGR","2","f","rechts","24","","","self","j","60","true"
"null","<div style=""font-size:60px;"">+</div>","null","html-keyboard-response","60","782751","0.0-6.0-0.27","LIGR","2","f","rechts","24","","fixation","","","",""
"1110","img/90_180.png","74","image-keyboard-response","61","783861","0.0-6.0-1.27","LIGR","2","f","rechts","24","","","self","j","90","true"
"null","<div style=""font-size:60px;"">+</div>","null","html-keyboard-response","62","784363","0.0-6.0-0.28","LIGR","2","f","rechts","24","","fixation","","","",""
"1119","img/120_180.png","74","image-keyboard-response","63","785483","0.0-6.0-1.28","LIGR","2","f","rechts","24","","","self","j","120","true"
"null","<div style=""font-size:60px;"">+</div>","null","html-keyboard-response","64","785985","0.0-6.0-0.29","LIGR","2","f","rechts","24","","fixation","","","",""
"883","img/0_30.png","74","image-keyboard-response","65","786869","0.0-6.0-1.29","LIGR","2","f","rechts","24","","","self","j","0","true"
"null","<div style=""font-size:60px;"">+</div>","null","html-keyboard-response","66","787321","0.0-6.0-0.30","LIGR","2","f","rechts","24","","fixation","","","",""
"850","img/0_150.png","74","image-keyboard-response","67","788172","0.0-6.0-1.30","LIGR","2","f","rechts","24","","","self","j","0","true"
"null","<div style=""font-size:60px;"">+</div>","null","html-keyboard-response","68","788623","0.0-6.0-0.31","LIGR","2","f","rechts","24","","fixation","","","",""
"629","img/0_300.png","70","image-keyboard-response","69","789253","0.0-6.0-1.31","LIGR","2","f","rechts","24","","","self","f","0","true"
"null","<div style=""font-size:60px;"">+</div>","null","html-keyboard-response","70","789705","0.0-6.0-0.32","LIGR","2","f","rechts","24","","fixation","","","",""
"1005","img/L90_180.png","70","image-keyboard-response","71","790711","0.0-6.0-1.32","LIGR","2","f","rechts","24","","","self","f","90","true"
"null","<div style=""font-size:60px;"">+</div>","null","html-keyboard-response","72","791113","0.0-6.0-0.33","LIGR","2","f","rechts","24","","fixation","","","",""
"924","img/L60_180.png","70","image-keyboard-response","73","792039","0.0-6.0-1.33","LIGR","2","f","rechts","24","","","self","f","60","true"
"null","<div style=""font-size:60px;"">+</div>","null","html-keyboard-response","74","792490","0.0-6.0-0.34","LIGR","2","f","rechts","24","","fixation","","","",""
"882","img/90_300.png","70","image-keyboard-response","75","793374","0.0-6.0-1.34","LIGR","2","f","rechts","24","","","self","f","90","true"
"null","<div style=""font-size:60px;"">+</div>","null","html-keyboard-response","76","793675","0.0-6.0-0.35","LIGR","2","f","rechts","24","","fixation","","","",""
"670","img/0_330.png","70","image-keyboard-response","77","794346","0.0-6.0-1.35","LIGR","2","f","rechts","24","","","self","f","0","true"
"null","<div style=""font-size:60px;"">+</div>","null","html-keyboard-response","78","794747","0.0-6.0-0.36","LIGR","2","f","rechts","24","","fixation","","","",""
"716","img/60_270.png","70","image-keyboard-response","79","795464","0.0-6.0-1.36","LIGR","2","f","rechts","24","","","self","f","60","true"
"null","<div style=""font-size:60px;"">+</div>","null","html-keyboard-response","80","795866","0.0-6.0-0.37","LIGR","2","f","rechts","24","","fixation","","","",""
"803","img/60_150.png","70","image-keyboard-response","81","796670","0.0-6.0-1.37","LIGR","2","f","rechts","24","","","self","f","60","true"
"null","<div style=""font-size:60px;"">+</div>","null","html-keyboard-response","82","797072","0.0-6.0-0.38","LIGR","2","f","rechts","24","","fixation","","","",""
"930","img/30_90.png","74","image-keyboard-response","83","798003","0.0-6.0-1.38","LIGR","2","f","rechts","24","","","self","j","30","true"
"null","<div style=""font-size:60px;"">+</div>","null","html-keyboard-response","84","798455","0.0-6.0-0.39","LIGR","2","f","rechts","24","","fixation","","","",""
"677","img/120_150.png","70","image-keyboard-response","85","799133","0.0-6.0-1.39","LIGR","2","f","rechts","24","","","self","f","120","true"
"null","<div style=""font-size:60px;"">+</div>","null","html-keyboard-response","86","799485","0.0-6.0-0.40","LIGR","2","f","rechts","24","","fixation","","","",""
"1051","img/60_30.png","74","image-keyboard-response","87","800538","0.0-6.0-1.40","LIGR","2","f","rechts","24","","","self","j","60","true"
"null","<div style=""font-size:60px;"">+</div>","null","html-keyboard-response","88","800838","0.0-6.0-0.41","LIGR","2","f","rechts","24","","fixation","","","",""
"1065","img/30_180.png","74","image-keyboard-response","89","801904","0.0-6.0-1.41","LIGR","2","f","rechts","24","","","self","j","30","true"
"null","<div style=""font-size:60px;"">+</div>","null","html-keyboard-response","90","802306","0.0-6.0-0.42","LIGR","2","f","rechts","24","","fixation","","","",""
"896","img/120_90.png","70","image-keyboard-response","91","803203","0.0-6.0-1.42","LIGR","2","f","rechts","24","","","self","f","120","true"
"null","<div style=""font-size:60px;"">+</div>","null","html-keyboard-response","92","803705","0.0-6.0-0.43","LIGR","2","f","rechts","24","","fixation","","","",""
"729","img/0_90.png","74","image-keyboard-response","93","804435","0.0-6.0-1.43","LIGR","2","f","rechts","24","","","self","j","0","true"
"null","<div style=""font-size:60px;"">+</div>","null","html-keyboard-response","94","804786","0.0-6.0-0.44","LIGR","2","f","rechts","24","","fixation","","","",""
"813","img/60_180.png","74","image-keyboard-response","95","805600","0.0-6.0-1.44","LIGR","2","f","rechts","24","","","self","j","60","true"
"null","<div style=""font-size:60px;"">+</div>","null","html-keyboard-response","96","806002","0.0-6.0-0.45","LIGR","2","f","rechts","24","","fixation","","","",""
"1070","img/120_330.png","70","image-keyboard-response","97","807073","0.0-6.0-1.45","LIGR","2","f","rechts","24","","","self","f","120","true"
"null","<div style=""font-size:60px;"">+</div>","null","html-keyboard-response","98","807475","0.0-6.0-0.46","LIGR","2","f","rechts","24","","fixation","","","",""
"635","img/0_240.png","70","image-keyboard-response","99","808111","0.0-6.0-1.46","LIGR","2","f","rechts","24","","","self","f","0","true"
"null","<div style=""font-size:60px;"">+</div>","null","html-keyboard-response","100","808412","0.0-6.0-0.47","LIGR","2","f","rechts","24","","fixation","","","",""
"737","img/150_60.png","70","image-keyboard-response","101","809149","0.0-6.0-1.47","LIGR","2","f","rechts","24","","","self","f","150","true"
"null","<div style=""font-size:60px;"">+</div>","null","html-keyboard-response","102","809551","0.0-6.0-0.48","LIGR","2","f","rechts","24","","fixation","","","",""
"1179","img/90_30.png","74","image-keyboard-response","103","810730","0.0-6.0-1.48","LIGR","2","f","rechts","24","","","self","j","90","true"
"null","<div style=""font-size:60px;"">+</div>","null","html-keyboard-response","104","811031","0.0-6.0-0.49","LIGR","2","f","rechts","24","","fixation","","","",""
"889","img/150_90.png","70","image-keyboard-response","105","811921","0.0-6.0-1.49","LIGR","2","f","rechts","24","","","self","f","150","true"
"null","<div style=""font-size:60px;"">+</div>","null","html-keyboard-response","106","812322","0.0-6.0-0.50","LIGR","2","f","rechts","24","","fixation","","","",""
"889","img/0_60.png","74","image-keyboard-response","107","813212","0.0-6.0-1.50","LIGR","2","f","rechts","24","","","self","j","0","true"
"null","<div style=""font-size:60px;"">+</div>","null","html-keyboard-response","108","813513","0.0-6.0-0.51","LIGR","2","f","rechts","24","","fixation","","","",""
"906","img/60_330.png","70","image-keyboard-response","109","814421","0.0-6.0-1.51","LIGR","2","f","rechts","24","","","self","f","60","true"
"null","<div style=""font-size:60px;"">+</div>","null","html-keyboard-response","110","814922","0.0-6.0-0.52","LIGR","2","f","rechts","24","","fixation","","","",""
"794","img/90_210.png","74","image-keyboard-response","111","815718","0.0-6.0-1.52","LIGR","2","f","rechts","24","","","self","j","90","true"
"null","<div style=""font-size:60px;"">+</div>","null","html-keyboard-response","112","816019","0.0-6.0-0.53","LIGR","2","f","rechts","24","","fixation","","","",""
"762","img/60_30.png","74","image-keyboard-response","113","816783","0.0-6.0-1.53","LIGR","2","f","rechts","24","","","self","j","60","true"
"null","<div style=""font-size:60px;"">+</div>","null","html-keyboard-response","114","817084","0.0-6.0-0.54","LIGR","2","f","rechts","24","","fixation","","","",""
"927","img/90_330.png","70","image-keyboard-response","115","818012","0.0-6.0-1.54","LIGR","2","f","rechts","24","","","self","f","90","true"
"null","<div style=""font-size:60px;"">+</div>","null","html-keyboard-response","116","818314","0.0-6.0-0.55","LIGR","2","f","rechts","24","","fixation","","","",""
"864","img/0_90.png","74","image-keyboard-response","117","819179","0.0-6.0-1.55","LIGR","2","f","rechts","24","","","self","j","0","true"
"null","<div style=""font-size:60px;"">+</div>","null","html-keyboard-response","118","819581","0.0-6.0-0.56","LIGR","2","f","rechts","24","","fixation","","","",""
"755","img/60_90.png","74","image-keyboard-response","119","820337","0.0-6.0-1.56","LIGR","2","f","rechts","24","","","self","j","60","true"
"null","<div style=""font-size:60px;"">+</div>","null","html-keyboard-response","120","820639","0.0-6.0-0.57","LIGR","2","f","rechts","24","","fixation","","","",""
"1288","img/150_240.png","74","image-keyboard-response","121","821928","0.0-6.0-1.57","LIGR","2","f","rechts","24","","","self","j","150","true"
"null","<div style=""font-size:60px;"">+</div>","null","html-keyboard-response","122","822430","0.0-6.0-0.58","LIGR","2","f","rechts","24","","fixation","","","",""
"847","img/30_240.png","70","image-keyboard-response","123","823277","0.0-6.0-1.58","LIGR","2","f","rechts","24","","","self","f","30","true"
"null","<div style=""font-size:60px;"">+</div>","null","html-keyboard-response","124","823629","0.0-6.0-0.59","LIGR","2","f","rechts","24","","fixation","","","",""
"1069","img/150_300.png","74","image-keyboard-response","125","824699","0.0-6.0-1.59","LIGR","2","f","rechts","24","","","self","j","150","true"
"null","<div style=""font-size:60px;"">+</div>","null","html-keyboard-response","126","825150","0.0-6.0-0.60","LIGR","2","f","rechts","24","","fixation","","","",""
"665","img/120_150.png","70","image-keyboard-response","127","825816","0.0-6.0-1.60","LIGR","2","f","rechts","24","","","self","f","120","true"
"null","<div style=""font-size:60px;"">+</div>","null","html-keyboard-response","128","826168","0.0-6.0-0.61","LIGR","2","f","rechts","24","","fixation","","","",""
"1089","img/90_60.png","74","image-keyboard-response","129","827257","0.0-6.0-1.61","LIGR","2","f","rechts","24","","","self","j","90","true"
"null","<div style=""font-size:60px;"">+</div>","null","html-keyboard-response","130","827708","0.0-6.0-0.62","LIGR","2","f","rechts","24","","fixation","","","",""
"1108","img/120_330.png","70","image-keyboard-response","131","828817","0.0-6.0-1.62","LIGR","2","f","rechts","24","","","self","f","120","true"
"null","<div style=""font-size:60px;"">+</div>","null","html-keyboard-response","132","829218","0.0-6.0-0.63","LIGR","2","f","rechts","24","","fixation","","","",""
"753","img/150_270.png","74","image-keyboard-response","133","829972","0.0-6.0-1.63","LIGR","2","f","rechts","24","","","self","j","150","true"
"null","<div style=""font-size:60px;"">+</div>","null","html-keyboard-response","134","830474","0.0-6.0-0.64","LIGR","2","f","rechts","24","","fixation","","","",""
"795","img/150_90.png","70","image-keyboard-response","135","831269","0.0-6.0-1.64","LIGR","2","f","rechts","24","","","self","f","150","true"
"null","<div style=""font-size:60px;"">+</div>","null","html-keyboard-response","136","831621","0.0-6.0-0.65","LIGR","2","f","rechts","24","","fixation","","","",""
"927","img/30_60.png","74","image-keyboard-response","137","832549","0.0-6.0-1.65","LIGR","2","f","rechts","24","","","self","j","30","true"
"null","<div style=""font-size:60px;"">+</div>","null","html-keyboard-response","138","833050","0.0-6.0-0.66","LIGR","2","f","rechts","24","","fixation","","","",""
"913","img/150_180.png","74","image-keyboard-response","139","833965","0.0-6.0-1.66","LIGR","2","f","rechts","24","","","self","j","150","true"
"null","<div style=""font-size:60px;"">+</div>","null","html-keyboard-response","140","834466","0.0-6.0-0.67","LIGR","2","f","rechts","24","","fixation","","","",""
"743","img/0_150.png","74","image-keyboard-response","141","835210","0.0-6.0-1.67","LIGR","2","f","rechts","24","","","self","j","0","true"
"null","<div style=""font-size:60px;"">+</div>","null","html-keyboard-response","142","835712","0.0-6.0-0.68","LIGR","2","f","rechts","24","","fixation","","","",""
"772","img/90_240.png","74","image-keyboard-response","143","836486","0.0-6.0-1.68","LIGR","2","f","rechts","24","","","self","j","90","true"
"null","<div style=""font-size:60px;"">+</div>","null","html-keyboard-response","144","836787","0.0-6.0-0.69","LIGR","2","f","rechts","24","","fixation","","","",""
"648","img/L120_180.png","70","image-keyboard-response","145","837436","0.0-6.0-1.69","LIGR","2","f","rechts","24","","","self","f","120","true"
"null","<div style=""font-size:60px;"">+</div>","null","html-keyboard-response","146","837938","0.0-6.0-0.70","LIGR","2","f","rechts","24","","fixation","","","",""
"606","img/0_120.png","74","image-keyboard-response","147","838545","0.0-6.0-1.70","LIGR","2","f","rechts","24","","","self","j","0","true"
"null","<div style=""font-size:60px;"">+</div>","null","html-keyboard-response","148","838947","0.0-6.0-0.71","LIGR","2","f","rechts","24","","fixation","","","",""
"554","img/0_330.png","70","image-keyboard-response","149","839502","0.0-6.0-1.71","LIGR","2","f","rechts","24","","","self","f","0","true"
"null","<div style=""font-size:60px;"">+</div>","null","html-keyboard-response","150","839804","0.0-6.0-0.72","LIGR","2","f","rechts","24","","fixation","","","",""
"780","img/90_150.png","70","image-keyboard-response","151","840584","0.0-6.0-1.72","LIGR","2","f","rechts","24","","","self","f","90","true"
"null","<div style=""font-size:60px;"">+</div>","null","html-keyboard-response","152","840886","0.0-6.0-0.73","LIGR","2","f","rechts","24","","fixation","","","",""
"818","img/120_90.png","70","image-keyboard-response","153","841705","0.0-6.0-1.73","LIGR","2","f","rechts","24","","","self","f","120","true"
"null","<div style=""font-size:60px;"">+</div>","null","html-keyboard-response","154","842207","0.0-6.0-0.74","LIGR","2","f","rechts","24","","fixation","","","",""
"924","img/30_300.png","70","image-keyboard-response","155","843132","0.0-6.0-1.74","LIGR","2","f","rechts","24","","","self","f","30","true"
"null","<div style=""font-size:60px;"">+</div>","null","html-keyboard-response","156","843584","0.0-6.0-0.75","LIGR","2","f","rechts","24","","fixation","","","",""
"804","img/120_210.png","74","image-keyboard-response","157","844388","0.0-6.0-1.75","LIGR","2","f","rechts","24","","","self","j","120","true"
"null","<div style=""font-size:60px;"">+</div>","null","html-keyboard-response","158","844840","0.0-6.0-0.76","LIGR","2","f","rechts","24","","fixation","","","",""
"775","img/60_150.png","70","image-keyboard-response","159","845615","0.0-6.0-1.76","LIGR","2","f","rechts","24","","","self","f","60","true"
"null","<div style=""font-size:60px;"">+</div>","null","html-keyboard-response","160","846116","0.0-6.0-0.77","LIGR","2","f","rechts","24","","fixation","","","",""
"635","img/0_240.png","70","image-keyboard-response","161","846752","0.0-6.0-1.77","LIGR","2","f","rechts","24","","","self","f","0","true"
"null","<div style=""font-size:60px;"">+</div>","null","html-keyboard-response","162","847153","0.0-6.0-0.78","LIGR","2","f","rechts","24","","fixation","","","",""
"547","img/0_30.png","74","image-keyboard-response","163","847702","0.0-6.0-1.78","LIGR","2","f","rechts","24","","","self","j","0","true"
"null","<div style=""font-size:60px;"">+</div>","null","html-keyboard-response","164","848152","0.0-6.0-0.79","LIGR","2","f","rechts","24","","fixation","","","",""
"804","img/90_180.png","74","image-keyboard-response","165","848957","0.0-6.0-1.79","LIGR","2","f","rechts","24","","","self","j","90","true"
"null","<div style=""font-size:60px;"">+</div>","null","html-keyboard-response","166","849358","0.0-6.0-0.80","LIGR","2","f","rechts","24","","fixation","","","",""
"649","img/60_210.png","74","image-keyboard-response","167","850008","0.0-6.0-1.80","LIGR","2","f","rechts","24","","","self","j","60","true"
"null","<div style=""font-size:60px;"">+</div>","null","html-keyboard-response","168","850309","0.0-6.0-0.81","LIGR","2","f","rechts","24","","fixation","","","",""
"823","img/30_120.png","74","image-keyboard-response","169","851134","0.0-6.0-1.81","LIGR","2","f","rechts","24","","","self","j","30","true"
"null","<div style=""font-size:60px;"">+</div>","null","html-keyboard-response","170","851585","0.0-6.0-0.82","LIGR","2","f","rechts","24","","fixation","","","",""
"607","img/0_270.png","70","image-keyboard-response","171","852194","0.0-6.0-1.82","LIGR","2","f","rechts","24","","","self","f","0","true"
"null","<div style=""font-size:60px;"">+</div>","null","html-keyboard-response","172","852645","0.0-6.0-0.83","LIGR","2","f","rechts","24","","fixation","","","",""
"761","img/0_210.png","70","image-keyboard-response","173","853408","0.0-6.0-1.83","LIGR","2","f","rechts","24","","","self","f","0","true"
"null","<div style=""font-size:60px;"">+</div>","null","html-keyboard-response","174","853909","0.0-6.0-0.84","LIGR","2","f","rechts","24","","fixation","","","",""
"732","img/30_90.png","74","image-keyboard-response","175","854643","0.0-6.0-1.84","LIGR","2","f","rechts","24","","","self","j","30","true"
"null","<div style=""font-size:60px;"">+</div>","null","html-keyboard-response","176","855044","0.0-6.0-0.85","LIGR","2","f","rechts","24","","fixation","","","",""
"631","img/0_300.png","70","image-keyboard-response","177","855677","0.0-6.0-1.85","LIGR","2","f","rechts","24","","","self","f","0","true"
"null","<div style=""font-size:60px;"">+</div>","null","html-keyboard-response","178","856128","0.0-6.0-0.86","LIGR","2","f","rechts","24","","fixation","","","",""
"1067","img/150_60.png","70","image-keyboard-response","179","857196","0.0-6.0-1.86","LIGR","2","f","rechts","24","","","self","f","150","true"
"null","<div style=""font-size:60px;"">+</div>","null","html-keyboard-response","180","857548","0.0-6.0-0.87","LIGR","2","f","rechts","24","","fixation","","","",""
"838","img/120_180.png","74","image-keyboard-response","181","858387","0.0-6.0-1.87","LIGR","2","f","rechts","24","","","self","j","120","true"
"null","<div style=""font-size:60px;"">+</div>","null","html-keyboard-response","182","858839","0.0-6.0-0.88","LIGR","2","f","rechts","24","","fixation","","","",""
"722","img/150_120.png","70","image-keyboard-response","183","859562","0.0-6.0-1.88","LIGR","2","f","rechts","24","","","self","f","150","true"
"null","<div style=""font-size:60px;"">+</div>","null","html-keyboard-response","184","859914","0.0-6.0-0.89","LIGR","2","f","rechts","24","","fixation","","","",""
"737","img/60_180.png","74","image-keyboard-response","185","860651","0.0-6.0-1.89","LIGR","2","f","rechts","24","","","self","j","60","true"
"null","<div style=""font-size:60px;"">+</div>","null","html-keyboard-response","186","861053","0.0-6.0-0.90","LIGR","2","f","rechts","24","","fixation","","","",""
"1253","img/90_30.png","74","image-keyboard-response","187","862306","0.0-6.0-1.90","LIGR","2","f","rechts","24","","","self","j","90","true"
"null","<div style=""font-size:60px;"">+</div>","null","html-keyboard-response","188","862658","0.0-6.0-0.91","LIGR","2","f","rechts","24","","fixation","","","",""
"678","img/90_120.png","70","image-keyboard-response","189","863336","0.0-6.0-1.91","LIGR","2","f","rechts","24","","","self","f","90","true"
"null","<div style=""font-size:60px;"">+</div>","null","html-keyboard-response","190","863687","0.0-6.0-0.92","LIGR","2","f","rechts","24","","fixation","","","",""
"902","img/60_330.png","70","image-keyboard-response","191","864589","0.0-6.0-1.92","LIGR","2","f","rechts","24","","","self","f","60","true"
"null","<div style=""font-size:60px;"">+</div>","null","html-keyboard-response","192","864991","0.0-6.0-0.93","LIGR","2","f","rechts","24","","fixation","","","",""
"593","img/0_60.png","74","image-keyboard-response","193","865584","0.0-6.0-1.93","LIGR","2","f","rechts","24","","","self","j","0","true"
"null","<div style=""font-size:60px;"">+</div>","null","html-keyboard-response","194","865885","0.0-6.0-0.94","LIGR","2","f","rechts","24","","fixation","","","",""
"688","img/120_270.png","74","image-keyboard-response","195","866574","0.0-6.0-1.94","LIGR","2","f","rechts","24","","","self","j","120","true"
"null","<div style=""font-size:60px;"">+</div>","null","html-keyboard-response","196","866976","0.0-6.0-0.95","LIGR","2","f","rechts","24","","fixation","","","",""
"671","img/L90_180.png","70","image-keyboard-response","197","867647","0.0-6.0-1.95","LIGR","2","f","rechts","24","","","self","f","90","true"
"null","<div style=""font-size:60px;"">+</div>","null","html-keyboard-response","198","867998","0.0-6.0-0.96","LIGR","2","f","rechts","24","","fixation","","","",""
"995","img/120_30.png","74","image-keyboard-response","199","868994","0.0-6.0-1.96","LIGR","2","f","rechts","24","","","self","j","120","true"
"null","<div style=""font-size:60px;"">+</div>","null","html-keyboard-response","200","869345","0.0-6.0-0.97","LIGR","2","f","rechts","24","","fixation","","","",""
"712","img/90_300.png","70","image-keyboard-response","201","870059","0.0-6.0-1.97","LIGR","2","f","rechts","24","","","self","f","90","true"
"null","<div style=""font-size:60px;"">+</div>","null","html-keyboard-response","202","870560","0.0-6.0-0.98","LIGR","2","f","rechts","24","","fixation","","","",""
"667","img/60_270.png","70","image-keyboard-response","203","871228","0.0-6.0-1.98","LIGR","2","f","rechts","24","","","self","f","60","true"
"null","<div style=""font-size:60px;"">+</div>","null","html-keyboard-response","204","871530","0.0-6.0-0.99","LIGR","2","f","rechts","24","","fixation","","","",""
"621","img/L30_180.png","70","image-keyboard-response","205","872152","0.0-6.0-1.99","LIGR","2","f","rechts","24","","","self","f","30","true"
"null","<div style=""font-size:60px;"">+</div>","null","html-keyboard-response","206","872553","0.0-6.0-0.100","LIGR","2","f","rechts","24","","fixation","","","",""
"687","img/30_180.png","74","image-keyboard-response","207","873242","0.0-6.0-1.100","LIGR","2","f","rechts","24","","","self","j","30","true"
"null","<div style=""font-size:60px;"">+</div>","null","html-keyboard-response","208","873643","0.0-6.0-0.101","LIGR","2","f","rechts","24","","fixation","","","",""
"813","img/L150_180.png","70","image-keyboard-response","209","874458","0.0-6.0-1.101","LIGR","2","f","rechts","24","","","self","f","150","true"
"null","<div style=""font-size:60px;"">+</div>","null","html-keyboard-response","210","874909","0.0-6.0-0.102","LIGR","2","f","rechts","24","","fixation","","","",""
"837","img/30_270.png","70","image-keyboard-response","211","875747","0.0-6.0-1.102","LIGR","2","f","rechts","24","","","self","f","30","true"
"null","<div style=""font-size:60px;"">+</div>","null","html-keyboard-response","212","876099","0.0-6.0-0.103","LIGR","2","f","rechts","24","","fixation","","","",""
"1065","img/L60_180.png","70","image-keyboard-response","213","877164","0.0-6.0-1.103","LIGR","2","f","rechts","24","","","self","f","60","true"
"null","<div style=""font-size:60px;"">+</div>","null","html-keyboard-response","214","877465","0.0-6.0-0.104","LIGR","2","f","rechts","24","","fixation","","","",""
"635","img/L150_180.png","70","image-keyboard-response","215","878101","0.0-6.0-1.104","LIGR","2","f","rechts","24","","","self","f","150","true"
"null","<div style=""font-size:60px;"">+</div>","null","html-keyboard-response","216","878453","0.0-6.0-0.105","LIGR","2","f","rechts","24","","fixation","","","",""
"826","img/120_330.png","70","image-keyboard-response","217","879279","0.0-6.0-1.105","LIGR","2","f","rechts","24","","","self","f","120","true"
"null","<div style=""font-size:60px;"">+</div>","null","html-keyboard-response","218","879781","0.0-6.0-0.106","LIGR","2","f","rechts","24","","fixation","","","",""
"573","img/60_180.png","74","image-keyboard-response","219","880354","0.0-6.0-1.106","LIGR","2","f","rechts","24","","","self","j","60","true"
"null","<div style=""font-size:60px;"">+</div>","null","html-keyboard-response","220","880805","0.0-6.0-0.107","LIGR","2","f","rechts","24","","fixation","","","",""
"725","img/90_240.png","74","image-keyboard-response","221","881531","0.0-6.0-1.107","LIGR","2","f","rechts","24","","","self","j","90","true"
"null","<div style=""font-size:60px;"">+</div>","null","html-keyboard-response","222","882032","0.0-6.0-0.108","LIGR","2","f","rechts","24","","fixation","","","",""
"784","img/90_300.png","70","image-keyboard-response","223","882816","0.0-6.0-1.108","LIGR","2","f","rechts","24","","","self","f","90","true"
"null","<div style=""font-size:60px;"">+</div>","null","html-keyboard-response","224","883118","0.0-6.0-0.109","LIGR","2","f","rechts","24","","fixation","","","",""
"816","img/120_210.png","74","image-keyboard-response","225","883934","0.0-6.0-1.109","LIGR","2","f","rechts","24","","","self","j","120","true"
"null","<div style=""font-size:60px;"">+</div>","null","html-keyboard-response","226","884236","0.0-6.0-0.110","LIGR","2","f","rechts","24","","fixation","","","",""
"693","img/60_150.png","70","image-keyboard-response","227","884930","0.0-6.0-1.110","LIGR","2","f","rechts","24","","","self","f","60","true"
"null","<div style=""font-size:60px;"">+</div>","null","html-keyboard-response","228","885231","0.0-6.0-0.111","LIGR","2","f","rechts","24","","fixation","","","",""
"691","img/120_90.png","70","image-keyboard-response","229","885923","0.0-6.0-1.111","LIGR","2","f","rechts","24","","","self","f","120","true"
"null","<div style=""font-size:60px;"">+</div>","null","html-keyboard-response","230","886275","0.0-6.0-0.112","LIGR","2","f","rechts","24","","fixation","","","",""
"650","img/90_210.png","74","image-keyboard-response","231","886925","0.0-6.0-1.112","LIGR","2","f","rechts","24","","","self","j","90","true"
"null","<div style=""font-size:60px;"">+</div>","null","html-keyboard-response","232","887327","0.0-6.0-0.113","LIGR","2","f","rechts","24","","fixation","","","",""
"606","img/0_30.png","74","image-keyboard-response","233","887933","0.0-6.0-1.113","LIGR","2","f","rechts","24","","","self","j","0","true"
"null","<div style=""font-size:60px;"">+</div>","null","html-keyboard-response","234","888384","0.0-6.0-0.114","LIGR","2","f","rechts","24","","fixation","","","",""
"726","img/150_240.png","74","image-keyboard-response","235","889111","0.0-6.0-1.114","LIGR","2","f","rechts","24","","","self","j","150","true"
"null","<div style=""font-size:60px;"">+</div>","null","html-keyboard-response","236","889562","0.0-6.0-0.115","LIGR","2","f","rechts","24","","fixation","","","",""
"671","img/90_120.png","70","image-keyboard-response","237","890234","0.0-6.0-1.115","LIGR","2","f","rechts","24","","","self","f","90","true"
"null","<div style=""font-size:60px;"">+</div>","null","html-keyboard-response","238","890686","0.0-6.0-0.116","LIGR","2","f","rechts","24","","fixation","","","",""
"660","img/0_210.png","70","image-keyboard-response","239","891346","0.0-6.0-1.116","LIGR","2","f","rechts","24","","","self","f","0","true"
"null","<div style=""font-size:60px;"">+</div>","null","html-keyboard-response","240","891697","0.0-6.0-0.117","LIGR","2","f","rechts","24","","fixation","","","",""
"680","img/120_270.png","74","image-keyboard-response","241","892378","0.0-6.0-1.117","LIGR","2","f","rechts","24","","","self","j","120","true"
"null","<div style=""font-size:60px;"">+</div>","null","html-keyboard-response","242","892680","0.0-6.0-0.118","LIGR","2","f","rechts","24","","fixation","","","",""
"632","img/0_120.png","74","image-keyboard-response","243","893312","0.0-6.0-1.118","LIGR","2","f","rechts","24","","","self","j","0","true"
"null","<div style=""font-size:60px;"">+</div>","null","html-keyboard-response","244","893813","0.0-6.0-0.119","LIGR","2","f","rechts","24","","fixation","","","",""
"757","img/90_180.png","74","image-keyboard-response","245","894571","0.0-6.0-1.119","LIGR","2","f","rechts","24","","","self","j","90","true"
"null","<div style=""font-size:60px;"">+</div>","null","html-keyboard-response","246","895022","0.0-6.0-0.120","LIGR","2","f","rechts","24","","fixation","","","",""
"821","img/30_240.png","70","image-keyboard-response","247","895844","0.0-6.0-1.120","LIGR","2","f","rechts","24","","","self","f","30","true"
"null","<div style=""font-size:60px;"">+</div>","null","html-keyboard-response","248","896294","0.0-6.0-0.121","LIGR","2","f","rechts","24","","fixation","","","",""
"611","img/0_330.png","70","image-keyboard-response","249","896906","0.0-6.0-1.121","LIGR","2","f","rechts","24","","","self","f","0","true"
"null","<div style=""font-size:60px;"">+</div>","null","html-keyboard-response","250","897307","0.0-6.0-0.122","LIGR","2","f","rechts","24","","fixation","","","",""
"605","img/150_120.png","70","image-keyboard-response","251","897913","0.0-6.0-1.122","LIGR","2","f","rechts","24","","","self","f","150","true"
"null","<div style=""font-size:60px;"">+</div>","null","html-keyboard-response","252","898314","0.0-6.0-0.123","LIGR","2","f","rechts","24","","fixation","","","",""
"724","img/150_300.png","74","image-keyboard-response","253","899038","0.0-6.0-1.123","LIGR","2","f","rechts","24","","","self","j","150","true"
"null","<div style=""font-size:60px;"">+</div>","null","html-keyboard-response","254","899340","0.0-6.0-0.124","LIGR","2","f","rechts","24","","fixation","","","",""
"929","img/30_60.png","70","image-keyboard-response","255","900269","0.0-6.0-1.124","LIGR","2","f","rechts","24","","","self","j","30","false"
"null","<div style=""font-size:60px;"">+</div>","null","html-keyboard-response","256","900671","0.0-6.0-0.125","LIGR","2","f","rechts","24","","fixation","","","",""
"1072","img/90_30.png","74","image-keyboard-response","257","901743","0.0-6.0-1.125","LIGR","2","f","rechts","24","","","self","j","90","true"
"null","<div style=""font-size:60px;"">+</div>","null","html-keyboard-response","258","902145","0.0-6.0-0.126","LIGR","2","f","rechts","24","","fixation","","","",""
"782","img/90_330.png","70","image-keyboard-response","259","902928","0.0-6.0-1.126","LIGR","2","f","rechts","24","","","self","f","90","true"
"null","<div style=""font-size:60px;"">+</div>","null","html-keyboard-response","260","903230","0.0-6.0-0.127","LIGR","2","f","rechts","24","","fixation","","","",""
"735","img/60_210.png","74","image-keyboard-response","261","903965","0.0-6.0-1.127","LIGR","2","f","rechts","24","","","self","j","60","true"
"null","<div style=""font-size:60px;"">+</div>","null","html-keyboard-response","262","904467","0.0-6.0-0.128","LIGR","2","f","rechts","24","","fixation","","","",""
"567","img/0_240.png","70","image-keyboard-response","263","905034","0.0-6.0-1.128","LIGR","2","f","rechts","24","","","self","f","0","true"
"null","<div style=""font-size:60px;"">+</div>","null","html-keyboard-response","264","905535","0.0-6.0-0.129","LIGR","2","f","rechts","24","","fixation","","","",""
"821","img/60_30.png","74","image-keyboard-response","265","906357","0.0-6.0-1.129","LIGR","2","f","rechts","24","","","self","j","60","true"
"null","<div style=""font-size:60px;"">+</div>","null","html-keyboard-response","266","906859","0.0-6.0-0.130","LIGR","2","f","rechts","24","","fixation","","","",""
"622","img/0_60.png","74","image-keyboard-response","267","907481","0.0-6.0-1.130","LIGR","2","f","rechts","24","","","self","j","0","true"
"null","<div style=""font-size:60px;"">+</div>","null","html-keyboard-response","268","907882","0.0-6.0-0.131","LIGR","2","f","rechts","24","","fixation","","","",""
"879","img/120_180.png","74","image-keyboard-response","269","908761","0.0-6.0-1.131","LIGR","2","f","rechts","24","","","self","j","120","true"
"null","<div style=""font-size:60px;"">+</div>","null","html-keyboard-response","270","909163","0.0-6.0-0.132","LIGR","2","f","rechts","24","","fixation","","","",""
"771","img/150_180.png","74","image-keyboard-response","271","909935","0.0-6.0-1.132","LIGR","2","f","rechts","24","","","self","j","150","true"
"null","<div style=""font-size:60px;"">+</div>","null","html-keyboard-response","272","910337","0.0-6.0-0.133","LIGR","2","f","rechts","24","","fixation","","","",""
"758","img/90_60.png","74","image-keyboard-response","273","911097","0.0-6.0-1.133","LIGR","2","f","rechts","24","","","self","j","90","true"
"null","<div style=""font-size:60px;"">+</div>","null","html-keyboard-response","274","911498","0.0-6.0-0.134","LIGR","2","f","rechts","24","","fixation","","","",""
"823","img/60_270.png","70","image-keyboard-response","275","912323","0.0-6.0-1.134","LIGR","2","f","rechts","24","","","self","f","60","true"
"null","<div style=""font-size:60px;"">+</div>","null","html-keyboard-response","276","912724","0.0-6.0-0.135","LIGR","2","f","rechts","24","","fixation","","","",""
"647","img/150_270.png","74","image-keyboard-response","277","913373","0.0-6.0-1.135","LIGR","2","f","rechts","24","","","self","j","150","true"
"null","<div style=""font-size:60px;"">+</div>","null","html-keyboard-response","278","913874","0.0-6.0-0.136","LIGR","2","f","rechts","24","","fixation","","","",""
"707","img/60_330.png","70","image-keyboard-response","279","914583","0.0-6.0-1.136","LIGR","2","f","rechts","24","","","self","f","60","true"
"null","<div style=""font-size:60px;"">+</div>","null","html-keyboard-response","280","915034","0.0-6.0-0.137","LIGR","2","f","rechts","24","","fixation","","","",""
"690","img/90_150.png","70","image-keyboard-response","281","915725","0.0-6.0-1.137","LIGR","2","f","rechts","24","","","self","f","90","true"
"null","<div style=""font-size:60px;"">+</div>","null","html-keyboard-response","282","916077","0.0-6.0-0.138","LIGR","2","f","rechts","24","","fixation","","","",""
"919","img/30_90.png","74","image-keyboard-response","283","916997","0.0-6.0-1.138","LIGR","2","f","rechts","24","","","self","j","30","true"
"null","<div style=""font-size:60px;"">+</div>","null","html-keyboard-response","284","917449","0.0-6.0-0.139","LIGR","2","f","rechts","24","","fixation","","","",""
"785","img/60_90.png","74","image-keyboard-response","285","918235","0.0-6.0-1.139","LIGR","2","f","rechts","24","","","self","j","60","true"
"null","<div style=""font-size:60px;"">+</div>","null","html-keyboard-response","286","918736","0.0-6.0-0.140","LIGR","2","f","rechts","24","","fixation","","","",""
"931","img/120_30.png","74","image-keyboard-response","287","919668","0.0-6.0-1.140","LIGR","2","f","rechts","24","","","self","j","120","true"
"null","<div style=""font-size:60px;"">+</div>","null","html-keyboard-response","288","920070","0.0-6.0-0.141","LIGR","2","f","rechts","24","","fixation","","","",""
"849","img/L60_180.png","70","image-keyboard-response","289","920920","0.0-6.0-1.141","LIGR","2","f","rechts","24","","","self","f","60","true"
"null","<div style=""font-size:60px;"">+</div>","null","html-keyboard-response","290","921422","0.0-6.0-0.142","LIGR","2","f","rechts","24","","fixation","","","",""
"694","img/0_90.png","74","image-keyboard-response","291","922116","0.0-6.0-1.142","LIGR","2","f","rechts","24","","","self","j","0","true"
"null","<div style=""font-size:60px;"">+</div>","null","html-keyboard-response","292","922568","0.0-6.0-0.143","LIGR","2","f","rechts","24","","fixation","","","",""
"1108","img/30_300.png","70","image-keyboard-response","293","923676","0.0-6.0-1.143","LIGR","2","f","rechts","24","","","self","f","30","true"
"null","<div style=""font-size:60px;"">+</div>","null","html-keyboard-response","294","924078","0.0-6.0-0.144","LIGR","2","f","rechts","24","","fixation","","","",""
"966","img/L90_180.png","70","image-keyboard-response","295","925044","0.0-6.0-1.144","LIGR","2","f","rechts","24","","","self","f","90","true"
"null","<div style=""font-size:60px;"">+</div>","null","html-keyboard-response","296","925496","0.0-6.0-0.145","LIGR","2","f","rechts","24","","fixation","","","",""
"793","img/30_270.png","70","image-keyboard-response","297","926289","0.0-6.0-1.145","LIGR","2","f","rechts","24","","","self","f","30","true"
"null","<div style=""font-size:60px;"">+</div>","null","html-keyboard-response","298","926640","0.0-6.0-0.146","LIGR","2","f","rechts","24","","fixation","","","",""
"983","img/30_120.png","74","image-keyboard-response","299","927625","0.0-6.0-1.146","LIGR","2","f","rechts","24","","","self","j","30","true"
"null","<div style=""font-size:60px;"">+</div>","null","html-keyboard-response","300","928076","0.0-6.0-0.147","LIGR","2","f","rechts","24","","fixation","","","",""
"730","img/L120_180.png","70","image-keyboard-response","301","928807","0.0-6.0-1.147","LIGR","2","f","rechts","24","","","self","f","120","true"
"null","<div style=""font-size:60px;"">+</div>","null","html-keyboard-response","302","929158","0.0-6.0-0.148","LIGR","2","f","rechts","24","","fixation","","","",""
"1007","img/L30_180.png","70","image-keyboard-response","303","930166","0.0-6.0-1.148","LIGR","2","f","rechts","24","","","self","f","30","true"
"null","<div style=""font-size:60px;"">+</div>","null","html-keyboard-response","304","930618","0.0-6.0-0.149","LIGR","2","f","rechts","24","","fixation","","","",""
"901","img/30_180.png","74","image-keyboard-response","305","931521","0.0-6.0-1.149","LIGR","2","f","rechts","24","","","self","j","30","true"
"null","<div style=""font-size:60px;"">+</div>","null","html-keyboard-response","306","931922","0.0-6.0-0.150","LIGR","2","f","rechts","24","","fixation","","","",""
"672","img/120_150.png","70","image-keyboard-response","307","932596","0.0-6.0-1.150","LIGR","2","f","rechts","24","","","self","f","120","true"
"null","<div style=""font-size:60px;"">+</div>","null","html-keyboard-response","308","932997","0.0-6.0-0.151","LIGR","2","f","rechts","24","","fixation","","","",""
"1132","img/150_60.png","70","image-keyboard-response","309","934130","0.0-6.0-1.151","LIGR","2","f","rechts","24","","","self","f","150","true"
"null","<div style=""font-size:60px;"">+</div>","null","html-keyboard-response","310","934532","0.0-6.0-0.152","LIGR","2","f","rechts","24","","fixation","","","",""
"678","img/0_270.png","70","image-keyboard-response","311","935210","0.0-6.0-1.152","LIGR","2","f","rechts","24","","","self","f","0","true"
"null","<div style=""font-size:60px;"">+</div>","null","html-keyboard-response","312","935511","0.0-6.0-0.153","LIGR","2","f","rechts","24","","fixation","","","",""
"868","img/0_150.png","74","image-keyboard-response","313","936380","0.0-6.0-1.153","LIGR","2","f","rechts","24","","","self","j","0","true"
"null","<div style=""font-size:60px;"">+</div>","null","html-keyboard-response","314","936882","0.0-6.0-0.154","LIGR","2","f","rechts","24","","fixation","","","",""
"690","img/150_90.png","70","image-keyboard-response","315","937573","0.0-6.0-1.154","LIGR","2","f","rechts","24","","","self","f","150","true"
"null","<div style=""font-size:60px;"">+</div>","null","html-keyboard-response","316","937875","0.0-6.0-0.155","LIGR","2","f","rechts","24","","fixation","","","",""
"1005","img/0_300.png","70","image-keyboard-response","317","938880","0.0-6.0-1.155","LIGR","2","f","rechts","24","","","self","f","0","true"
"null","<div style=""font-size:60px;"">+</div>","null","html-keyboard-response","318","939282","0.0-6.0-0.156","LIGR","2","f","rechts","24","","fixation","","","",""
"751","img/L30_180.png","70","image-keyboard-response","319","940034","0.0-6.0-1.156","LIGR","2","f","rechts","24","","","self","f","30","true"
"null","<div style=""font-size:60px;"">+</div>","null","html-keyboard-response","320","940386","0.0-6.0-0.157","LIGR","2","f","rechts","24","","fixation","","","",""
"673","img/150_60.png","70","image-keyboard-response","321","941059","0.0-6.0-1.157","LIGR","2","f","rechts","24","","","self","f","150","true"
"null","<div style=""font-size:60px;"">+</div>","null","html-keyboard-response","322","941360","0.0-6.0-0.158","LIGR","2","f","rechts","24","","fixation","","","",""
"836","img/30_60.png","74","image-keyboard-response","323","942197","0.0-6.0-1.158","LIGR","2","f","rechts","24","","","self","j","30","true"
"null","<div style=""font-size:60px;"">+</div>","null","html-keyboard-response","324","942699","0.0-6.0-0.159","LIGR","2","f","rechts","24","","fixation","","","",""
"796","img/150_180.png","74","image-keyboard-response","325","943495","0.0-6.0-1.159","LIGR","2","f","rechts","24","","","self","j","150","true"
"null","<div style=""font-size:60px;"">+</div>","null","html-keyboard-response","326","943847","0.0-6.0-0.160","LIGR","2","f","rechts","24","","fixation","","","",""
"646","img/L60_180.png","70","image-keyboard-response","327","944493","0.0-6.0-1.160","LIGR","2","f","rechts","24","","","self","f","60","true"
"null","<div style=""font-size:60px;"">+</div>","null","html-keyboard-response","328","944794","0.0-6.0-0.161","LIGR","2","f","rechts","24","","fixation","","","",""
"737","img/60_180.png","74","image-keyboard-response","329","945532","0.0-6.0-1.161","LIGR","2","f","rechts","24","","","self","j","60","true"
"null","<div style=""font-size:60px;"">+</div>","null","html-keyboard-response","330","946033","0.0-6.0-0.162","LIGR","2","f","rechts","24","","fixation","","","",""
"839","img/30_90.png","74","image-keyboard-response","331","946873","0.0-6.0-1.162","LIGR","2","f","rechts","24","","","self","j","30","true"
"null","<div style=""font-size:60px;"">+</div>","null","html-keyboard-response","332","947175","0.0-6.0-0.163","LIGR","2","f","rechts","24","","fixation","","","",""
"892","img/60_90.png","74","image-keyboard-response","333","948068","0.0-6.0-1.163","LIGR","2","f","rechts","24","","","self","j","60","true"
"null","<div style=""font-size:60px;"">+</div>","null","html-keyboard-response","334","948419","0.0-6.0-0.164","LIGR","2","f","rechts","24","","fixation","","","",""
"1008","img/120_150.png","70","image-keyboard-response","335","949429","0.0-6.0-1.164","LIGR","2","f","rechts","24","","","self","f","120","true"
"null","<div style=""font-size:60px;"">+</div>","null","html-keyboard-response","336","949780","0.0-6.0-0.165","LIGR","2","f","rechts","24","","fixation","","","",""
"850","img/30_270.png","70","image-keyboard-response","337","950632","0.0-6.0-1.165","LIGR","2","f","rechts","24","","","self","f","30","true"
"null","<div style=""font-size:60px;"">+</div>","null","html-keyboard-response","338","950933","0.0-6.0-0.166","LIGR","2","f","rechts","24","","fixation","","","",""
"1000","img/90_30.png","74","image-keyboard-response","339","951934","0.0-6.0-1.166","LIGR","2","f","rechts","24","","","self","j","90","true"
"null","<div style=""font-size:60px;"">+</div>","null","html-keyboard-response","340","952285","0.0-6.0-0.167","LIGR","2","f","rechts","24","","fixation","","","",""
"716","img/0_90.png","74","image-keyboard-response","341","953003","0.0-6.0-1.167","LIGR","2","f","rechts","24","","","self","j","0","true"
"null","<div style=""font-size:60px;"">+</div>","null","html-keyboard-response","342","953454","0.0-6.0-0.168","LIGR","2","f","rechts","24","","fixation","","","",""
"820","img/120_180.png","74","image-keyboard-response","343","954275","0.0-6.0-1.168","LIGR","2","f","rechts","24","","","self","j","120","true"
"null","<div style=""font-size:60px;"">+</div>","null","html-keyboard-response","344","954577","0.0-6.0-0.169","LIGR","2","f","rechts","24","","fixation","","","",""
"764","img/L120_180.png","70","image-keyboard-response","345","955342","0.0-6.0-1.169","LIGR","2","f","rechts","24","","","self","f","120","true"
"null","<div style=""font-size:60px;"">+</div>","null","html-keyboard-response","346","955794","0.0-6.0-0.170","LIGR","2","f","rechts","24","","fixation","","","",""
"644","img/0_330.png","70","image-keyboard-response","347","956438","0.0-6.0-1.170","LIGR","2","f","rechts","24","","","self","f","0","true"
"null","<div style=""font-size:60px;"">+</div>","null","html-keyboard-response","348","956840","0.0-6.0-0.171","LIGR","2","f","rechts","24","","fixation","","","",""
"753","img/150_90.png","70","image-keyboard-response","349","957594","0.0-6.0-1.171","LIGR","2","f","rechts","24","","","self","f","150","true"
"null","<div style=""font-size:60px;"">+</div>","null","html-keyboard-response","350","958096","0.0-6.0-0.172","LIGR","2","f","rechts","24","","fixation","","","",""
"655","img/0_120.png","74","image-keyboard-response","351","958751","0.0-6.0-1.172","LIGR","2","f","rechts","24","","","self","j","0","true"
"null","<div style=""font-size:60px;"">+</div>","null","html-keyboard-response","352","959153","0.0-6.0-0.173","LIGR","2","f","rechts","24","","fixation","","","",""
"762","img/30_240.png","70","image-keyboard-response","353","959915","0.0-6.0-1.173","LIGR","2","f","rechts","24","","","self","f","30","true"
"null","<div style=""font-size:60px;"">+</div>","null","html-keyboard-response","354","960417","0.0-6.0-0.174","LIGR","2","f","rechts","24","","fixation","","","",""
"643","img/0_150.png","74","image-keyboard-response","355","961060","0.0-6.0-1.174","LIGR","2","f","rechts","24","","","self","j","0","true"
"null","<div style=""font-size:60px;"">+</div>","null","html-keyboard-response","356","961462","0.0-6.0-0.175","LIGR","2","f","rechts","24","","fixation","","","",""
"609","img/L150_180.png","70","image-keyboard-response","357","962072","0.0-6.0-1.175","LIGR","2","f","rechts","24","","","self","f","150","true"
"null","<div style=""font-size:60px;"">+</div>","null","html-keyboard-response","358","962574","0.0-6.0-0.176","LIGR","2","f","rechts","24","","fixation","","","",""
"609","img/0_240.png","70","image-keyboard-response","359","963183","0.0-6.0-1.176","LIGR","2","f","rechts","24","","","self","f","0","true"
"null","<div style=""font-size:60px;"">+</div>","null","html-keyboard-response","360","963485","0.0-6.0-0.177","LIGR","2","f","rechts","24","","fixation","","","",""
"577","img/0_30.png","74","image-keyboard-response","361","964062","0.0-6.0-1.177","LIGR","2","f","rechts","24","","","self","j","0","true"
"null","<div style=""font-size:60px;"">+</div>","null","html-keyboard-response","362","964414","0.0-6.0-0.178","LIGR","2","f","rechts","24","","fixation","","","",""
"545","img/0_300.png","70","image-keyboard-response","363","964960","0.0-6.0-1.178","LIGR","2","f","rechts","24","","","self","f","0","true"
"null","<div style=""font-size:60px;"">+</div>","null","html-keyboard-response","364","965462","0.0-6.0-0.179","LIGR","2","f","rechts","24","","fixation","","","",""
"760","img/120_90.png","70","image-keyboard-response","365","966222","0.0-6.0-1.179","LIGR","2","f","rechts","24","","","self","f","120","true"
"null","<div style=""font-size:60px;"">+</div>","null","html-keyboard-response","366","966524","0.0-6.0-0.180","LIGR","2","f","rechts","24","","fixation","","","",""
"798","img/30_300.png","70","image-keyboard-response","367","967322","0.0-6.0-1.180","LIGR","2","f","rechts","24","","","self","f","30","true"
"null","<div style=""font-size:60px;"">+</div>","null","html-keyboard-response","368","967723","0.0-6.0-0.181","LIGR","2","f","rechts","24","","fixation","","","",""
"743","img/90_180.png","74","image-keyboard-response","369","968467","0.0-6.0-1.181","LIGR","2","f","rechts","24","","","self","j","90","true"
"null","<div style=""font-size:60px;"">+</div>","null","html-keyboard-response","370","968918","0.0-6.0-0.182","LIGR","2","f","rechts","24","","fixation","","","",""
"885","img/60_30.png","74","image-keyboard-response","371","969805","0.0-6.0-1.182","LIGR","2","f","rechts","24","","","self","j","60","true"
"null","<div style=""font-size:60px;"">+</div>","null","html-keyboard-response","372","970106","0.0-6.0-0.183","LIGR","2","f","rechts","24","","fixation","","","",""
"1078","img/120_30.png","74","image-keyboard-response","373","971185","0.0-6.0-1.183","LIGR","2","f","rechts","24","","","self","j","120","true"
"null","<div style=""font-size:60px;"">+</div>","null","html-keyboard-response","374","971536","0.0-6.0-0.184","LIGR","2","f","rechts","24","","fixation","","","",""
"915","img/30_120.png","74","image-keyboard-response","375","972452","0.0-6.0-1.184","LIGR","2","f","rechts","24","","","self","j","30","true"
"null","<div style=""font-size:60px;"">+</div>","null","html-keyboard-response","376","972904","0.0-6.0-0.185","LIGR","2","f","rechts","24","","fixation","","","",""
"1098","img/120_330.png","70","image-keyboard-response","377","974003","0.0-6.0-1.185","LIGR","2","f","rechts","24","","","self","f","120","true"
"null","<div style=""font-size:60px;"">+</div>","null","html-keyboard-response","378","974505","0.0-6.0-0.186","LIGR","2","f","rechts","24","","fixation","","","",""
"747","img/120_270.png","74","image-keyboard-response","379","975252","0.0-6.0-1.186","LIGR","2","f","rechts","24","","","self","j","120","true"
"null","<div style=""font-size:60px;"">+</div>","null","html-keyboard-response","380","975704","0.0-6.0-0.187","LIGR","2","f","rechts","24","","fixation","","","",""
"704","img/150_240.png","74","image-keyboard-response","381","976409","0.0-6.0-1.187","LIGR","2","f","rechts","24","","","self","j","150","true"
"null","<div style=""font-size:60px;"">+</div>","null","html-keyboard-response","382","976861","0.0-6.0-0.188","LIGR","2","f","rechts","24","","fixation","","","",""
"768","img/90_300.png","70","image-keyboard-response","383","977630","0.0-6.0-1.188","LIGR","2","f","rechts","24","","","self","f","90","true"
"null","<div style=""font-size:60px;"">+</div>","null","html-keyboard-response","384","978032","0.0-6.0-0.189","LIGR","2","f","rechts","24","","fixation","","","",""
"692","img/90_240.png","74","image-keyboard-response","385","978724","0.0-6.0-1.189","LIGR","2","f","rechts","24","","","self","j","90","true"
"null","<div style=""font-size:60px;"">+</div>","null","html-keyboard-response","386","979226","0.0-6.0-0.190","LIGR","2","f","rechts","24","","fixation","","","",""
"708","img/90_330.png","70","image-keyboard-response","387","979934","0.0-6.0-1.190","LIGR","2","f","rechts","24","","","self","f","90","true"
"null","<div style=""font-size:60px;"">+</div>","null","html-keyboard-response","388","980336","0.0-6.0-0.191","LIGR","2","f","rechts","24","","fixation","","","",""
"1073","img/90_60.png","74","image-keyboard-response","389","981410","0.0-6.0-1.191","LIGR","2","f","rechts","24","","","self","j","90","true"
"null","<div style=""font-size:60px;"">+</div>","null","html-keyboard-response","390","981712","0.0-6.0-0.192","LIGR","2","f","rechts","24","","fixation","","","",""
"836","img/60_270.png","70","image-keyboard-response","391","982548","0.0-6.0-1.192","LIGR","2","f","rechts","24","","","self","f","60","true"
"null","<div style=""font-size:60px;"">+</div>","null","html-keyboard-response","392","982900","0.0-6.0-0.193","LIGR","2","f","rechts","24","","fixation","","","",""
"691","img/0_270.png","70","image-keyboard-response","393","983591","0.0-6.0-1.193","LIGR","2","f","rechts","24","","","self","f","0","true"
"null","<div style=""font-size:60px;"">+</div>","null","html-keyboard-response","394","984043","0.0-6.0-0.194","LIGR","2","f","rechts","24","","fixation","","","",""
"693","img/30_180.png","74","image-keyboard-response","395","984737","0.0-6.0-1.194","LIGR","2","f","rechts","24","","","self","j","30","true"
"null","<div style=""font-size:60px;"">+</div>","null","html-keyboard-response","396","985088","0.0-6.0-0.195","LIGR","2","f","rechts","24","","fixation","","","",""
"749","img/150_300.png","74","image-keyboard-response","397","985838","0.0-6.0-1.195","LIGR","2","f","rechts","24","","","self","j","150","true"
"null","<div style=""font-size:60px;"">+</div>","null","html-keyboard-response","398","986289","0.0-6.0-0.196","LIGR","2","f","rechts","24","","fixation","","","",""
"621","img/120_210.png","74","image-keyboard-response","399","986911","0.0-6.0-1.196","LIGR","2","f","rechts","24","","","self","j","120","true"
"null","<div style=""font-size:60px;"">+</div>","null","html-keyboard-response","400","987262","0.0-6.0-0.197","LIGR","2","f","rechts","24","","fixation","","","",""
"582","img/0_60.png","74","image-keyboard-response","401","987845","0.0-6.0-1.197","LIGR","2","f","rechts","24","","","self","j","0","true"
"null","<div style=""font-size:60px;"">+</div>","null","html-keyboard-response","402","988197","0.0-6.0-0.198","LIGR","2","f","rechts","24","","fixation","","","",""
"579","img/L90_180.png","70","image-keyboard-response","403","988777","0.0-6.0-1.198","LIGR","2","f","rechts","24","","","self","f","90","true"
"null","<div style=""font-size:60px;"">+</div>","null","html-keyboard-response","404","989228","0.0-6.0-0.199","LIGR","2","f","rechts","24","","fixation","","","",""
"855","img/150_120.png","70","image-keyboard-response","405","990084","0.0-6.0-1.199","LIGR","2","f","rechts","24","","","self","f","150","true"
"null","<div style=""font-size:60px;"">+</div>","null","html-keyboard-response","406","990386","0.0-6.0-0.200","LIGR","2","f","rechts","24","","fixation","","","",""
"658","img/90_120.png","70","image-keyboard-response","407","991046","0.0-6.0-1.200","LIGR","2","f","rechts","24","","","self","f","90","true"
"null","<div style=""font-size:60px;"">+</div>","null","html-keyboard-response","408","991497","0.0-6.0-0.201","LIGR","2","f","rechts","24","","fixation","","","",""
"579","img/60_150.png","70","image-keyboard-response","409","992077","0.0-6.0-1.201","LIGR","2","f","rechts","24","","","self","f","60","true"
"null","<div style=""font-size:60px;"">+</div>","null","html-keyboard-response","410","992428","0.0-6.0-0.202","LIGR","2","f","rechts","24","","fixation","","","",""
"699","img/150_270.png","74","image-keyboard-response","411","993129","0.0-6.0-1.202","LIGR","2","f","rechts","24","","","self","j","150","true"
"null","<div style=""font-size:60px;"">+</div>","null","html-keyboard-response","412","993630","0.0-6.0-0.203","LIGR","2","f","rechts","24","","fixation","","","",""
"632","img/0_210.png","70","image-keyboard-response","413","994264","0.0-6.0-1.203","LIGR","2","f","rechts","24","","","self","f","0","true"
"null","<div style=""font-size:60px;"">+</div>","null","html-keyboard-response","414","994565","0.0-6.0-0.204","LIGR","2","f","rechts","24","","fixation","","","",""
"589","img/90_150.png","70","image-keyboard-response","415","995154","0.0-6.0-1.204","LIGR","2","f","rechts","24","","","self","f","90","true"
"null","<div style=""font-size:60px;"">+</div>","null","html-keyboard-response","416","995456","0.0-6.0-0.205","LIGR","2","f","rechts","24","","fixation","","","",""
"608","img/60_210.png","74","image-keyboard-response","417","996065","0.0-6.0-1.205","LIGR","2","f","rechts","24","","","self","j","60","true"
"null","<div style=""font-size:60px;"">+</div>","null","html-keyboard-response","418","996367","0.0-6.0-0.206","LIGR","2","f","rechts","24","","fixation","","","",""
"791","img/60_330.png","70","image-keyboard-response","419","997159","0.0-6.0-1.206","LIGR","2","f","rechts","24","","","self","f","60","true"
"null","<div style=""font-size:60px;"">+</div>","null","html-keyboard-response","420","997611","0.0-6.0-0.207","LIGR","2","f","rechts","24","","fixation","","","",""
"792","img/90_210.png","74","image-keyboard-response","421","998404","0.0-6.0-1.207","LIGR","2","f","rechts","24","","","self","j","90","true"
"8672","<p>Du hast in 97% der Versuche korrekt entschieden.</p><p>Deine durchschnittliche Reaktionszeit war  800ms.</p><p>Dr&uuml;cke eine beliebige Taste, um die Session zu beenden. Vielen Dank!</p>","70","html-keyboard-response","422","1007077","0.0-7.0","LIGR","2","f","rechts","24","","","","","",""
