"rt","stimulus","key_press","trial_type","trial_index","time_elapsed","internal_node_id","subject","session","sex","handedness","age","responses","test_part","condition","correct_response","angle","correct"
"3355","<p>Mental Rotation Experiment.</p> <p>Dr&uuml;cke eine beliebige Taste, um anzufangen.</p>","72","html-keyboard-response","0","3359","0.0-0.0","LIGR","1","f","rechts","24","","","","","",""
"4922","","","survey-text","1","8282","0.0-1.0","LIGR","1","f","rechts","24","{""Q0"":""LIGR""}","","","","",""
"2502","","","survey-text","2","10785","0.0-2.0","LIGR","1","f","rechts","24","{""Q0"":""1""}","","","","",""
"3187","","","survey-multi-choice","3","13975","0.0-3.0","LIGR","1","f","rechts","24","{""Q0"":""f"",""Q1"":""rechts""}","","","","",""
"13402","","","survey-text","4","27377","0.0-4.0","LIGR","1","f","rechts","24","{""Q0"":""24""}","","","","",""
"43205","<p> Stell dir vor, dass du vor einem runden Tisch stehst, auf dem sich ein blauer Ball am Tischrand befindet. Entlang des Tischrands ist jeweils ein verschieden langer Pfeil. Nun bewegst du dich entlang dieses Pfeils bis an seine Spitze. Wenn du am Ende des Pfeils angekommen bist, schau zur Tischmitte. </p> <img src='img/90_180.png'></img> <br> <p>Entscheide dann, ob der Ball von deiner neuen (vorgestellten) Position links oder rechts von dir liegt.</p> <p>Dr&uuml;cke die <strong>'f'</strong>-Taste f&uuml;r links, die <strong>'j'</strong>-Taste f&uuml;r rechts.</p> <br><p> Das Bild wird jeweils 1 Sekunde lang pr&auml;sentiert. Du hast 3 Sekunden Zeit eine Entscheidung zu treffen.</p>","32","html-keyboard-response","5","70583","0.0-5.0","LIGR","1","f","rechts","24","","","","","",""
"null","<div style=""font-size:60px;"">+</div>","null","html-keyboard-response","6","71987","0.0-6.0-0.0","LIGR","1","f","rechts","24","","fixation","","","",""
"1240","img/120_150.png","70","image-keyboard-response","7","73230","0.0-6.0-1.0","LIGR","1","f","rechts","24","","","self","f","120","true"
"null","<div style=""font-size:60px;"">+</div>","null","html-keyboard-response","8","73732","0.0-6.0-0.1","LIGR","1","f","rechts","24","","fixation","","","",""
"1275","img/150_90.png","70","image-keyboard-response","9","75008","0.0-6.0-1.1","LIGR","1","f","rechts","24","","","self","f","150","true"
"null","<div style=""font-size:60px;"">+</div>","null","html-keyboard-response","10","75359","0.0-6.0-0.2","LIGR","1","f","rechts","24","","fixation","","","",""
"879","img/0_210.png","70","image-keyboard-response","11","76240","0.0-6.0-1.2","LIGR","1","f","rechts","24","","","self","f","0","true"
"null","<div style=""font-size:60px;"">+</div>","null","html-keyboard-response","12","76642","0.0-6.0-0.3","LIGR","1","f","rechts","24","","fixation","","","",""
"1340","img/60_150.png","70","image-keyboard-response","13","77983","0.0-6.0-1.3","LIGR","1","f","rechts","24","","","self","f","60","true"
"null","<div style=""font-size:60px;"">+</div>","null","html-keyboard-response","14","78335","0.0-6.0-0.4","LIGR","1","f","rechts","24","","fixation","","","",""
"1144","img/L90_180.png","70","image-keyboard-response","15","79481","0.0-6.0-1.4","LIGR","1","f","rechts","24","","","self","f","90","true"
"null","<div style=""font-size:60px;"">+</div>","null","html-keyboard-response","16","79832","0.0-6.0-0.5","LIGR","1","f","rechts","24","","fixation","","","",""
"1086","img/120_210.png","74","image-keyboard-response","17","80920","0.0-6.0-1.5","LIGR","1","f","rechts","24","","","self","j","120","true"
"null","<div style=""font-size:60px;"">+</div>","null","html-keyboard-response","18","81272","0.0-6.0-0.6","LIGR","1","f","rechts","24","","fixation","","","",""
"1073","img/90_120.png","70","image-keyboard-response","19","82347","0.0-6.0-1.6","LIGR","1","f","rechts","24","","","self","f","90","true"
"null","<div style=""font-size:60px;"">+</div>","null","html-keyboard-response","20","82748","0.0-6.0-0.7","LIGR","1","f","rechts","24","","fixation","","","",""
"843","img/150_270.png","74","image-keyboard-response","21","83593","0.0-6.0-1.7","LIGR","1","f","rechts","24","","","self","j","150","true"
"null","<div style=""font-size:60px;"">+</div>","null","html-keyboard-response","22","83994","0.0-6.0-0.8","LIGR","1","f","rechts","24","","fixation","","","",""
"1063","img/90_60.png","74","image-keyboard-response","23","85059","0.0-6.0-1.8","LIGR","1","f","rechts","24","","","self","j","90","true"
"null","<div style=""font-size:60px;"">+</div>","null","html-keyboard-response","24","85461","0.0-6.0-0.9","LIGR","1","f","rechts","24","","fixation","","","",""
"1081","img/L150_180.png","70","image-keyboard-response","25","86543","0.0-6.0-1.9","LIGR","1","f","rechts","24","","","self","f","150","true"
"null","<div style=""font-size:60px;"">+</div>","null","html-keyboard-response","26","86895","0.0-6.0-0.10","LIGR","1","f","rechts","24","","fixation","","","",""
"1188","img/30_300.png","70","image-keyboard-response","27","88084","0.0-6.0-1.10","LIGR","1","f","rechts","24","","","self","f","30","true"
"null","<div style=""font-size:60px;"">+</div>","null","html-keyboard-response","28","88386","0.0-6.0-0.11","LIGR","1","f","rechts","24","","fixation","","","",""
"1046","img/90_180.png","74","image-keyboard-response","29","89433","0.0-6.0-1.11","LIGR","1","f","rechts","24","","","self","j","90","true"
"null","<div style=""font-size:60px;"">+</div>","null","html-keyboard-response","30","89835","0.0-6.0-0.12","LIGR","1","f","rechts","24","","fixation","","","",""
"1240","img/90_330.png","70","image-keyboard-response","31","91076","0.0-6.0-1.12","LIGR","1","f","rechts","24","","","self","f","90","true"
"null","<div style=""font-size:60px;"">+</div>","null","html-keyboard-response","32","91378","0.0-6.0-0.13","LIGR","1","f","rechts","24","","fixation","","","",""
"1096","img/90_240.png","74","image-keyboard-response","33","92475","0.0-6.0-1.13","LIGR","1","f","rechts","24","","","self","j","90","true"
"null","<div style=""font-size:60px;"">+</div>","null","html-keyboard-response","34","92927","0.0-6.0-0.14","LIGR","1","f","rechts","24","","fixation","","","",""
"1191","img/90_300.png","70","image-keyboard-response","35","94119","0.0-6.0-1.14","LIGR","1","f","rechts","24","","","self","f","90","true"
"null","<div style=""font-size:60px;"">+</div>","null","html-keyboard-response","36","94620","0.0-6.0-0.15","LIGR","1","f","rechts","24","","fixation","","","",""
"1069","img/60_270.png","70","image-keyboard-response","37","95690","0.0-6.0-1.15","LIGR","1","f","rechts","24","","","self","f","60","true"
"null","<div style=""font-size:60px;"">+</div>","null","html-keyboard-response","38","96092","0.0-6.0-0.16","LIGR","1","f","rechts","24","","fixation","","","",""
"1072","img/30_270.png","70","image-keyboard-response","39","97165","0.0-6.0-1.16","LIGR","1","f","rechts","24","","","self","f","30","true"
"null","<div style=""font-size:60px;"">+</div>","null","html-keyboard-response","40","97467","0.0-6.0-0.17","LIGR","1","f","rechts","24","","fixation","","","",""
"1129","img/120_90.png","70","image-keyboard-response","41","98597","0.0-6.0-1.17","LIGR","1","f","rechts","24","","","self","f","120","true"
"null","<div style=""font-size:60px;"">+</div>","null","html-keyboard-response","42","99098","0.0-6.0-0.18","LIGR","1","f","rechts","24","","fixation","","","",""
"1217","img/60_90.png","74","image-keyboard-response","43","100317","0.0-6.0-1.18","LIGR","1","f","rechts","24","","","self","j","60","true"
"null","<div style=""font-size:60px;"">+</div>","null","html-keyboard-response","44","100669","0.0-6.0-0.19","LIGR","1","f","rechts","24","","fixation","","","",""
"913","img/0_240.png","70","image-keyboard-response","45","101584","0.0-6.0-1.19","LIGR","1","f","rechts","24","","","self","f","0","true"
"null","<div style=""font-size:60px;"">+</div>","null","html-keyboard-response","46","101935","0.0-6.0-0.20","LIGR","1","f","rechts","24","","fixation","","","",""
"1139","img/150_240.png","74","image-keyboard-response","47","103076","0.0-6.0-1.20","LIGR","1","f","rechts","24","","","self","j","150","true"
"null","<div style=""font-size:60px;"">+</div>","null","html-keyboard-response","48","103378","0.0-6.0-0.21","LIGR","1","f","rechts","24","","fixation","","","",""
"996","img/150_300.png","74","image-keyboard-response","49","104376","0.0-6.0-1.21","LIGR","1","f","rechts","24","","","self","j","150","true"
"null","<div style=""font-size:60px;"">+</div>","null","html-keyboard-response","50","104727","0.0-6.0-0.22","LIGR","1","f","rechts","24","","fixation","","","",""
"1116","img/30_240.png","70","image-keyboard-response","51","105845","0.0-6.0-1.22","LIGR","1","f","rechts","24","","","self","f","30","true"
"null","<div style=""font-size:60px;"">+</div>","null","html-keyboard-response","52","106297","0.0-6.0-0.23","LIGR","1","f","rechts","24","","fixation","","","",""
"878","img/150_60.png","70","image-keyboard-response","53","107176","0.0-6.0-1.23","LIGR","1","f","rechts","24","","","self","f","150","true"
"null","<div style=""font-size:60px;"">+</div>","null","html-keyboard-response","54","107528","0.0-6.0-0.24","LIGR","1","f","rechts","24","","fixation","","","",""
"1111","img/90_210.png","74","image-keyboard-response","55","108640","0.0-6.0-1.24","LIGR","1","f","rechts","24","","","self","j","90","true"
"null","<div style=""font-size:60px;"">+</div>","null","html-keyboard-response","56","109042","0.0-6.0-0.25","LIGR","1","f","rechts","24","","fixation","","","",""
"872","img/150_120.png","70","image-keyboard-response","57","109915","0.0-6.0-1.25","LIGR","1","f","rechts","24","","","self","f","150","true"
"null","<div style=""font-size:60px;"">+</div>","null","html-keyboard-response","58","110317","0.0-6.0-0.26","LIGR","1","f","rechts","24","","fixation","","","",""
"815","img/0_30.png","74","image-keyboard-response","59","111133","0.0-6.0-1.26","LIGR","1","f","rechts","24","","","self","j","0","true"
"null","<div style=""font-size:60px;"">+</div>","null","html-keyboard-response","60","111484","0.0-6.0-0.27","LIGR","1","f","rechts","24","","fixation","","","",""
"1314","img/90_30.png","74","image-keyboard-response","61","112799","0.0-6.0-1.27","LIGR","1","f","rechts","24","","","self","j","90","true"
"null","<div style=""font-size:60px;"">+</div>","null","html-keyboard-response","62","113101","0.0-6.0-0.28","LIGR","1","f","rechts","24","","fixation","","","",""
"940","img/L30_180.png","70","image-keyboard-response","63","114042","0.0-6.0-1.28","LIGR","1","f","rechts","24","","","self","f","30","true"
"null","<div style=""font-size:60px;"">+</div>","null","html-keyboard-response","64","114344","0.0-6.0-0.29","LIGR","1","f","rechts","24","","fixation","","","",""
"1193","img/150_180.png","74","image-keyboard-response","65","115538","0.0-6.0-1.29","LIGR","1","f","rechts","24","","","self","j","150","true"
"null","<div style=""font-size:60px;"">+</div>","null","html-keyboard-response","66","115890","0.0-6.0-0.30","LIGR","1","f","rechts","24","","fixation","","","",""
"959","img/0_300.png","70","image-keyboard-response","67","116850","0.0-6.0-1.30","LIGR","1","f","rechts","24","","","self","f","0","true"
"null","<div style=""font-size:60px;"">+</div>","null","html-keyboard-response","68","117252","0.0-6.0-0.31","LIGR","1","f","rechts","24","","fixation","","","",""
"1071","img/30_180.png","74","image-keyboard-response","69","118324","0.0-6.0-1.31","LIGR","1","f","rechts","24","","","self","j","30","true"
"null","<div style=""font-size:60px;"">+</div>","null","html-keyboard-response","70","118826","0.0-6.0-0.32","LIGR","1","f","rechts","24","","fixation","","","",""
"1216","img/60_330.png","70","image-keyboard-response","71","120044","0.0-6.0-1.32","LIGR","1","f","rechts","24","","","self","f","60","true"
"null","<div style=""font-size:60px;"">+</div>","null","html-keyboard-response","72","120344","0.0-6.0-0.33","LIGR","1","f","rechts","24","","fixation","","","",""
"1093","img/60_210.png","74","image-keyboard-response","73","121439","0.0-6.0-1.33","LIGR","1","f","rechts","24","","","self","j","60","true"
"null","<div style=""font-size:60px;"">+</div>","null","html-keyboard-response","74","121740","0.0-6.0-0.34","LIGR","1","f","rechts","24","","fixation","","","",""
"1398","img/120_270.png","74","image-keyboard-response","75","123140","0.0-6.0-1.34","LIGR","1","f","rechts","24","","","self","j","120","true"
"null","<div style=""font-size:60px;"">+</div>","null","html-keyboard-response","76","123642","0.0-6.0-0.35","LIGR","1","f","rechts","24","","fixation","","","",""
"797","img/0_270.png","70","image-keyboard-response","77","124441","0.0-6.0-1.35","LIGR","1","f","rechts","24","","","self","f","0","true"
"null","<div style=""font-size:60px;"">+</div>","null","html-keyboard-response","78","124742","0.0-6.0-0.36","LIGR","1","f","rechts","24","","fixation","","","",""
"1123","img/30_120.png","74","image-keyboard-response","79","125867","0.0-6.0-1.36","LIGR","1","f","rechts","24","","","self","j","30","true"
"null","<div style=""font-size:60px;"">+</div>","null","html-keyboard-response","80","126319","0.0-6.0-0.37","LIGR","1","f","rechts","24","","fixation","","","",""
"1230","img/60_30.png","74","image-keyboard-response","81","127550","0.0-6.0-1.37","LIGR","1","f","rechts","24","","","self","j","60","true"
"null","<div style=""font-size:60px;"">+</div>","null","html-keyboard-response","82","128002","0.0-6.0-0.38","LIGR","1","f","rechts","24","","fixation","","","",""
"1123","img/30_90.png","74","image-keyboard-response","83","129126","0.0-6.0-1.38","LIGR","1","f","rechts","24","","","self","j","30","true"
"null","<div style=""font-size:60px;"">+</div>","null","html-keyboard-response","84","129427","0.0-6.0-0.39","LIGR","1","f","rechts","24","","fixation","","","",""
"1375","img/120_30.png","74","image-keyboard-response","85","130803","0.0-6.0-1.39","LIGR","1","f","rechts","24","","","self","j","120","true"
"null","<div style=""font-size:60px;"">+</div>","null","html-keyboard-response","86","131305","0.0-6.0-0.40","LIGR","1","f","rechts","24","","fixation","","","",""
"1049","img/90_150.png","70","image-keyboard-response","87","132355","0.0-6.0-1.40","LIGR","1","f","rechts","24","","","self","f","90","true"
"null","<div style=""font-size:60px;"">+</div>","null","html-keyboard-response","88","132757","0.0-6.0-0.41","LIGR","1","f","rechts","24","","fixation","","","",""
"1281","img/30_60.png","74","image-keyboard-response","89","134039","0.0-6.0-1.41","LIGR","1","f","rechts","24","","","self","j","30","true"
"null","<div style=""font-size:60px;"">+</div>","null","html-keyboard-response","90","134541","0.0-6.0-0.42","LIGR","1","f","rechts","24","","fixation","","","",""
"1375","img/60_180.png","74","image-keyboard-response","91","135917","0.0-6.0-1.42","LIGR","1","f","rechts","24","","","self","j","60","true"
"null","<div style=""font-size:60px;"">+</div>","null","html-keyboard-response","92","136319","0.0-6.0-0.43","LIGR","1","f","rechts","24","","fixation","","","",""
"888","img/0_330.png","70","image-keyboard-response","93","137209","0.0-6.0-1.43","LIGR","1","f","rechts","24","","","self","f","0","true"
"null","<div style=""font-size:60px;"">+</div>","null","html-keyboard-response","94","137710","0.0-6.0-0.44","LIGR","1","f","rechts","24","","fixation","","","",""
"968","img/0_150.png","74","image-keyboard-response","95","138680","0.0-6.0-1.44","LIGR","1","f","rechts","24","","","self","j","0","true"
"null","<div style=""font-size:60px;"">+</div>","null","html-keyboard-response","96","139130","0.0-6.0-0.45","LIGR","1","f","rechts","24","","fixation","","","",""
"1415","img/120_180.png","74","image-keyboard-response","97","140548","0.0-6.0-1.45","LIGR","1","f","rechts","24","","","self","j","120","true"
"null","<div style=""font-size:60px;"">+</div>","null","html-keyboard-response","98","140899","0.0-6.0-0.46","LIGR","1","f","rechts","24","","fixation","","","",""
"1226","img/L120_180.png","70","image-keyboard-response","99","142128","0.0-6.0-1.46","LIGR","1","f","rechts","24","","","self","f","120","true"
"null","<div style=""font-size:60px;"">+</div>","null","html-keyboard-response","100","142629","0.0-6.0-0.47","LIGR","1","f","rechts","24","","fixation","","","",""
"1396","img/120_330.png","70","image-keyboard-response","101","144026","0.0-6.0-1.47","LIGR","1","f","rechts","24","","","self","f","120","true"
"null","<div style=""font-size:60px;"">+</div>","null","html-keyboard-response","102","144478","0.0-6.0-0.48","LIGR","1","f","rechts","24","","fixation","","","",""
"731","img/0_60.png","74","image-keyboard-response","103","145210","0.0-6.0-1.48","LIGR","1","f","rechts","24","","","self","j","0","true"
"null","<div style=""font-size:60px;"">+</div>","null","html-keyboard-response","104","145712","0.0-6.0-0.49","LIGR","1","f","rechts","24","","fixation","","","",""
"1358","img/L60_180.png","70","image-keyboard-response","105","147071","0.0-6.0-1.49","LIGR","1","f","rechts","24","","","self","f","60","true"
"null","<div style=""font-size:60px;"">+</div>","null","html-keyboard-response","106","147523","0.0-6.0-0.50","LIGR","1","f","rechts","24","","fixation","","","",""
"801","img/0_120.png","74","image-keyboard-response","107","148325","0.0-6.0-1.50","LIGR","1","f","rechts","24","","","self","j","0","true"
"null","<div style=""font-size:60px;"">+</div>","null","html-keyboard-response","108","148827","0.0-6.0-0.51","LIGR","1","f","rechts","24","","fixation","","","",""
"957","img/0_90.png","74","image-keyboard-response","109","149785","0.0-6.0-1.51","LIGR","1","f","rechts","24","","","self","j","0","true"
"null","<div style=""font-size:60px;"">+</div>","null","html-keyboard-response","110","150137","0.0-6.0-0.52","LIGR","1","f","rechts","24","","fixation","","","",""
"1221","img/60_330.png","70","image-keyboard-response","111","151359","0.0-6.0-1.52","LIGR","1","f","rechts","24","","","self","f","60","true"
"null","<div style=""font-size:60px;"">+</div>","null","html-keyboard-response","112","151760","0.0-6.0-0.53","LIGR","1","f","rechts","24","","fixation","","","",""
"904","img/0_120.png","74","image-keyboard-response","113","152665","0.0-6.0-1.53","LIGR","1","f","rechts","24","","","self","j","0","true"
"null","<div style=""font-size:60px;"">+</div>","null","html-keyboard-response","114","152966","0.0-6.0-0.54","LIGR","1","f","rechts","24","","fixation","","","",""
"1268","img/30_270.png","70","image-keyboard-response","115","154235","0.0-6.0-1.54","LIGR","1","f","rechts","24","","","self","f","30","true"
"null","<div style=""font-size:60px;"">+</div>","null","html-keyboard-response","116","154587","0.0-6.0-0.55","LIGR","1","f","rechts","24","","fixation","","","",""
"1308","img/60_150.png","70","image-keyboard-response","117","155895","0.0-6.0-1.55","LIGR","1","f","rechts","24","","","self","f","60","true"
"null","<div style=""font-size:60px;"">+</div>","null","html-keyboard-response","118","156296","0.0-6.0-0.56","LIGR","1","f","rechts","24","","fixation","","","",""
"1353","img/30_180.png","74","image-keyboard-response","119","157650","0.0-6.0-1.56","LIGR","1","f","rechts","24","","","self","j","30","true"
"null","<div style=""font-size:60px;"">+</div>","null","html-keyboard-response","120","157952","0.0-6.0-0.57","LIGR","1","f","rechts","24","","fixation","","","",""
"849","img/0_90.png","74","image-keyboard-response","121","158802","0.0-6.0-1.57","LIGR","1","f","rechts","24","","","self","j","0","true"
"null","<div style=""font-size:60px;"">+</div>","null","html-keyboard-response","122","159304","0.0-6.0-0.58","LIGR","1","f","rechts","24","","fixation","","","",""
"1209","img/150_120.png","70","image-keyboard-response","123","160514","0.0-6.0-1.58","LIGR","1","f","rechts","24","","","self","f","150","true"
"null","<div style=""font-size:60px;"">+</div>","null","html-keyboard-response","124","160966","0.0-6.0-0.59","LIGR","1","f","rechts","24","","fixation","","","",""
"1214","img/90_300.png","70","image-keyboard-response","125","162181","0.0-6.0-1.59","LIGR","1","f","rechts","24","","","self","f","90","true"
"null","<div style=""font-size:60px;"">+</div>","null","html-keyboard-response","126","162533","0.0-6.0-0.60","LIGR","1","f","rechts","24","","fixation","","","",""
"1178","img/L30_180.png","70","image-keyboard-response","127","163712","0.0-6.0-1.60","LIGR","1","f","rechts","24","","","self","f","30","true"
"null","<div style=""font-size:60px;"">+</div>","null","html-keyboard-response","128","164064","0.0-6.0-0.61","LIGR","1","f","rechts","24","","fixation","","","",""
"1372","img/30_120.png","70","image-keyboard-response","129","165437","0.0-6.0-1.61","LIGR","1","f","rechts","24","","","self","j","30","false"
"null","<div style=""font-size:60px;"">+</div>","null","html-keyboard-response","130","165739","0.0-6.0-0.62","LIGR","1","f","rechts","24","","fixation","","","",""
"1774","img/30_240.png","70","image-keyboard-response","131","167514","0.0-6.0-1.62","LIGR","1","f","rechts","24","","","self","f","30","true"
"null","<div style=""font-size:60px;"">+</div>","null","html-keyboard-response","132","168016","0.0-6.0-0.63","LIGR","1","f","rechts","24","","fixation","","","",""
"1423","img/150_60.png","70","image-keyboard-response","133","169439","0.0-6.0-1.63","LIGR","1","f","rechts","24","","","self","f","150","true"
"null","<div style=""font-size:60px;"">+</div>","null","html-keyboard-response","134","169741","0.0-6.0-0.64","LIGR","1","f","rechts","24","","fixation","","","",""
"1374","img/120_270.png","74","image-keyboard-response","135","171116","0.0-6.0-1.64","LIGR","1","f","rechts","24","","","self","j","120","true"
"null","<div style=""font-size:60px;"">+</div>","null","html-keyboard-response","136","171418","0.0-6.0-0.65","LIGR","1","f","rechts","24","","fixation","","","",""
"955","img/0_30.png","74","image-keyboard-response","137","172374","0.0-6.0-1.65","LIGR","1","f","rechts","24","","","self","j","0","true"
"null","<div style=""font-size:60px;"">+</div>","null","html-keyboard-response","138","172776","0.0-6.0-0.66","LIGR","1","f","rechts","24","","fixation","","","",""
"1513","img/120_180.png","74","image-keyboard-response","139","174290","0.0-6.0-1.66","LIGR","1","f","rechts","24","","","self","j","120","true"
"null","<div style=""font-size:60px;"">+</div>","null","html-keyboard-response","140","174692","0.0-6.0-0.67","LIGR","1","f","rechts","24","","fixation","","","",""
"1443","img/30_300.png","70","image-keyboard-response","141","176135","0.0-6.0-1.67","LIGR","1","f","rechts","24","","","self","f","30","true"
"null","<div style=""font-size:60px;"">+</div>","null","html-keyboard-response","142","176587","0.0-6.0-0.68","LIGR","1","f","rechts","24","","fixation","","","",""
"1373","img/150_300.png","74","image-keyboard-response","143","177960","0.0-6.0-1.68","LIGR","1","f","rechts","24","","","self","j","150","true"
"null","<div style=""font-size:60px;"">+</div>","null","html-keyboard-response","144","178461","0.0-6.0-0.69","LIGR","1","f","rechts","24","","fixation","","","",""
"1689","img/60_210.png","70","image-keyboard-response","145","180151","0.0-6.0-1.69","LIGR","1","f","rechts","24","","","self","j","60","false"
"null","<div style=""font-size:60px;"">+</div>","null","html-keyboard-response","146","180602","0.0-6.0-0.70","LIGR","1","f","rechts","24","","fixation","","","",""
"878","img/0_60.png","74","image-keyboard-response","147","181481","0.0-6.0-1.70","LIGR","1","f","rechts","24","","","self","j","0","true"
"null","<div style=""font-size:60px;"">+</div>","null","html-keyboard-response","148","181832","0.0-6.0-0.71","LIGR","1","f","rechts","24","","fixation","","","",""
"1530","img/90_330.png","70","image-keyboard-response","149","183363","0.0-6.0-1.71","LIGR","1","f","rechts","24","","","self","f","90","true"
"null","<div style=""font-size:60px;"">+</div>","null","html-keyboard-response","150","183715","0.0-6.0-0.72","LIGR","1","f","rechts","24","","fixation","","","",""
"932","img/0_240.png","70","image-keyboard-response","151","184648","0.0-6.0-1.72","LIGR","1","f","rechts","24","","","self","f","0","true"
"null","<div style=""font-size:60px;"">+</div>","null","html-keyboard-response","152","184950","0.0-6.0-0.73","LIGR","1","f","rechts","24","","fixation","","","",""
"1358","img/120_150.png","70","image-keyboard-response","153","186309","0.0-6.0-1.73","LIGR","1","f","rechts","24","","","self","f","120","true"
"null","<div style=""font-size:60px;"">+</div>","null","html-keyboard-response","154","186711","0.0-6.0-0.74","LIGR","1","f","rechts","24","","fixation","","","",""
"1012","img/0_270.png","70","image-keyboard-response","155","187723","0.0-6.0-1.74","LIGR","1","f","rechts","24","","","self","f","0","true"
"null","<div style=""font-size:60px;"">+</div>","null","html-keyboard-response","156","188124","0.0-6.0-0.75","LIGR","1","f","rechts","24","","fixation","","","",""
"1362","img/60_270.png","70","image-keyboard-response","157","189486","0.0-6.0-1.75","LIGR","1","f","rechts","24","","","self","f","60","true"
"null","<div style=""font-size:60px;"">+</div>","null","html-keyboard-response","158","189838","0.0-6.0-0.76","LIGR","1","f","rechts","24","","fixation","","","",""
"1251","img/150_240.png","74","image-keyboard-response","159","191089","0.0-6.0-1.76","LIGR","1","f","rechts","24","","","self","j","150","true"
"null","<div style=""font-size:60px;"">+</div>","null","html-keyboard-response","160","191391","0.0-6.0-0.77","LIGR","1","f","rechts","24","","fixation","","","",""
"833","img/0_300.png","70","image-keyboard-response","161","192224","0.0-6.0-1.77","LIGR","1","f","rechts","24","","","self","f","0","true"
"null","<div style=""font-size:60px;"">+</div>","null","html-keyboard-response","162","192575","0.0-6.0-0.78","LIGR","1","f","rechts","24","","fixation","","","",""
"1598","img/L120_180.png","70","image-keyboard-response","163","194174","0.0-6.0-1.78","LIGR","1","f","rechts","24","","","self","f","120","true"
"null","<div style=""font-size:60px;"">+</div>","null","html-keyboard-response","164","194625","0.0-6.0-0.79","LIGR","1","f","rechts","24","","fixation","","","",""
"1712","img/60_30.png","74","image-keyboard-response","165","196338","0.0-6.0-1.79","LIGR","1","f","rechts","24","","","self","j","60","true"
"null","<div style=""font-size:60px;"">+</div>","null","html-keyboard-response","166","196639","0.0-6.0-0.80","LIGR","1","f","rechts","24","","fixation","","","",""
"1426","img/120_210.png","74","image-keyboard-response","167","198067","0.0-6.0-1.80","LIGR","1","f","rechts","24","","","self","j","120","true"
"null","<div style=""font-size:60px;"">+</div>","null","html-keyboard-response","168","198368","0.0-6.0-0.81","LIGR","1","f","rechts","24","","fixation","","","",""
"1330","img/150_180.png","74","image-keyboard-response","169","199699","0.0-6.0-1.81","LIGR","1","f","rechts","24","","","self","j","150","true"
"null","<div style=""font-size:60px;"">+</div>","null","html-keyboard-response","170","200151","0.0-6.0-0.82","LIGR","1","f","rechts","24","","fixation","","","",""
"1302","img/L150_180.png","70","image-keyboard-response","171","201454","0.0-6.0-1.82","LIGR","1","f","rechts","24","","","self","f","150","true"
"null","<div style=""font-size:60px;"">+</div>","null","html-keyboard-response","172","201906","0.0-6.0-0.83","LIGR","1","f","rechts","24","","fixation","","","",""
"1663","img/150_270.png","74","image-keyboard-response","173","203569","0.0-6.0-1.83","LIGR","1","f","rechts","24","","","self","j","150","true"
"null","<div style=""font-size:60px;"">+</div>","null","html-keyboard-response","174","203921","0.0-6.0-0.84","LIGR","1","f","rechts","24","","fixation","","","",""
"1317","img/30_90.png","74","image-keyboard-response","175","205238","0.0-6.0-1.84","LIGR","1","f","rechts","24","","","self","j","30","true"
"null","<div style=""font-size:60px;"">+</div>","null","html-keyboard-response","176","205540","0.0-6.0-0.85","LIGR","1","f","rechts","24","","fixation","","","",""
"1353","img/90_180.png","74","image-keyboard-response","177","206894","0.0-6.0-1.85","LIGR","1","f","rechts","24","","","self","j","90","true"
"null","<div style=""font-size:60px;"">+</div>","null","html-keyboard-response","178","207195","0.0-6.0-0.86","LIGR","1","f","rechts","24","","fixation","","","",""
"1314","img/120_30.png","70","image-keyboard-response","179","208509","0.0-6.0-1.86","LIGR","1","f","rechts","24","","","self","j","120","false"
"null","<div style=""font-size:60px;"">+</div>","null","html-keyboard-response","180","208811","0.0-6.0-0.87","LIGR","1","f","rechts","24","","fixation","","","",""
"1017","img/90_60.png","74","image-keyboard-response","181","209828","0.0-6.0-1.87","LIGR","1","f","rechts","24","","","self","j","90","true"
"null","<div style=""font-size:60px;"">+</div>","null","html-keyboard-response","182","210230","0.0-6.0-0.88","LIGR","1","f","rechts","24","","fixation","","","",""
"1068","img/120_90.png","70","image-keyboard-response","183","211298","0.0-6.0-1.88","LIGR","1","f","rechts","24","","","self","f","120","true"
"null","<div style=""font-size:60px;"">+</div>","null","html-keyboard-response","184","211649","0.0-6.0-0.89","LIGR","1","f","rechts","24","","fixation","","","",""
"1065","img/60_90.png","74","image-keyboard-response","185","212715","0.0-6.0-1.89","LIGR","1","f","rechts","24","","","self","j","60","true"
"null","<div style=""font-size:60px;"">+</div>","null","html-keyboard-response","186","213067","0.0-6.0-0.90","LIGR","1","f","rechts","24","","fixation","","","",""
"970","img/90_240.png","74","image-keyboard-response","187","214037","0.0-6.0-1.90","LIGR","1","f","rechts","24","","","self","j","90","true"
"null","<div style=""font-size:60px;"">+</div>","null","html-keyboard-response","188","214389","0.0-6.0-0.91","LIGR","1","f","rechts","24","","fixation","","","",""
"1065","img/L90_180.png","70","image-keyboard-response","189","215454","0.0-6.0-1.91","LIGR","1","f","rechts","24","","","self","f","90","true"
"null","<div style=""font-size:60px;"">+</div>","null","html-keyboard-response","190","215855","0.0-6.0-0.92","LIGR","1","f","rechts","24","","fixation","","","",""
"1408","img/90_30.png","74","image-keyboard-response","191","217264","0.0-6.0-1.92","LIGR","1","f","rechts","24","","","self","j","90","true"
"null","<div style=""font-size:60px;"">+</div>","null","html-keyboard-response","192","217616","0.0-6.0-0.93","LIGR","1","f","rechts","24","","fixation","","","",""
"865","img/0_210.png","70","image-keyboard-response","193","218482","0.0-6.0-1.93","LIGR","1","f","rechts","24","","","self","f","0","true"
"null","<div style=""font-size:60px;"">+</div>","null","html-keyboard-response","194","218783","0.0-6.0-0.94","LIGR","1","f","rechts","24","","fixation","","","",""
"1126","img/90_150.png","70","image-keyboard-response","195","219911","0.0-6.0-1.94","LIGR","1","f","rechts","24","","","self","f","90","true"
"null","<div style=""font-size:60px;"">+</div>","null","html-keyboard-response","196","220262","0.0-6.0-0.95","LIGR","1","f","rechts","24","","fixation","","","",""
"965","img/L60_180.png","70","image-keyboard-response","197","221229","0.0-6.0-1.95","LIGR","1","f","rechts","24","","","self","f","60","true"
"null","<div style=""font-size:60px;"">+</div>","null","html-keyboard-response","198","221530","0.0-6.0-0.96","LIGR","1","f","rechts","24","","fixation","","","",""
"974","img/0_330.png","70","image-keyboard-response","199","222506","0.0-6.0-1.96","LIGR","1","f","rechts","24","","","self","f","0","true"
"null","<div style=""font-size:60px;"">+</div>","null","html-keyboard-response","200","222857","0.0-6.0-0.97","LIGR","1","f","rechts","24","","fixation","","","",""
"1130","img/0_150.png","74","image-keyboard-response","201","223988","0.0-6.0-1.97","LIGR","1","f","rechts","24","","","self","j","0","true"
"null","<div style=""font-size:60px;"">+</div>","null","html-keyboard-response","202","224290","0.0-6.0-0.98","LIGR","1","f","rechts","24","","fixation","","","",""
"2104","img/120_330.png","74","image-keyboard-response","203","226395","0.0-6.0-1.98","LIGR","1","f","rechts","24","","","self","f","120","false"
"null","<div style=""font-size:60px;"">+</div>","null","html-keyboard-response","204","226897","0.0-6.0-0.99","LIGR","1","f","rechts","24","","fixation","","","",""
"1116","img/90_120.png","70","image-keyboard-response","205","228014","0.0-6.0-1.99","LIGR","1","f","rechts","24","","","self","f","90","true"
"null","<div style=""font-size:60px;"">+</div>","null","html-keyboard-response","206","228416","0.0-6.0-0.100","LIGR","1","f","rechts","24","","fixation","","","",""
"1802","img/60_180.png","74","image-keyboard-response","207","230219","0.0-6.0-1.100","LIGR","1","f","rechts","24","","","self","j","60","true"
"null","<div style=""font-size:60px;"">+</div>","null","html-keyboard-response","208","230521","0.0-6.0-0.101","LIGR","1","f","rechts","24","","fixation","","","",""
"1676","img/30_60.png","74","image-keyboard-response","209","232197","0.0-6.0-1.101","LIGR","1","f","rechts","24","","","self","j","30","true"
"null","<div style=""font-size:60px;"">+</div>","null","html-keyboard-response","210","232599","0.0-6.0-0.102","LIGR","1","f","rechts","24","","fixation","","","",""
"1405","img/150_90.png","70","image-keyboard-response","211","234004","0.0-6.0-1.102","LIGR","1","f","rechts","24","","","self","f","150","true"
"null","<div style=""font-size:60px;"">+</div>","null","html-keyboard-response","212","234305","0.0-6.0-0.103","LIGR","1","f","rechts","24","","fixation","","","",""
"1187","img/90_210.png","74","image-keyboard-response","213","235494","0.0-6.0-1.103","LIGR","1","f","rechts","24","","","self","j","90","true"
"null","<div style=""font-size:60px;"">+</div>","null","html-keyboard-response","214","235795","0.0-6.0-0.104","LIGR","1","f","rechts","24","","fixation","","","",""
"874","img/0_300.png","70","image-keyboard-response","215","236670","0.0-6.0-1.104","LIGR","1","f","rechts","24","","","self","f","0","true"
"null","<div style=""font-size:60px;"">+</div>","null","html-keyboard-response","216","237121","0.0-6.0-0.105","LIGR","1","f","rechts","24","","fixation","","","",""
"1271","img/150_180.png","74","image-keyboard-response","217","238393","0.0-6.0-1.105","LIGR","1","f","rechts","24","","","self","j","150","true"
"null","<div style=""font-size:60px;"">+</div>","null","html-keyboard-response","218","238894","0.0-6.0-0.106","LIGR","1","f","rechts","24","","fixation","","","",""
"1416","img/L120_180.png","70","image-keyboard-response","219","240312","0.0-6.0-1.106","LIGR","1","f","rechts","24","","","self","f","120","true"
"null","<div style=""font-size:60px;"">+</div>","null","html-keyboard-response","220","240663","0.0-6.0-0.107","LIGR","1","f","rechts","24","","fixation","","","",""
"1912","img/120_180.png","74","image-keyboard-response","221","242576","0.0-6.0-1.107","LIGR","1","f","rechts","24","","","self","j","120","true"
"null","<div style=""font-size:60px;"">+</div>","null","html-keyboard-response","222","243028","0.0-6.0-0.108","LIGR","1","f","rechts","24","","fixation","","","",""
"1600","img/30_300.png","70","image-keyboard-response","223","244629","0.0-6.0-1.108","LIGR","1","f","rechts","24","","","self","f","30","true"
"null","<div style=""font-size:60px;"">+</div>","null","html-keyboard-response","224","245131","0.0-6.0-0.109","LIGR","1","f","rechts","24","","fixation","","","",""
"1447","img/90_120.png","70","image-keyboard-response","225","246579","0.0-6.0-1.109","LIGR","1","f","rechts","24","","","self","f","90","true"
"null","<div style=""font-size:60px;"">+</div>","null","html-keyboard-response","226","246931","0.0-6.0-0.110","LIGR","1","f","rechts","24","","fixation","","","",""
"1536","img/150_120.png","70","image-keyboard-response","227","248468","0.0-6.0-1.110","LIGR","1","f","rechts","24","","","self","f","150","true"
"null","<div style=""font-size:60px;"">+</div>","null","html-keyboard-response","228","248869","0.0-6.0-0.111","LIGR","1","f","rechts","24","","fixation","","","",""
"1107","img/0_120.png","74","image-keyboard-response","229","249977","0.0-6.0-1.111","LIGR","1","f","rechts","24","","","self","j","0","true"
"null","<div style=""font-size:60px;"">+</div>","null","html-keyboard-response","230","250429","0.0-6.0-0.112","LIGR","1","f","rechts","24","","fixation","","","",""
"1473","img/60_210.png","74","image-keyboard-response","231","251902","0.0-6.0-1.112","LIGR","1","f","rechts","24","","","self","j","60","true"
"null","<div style=""font-size:60px;"">+</div>","null","html-keyboard-response","232","252204","0.0-6.0-0.113","LIGR","1","f","rechts","24","","fixation","","","",""
"1448","img/120_330.png","70","image-keyboard-response","233","253652","0.0-6.0-1.113","LIGR","1","f","rechts","24","","","self","f","120","true"
"null","<div style=""font-size:60px;"">+</div>","null","html-keyboard-response","234","254054","0.0-6.0-0.114","LIGR","1","f","rechts","24","","fixation","","","",""
"1249","img/90_60.png","74","image-keyboard-response","235","255304","0.0-6.0-1.114","LIGR","1","f","rechts","24","","","self","j","90","true"
"null","<div style=""font-size:60px;"">+</div>","null","html-keyboard-response","236","255605","0.0-6.0-0.115","LIGR","1","f","rechts","24","","fixation","","","",""
"1605","img/60_180.png","74","image-keyboard-response","237","257212","0.0-6.0-1.115","LIGR","1","f","rechts","24","","","self","j","60","true"
"null","<div style=""font-size:60px;"">+</div>","null","html-keyboard-response","238","257613","0.0-6.0-0.116","LIGR","1","f","rechts","24","","fixation","","","",""
"1400","img/30_90.png","74","image-keyboard-response","239","259015","0.0-6.0-1.116","LIGR","1","f","rechts","24","","","self","j","30","true"
"null","<div style=""font-size:60px;"">+</div>","null","html-keyboard-response","240","259416","0.0-6.0-0.117","LIGR","1","f","rechts","24","","fixation","","","",""
"977","img/0_90.png","74","image-keyboard-response","241","260394","0.0-6.0-1.117","LIGR","1","f","rechts","24","","","self","j","0","true"
"null","<div style=""font-size:60px;"">+</div>","null","html-keyboard-response","242","260696","0.0-6.0-0.118","LIGR","1","f","rechts","24","","fixation","","","",""
"1462","img/150_270.png","74","image-keyboard-response","243","262158","0.0-6.0-1.118","LIGR","1","f","rechts","24","","","self","j","150","true"
"null","<div style=""font-size:60px;"">+</div>","null","html-keyboard-response","244","262610","0.0-6.0-0.119","LIGR","1","f","rechts","24","","fixation","","","",""
"957","img/0_270.png","70","image-keyboard-response","245","263568","0.0-6.0-1.119","LIGR","1","f","rechts","24","","","self","f","0","true"
"null","<div style=""font-size:60px;"">+</div>","null","html-keyboard-response","246","263920","0.0-6.0-0.120","LIGR","1","f","rechts","24","","fixation","","","",""
"1340","img/60_270.png","74","image-keyboard-response","247","265261","0.0-6.0-1.120","LIGR","1","f","rechts","24","","","self","f","60","false"
"null","<div style=""font-size:60px;"">+</div>","null","html-keyboard-response","248","265763","0.0-6.0-0.121","LIGR","1","f","rechts","24","","fixation","","","",""
"981","img/0_240.png","70","image-keyboard-response","249","266744","0.0-6.0-1.121","LIGR","1","f","rechts","24","","","self","f","0","true"
"null","<div style=""font-size:60px;"">+</div>","null","html-keyboard-response","250","267196","0.0-6.0-0.122","LIGR","1","f","rechts","24","","fixation","","","",""
"1605","img/90_330.png","70","image-keyboard-response","251","268802","0.0-6.0-1.122","LIGR","1","f","rechts","24","","","self","f","90","true"
"null","<div style=""font-size:60px;"">+</div>","null","html-keyboard-response","252","269104","0.0-6.0-0.123","LIGR","1","f","rechts","24","","fixation","","","",""
"930","img/0_210.png","70","image-keyboard-response","253","270035","0.0-6.0-1.123","LIGR","1","f","rechts","24","","","self","f","0","true"
"null","<div style=""font-size:60px;"">+</div>","null","html-keyboard-response","254","270336","0.0-6.0-0.124","LIGR","1","f","rechts","24","","fixation","","","",""
"1749","img/90_30.png","74","image-keyboard-response","255","272086","0.0-6.0-1.124","LIGR","1","f","rechts","24","","","self","j","90","true"
"null","<div style=""font-size:60px;"">+</div>","null","html-keyboard-response","256","272488","0.0-6.0-0.125","LIGR","1","f","rechts","24","","fixation","","","",""
"1476","img/90_150.png","70","image-keyboard-response","257","273964","0.0-6.0-1.125","LIGR","1","f","rechts","24","","","self","f","90","true"
"null","<div style=""font-size:60px;"">+</div>","null","html-keyboard-response","258","274416","0.0-6.0-0.126","LIGR","1","f","rechts","24","","fixation","","","",""
"1389","img/90_240.png","74","image-keyboard-response","259","275805","0.0-6.0-1.126","LIGR","1","f","rechts","24","","","self","j","90","true"
"null","<div style=""font-size:60px;"">+</div>","null","html-keyboard-response","260","276256","0.0-6.0-0.127","LIGR","1","f","rechts","24","","fixation","","","",""
"1339","img/60_150.png","70","image-keyboard-response","261","277596","0.0-6.0-1.127","LIGR","1","f","rechts","24","","","self","f","60","true"
"null","<div style=""font-size:60px;"">+</div>","null","html-keyboard-response","262","278047","0.0-6.0-0.128","LIGR","1","f","rechts","24","","fixation","","","",""
"1241","img/60_90.png","74","image-keyboard-response","263","279289","0.0-6.0-1.128","LIGR","1","f","rechts","24","","","self","j","60","true"
"null","<div style=""font-size:60px;"">+</div>","null","html-keyboard-response","264","279741","0.0-6.0-0.129","LIGR","1","f","rechts","24","","fixation","","","",""
"1322","img/150_60.png","70","image-keyboard-response","265","281065","0.0-6.0-1.129","LIGR","1","f","rechts","24","","","self","f","150","true"
"null","<div style=""font-size:60px;"">+</div>","null","html-keyboard-response","266","281566","0.0-6.0-0.130","LIGR","1","f","rechts","24","","fixation","","","",""
"1396","img/120_150.png","70","image-keyboard-response","267","282963","0.0-6.0-1.130","LIGR","1","f","rechts","24","","","self","f","120","true"
"null","<div style=""font-size:60px;"">+</div>","null","html-keyboard-response","268","283365","0.0-6.0-0.131","LIGR","1","f","rechts","24","","fixation","","","",""
"1362","img/150_300.png","74","image-keyboard-response","269","284728","0.0-6.0-1.131","LIGR","1","f","rechts","24","","","self","j","150","true"
"null","<div style=""font-size:60px;"">+</div>","null","html-keyboard-response","270","285230","0.0-6.0-0.132","LIGR","1","f","rechts","24","","fixation","","","",""
"1249","img/30_240.png","70","image-keyboard-response","271","286479","0.0-6.0-1.132","LIGR","1","f","rechts","24","","","self","f","30","true"
"null","<div style=""font-size:60px;"">+</div>","null","html-keyboard-response","272","286931","0.0-6.0-0.133","LIGR","1","f","rechts","24","","fixation","","","",""
"1482","img/60_330.png","70","image-keyboard-response","273","288414","0.0-6.0-1.133","LIGR","1","f","rechts","24","","","self","f","60","true"
"null","<div style=""font-size:60px;"">+</div>","null","html-keyboard-response","274","288866","0.0-6.0-0.134","LIGR","1","f","rechts","24","","fixation","","","",""
"1158","img/120_270.png","74","image-keyboard-response","275","290024","0.0-6.0-1.134","LIGR","1","f","rechts","24","","","self","j","120","true"
"null","<div style=""font-size:60px;"">+</div>","null","html-keyboard-response","276","290426","0.0-6.0-0.135","LIGR","1","f","rechts","24","","fixation","","","",""
"1069","img/30_270.png","70","image-keyboard-response","277","291495","0.0-6.0-1.135","LIGR","1","f","rechts","24","","","self","f","30","true"
"null","<div style=""font-size:60px;"">+</div>","null","html-keyboard-response","278","291946","0.0-6.0-0.136","LIGR","1","f","rechts","24","","fixation","","","",""
"1255","img/150_90.png","70","image-keyboard-response","279","293201","0.0-6.0-1.136","LIGR","1","f","rechts","24","","","self","f","150","true"
"null","<div style=""font-size:60px;"">+</div>","null","html-keyboard-response","280","293703","0.0-6.0-0.137","LIGR","1","f","rechts","24","","fixation","","","",""
"877","img/0_60.png","74","image-keyboard-response","281","294580","0.0-6.0-1.137","LIGR","1","f","rechts","24","","","self","j","0","true"
"null","<div style=""font-size:60px;"">+</div>","null","html-keyboard-response","282","294932","0.0-6.0-0.138","LIGR","1","f","rechts","24","","fixation","","","",""
"976","img/0_30.png","74","image-keyboard-response","283","295909","0.0-6.0-1.138","LIGR","1","f","rechts","24","","","self","j","0","true"
"null","<div style=""font-size:60px;"">+</div>","null","html-keyboard-response","284","296310","0.0-6.0-0.139","LIGR","1","f","rechts","24","","fixation","","","",""
"1440","img/90_300.png","70","image-keyboard-response","285","297752","0.0-6.0-1.139","LIGR","1","f","rechts","24","","","self","f","90","true"
"null","<div style=""font-size:60px;"">+</div>","null","html-keyboard-response","286","298103","0.0-6.0-0.140","LIGR","1","f","rechts","24","","fixation","","","",""
"998","img/120_210.png","74","image-keyboard-response","287","299102","0.0-6.0-1.140","LIGR","1","f","rechts","24","","","self","j","120","true"
"null","<div style=""font-size:60px;"">+</div>","null","html-keyboard-response","288","299504","0.0-6.0-0.141","LIGR","1","f","rechts","24","","fixation","","","",""
"952","img/120_90.png","70","image-keyboard-response","289","300458","0.0-6.0-1.141","LIGR","1","f","rechts","24","","","self","f","120","true"
"null","<div style=""font-size:60px;"">+</div>","null","html-keyboard-response","290","300810","0.0-6.0-0.142","LIGR","1","f","rechts","24","","fixation","","","",""
"814","img/L30_180.png","70","image-keyboard-response","291","301624","0.0-6.0-1.142","LIGR","1","f","rechts","24","","","self","f","30","true"
"null","<div style=""font-size:60px;"">+</div>","null","html-keyboard-response","292","301976","0.0-6.0-0.143","LIGR","1","f","rechts","24","","fixation","","","",""
"1067","img/0_330.png","70","image-keyboard-response","293","303045","0.0-6.0-1.143","LIGR","1","f","rechts","24","","","self","f","0","true"
"null","<div style=""font-size:60px;"">+</div>","null","html-keyboard-response","294","303446","0.0-6.0-0.144","LIGR","1","f","rechts","24","","fixation","","","",""
"1222","img/150_240.png","74","image-keyboard-response","295","304669","0.0-6.0-1.144","LIGR","1","f","rechts","24","","","self","j","150","true"
"null","<div style=""font-size:60px;"">+</div>","null","html-keyboard-response","296","305170","0.0-6.0-0.145","LIGR","1","f","rechts","24","","fixation","","","",""
"1395","img/30_60.png","74","image-keyboard-response","297","306566","0.0-6.0-1.145","LIGR","1","f","rechts","24","","","self","j","30","true"
"null","<div style=""font-size:60px;"">+</div>","null","html-keyboard-response","298","306868","0.0-6.0-0.146","LIGR","1","f","rechts","24","","fixation","","","",""
"1098","img/60_30.png","74","image-keyboard-response","299","307966","0.0-6.0-1.146","LIGR","1","f","rechts","24","","","self","j","60","true"
"null","<div style=""font-size:60px;"">+</div>","null","html-keyboard-response","300","308468","0.0-6.0-0.147","LIGR","1","f","rechts","24","","fixation","","","",""
"831","img/0_150.png","74","image-keyboard-response","301","309299","0.0-6.0-1.147","LIGR","1","f","rechts","24","","","self","j","0","true"
"null","<div style=""font-size:60px;"">+</div>","null","html-keyboard-response","302","309701","0.0-6.0-0.148","LIGR","1","f","rechts","24","","fixation","","","",""
"1283","img/L60_180.png","70","image-keyboard-response","303","310984","0.0-6.0-1.148","LIGR","1","f","rechts","24","","","self","f","60","true"
"null","<div style=""font-size:60px;"">+</div>","null","html-keyboard-response","304","311385","0.0-6.0-0.149","LIGR","1","f","rechts","24","","fixation","","","",""
"1441","img/120_30.png","74","image-keyboard-response","305","312827","0.0-6.0-1.149","LIGR","1","f","rechts","24","","","self","j","120","true"
"null","<div style=""font-size:60px;"">+</div>","null","html-keyboard-response","306","313179","0.0-6.0-0.150","LIGR","1","f","rechts","24","","fixation","","","",""
"1324","img/30_180.png","74","image-keyboard-response","307","314503","0.0-6.0-1.150","LIGR","1","f","rechts","24","","","self","j","30","true"
"null","<div style=""font-size:60px;"">+</div>","null","html-keyboard-response","308","314804","0.0-6.0-0.151","LIGR","1","f","rechts","24","","fixation","","","",""
"1393","img/L90_180.png","70","image-keyboard-response","309","316198","0.0-6.0-1.151","LIGR","1","f","rechts","24","","","self","f","90","true"
"null","<div style=""font-size:60px;"">+</div>","null","html-keyboard-response","310","316600","0.0-6.0-0.152","LIGR","1","f","rechts","24","","fixation","","","",""
"1437","img/90_210.png","74","image-keyboard-response","311","318039","0.0-6.0-1.152","LIGR","1","f","rechts","24","","","self","j","90","true"
"null","<div style=""font-size:60px;"">+</div>","null","html-keyboard-response","312","318440","0.0-6.0-0.153","LIGR","1","f","rechts","24","","fixation","","","",""
"1282","img/30_120.png","74","image-keyboard-response","313","319723","0.0-6.0-1.153","LIGR","1","f","rechts","24","","","self","j","30","true"
"null","<div style=""font-size:60px;"">+</div>","null","html-keyboard-response","314","320125","0.0-6.0-0.154","LIGR","1","f","rechts","24","","fixation","","","",""
"1828","img/L150_180.png","70","image-keyboard-response","315","321953","0.0-6.0-1.154","LIGR","1","f","rechts","24","","","self","f","150","true"
"null","<div style=""font-size:60px;"">+</div>","null","html-keyboard-response","316","322304","0.0-6.0-0.155","LIGR","1","f","rechts","24","","fixation","","","",""
"1448","img/90_180.png","74","image-keyboard-response","317","323753","0.0-6.0-1.155","LIGR","1","f","rechts","24","","","self","j","90","true"
"null","<div style=""font-size:60px;"">+</div>","null","html-keyboard-response","318","324055","0.0-6.0-0.156","LIGR","1","f","rechts","24","","fixation","","","",""
"1088","img/120_180.png","74","image-keyboard-response","319","325144","0.0-6.0-1.156","LIGR","1","f","rechts","24","","","self","j","120","true"
"null","<div style=""font-size:60px;"">+</div>","null","html-keyboard-response","320","325596","0.0-6.0-0.157","LIGR","1","f","rechts","24","","fixation","","","",""
"1006","img/0_150.png","74","image-keyboard-response","321","326603","0.0-6.0-1.157","LIGR","1","f","rechts","24","","","self","j","0","true"
"null","<div style=""font-size:60px;"">+</div>","null","html-keyboard-response","322","326905","0.0-6.0-0.158","LIGR","1","f","rechts","24","","fixation","","","",""
"1348","img/90_150.png","70","image-keyboard-response","323","328253","0.0-6.0-1.158","LIGR","1","f","rechts","24","","","self","f","90","true"
"null","<div style=""font-size:60px;"">+</div>","null","html-keyboard-response","324","328655","0.0-6.0-0.159","LIGR","1","f","rechts","24","","fixation","","","",""
"1607","img/30_60.png","74","image-keyboard-response","325","330263","0.0-6.0-1.159","LIGR","1","f","rechts","24","","","self","j","30","true"
"null","<div style=""font-size:60px;"">+</div>","null","html-keyboard-response","326","330615","0.0-6.0-0.160","LIGR","1","f","rechts","24","","fixation","","","",""
"1095","img/120_90.png","70","image-keyboard-response","327","331711","0.0-6.0-1.160","LIGR","1","f","rechts","24","","","self","f","120","true"
"null","<div style=""font-size:60px;"">+</div>","null","html-keyboard-response","328","332212","0.0-6.0-0.161","LIGR","1","f","rechts","24","","fixation","","","",""
"1277","img/30_90.png","74","image-keyboard-response","329","333490","0.0-6.0-1.161","LIGR","1","f","rechts","24","","","self","j","30","true"
"null","<div style=""font-size:60px;"">+</div>","null","html-keyboard-response","330","333991","0.0-6.0-0.162","LIGR","1","f","rechts","24","","fixation","","","",""
"1183","img/L60_180.png","70","image-keyboard-response","331","335175","0.0-6.0-1.162","LIGR","1","f","rechts","24","","","self","f","60","true"
"null","<div style=""font-size:60px;"">+</div>","null","html-keyboard-response","332","335576","0.0-6.0-0.163","LIGR","1","f","rechts","24","","fixation","","","",""
"1422","img/150_270.png","74","image-keyboard-response","333","336999","0.0-6.0-1.163","LIGR","1","f","rechts","24","","","self","j","150","true"
"null","<div style=""font-size:60px;"">+</div>","null","html-keyboard-response","334","337451","0.0-6.0-0.164","LIGR","1","f","rechts","24","","fixation","","","",""
"1426","img/120_330.png","70","image-keyboard-response","335","338878","0.0-6.0-1.164","LIGR","1","f","rechts","24","","","self","f","120","true"
"null","<div style=""font-size:60px;"">+</div>","null","html-keyboard-response","336","339228","0.0-6.0-0.165","LIGR","1","f","rechts","24","","fixation","","","",""
"2264","img/L150_180.png","74","image-keyboard-response","337","341493","0.0-6.0-1.165","LIGR","1","f","rechts","24","","","self","f","150","false"
"null","<div style=""font-size:60px;"">+</div>","null","html-keyboard-response","338","341795","0.0-6.0-0.166","LIGR","1","f","rechts","24","","fixation","","","",""
"1523","img/30_180.png","74","image-keyboard-response","339","343319","0.0-6.0-1.166","LIGR","1","f","rechts","24","","","self","j","30","true"
"null","<div style=""font-size:60px;"">+</div>","null","html-keyboard-response","340","343821","0.0-6.0-0.167","LIGR","1","f","rechts","24","","fixation","","","",""
"2581","img/90_60.png","74","image-keyboard-response","341","346402","0.0-6.0-1.167","LIGR","1","f","rechts","24","","","self","j","90","true"
"null","<div style=""font-size:60px;"">+</div>","null","html-keyboard-response","342","346704","0.0-6.0-0.168","LIGR","1","f","rechts","24","","fixation","","","",""
"2664","img/90_180.png","74","image-keyboard-response","343","349369","0.0-6.0-1.168","LIGR","1","f","rechts","24","","","self","j","90","true"
"null","<div style=""font-size:60px;"">+</div>","null","html-keyboard-response","344","349671","0.0-6.0-0.169","LIGR","1","f","rechts","24","","fixation","","","",""
"797","img/0_60.png","74","image-keyboard-response","345","350469","0.0-6.0-1.169","LIGR","1","f","rechts","24","","","self","j","0","true"
"null","<div style=""font-size:60px;"">+</div>","null","html-keyboard-response","346","350871","0.0-6.0-0.170","LIGR","1","f","rechts","24","","fixation","","","",""
"1404","img/60_210.png","74","image-keyboard-response","347","352275","0.0-6.0-1.170","LIGR","1","f","rechts","24","","","self","j","60","true"
"null","<div style=""font-size:60px;"">+</div>","null","html-keyboard-response","348","352577","0.0-6.0-0.171","LIGR","1","f","rechts","24","","fixation","","","",""
"1131","img/60_150.png","70","image-keyboard-response","349","353709","0.0-6.0-1.171","LIGR","1","f","rechts","24","","","self","f","60","true"
"null","<div style=""font-size:60px;"">+</div>","null","html-keyboard-response","350","354160","0.0-6.0-0.172","LIGR","1","f","rechts","24","","fixation","","","",""
"1336","img/120_30.png","74","image-keyboard-response","351","355498","0.0-6.0-1.172","LIGR","1","f","rechts","24","","","self","j","120","true"
"null","<div style=""font-size:60px;"">+</div>","null","html-keyboard-response","352","355899","0.0-6.0-0.173","LIGR","1","f","rechts","24","","fixation","","","",""
"1168","img/L30_180.png","70","image-keyboard-response","353","357069","0.0-6.0-1.173","LIGR","1","f","rechts","24","","","self","f","30","true"
"null","<div style=""font-size:60px;"">+</div>","null","html-keyboard-response","354","357370","0.0-6.0-0.174","LIGR","1","f","rechts","24","","fixation","","","",""
"1064","img/120_270.png","74","image-keyboard-response","355","358435","0.0-6.0-1.174","LIGR","1","f","rechts","24","","","self","j","120","true"
"null","<div style=""font-size:60px;"">+</div>","null","html-keyboard-response","356","358786","0.0-6.0-0.175","LIGR","1","f","rechts","24","","fixation","","","",""
"945","img/90_210.png","74","image-keyboard-response","357","359732","0.0-6.0-1.175","LIGR","1","f","rechts","24","","","self","j","90","true"
"null","<div style=""font-size:60px;"">+</div>","null","html-keyboard-response","358","360034","0.0-6.0-0.176","LIGR","1","f","rechts","24","","fixation","","","",""
"1136","img/150_60.png","70","image-keyboard-response","359","361171","0.0-6.0-1.176","LIGR","1","f","rechts","24","","","self","f","150","true"
"null","<div style=""font-size:60px;"">+</div>","null","html-keyboard-response","360","361523","0.0-6.0-0.177","LIGR","1","f","rechts","24","","fixation","","","",""
"846","img/0_330.png","70","image-keyboard-response","361","362370","0.0-6.0-1.177","LIGR","1","f","rechts","24","","","self","f","0","true"
"null","<div style=""font-size:60px;"">+</div>","null","html-keyboard-response","362","362772","0.0-6.0-0.178","LIGR","1","f","rechts","24","","fixation","","","",""
"1444","img/150_180.png","74","image-keyboard-response","363","364217","0.0-6.0-1.178","LIGR","1","f","rechts","24","","","self","j","150","true"
"null","<div style=""font-size:60px;"">+</div>","null","html-keyboard-response","364","364669","0.0-6.0-0.179","LIGR","1","f","rechts","24","","fixation","","","",""
"768","img/0_300.png","70","image-keyboard-response","365","365437","0.0-6.0-1.179","LIGR","1","f","rechts","24","","","self","f","0","true"
"null","<div style=""font-size:60px;"">+</div>","null","html-keyboard-response","366","365789","0.0-6.0-0.180","LIGR","1","f","rechts","24","","fixation","","","",""
"2203","img/90_30.png","74","image-keyboard-response","367","367993","0.0-6.0-1.180","LIGR","1","f","rechts","24","","","self","j","90","true"
"null","<div style=""font-size:60px;"">+</div>","null","html-keyboard-response","368","368445","0.0-6.0-0.181","LIGR","1","f","rechts","24","","fixation","","","",""
"816","img/0_120.png","74","image-keyboard-response","369","369261","0.0-6.0-1.181","LIGR","1","f","rechts","24","","","self","j","0","true"
"null","<div style=""font-size:60px;"">+</div>","null","html-keyboard-response","370","369713","0.0-6.0-0.182","LIGR","1","f","rechts","24","","fixation","","","",""
"880","img/60_180.png","74","image-keyboard-response","371","370593","0.0-6.0-1.182","LIGR","1","f","rechts","24","","","self","j","60","true"
"null","<div style=""font-size:60px;"">+</div>","null","html-keyboard-response","372","370894","0.0-6.0-0.183","LIGR","1","f","rechts","24","","fixation","","","",""
"2125","img/60_270.png","70","image-keyboard-response","373","373020","0.0-6.0-1.183","LIGR","1","f","rechts","24","","","self","f","60","true"
"null","<div style=""font-size:60px;"">+</div>","null","html-keyboard-response","374","373522","0.0-6.0-0.184","LIGR","1","f","rechts","24","","fixation","","","",""
"1069","img/150_120.png","70","image-keyboard-response","375","374591","0.0-6.0-1.184","LIGR","1","f","rechts","24","","","self","f","150","true"
"null","<div style=""font-size:60px;"">+</div>","null","html-keyboard-response","376","375092","0.0-6.0-0.185","LIGR","1","f","rechts","24","","fixation","","","",""
"790","img/0_210.png","70","image-keyboard-response","377","375884","0.0-6.0-1.185","LIGR","1","f","rechts","24","","","self","f","0","true"
"null","<div style=""font-size:60px;"">+</div>","null","html-keyboard-response","378","376335","0.0-6.0-0.186","LIGR","1","f","rechts","24","","fixation","","","",""
"1362","img/30_240.png","70","image-keyboard-response","379","377698","0.0-6.0-1.186","LIGR","1","f","rechts","24","","","self","f","30","true"
"null","<div style=""font-size:60px;"">+</div>","null","html-keyboard-response","380","378050","0.0-6.0-0.187","LIGR","1","f","rechts","24","","fixation","","","",""
"958","img/90_120.png","70","image-keyboard-response","381","379009","0.0-6.0-1.187","LIGR","1","f","rechts","24","","","self","f","90","true"
"null","<div style=""font-size:60px;"">+</div>","null","html-keyboard-response","382","379411","0.0-6.0-0.188","LIGR","1","f","rechts","24","","fixation","","","",""
"1230","img/L120_180.png","70","image-keyboard-response","383","380642","0.0-6.0-1.188","LIGR","1","f","rechts","24","","","self","f","120","true"
"null","<div style=""font-size:60px;"">+</div>","null","html-keyboard-response","384","380944","0.0-6.0-0.189","LIGR","1","f","rechts","24","","fixation","","","",""
"729","img/0_240.png","70","image-keyboard-response","385","381674","0.0-6.0-1.189","LIGR","1","f","rechts","24","","","self","f","0","true"
"null","<div style=""font-size:60px;"">+</div>","null","html-keyboard-response","386","382076","0.0-6.0-0.190","LIGR","1","f","rechts","24","","fixation","","","",""
"969","img/150_240.png","74","image-keyboard-response","387","383046","0.0-6.0-1.190","LIGR","1","f","rechts","24","","","self","j","150","true"
"null","<div style=""font-size:60px;"">+</div>","null","html-keyboard-response","388","383347","0.0-6.0-0.191","LIGR","1","f","rechts","24","","fixation","","","",""
"2123","img/60_330.png","70","image-keyboard-response","389","385471","0.0-6.0-1.191","LIGR","1","f","rechts","24","","","self","f","60","true"
"null","<div style=""font-size:60px;"">+</div>","null","html-keyboard-response","390","385923","0.0-6.0-0.192","LIGR","1","f","rechts","24","","fixation","","","",""
"1078","img/90_330.png","70","image-keyboard-response","391","387001","0.0-6.0-1.192","LIGR","1","f","rechts","24","","","self","f","90","true"
"null","<div style=""font-size:60px;"">+</div>","null","html-keyboard-response","392","387403","0.0-6.0-0.193","LIGR","1","f","rechts","24","","fixation","","","",""
"730","img/0_90.png","74","image-keyboard-response","393","388134","0.0-6.0-1.193","LIGR","1","f","rechts","24","","","self","j","0","true"
"null","<div style=""font-size:60px;"">+</div>","null","html-keyboard-response","394","388536","0.0-6.0-0.194","LIGR","1","f","rechts","24","","fixation","","","",""
"835","img/0_270.png","70","image-keyboard-response","395","389372","0.0-6.0-1.194","LIGR","1","f","rechts","24","","","self","f","0","true"
"null","<div style=""font-size:60px;"">+</div>","null","html-keyboard-response","396","389874","0.0-6.0-0.195","LIGR","1","f","rechts","24","","fixation","","","",""
"1577","img/90_300.png","70","image-keyboard-response","397","391451","0.0-6.0-1.195","LIGR","1","f","rechts","24","","","self","f","90","true"
"null","<div style=""font-size:60px;"">+</div>","null","html-keyboard-response","398","391752","0.0-6.0-0.196","LIGR","1","f","rechts","24","","fixation","","","",""
"1182","img/30_270.png","70","image-keyboard-response","399","392935","0.0-6.0-1.196","LIGR","1","f","rechts","24","","","self","f","30","true"
"null","<div style=""font-size:60px;"">+</div>","null","html-keyboard-response","400","393336","0.0-6.0-0.197","LIGR","1","f","rechts","24","","fixation","","","",""
"1205","img/150_300.png","74","image-keyboard-response","401","394543","0.0-6.0-1.197","LIGR","1","f","rechts","24","","","self","j","150","true"
"null","<div style=""font-size:60px;"">+</div>","null","html-keyboard-response","402","394994","0.0-6.0-0.198","LIGR","1","f","rechts","24","","fixation","","","",""
"1918","img/30_120.png","70","image-keyboard-response","403","396914","0.0-6.0-1.198","LIGR","1","f","rechts","24","","","self","j","30","false"
"null","<div style=""font-size:60px;"">+</div>","null","html-keyboard-response","404","397315","0.0-6.0-0.199","LIGR","1","f","rechts","24","","fixation","","","",""
"736","img/0_30.png","74","image-keyboard-response","405","398053","0.0-6.0-1.199","LIGR","1","f","rechts","24","","","self","j","0","true"
"null","<div style=""font-size:60px;"">+</div>","null","html-keyboard-response","406","398504","0.0-6.0-0.200","LIGR","1","f","rechts","24","","fixation","","","",""
"1339","img/L90_180.png","70","image-keyboard-response","407","399844","0.0-6.0-1.200","LIGR","1","f","rechts","24","","","self","f","90","true"
"null","<div style=""font-size:60px;"">+</div>","null","html-keyboard-response","408","400246","0.0-6.0-0.201","LIGR","1","f","rechts","24","","fixation","","","",""
"1344","img/90_240.png","74","image-keyboard-response","409","401591","0.0-6.0-1.201","LIGR","1","f","rechts","24","","","self","j","90","true"
"null","<div style=""font-size:60px;"">+</div>","null","html-keyboard-response","410","402043","0.0-6.0-0.202","LIGR","1","f","rechts","24","","fixation","","","",""
"1095","img/60_90.png","74","image-keyboard-response","411","403139","0.0-6.0-1.202","LIGR","1","f","rechts","24","","","self","j","60","true"
"null","<div style=""font-size:60px;"">+</div>","null","html-keyboard-response","412","403591","0.0-6.0-0.203","LIGR","1","f","rechts","24","","fixation","","","",""
"1296","img/30_300.png","70","image-keyboard-response","413","404888","0.0-6.0-1.203","LIGR","1","f","rechts","24","","","self","f","30","true"
"null","<div style=""font-size:60px;"">+</div>","null","html-keyboard-response","414","405290","0.0-6.0-0.204","LIGR","1","f","rechts","24","","fixation","","","",""
"2117","img/150_90.png","74","image-keyboard-response","415","407408","0.0-6.0-1.204","LIGR","1","f","rechts","24","","","self","f","150","false"
"null","<div style=""font-size:60px;"">+</div>","null","html-keyboard-response","416","407909","0.0-6.0-0.205","LIGR","1","f","rechts","24","","fixation","","","",""
"1511","img/120_150.png","70","image-keyboard-response","417","409422","0.0-6.0-1.205","LIGR","1","f","rechts","24","","","self","f","120","true"
"null","<div style=""font-size:60px;"">+</div>","null","html-keyboard-response","418","409722","0.0-6.0-0.206","LIGR","1","f","rechts","24","","fixation","","","",""
"1934","img/60_30.png","74","image-keyboard-response","419","411657","0.0-6.0-1.206","LIGR","1","f","rechts","24","","","self","j","60","true"
"null","<div style=""font-size:60px;"">+</div>","null","html-keyboard-response","420","412009","0.0-6.0-0.207","LIGR","1","f","rechts","24","","fixation","","","",""
"1664","img/120_210.png","74","image-keyboard-response","421","413674","0.0-6.0-1.207","LIGR","1","f","rechts","24","","","self","j","120","true"
"11297","<p>Du hast in 93% der Versuche korrekt entschieden.</p><p>Deine durchschnittliche Reaktionszeit war  1232ms.</p><p>Dr&uuml;cke eine beliebige Taste, um die Session zu beenden. Vielen Dank!</p>","70","html-keyboard-response","422","424973","0.0-7.0","LIGR","1","f","rechts","24","","","","","",""
