"rt","stimulus","key_press","trial_type","trial_index","time_elapsed","internal_node_id","subject","session","sex","handedness","age","responses","test_part","condition","correct_response","angle","correct"
"2849","<p>Mental Rotation Experiment.</p> <p>Dr&uuml;cke eine beliebige Taste, um anzufangen.</p>","70","html-keyboard-response","0","2854","0.0-0.0","LIGR","4","f","rechts","24","","","","","",""
"2548","","","survey-text","1","5402","0.0-1.0","LIGR","4","f","rechts","24","{""Q0"":""LIGR""}","","","","",""
"2412","","","survey-text","2","7816","0.0-2.0","LIGR","4","f","rechts","24","{""Q0"":""4""}","","","","",""
"7087","","","survey-multi-choice","3","14906","0.0-3.0","LIGR","4","f","rechts","24","{""Q0"":""f"",""Q1"":""rechts""}","","","","",""
"2027","","","survey-text","4","16933","0.0-4.0","LIGR","4","f","rechts","24","{""Q0"":""24""}","","","","",""
"506923","<p> Stell dir vor, dass du vor einem runden Tisch stehst, auf dem sich ein blauer Ball am Tischrand befindet. Entlang des Tischrands ist jeweils ein verschieden langer Pfeil. Nun bewegst du dich entlang dieses Pfeils bis an seine Spitze. Wenn du am Ende des Pfeils angekommen bist, schau zur Tischmitte. </p> <img src='img/90_180.png'></img> <br> <p>Entscheide dann, ob der Ball von deiner neuen (vorgestellten) Position links oder rechts von dir liegt.</p> <p>Dr&uuml;cke die <strong>'f'</strong>-Taste f&uuml;r links, die <strong>'j'</strong>-Taste f&uuml;r rechts.</p> <br><p> Das Bild wird jeweils 1 Sekunde lang pr&auml;sentiert. Du hast 3 Sekunden Zeit eine Entscheidung zu treffen.</p>","74","html-keyboard-response","5","523859","0.0-5.0","LIGR","4","f","rechts","24","","","","","",""
"null","<div style=""font-size:60px;"">+</div>","null","html-keyboard-response","6","525161","0.0-6.0-0.0","LIGR","4","f","rechts","24","","fixation","","","",""
"1139","img/150_180.png","74","image-keyboard-response","7","526301","0.0-6.0-1.0","LIGR","4","f","rechts","24","","","self","j","150","true"
"null","<div style=""font-size:60px;"">+</div>","null","html-keyboard-response","8","526753","0.0-6.0-0.1","LIGR","4","f","rechts","24","","fixation","","","",""
"810","img/90_240.png","74","image-keyboard-response","9","527564","0.0-6.0-1.1","LIGR","4","f","rechts","24","","","self","j","90","true"
"null","<div style=""font-size:60px;"">+</div>","null","html-keyboard-response","10","527865","0.0-6.0-0.2","LIGR","4","f","rechts","24","","fixation","","","",""
"588","img/L90_180.png","70","image-keyboard-response","11","528454","0.0-6.0-1.2","LIGR","4","f","rechts","24","","","self","f","90","true"
"null","<div style=""font-size:60px;"">+</div>","null","html-keyboard-response","12","528856","0.0-6.0-0.3","LIGR","4","f","rechts","24","","fixation","","","",""
"575","img/0_30.png","74","image-keyboard-response","13","529432","0.0-6.0-1.3","LIGR","4","f","rechts","24","","","self","j","0","true"
"null","<div style=""font-size:60px;"">+</div>","null","html-keyboard-response","14","529834","0.0-6.0-0.4","LIGR","4","f","rechts","24","","fixation","","","",""
"543","img/0_210.png","70","image-keyboard-response","15","530378","0.0-6.0-1.4","LIGR","4","f","rechts","24","","","self","f","0","true"
"null","<div style=""font-size:60px;"">+</div>","null","html-keyboard-response","16","530880","0.0-6.0-0.5","LIGR","4","f","rechts","24","","fixation","","","",""
"553","img/0_150.png","74","image-keyboard-response","17","531434","0.0-6.0-1.5","LIGR","4","f","rechts","24","","","self","j","0","true"
"null","<div style=""font-size:60px;"">+</div>","null","html-keyboard-response","18","531886","0.0-6.0-0.6","LIGR","4","f","rechts","24","","fixation","","","",""
"527","img/90_150.png","70","image-keyboard-response","19","532414","0.0-6.0-1.6","LIGR","4","f","rechts","24","","","self","f","90","true"
"null","<div style=""font-size:60px;"">+</div>","null","html-keyboard-response","20","532816","0.0-6.0-0.7","LIGR","4","f","rechts","24","","fixation","","","",""
"696","img/30_90.png","74","image-keyboard-response","21","533513","0.0-6.0-1.7","LIGR","4","f","rechts","24","","","self","j","30","true"
"null","<div style=""font-size:60px;"">+</div>","null","html-keyboard-response","22","534015","0.0-6.0-0.8","LIGR","4","f","rechts","24","","fixation","","","",""
"835","img/60_180.png","74","image-keyboard-response","23","534851","0.0-6.0-1.8","LIGR","4","f","rechts","24","","","self","j","60","true"
"null","<div style=""font-size:60px;"">+</div>","null","html-keyboard-response","24","535253","0.0-6.0-0.9","LIGR","4","f","rechts","24","","fixation","","","",""
"587","img/0_60.png","74","image-keyboard-response","25","535841","0.0-6.0-1.9","LIGR","4","f","rechts","24","","","self","j","0","true"
"null","<div style=""font-size:60px;"">+</div>","null","html-keyboard-response","26","536243","0.0-6.0-0.10","LIGR","4","f","rechts","24","","fixation","","","",""
"1057","img/90_330.png","70","image-keyboard-response","27","537302","0.0-6.0-1.10","LIGR","4","f","rechts","24","","","self","f","90","true"
"null","<div style=""font-size:60px;"">+</div>","null","html-keyboard-response","28","537804","0.0-6.0-0.11","LIGR","4","f","rechts","24","","fixation","","","",""
"655","img/150_270.png","74","image-keyboard-response","29","538460","0.0-6.0-1.11","LIGR","4","f","rechts","24","","","self","j","150","true"
"null","<div style=""font-size:60px;"">+</div>","null","html-keyboard-response","30","538962","0.0-6.0-0.12","LIGR","4","f","rechts","24","","fixation","","","",""
"698","img/L150_180.png","70","image-keyboard-response","31","539661","0.0-6.0-1.12","LIGR","4","f","rechts","24","","","self","f","150","true"
"null","<div style=""font-size:60px;"">+</div>","null","html-keyboard-response","32","540163","0.0-6.0-0.13","LIGR","4","f","rechts","24","","fixation","","","",""
"745","img/30_300.png","70","image-keyboard-response","33","540909","0.0-6.0-1.13","LIGR","4","f","rechts","24","","","self","f","30","true"
"null","<div style=""font-size:60px;"">+</div>","null","html-keyboard-response","34","541411","0.0-6.0-0.14","LIGR","4","f","rechts","24","","fixation","","","",""
"730","img/60_90.png","74","image-keyboard-response","35","542142","0.0-6.0-1.14","LIGR","4","f","rechts","24","","","self","j","60","true"
"null","<div style=""font-size:60px;"">+</div>","null","html-keyboard-response","36","542443","0.0-6.0-0.15","LIGR","4","f","rechts","24","","fixation","","","",""
"702","img/60_270.png","70","image-keyboard-response","37","543146","0.0-6.0-1.15","LIGR","4","f","rechts","24","","","self","f","60","true"
"null","<div style=""font-size:60px;"">+</div>","null","html-keyboard-response","38","543497","0.0-6.0-0.16","LIGR","4","f","rechts","24","","fixation","","","",""
"578","img/0_120.png","74","image-keyboard-response","39","544076","0.0-6.0-1.16","LIGR","4","f","rechts","24","","","self","j","0","true"
"null","<div style=""font-size:60px;"">+</div>","null","html-keyboard-response","40","544578","0.0-6.0-0.17","LIGR","4","f","rechts","24","","fixation","","","",""
"510","img/0_330.png","70","image-keyboard-response","41","545089","0.0-6.0-1.17","LIGR","4","f","rechts","24","","","self","f","0","true"
"null","<div style=""font-size:60px;"">+</div>","null","html-keyboard-response","42","545540","0.0-6.0-0.18","LIGR","4","f","rechts","24","","fixation","","","",""
"600","img/90_180.png","74","image-keyboard-response","43","546140","0.0-6.0-1.18","LIGR","4","f","rechts","24","","","self","j","90","true"
"null","<div style=""font-size:60px;"">+</div>","null","html-keyboard-response","44","546542","0.0-6.0-0.19","LIGR","4","f","rechts","24","","fixation","","","",""
"705","img/120_330.png","70","image-keyboard-response","45","547248","0.0-6.0-1.19","LIGR","4","f","rechts","24","","","self","f","120","true"
"null","<div style=""font-size:60px;"">+</div>","null","html-keyboard-response","46","547549","0.0-6.0-0.20","LIGR","4","f","rechts","24","","fixation","","","",""
"586","img/0_240.png","70","image-keyboard-response","47","548136","0.0-6.0-1.20","LIGR","4","f","rechts","24","","","self","f","0","true"
"null","<div style=""font-size:60px;"">+</div>","null","html-keyboard-response","48","548438","0.0-6.0-0.21","LIGR","4","f","rechts","24","","fixation","","","",""
"478","img/L120_180.png","70","image-keyboard-response","49","548917","0.0-6.0-1.21","LIGR","4","f","rechts","24","","","self","f","120","true"
"null","<div style=""font-size:60px;"">+</div>","null","html-keyboard-response","50","549269","0.0-6.0-0.22","LIGR","4","f","rechts","24","","fixation","","","",""
"511","img/120_150.png","70","image-keyboard-response","51","549781","0.0-6.0-1.22","LIGR","4","f","rechts","24","","","self","f","120","true"
"null","<div style=""font-size:60px;"">+</div>","null","html-keyboard-response","52","550083","0.0-6.0-0.23","LIGR","4","f","rechts","24","","fixation","","","",""
"624","img/L30_180.png","70","image-keyboard-response","53","550708","0.0-6.0-1.23","LIGR","4","f","rechts","24","","","self","f","30","true"
"null","<div style=""font-size:60px;"">+</div>","null","html-keyboard-response","54","551009","0.0-6.0-0.24","LIGR","4","f","rechts","24","","fixation","","","",""
"583","img/150_90.png","70","image-keyboard-response","55","551594","0.0-6.0-1.24","LIGR","4","f","rechts","24","","","self","f","150","true"
"null","<div style=""font-size:60px;"">+</div>","null","html-keyboard-response","56","551946","0.0-6.0-0.25","LIGR","4","f","rechts","24","","fixation","","","",""
"698","img/120_90.png","70","image-keyboard-response","57","552645","0.0-6.0-1.25","LIGR","4","f","rechts","24","","","self","f","120","true"
"null","<div style=""font-size:60px;"">+</div>","null","html-keyboard-response","58","553147","0.0-6.0-0.26","LIGR","4","f","rechts","24","","fixation","","","",""
"764","img/30_270.png","70","image-keyboard-response","59","553913","0.0-6.0-1.26","LIGR","4","f","rechts","24","","","self","f","30","true"
"null","<div style=""font-size:60px;"">+</div>","null","html-keyboard-response","60","554264","0.0-6.0-0.27","LIGR","4","f","rechts","24","","fixation","","","",""
"698","img/120_270.png","74","image-keyboard-response","61","554963","0.0-6.0-1.27","LIGR","4","f","rechts","24","","","self","j","120","true"
"null","<div style=""font-size:60px;"">+</div>","null","html-keyboard-response","62","555315","0.0-6.0-0.28","LIGR","4","f","rechts","24","","fixation","","","",""
"617","img/120_180.png","74","image-keyboard-response","63","555933","0.0-6.0-1.28","LIGR","4","f","rechts","24","","","self","j","120","true"
"null","<div style=""font-size:60px;"">+</div>","null","html-keyboard-response","64","556285","0.0-6.0-0.29","LIGR","4","f","rechts","24","","fixation","","","",""
"1262","img/120_30.png","74","image-keyboard-response","65","557549","0.0-6.0-1.29","LIGR","4","f","rechts","24","","","self","j","120","true"
"null","<div style=""font-size:60px;"">+</div>","null","html-keyboard-response","66","557850","0.0-6.0-0.30","LIGR","4","f","rechts","24","","fixation","","","",""
"850","img/60_330.png","70","image-keyboard-response","67","558702","0.0-6.0-1.30","LIGR","4","f","rechts","24","","","self","f","60","true"
"null","<div style=""font-size:60px;"">+</div>","null","html-keyboard-response","68","559154","0.0-6.0-0.31","LIGR","4","f","rechts","24","","fixation","","","",""
"826","img/30_240.png","70","image-keyboard-response","69","559982","0.0-6.0-1.31","LIGR","4","f","rechts","24","","","self","f","30","true"
"null","<div style=""font-size:60px;"">+</div>","null","html-keyboard-response","70","560283","0.0-6.0-0.32","LIGR","4","f","rechts","24","","fixation","","","",""
"697","img/120_210.png","74","image-keyboard-response","71","560982","0.0-6.0-1.32","LIGR","4","f","rechts","24","","","self","j","120","true"
"null","<div style=""font-size:60px;"">+</div>","null","html-keyboard-response","72","561484","0.0-6.0-0.33","LIGR","4","f","rechts","24","","fixation","","","",""
"691","img/L60_180.png","70","image-keyboard-response","73","562177","0.0-6.0-1.33","LIGR","4","f","rechts","24","","","self","f","60","true"
"null","<div style=""font-size:60px;"">+</div>","null","html-keyboard-response","74","562629","0.0-6.0-0.34","LIGR","4","f","rechts","24","","fixation","","","",""
"641","img/150_120.png","70","image-keyboard-response","75","563271","0.0-6.0-1.34","LIGR","4","f","rechts","24","","","self","f","150","true"
"null","<div style=""font-size:60px;"">+</div>","null","html-keyboard-response","76","563573","0.0-6.0-0.35","LIGR","4","f","rechts","24","","fixation","","","",""
"931","img/60_30.png","74","image-keyboard-response","77","564505","0.0-6.0-1.35","LIGR","4","f","rechts","24","","","self","j","60","true"
"null","<div style=""font-size:60px;"">+</div>","null","html-keyboard-response","78","564807","0.0-6.0-0.36","LIGR","4","f","rechts","24","","fixation","","","",""
"842","img/60_210.png","74","image-keyboard-response","79","565651","0.0-6.0-1.36","LIGR","4","f","rechts","24","","","self","j","60","true"
"null","<div style=""font-size:60px;"">+</div>","null","html-keyboard-response","80","566052","0.0-6.0-0.37","LIGR","4","f","rechts","24","","fixation","","","",""
"587","img/0_90.png","74","image-keyboard-response","81","566641","0.0-6.0-1.37","LIGR","4","f","rechts","24","","","self","j","0","true"
"null","<div style=""font-size:60px;"">+</div>","null","html-keyboard-response","82","567092","0.0-6.0-0.38","LIGR","4","f","rechts","24","","fixation","","","",""
"683","img/90_210.png","74","image-keyboard-response","83","567776","0.0-6.0-1.38","LIGR","4","f","rechts","24","","","self","j","90","true"
"null","<div style=""font-size:60px;"">+</div>","null","html-keyboard-response","84","568078","0.0-6.0-0.39","LIGR","4","f","rechts","24","","fixation","","","",""
"697","img/150_300.png","74","image-keyboard-response","85","568776","0.0-6.0-1.39","LIGR","4","f","rechts","24","","","self","j","150","true"
"null","<div style=""font-size:60px;"">+</div>","null","html-keyboard-response","86","569278","0.0-6.0-0.40","LIGR","4","f","rechts","24","","fixation","","","",""
"846","img/90_30.png","74","image-keyboard-response","87","570127","0.0-6.0-1.40","LIGR","4","f","rechts","24","","","self","j","90","true"
"null","<div style=""font-size:60px;"">+</div>","null","html-keyboard-response","88","570428","0.0-6.0-0.41","LIGR","4","f","rechts","24","","fixation","","","",""
"925","img/150_60.png","70","image-keyboard-response","89","571354","0.0-6.0-1.41","LIGR","4","f","rechts","24","","","self","f","150","true"
"null","<div style=""font-size:60px;"">+</div>","null","html-keyboard-response","90","571856","0.0-6.0-0.42","LIGR","4","f","rechts","24","","fixation","","","",""
"760","img/30_180.png","74","image-keyboard-response","91","572617","0.0-6.0-1.42","LIGR","4","f","rechts","24","","","self","j","30","true"
"null","<div style=""font-size:60px;"">+</div>","null","html-keyboard-response","92","572918","0.0-6.0-0.43","LIGR","4","f","rechts","24","","fixation","","","",""
"616","img/60_150.png","70","image-keyboard-response","93","573535","0.0-6.0-1.43","LIGR","4","f","rechts","24","","","self","f","60","true"
"null","<div style=""font-size:60px;"">+</div>","null","html-keyboard-response","94","573987","0.0-6.0-0.44","LIGR","4","f","rechts","24","","fixation","","","",""
"562","img/150_240.png","74","image-keyboard-response","95","574550","0.0-6.0-1.44","LIGR","4","f","rechts","24","","","self","j","150","true"
"null","<div style=""font-size:60px;"">+</div>","null","html-keyboard-response","96","575052","0.0-6.0-0.45","LIGR","4","f","rechts","24","","fixation","","","",""
"672","img/0_270.png","70","image-keyboard-response","97","575726","0.0-6.0-1.45","LIGR","4","f","rechts","24","","","self","f","0","true"
"null","<div style=""font-size:60px;"">+</div>","null","html-keyboard-response","98","576128","0.0-6.0-0.46","LIGR","4","f","rechts","24","","fixation","","","",""
"644","img/90_120.png","70","image-keyboard-response","99","576773","0.0-6.0-1.46","LIGR","4","f","rechts","24","","","self","f","90","true"
"null","<div style=""font-size:60px;"">+</div>","null","html-keyboard-response","100","577125","0.0-6.0-0.47","LIGR","4","f","rechts","24","","fixation","","","",""
"556","img/0_300.png","70","image-keyboard-response","101","577682","0.0-6.0-1.47","LIGR","4","f","rechts","24","","","self","f","0","true"
"null","<div style=""font-size:60px;"">+</div>","null","html-keyboard-response","102","578084","0.0-6.0-0.48","LIGR","4","f","rechts","24","","fixation","","","",""
"903","img/30_60.png","74","image-keyboard-response","103","578988","0.0-6.0-1.48","LIGR","4","f","rechts","24","","","self","j","30","true"
"null","<div style=""font-size:60px;"">+</div>","null","html-keyboard-response","104","579340","0.0-6.0-0.49","LIGR","4","f","rechts","24","","fixation","","","",""
"744","img/30_120.png","74","image-keyboard-response","105","580085","0.0-6.0-1.49","LIGR","4","f","rechts","24","","","self","j","30","true"
"null","<div style=""font-size:60px;"">+</div>","null","html-keyboard-response","106","580437","0.0-6.0-0.50","LIGR","4","f","rechts","24","","fixation","","","",""
"1071","img/90_300.png","70","image-keyboard-response","107","581509","0.0-6.0-1.50","LIGR","4","f","rechts","24","","","self","f","90","true"
"null","<div style=""font-size:60px;"">+</div>","null","html-keyboard-response","108","582010","0.0-6.0-0.51","LIGR","4","f","rechts","24","","fixation","","","",""
"768","img/90_60.png","74","image-keyboard-response","109","582780","0.0-6.0-1.51","LIGR","4","f","rechts","24","","","self","j","90","true"
"null","<div style=""font-size:60px;"">+</div>","null","html-keyboard-response","110","583132","0.0-6.0-0.52","LIGR","4","f","rechts","24","","fixation","","","",""
"866","img/120_180.png","74","image-keyboard-response","111","583999","0.0-6.0-1.52","LIGR","4","f","rechts","24","","","self","j","120","true"
"null","<div style=""font-size:60px;"">+</div>","null","html-keyboard-response","112","584400","0.0-6.0-0.53","LIGR","4","f","rechts","24","","fixation","","","",""
"607","img/120_150.png","70","image-keyboard-response","113","585008","0.0-6.0-1.53","LIGR","4","f","rechts","24","","","self","f","120","true"
"null","<div style=""font-size:60px;"">+</div>","null","html-keyboard-response","114","585460","0.0-6.0-0.54","LIGR","4","f","rechts","24","","fixation","","","",""
"621","img/120_270.png","74","image-keyboard-response","115","586082","0.0-6.0-1.54","LIGR","4","f","rechts","24","","","self","j","120","true"
"null","<div style=""font-size:60px;"">+</div>","null","html-keyboard-response","116","586484","0.0-6.0-0.55","LIGR","4","f","rechts","24","","fixation","","","",""
"840","img/90_60.png","74","image-keyboard-response","117","587325","0.0-6.0-1.55","LIGR","4","f","rechts","24","","","self","j","90","true"
"null","<div style=""font-size:60px;"">+</div>","null","html-keyboard-response","118","587727","0.0-6.0-0.56","LIGR","4","f","rechts","24","","fixation","","","",""
"697","img/60_90.png","74","image-keyboard-response","119","588425","0.0-6.0-1.56","LIGR","4","f","rechts","24","","","self","j","60","true"
"null","<div style=""font-size:60px;"">+</div>","null","html-keyboard-response","120","588877","0.0-6.0-0.57","LIGR","4","f","rechts","24","","fixation","","","",""
"632","img/0_240.png","70","image-keyboard-response","121","589509","0.0-6.0-1.57","LIGR","4","f","rechts","24","","","self","f","0","true"
"null","<div style=""font-size:60px;"">+</div>","null","html-keyboard-response","122","589811","0.0-6.0-0.58","LIGR","4","f","rechts","24","","fixation","","","",""
"743","img/30_300.png","70","image-keyboard-response","123","590554","0.0-6.0-1.58","LIGR","4","f","rechts","24","","","self","f","30","true"
"null","<div style=""font-size:60px;"">+</div>","null","html-keyboard-response","124","590956","0.0-6.0-0.59","LIGR","4","f","rechts","24","","fixation","","","",""
"604","img/30_180.png","74","image-keyboard-response","125","591561","0.0-6.0-1.59","LIGR","4","f","rechts","24","","","self","j","30","true"
"null","<div style=""font-size:60px;"">+</div>","null","html-keyboard-response","126","591863","0.0-6.0-0.60","LIGR","4","f","rechts","24","","fixation","","","",""
"651","img/150_270.png","74","image-keyboard-response","127","592514","0.0-6.0-1.60","LIGR","4","f","rechts","24","","","self","j","150","true"
"null","<div style=""font-size:60px;"">+</div>","null","html-keyboard-response","128","592866","0.0-6.0-0.61","LIGR","4","f","rechts","24","","fixation","","","",""
"724","img/120_30.png","74","image-keyboard-response","129","593590","0.0-6.0-1.61","LIGR","4","f","rechts","24","","","self","j","120","true"
"null","<div style=""font-size:60px;"">+</div>","null","html-keyboard-response","130","594092","0.0-6.0-0.62","LIGR","4","f","rechts","24","","fixation","","","",""
"651","img/60_150.png","70","image-keyboard-response","131","594743","0.0-6.0-1.62","LIGR","4","f","rechts","24","","","self","f","60","true"
"null","<div style=""font-size:60px;"">+</div>","null","html-keyboard-response","132","595094","0.0-6.0-0.63","LIGR","4","f","rechts","24","","fixation","","","",""
"731","img/30_270.png","70","image-keyboard-response","133","595826","0.0-6.0-1.63","LIGR","4","f","rechts","24","","","self","f","30","true"
"null","<div style=""font-size:60px;"">+</div>","null","html-keyboard-response","134","596128","0.0-6.0-0.64","LIGR","4","f","rechts","24","","fixation","","","",""
"622","img/60_30.png","74","image-keyboard-response","135","596750","0.0-6.0-1.64","LIGR","4","f","rechts","24","","","self","j","60","true"
"null","<div style=""font-size:60px;"">+</div>","null","html-keyboard-response","136","597052","0.0-6.0-0.65","LIGR","4","f","rechts","24","","fixation","","","",""
"723","img/150_180.png","74","image-keyboard-response","137","597777","0.0-6.0-1.65","LIGR","4","f","rechts","24","","","self","j","150","true"
"null","<div style=""font-size:60px;"">+</div>","null","html-keyboard-response","138","598228","0.0-6.0-0.66","LIGR","4","f","rechts","24","","fixation","","","",""
"753","img/150_90.png","70","image-keyboard-response","139","598982","0.0-6.0-1.66","LIGR","4","f","rechts","24","","","self","f","150","true"
"null","<div style=""font-size:60px;"">+</div>","null","html-keyboard-response","140","599483","0.0-6.0-0.67","LIGR","4","f","rechts","24","","fixation","","","",""
"633","img/L150_180.png","70","image-keyboard-response","141","600117","0.0-6.0-1.67","LIGR","4","f","rechts","24","","","self","f","150","true"
"null","<div style=""font-size:60px;"">+</div>","null","html-keyboard-response","142","600518","0.0-6.0-0.68","LIGR","4","f","rechts","24","","fixation","","","",""
"714","img/90_210.png","74","image-keyboard-response","143","601233","0.0-6.0-1.68","LIGR","4","f","rechts","24","","","self","j","90","true"
"null","<div style=""font-size:60px;"">+</div>","null","html-keyboard-response","144","601735","0.0-6.0-0.69","LIGR","4","f","rechts","24","","fixation","","","",""
"590","img/120_90.png","70","image-keyboard-response","145","602325","0.0-6.0-1.69","LIGR","4","f","rechts","24","","","self","f","120","true"
"null","<div style=""font-size:60px;"">+</div>","null","html-keyboard-response","146","602676","0.0-6.0-0.70","LIGR","4","f","rechts","24","","fixation","","","",""
"633","img/30_90.png","74","image-keyboard-response","147","603310","0.0-6.0-1.70","LIGR","4","f","rechts","24","","","self","j","30","true"
"null","<div style=""font-size:60px;"">+</div>","null","html-keyboard-response","148","603811","0.0-6.0-0.71","LIGR","4","f","rechts","24","","fixation","","","",""
"568","img/0_330.png","70","image-keyboard-response","149","604380","0.0-6.0-1.71","LIGR","4","f","rechts","24","","","self","f","0","true"
"null","<div style=""font-size:60px;"">+</div>","null","html-keyboard-response","150","604732","0.0-6.0-0.72","LIGR","4","f","rechts","24","","fixation","","","",""
"630","img/90_240.png","74","image-keyboard-response","151","605362","0.0-6.0-1.72","LIGR","4","f","rechts","24","","","self","j","90","true"
"null","<div style=""font-size:60px;"">+</div>","null","html-keyboard-response","152","605714","0.0-6.0-0.73","LIGR","4","f","rechts","24","","fixation","","","",""
"642","img/0_150.png","74","image-keyboard-response","153","606356","0.0-6.0-1.73","LIGR","4","f","rechts","24","","","self","j","0","true"
"null","<div style=""font-size:60px;"">+</div>","null","html-keyboard-response","154","606857","0.0-6.0-0.74","LIGR","4","f","rechts","24","","fixation","","","",""
"551","img/0_270.png","70","image-keyboard-response","155","607410","0.0-6.0-1.74","LIGR","4","f","rechts","24","","","self","f","0","true"
"null","<div style=""font-size:60px;"">+</div>","null","html-keyboard-response","156","607861","0.0-6.0-0.75","LIGR","4","f","rechts","24","","fixation","","","",""
"563","img/60_180.png","74","image-keyboard-response","157","608426","0.0-6.0-1.75","LIGR","4","f","rechts","24","","","self","j","60","true"
"null","<div style=""font-size:60px;"">+</div>","null","html-keyboard-response","158","608777","0.0-6.0-0.76","LIGR","4","f","rechts","24","","fixation","","","",""
"584","img/90_180.png","74","image-keyboard-response","159","609363","0.0-6.0-1.76","LIGR","4","f","rechts","24","","","self","j","90","true"
"null","<div style=""font-size:60px;"">+</div>","null","html-keyboard-response","160","609714","0.0-6.0-0.77","LIGR","4","f","rechts","24","","fixation","","","",""
"561","img/0_90.png","74","image-keyboard-response","161","610277","0.0-6.0-1.77","LIGR","4","f","rechts","24","","","self","j","0","true"
"null","<div style=""font-size:60px;"">+</div>","null","html-keyboard-response","162","610677","0.0-6.0-0.78","LIGR","4","f","rechts","24","","fixation","","","",""
"538","img/L60_180.png","70","image-keyboard-response","163","611217","0.0-6.0-1.78","LIGR","4","f","rechts","24","","","self","f","60","true"
"null","<div style=""font-size:60px;"">+</div>","null","html-keyboard-response","164","611618","0.0-6.0-0.79","LIGR","4","f","rechts","24","","fixation","","","",""
"565","img/150_300.png","74","image-keyboard-response","165","612185","0.0-6.0-1.79","LIGR","4","f","rechts","24","","","self","j","150","true"
"null","<div style=""font-size:60px;"">+</div>","null","html-keyboard-response","166","612536","0.0-6.0-0.80","LIGR","4","f","rechts","24","","fixation","","","",""
"708","img/60_270.png","70","image-keyboard-response","167","613245","0.0-6.0-1.80","LIGR","4","f","rechts","24","","","self","f","60","true"
"null","<div style=""font-size:60px;"">+</div>","null","html-keyboard-response","168","613597","0.0-6.0-0.81","LIGR","4","f","rechts","24","","fixation","","","",""
"534","img/L120_180.png","70","image-keyboard-response","169","614133","0.0-6.0-1.81","LIGR","4","f","rechts","24","","","self","f","120","true"
"null","<div style=""font-size:60px;"">+</div>","null","html-keyboard-response","170","614584","0.0-6.0-0.82","LIGR","4","f","rechts","24","","fixation","","","",""
"511","img/120_210.png","74","image-keyboard-response","171","615097","0.0-6.0-1.82","LIGR","4","f","rechts","24","","","self","j","120","true"
"null","<div style=""font-size:60px;"">+</div>","null","html-keyboard-response","172","615448","0.0-6.0-0.83","LIGR","4","f","rechts","24","","fixation","","","",""
"642","img/0_30.png","74","image-keyboard-response","173","616091","0.0-6.0-1.83","LIGR","4","f","rechts","24","","","self","j","0","true"
"null","<div style=""font-size:60px;"">+</div>","null","html-keyboard-response","174","616393","0.0-6.0-0.84","LIGR","4","f","rechts","24","","fixation","","","",""
"486","img/90_30.png","70","image-keyboard-response","175","616879","0.0-6.0-1.84","LIGR","4","f","rechts","24","","","self","j","90","false"
"null","<div style=""font-size:60px;"">+</div>","null","html-keyboard-response","176","617281","0.0-6.0-0.85","LIGR","4","f","rechts","24","","fixation","","","",""
"757","img/30_120.png","74","image-keyboard-response","177","618039","0.0-6.0-1.85","LIGR","4","f","rechts","24","","","self","j","30","true"
"null","<div style=""font-size:60px;"">+</div>","null","html-keyboard-response","178","618441","0.0-6.0-0.86","LIGR","4","f","rechts","24","","fixation","","","",""
"933","img/90_120.png","70","image-keyboard-response","179","619374","0.0-6.0-1.86","LIGR","4","f","rechts","24","","","self","f","90","true"
"null","<div style=""font-size:60px;"">+</div>","null","html-keyboard-response","180","619826","0.0-6.0-0.87","LIGR","4","f","rechts","24","","fixation","","","",""
"546","img/0_300.png","70","image-keyboard-response","181","620373","0.0-6.0-1.87","LIGR","4","f","rechts","24","","","self","f","0","true"
"null","<div style=""font-size:60px;"">+</div>","null","html-keyboard-response","182","620674","0.0-6.0-0.88","LIGR","4","f","rechts","24","","fixation","","","",""
"634","img/150_240.png","74","image-keyboard-response","183","621308","0.0-6.0-1.88","LIGR","4","f","rechts","24","","","self","j","150","true"
"null","<div style=""font-size:60px;"">+</div>","null","html-keyboard-response","184","621660","0.0-6.0-0.89","LIGR","4","f","rechts","24","","fixation","","","",""
"682","img/60_210.png","74","image-keyboard-response","185","622343","0.0-6.0-1.89","LIGR","4","f","rechts","24","","","self","j","60","true"
"null","<div style=""font-size:60px;"">+</div>","null","html-keyboard-response","186","622795","0.0-6.0-0.90","LIGR","4","f","rechts","24","","fixation","","","",""
"544","img/90_150.png","70","image-keyboard-response","187","623340","0.0-6.0-1.90","LIGR","4","f","rechts","24","","","self","f","90","true"
"null","<div style=""font-size:60px;"">+</div>","null","html-keyboard-response","188","623792","0.0-6.0-0.91","LIGR","4","f","rechts","24","","fixation","","","",""
"570","img/0_60.png","74","image-keyboard-response","189","624363","0.0-6.0-1.91","LIGR","4","f","rechts","24","","","self","j","0","true"
"null","<div style=""font-size:60px;"">+</div>","null","html-keyboard-response","190","624765","0.0-6.0-0.92","LIGR","4","f","rechts","24","","fixation","","","",""
"508","img/L30_180.png","70","image-keyboard-response","191","625274","0.0-6.0-1.92","LIGR","4","f","rechts","24","","","self","f","30","true"
"null","<div style=""font-size:60px;"">+</div>","null","html-keyboard-response","192","625626","0.0-6.0-0.93","LIGR","4","f","rechts","24","","fixation","","","",""
"556","img/150_120.png","70","image-keyboard-response","193","626183","0.0-6.0-1.93","LIGR","4","f","rechts","24","","","self","f","150","true"
"null","<div style=""font-size:60px;"">+</div>","null","html-keyboard-response","194","626485","0.0-6.0-0.94","LIGR","4","f","rechts","24","","fixation","","","",""
"825","img/90_330.png","70","image-keyboard-response","195","627311","0.0-6.0-1.94","LIGR","4","f","rechts","24","","","self","f","90","true"
"null","<div style=""font-size:60px;"">+</div>","null","html-keyboard-response","196","627663","0.0-6.0-0.95","LIGR","4","f","rechts","24","","fixation","","","",""
"648","img/30_60.png","74","image-keyboard-response","197","628312","0.0-6.0-1.95","LIGR","4","f","rechts","24","","","self","j","30","true"
"null","<div style=""font-size:60px;"">+</div>","null","html-keyboard-response","198","628613","0.0-6.0-0.96","LIGR","4","f","rechts","24","","fixation","","","",""
"509","img/L90_180.png","70","image-keyboard-response","199","629123","0.0-6.0-1.96","LIGR","4","f","rechts","24","","","self","f","90","true"
"null","<div style=""font-size:60px;"">+</div>","null","html-keyboard-response","200","629424","0.0-6.0-0.97","LIGR","4","f","rechts","24","","fixation","","","",""
"588","img/0_210.png","70","image-keyboard-response","201","630013","0.0-6.0-1.97","LIGR","4","f","rechts","24","","","self","f","0","true"
"null","<div style=""font-size:60px;"">+</div>","null","html-keyboard-response","202","630315","0.0-6.0-0.98","LIGR","4","f","rechts","24","","fixation","","","",""
"578","img/0_120.png","74","image-keyboard-response","203","630893","0.0-6.0-1.98","LIGR","4","f","rechts","24","","","self","j","0","true"
"null","<div style=""font-size:60px;"">+</div>","null","html-keyboard-response","204","631346","0.0-6.0-0.99","LIGR","4","f","rechts","24","","fixation","","","",""
"660","img/150_60.png","70","image-keyboard-response","205","632006","0.0-6.0-1.99","LIGR","4","f","rechts","24","","","self","f","150","true"
"null","<div style=""font-size:60px;"">+</div>","null","html-keyboard-response","206","632308","0.0-6.0-0.100","LIGR","4","f","rechts","24","","fixation","","","",""
"711","img/60_330.png","70","image-keyboard-response","207","633020","0.0-6.0-1.100","LIGR","4","f","rechts","24","","","self","f","60","true"
"null","<div style=""font-size:60px;"">+</div>","null","html-keyboard-response","208","633322","0.0-6.0-0.101","LIGR","4","f","rechts","24","","fixation","","","",""
"769","img/120_330.png","70","image-keyboard-response","209","634091","0.0-6.0-1.101","LIGR","4","f","rechts","24","","","self","f","120","true"
"null","<div style=""font-size:60px;"">+</div>","null","html-keyboard-response","210","634493","0.0-6.0-0.102","LIGR","4","f","rechts","24","","fixation","","","",""
"726","img/90_300.png","70","image-keyboard-response","211","635220","0.0-6.0-1.102","LIGR","4","f","rechts","24","","","self","f","90","true"
"null","<div style=""font-size:60px;"">+</div>","null","html-keyboard-response","212","635572","0.0-6.0-0.103","LIGR","4","f","rechts","24","","fixation","","","",""
"978","img/30_240.png","70","image-keyboard-response","213","636550","0.0-6.0-1.103","LIGR","4","f","rechts","24","","","self","f","30","true"
"null","<div style=""font-size:60px;"">+</div>","null","html-keyboard-response","214","637001","0.0-6.0-0.104","LIGR","4","f","rechts","24","","fixation","","","",""
"762","img/150_120.png","70","image-keyboard-response","215","637764","0.0-6.0-1.104","LIGR","4","f","rechts","24","","","self","f","150","true"
"null","<div style=""font-size:60px;"">+</div>","null","html-keyboard-response","216","638265","0.0-6.0-0.105","LIGR","4","f","rechts","24","","fixation","","","",""
"1066","img/60_330.png","70","image-keyboard-response","217","639333","0.0-6.0-1.105","LIGR","4","f","rechts","24","","","self","f","60","true"
"null","<div style=""font-size:60px;"">+</div>","null","html-keyboard-response","218","639734","0.0-6.0-0.106","LIGR","4","f","rechts","24","","fixation","","","",""
"965","img/120_150.png","70","image-keyboard-response","219","640699","0.0-6.0-1.106","LIGR","4","f","rechts","24","","","self","f","120","true"
"null","<div style=""font-size:60px;"">+</div>","null","html-keyboard-response","220","641051","0.0-6.0-0.107","LIGR","4","f","rechts","24","","fixation","","","",""
"729","img/L30_180.png","70","image-keyboard-response","221","641780","0.0-6.0-1.107","LIGR","4","f","rechts","24","","","self","f","30","true"
"null","<div style=""font-size:60px;"">+</div>","null","html-keyboard-response","222","642082","0.0-6.0-0.108","LIGR","4","f","rechts","24","","fixation","","","",""
"1349","img/120_30.png","74","image-keyboard-response","223","643433","0.0-6.0-1.108","LIGR","4","f","rechts","24","","","self","j","120","true"
"null","<div style=""font-size:60px;"">+</div>","null","html-keyboard-response","224","643834","0.0-6.0-0.109","LIGR","4","f","rechts","24","","fixation","","","",""
"796","img/L120_180.png","70","image-keyboard-response","225","644631","0.0-6.0-1.109","LIGR","4","f","rechts","24","","","self","f","120","true"
"null","<div style=""font-size:60px;"">+</div>","null","html-keyboard-response","226","644983","0.0-6.0-0.110","LIGR","4","f","rechts","24","","fixation","","","",""
"688","img/90_330.png","70","image-keyboard-response","227","645671","0.0-6.0-1.110","LIGR","4","f","rechts","24","","","self","f","90","true"
"null","<div style=""font-size:60px;"">+</div>","null","html-keyboard-response","228","646073","0.0-6.0-0.111","LIGR","4","f","rechts","24","","fixation","","","",""
"652","img/30_90.png","74","image-keyboard-response","229","646725","0.0-6.0-1.111","LIGR","4","f","rechts","24","","","self","j","30","true"
"null","<div style=""font-size:60px;"">+</div>","null","html-keyboard-response","230","647227","0.0-6.0-0.112","LIGR","4","f","rechts","24","","fixation","","","",""
"677","img/150_300.png","74","image-keyboard-response","231","647904","0.0-6.0-1.112","LIGR","4","f","rechts","24","","","self","j","150","true"
"null","<div style=""font-size:60px;"">+</div>","null","html-keyboard-response","232","648306","0.0-6.0-0.113","LIGR","4","f","rechts","24","","fixation","","","",""
"951","img/30_300.png","70","image-keyboard-response","233","649257","0.0-6.0-1.113","LIGR","4","f","rechts","24","","","self","f","30","true"
"null","<div style=""font-size:60px;"">+</div>","null","html-keyboard-response","234","649558","0.0-6.0-0.114","LIGR","4","f","rechts","24","","fixation","","","",""
"604","img/0_240.png","70","image-keyboard-response","235","650164","0.0-6.0-1.114","LIGR","4","f","rechts","24","","","self","f","0","true"
"null","<div style=""font-size:60px;"">+</div>","null","html-keyboard-response","236","650615","0.0-6.0-0.115","LIGR","4","f","rechts","24","","fixation","","","",""
"563","img/0_330.png","70","image-keyboard-response","237","651179","0.0-6.0-1.115","LIGR","4","f","rechts","24","","","self","f","0","true"
"null","<div style=""font-size:60px;"">+</div>","null","html-keyboard-response","238","651580","0.0-6.0-0.116","LIGR","4","f","rechts","24","","fixation","","","",""
"596","img/90_210.png","74","image-keyboard-response","239","652178","0.0-6.0-1.116","LIGR","4","f","rechts","24","","","self","j","90","true"
"null","<div style=""font-size:60px;"">+</div>","null","html-keyboard-response","240","652629","0.0-6.0-0.117","LIGR","4","f","rechts","24","","fixation","","","",""
"590","img/0_90.png","74","image-keyboard-response","241","653220","0.0-6.0-1.117","LIGR","4","f","rechts","24","","","self","j","0","true"
"null","<div style=""font-size:60px;"">+</div>","null","html-keyboard-response","242","653571","0.0-6.0-0.118","LIGR","4","f","rechts","24","","fixation","","","",""
"565","img/60_210.png","74","image-keyboard-response","243","654137","0.0-6.0-1.118","LIGR","4","f","rechts","24","","","self","j","60","true"
"null","<div style=""font-size:60px;"">+</div>","null","html-keyboard-response","244","654539","0.0-6.0-0.119","LIGR","4","f","rechts","24","","fixation","","","",""
"574","img/0_60.png","74","image-keyboard-response","245","655114","0.0-6.0-1.119","LIGR","4","f","rechts","24","","","self","j","0","true"
"null","<div style=""font-size:60px;"">+</div>","null","html-keyboard-response","246","655615","0.0-6.0-0.120","LIGR","4","f","rechts","24","","fixation","","","",""
"730","img/30_60.png","74","image-keyboard-response","247","656347","0.0-6.0-1.120","LIGR","4","f","rechts","24","","","self","j","30","true"
"null","<div style=""font-size:60px;"">+</div>","null","html-keyboard-response","248","656648","0.0-6.0-0.121","LIGR","4","f","rechts","24","","fixation","","","",""
"869","img/90_300.png","70","image-keyboard-response","249","657518","0.0-6.0-1.121","LIGR","4","f","rechts","24","","","self","f","90","true"
"null","<div style=""font-size:60px;"">+</div>","null","html-keyboard-response","250","657820","0.0-6.0-0.122","LIGR","4","f","rechts","24","","fixation","","","",""
"699","img/120_90.png","70","image-keyboard-response","251","658521","0.0-6.0-1.122","LIGR","4","f","rechts","24","","","self","f","120","true"
"null","<div style=""font-size:60px;"">+</div>","null","html-keyboard-response","252","658822","0.0-6.0-0.123","LIGR","4","f","rechts","24","","fixation","","","",""
"647","img/L60_180.png","70","image-keyboard-response","253","659471","0.0-6.0-1.123","LIGR","4","f","rechts","24","","","self","f","60","true"
"null","<div style=""font-size:60px;"">+</div>","null","html-keyboard-response","254","659871","0.0-6.0-0.124","LIGR","4","f","rechts","24","","fixation","","","",""
"757","img/120_270.png","74","image-keyboard-response","255","660630","0.0-6.0-1.124","LIGR","4","f","rechts","24","","","self","j","120","true"
"null","<div style=""font-size:60px;"">+</div>","null","html-keyboard-response","256","661030","0.0-6.0-0.125","LIGR","4","f","rechts","24","","fixation","","","",""
"639","img/150_90.png","70","image-keyboard-response","257","661671","0.0-6.0-1.125","LIGR","4","f","rechts","24","","","self","f","150","true"
"null","<div style=""font-size:60px;"">+</div>","null","html-keyboard-response","258","662172","0.0-6.0-0.126","LIGR","4","f","rechts","24","","fixation","","","",""
"582","img/90_150.png","70","image-keyboard-response","259","662755","0.0-6.0-1.126","LIGR","4","f","rechts","24","","","self","f","90","true"
"null","<div style=""font-size:60px;"">+</div>","null","html-keyboard-response","260","663207","0.0-6.0-0.127","LIGR","4","f","rechts","24","","fixation","","","",""
"769","img/90_60.png","74","image-keyboard-response","261","663977","0.0-6.0-1.127","LIGR","4","f","rechts","24","","","self","j","90","true"
"null","<div style=""font-size:60px;"">+</div>","null","html-keyboard-response","262","664279","0.0-6.0-0.128","LIGR","4","f","rechts","24","","fixation","","","",""
"660","img/150_180.png","74","image-keyboard-response","263","664941","0.0-6.0-1.128","LIGR","4","f","rechts","24","","","self","j","150","true"
"null","<div style=""font-size:60px;"">+</div>","null","html-keyboard-response","264","665392","0.0-6.0-0.129","LIGR","4","f","rechts","24","","fixation","","","",""
"610","img/0_300.png","70","image-keyboard-response","265","666003","0.0-6.0-1.129","LIGR","4","f","rechts","24","","","self","f","0","true"
"null","<div style=""font-size:60px;"">+</div>","null","html-keyboard-response","266","666505","0.0-6.0-0.130","LIGR","4","f","rechts","24","","fixation","","","",""
"553","img/L90_180.png","70","image-keyboard-response","267","667060","0.0-6.0-1.130","LIGR","4","f","rechts","24","","","self","f","90","true"
"null","<div style=""font-size:60px;"">+</div>","null","html-keyboard-response","268","667461","0.0-6.0-0.131","LIGR","4","f","rechts","24","","fixation","","","",""
"883","img/150_60.png","70","image-keyboard-response","269","668345","0.0-6.0-1.131","LIGR","4","f","rechts","24","","","self","f","150","true"
"null","<div style=""font-size:60px;"">+</div>","null","html-keyboard-response","270","668847","0.0-6.0-0.132","LIGR","4","f","rechts","24","","fixation","","","",""
"595","img/90_180.png","74","image-keyboard-response","271","669444","0.0-6.0-1.132","LIGR","4","f","rechts","24","","","self","j","90","true"
"null","<div style=""font-size:60px;"">+</div>","null","html-keyboard-response","272","669895","0.0-6.0-0.133","LIGR","4","f","rechts","24","","fixation","","","",""
"635","img/120_210.png","74","image-keyboard-response","273","670531","0.0-6.0-1.133","LIGR","4","f","rechts","24","","","self","j","120","true"
"null","<div style=""font-size:60px;"">+</div>","null","html-keyboard-response","274","670983","0.0-6.0-0.134","LIGR","4","f","rechts","24","","fixation","","","",""
"630","img/30_180.png","74","image-keyboard-response","275","671614","0.0-6.0-1.134","LIGR","4","f","rechts","24","","","self","j","30","true"
"null","<div style=""font-size:60px;"">+</div>","null","html-keyboard-response","276","672016","0.0-6.0-0.135","LIGR","4","f","rechts","24","","fixation","","","",""
"810","img/30_240.png","70","image-keyboard-response","277","672826","0.0-6.0-1.135","LIGR","4","f","rechts","24","","","self","f","30","true"
"null","<div style=""font-size:60px;"">+</div>","null","html-keyboard-response","278","673227","0.0-6.0-0.136","LIGR","4","f","rechts","24","","fixation","","","",""
"736","img/30_120.png","74","image-keyboard-response","279","673964","0.0-6.0-1.136","LIGR","4","f","rechts","24","","","self","j","30","true"
"null","<div style=""font-size:60px;"">+</div>","null","html-keyboard-response","280","674466","0.0-6.0-0.137","LIGR","4","f","rechts","24","","fixation","","","",""
"685","img/60_270.png","70","image-keyboard-response","281","675151","0.0-6.0-1.137","LIGR","4","f","rechts","24","","","self","f","60","true"
"null","<div style=""font-size:60px;"">+</div>","null","html-keyboard-response","282","675553","0.0-6.0-0.138","LIGR","4","f","rechts","24","","fixation","","","",""
"648","img/90_30.png","74","image-keyboard-response","283","676202","0.0-6.0-1.138","LIGR","4","f","rechts","24","","","self","j","90","true"
"null","<div style=""font-size:60px;"">+</div>","null","html-keyboard-response","284","676504","0.0-6.0-0.139","LIGR","4","f","rechts","24","","fixation","","","",""
"689","img/60_180.png","74","image-keyboard-response","285","677194","0.0-6.0-1.139","LIGR","4","f","rechts","24","","","self","j","60","true"
"null","<div style=""font-size:60px;"">+</div>","null","html-keyboard-response","286","677696","0.0-6.0-0.140","LIGR","4","f","rechts","24","","fixation","","","",""
"707","img/120_180.png","74","image-keyboard-response","287","678404","0.0-6.0-1.140","LIGR","4","f","rechts","24","","","self","j","120","true"
"null","<div style=""font-size:60px;"">+</div>","null","html-keyboard-response","288","678806","0.0-6.0-0.141","LIGR","4","f","rechts","24","","fixation","","","",""
"693","img/60_90.png","74","image-keyboard-response","289","679500","0.0-6.0-1.141","LIGR","4","f","rechts","24","","","self","j","60","true"
"null","<div style=""font-size:60px;"">+</div>","null","html-keyboard-response","290","680001","0.0-6.0-0.142","LIGR","4","f","rechts","24","","fixation","","","",""
"582","img/0_120.png","74","image-keyboard-response","291","680584","0.0-6.0-1.142","LIGR","4","f","rechts","24","","","self","j","0","true"
"null","<div style=""font-size:60px;"">+</div>","null","html-keyboard-response","292","680985","0.0-6.0-0.143","LIGR","4","f","rechts","24","","fixation","","","",""
"783","img/150_270.png","74","image-keyboard-response","293","681769","0.0-6.0-1.143","LIGR","4","f","rechts","24","","","self","j","150","true"
"null","<div style=""font-size:60px;"">+</div>","null","html-keyboard-response","294","682121","0.0-6.0-0.144","LIGR","4","f","rechts","24","","fixation","","","",""
"654","img/0_150.png","74","image-keyboard-response","295","682776","0.0-6.0-1.144","LIGR","4","f","rechts","24","","","self","j","0","true"
"null","<div style=""font-size:60px;"">+</div>","null","html-keyboard-response","296","683128","0.0-6.0-0.145","LIGR","4","f","rechts","24","","fixation","","","",""
"731","img/30_270.png","70","image-keyboard-response","297","683859","0.0-6.0-1.145","LIGR","4","f","rechts","24","","","self","f","30","true"
"null","<div style=""font-size:60px;"">+</div>","null","html-keyboard-response","298","684311","0.0-6.0-0.146","LIGR","4","f","rechts","24","","fixation","","","",""
"634","img/90_120.png","70","image-keyboard-response","299","684945","0.0-6.0-1.146","LIGR","4","f","rechts","24","","","self","f","90","true"
"null","<div style=""font-size:60px;"">+</div>","null","html-keyboard-response","300","685247","0.0-6.0-0.147","LIGR","4","f","rechts","24","","fixation","","","",""
"636","img/0_210.png","70","image-keyboard-response","301","685883","0.0-6.0-1.147","LIGR","4","f","rechts","24","","","self","f","0","true"
"null","<div style=""font-size:60px;"">+</div>","null","html-keyboard-response","302","686335","0.0-6.0-0.148","LIGR","4","f","rechts","24","","fixation","","","",""
"656","img/90_240.png","74","image-keyboard-response","303","686991","0.0-6.0-1.148","LIGR","4","f","rechts","24","","","self","j","90","true"
"null","<div style=""font-size:60px;"">+</div>","null","html-keyboard-response","304","687443","0.0-6.0-0.149","LIGR","4","f","rechts","24","","fixation","","","",""
"524","img/0_270.png","70","image-keyboard-response","305","687967","0.0-6.0-1.149","LIGR","4","f","rechts","24","","","self","f","0","true"
"null","<div style=""font-size:60px;"">+</div>","null","html-keyboard-response","306","688269","0.0-6.0-0.150","LIGR","4","f","rechts","24","","fixation","","","",""
"750","img/150_240.png","74","image-keyboard-response","307","689019","0.0-6.0-1.150","LIGR","4","f","rechts","24","","","self","j","150","true"
"null","<div style=""font-size:60px;"">+</div>","null","html-keyboard-response","308","689321","0.0-6.0-0.151","LIGR","4","f","rechts","24","","fixation","","","",""
"679","img/60_30.png","74","image-keyboard-response","309","690000","0.0-6.0-1.151","LIGR","4","f","rechts","24","","","self","j","60","true"
"null","<div style=""font-size:60px;"">+</div>","null","html-keyboard-response","310","690302","0.0-6.0-0.152","LIGR","4","f","rechts","24","","fixation","","","",""
"549","img/0_30.png","74","image-keyboard-response","311","690852","0.0-6.0-1.152","LIGR","4","f","rechts","24","","","self","j","0","true"
"null","<div style=""font-size:60px;"">+</div>","null","html-keyboard-response","312","691204","0.0-6.0-0.153","LIGR","4","f","rechts","24","","fixation","","","",""
"725","img/120_330.png","70","image-keyboard-response","313","691930","0.0-6.0-1.153","LIGR","4","f","rechts","24","","","self","f","120","true"
"null","<div style=""font-size:60px;"">+</div>","null","html-keyboard-response","314","692331","0.0-6.0-0.154","LIGR","4","f","rechts","24","","fixation","","","",""
"620","img/60_150.png","70","image-keyboard-response","315","692952","0.0-6.0-1.154","LIGR","4","f","rechts","24","","","self","f","60","true"
"null","<div style=""font-size:60px;"">+</div>","null","html-keyboard-response","316","693254","0.0-6.0-0.155","LIGR","4","f","rechts","24","","fixation","","","",""
"519","img/L150_180.png","70","image-keyboard-response","317","693773","0.0-6.0-1.155","LIGR","4","f","rechts","24","","","self","f","150","true"
"null","<div style=""font-size:60px;"">+</div>","null","html-keyboard-response","318","694224","0.0-6.0-0.156","LIGR","4","f","rechts","24","","fixation","","","",""
"639","img/120_150.png","70","image-keyboard-response","319","694864","0.0-6.0-1.156","LIGR","4","f","rechts","24","","","self","f","120","true"
"null","<div style=""font-size:60px;"">+</div>","null","html-keyboard-response","320","695266","0.0-6.0-0.157","LIGR","4","f","rechts","24","","fixation","","","",""
"610","img/0_150.png","74","image-keyboard-response","321","695876","0.0-6.0-1.157","LIGR","4","f","rechts","24","","","self","j","0","true"
"null","<div style=""font-size:60px;"">+</div>","null","html-keyboard-response","322","696177","0.0-6.0-0.158","LIGR","4","f","rechts","24","","fixation","","","",""
"672","img/60_270.png","70","image-keyboard-response","323","696850","0.0-6.0-1.158","LIGR","4","f","rechts","24","","","self","f","60","true"
"null","<div style=""font-size:60px;"">+</div>","null","html-keyboard-response","324","697151","0.0-6.0-0.159","LIGR","4","f","rechts","24","","fixation","","","",""
"748","img/30_90.png","74","image-keyboard-response","325","697900","0.0-6.0-1.159","LIGR","4","f","rechts","24","","","self","j","30","true"
"null","<div style=""font-size:60px;"">+</div>","null","html-keyboard-response","326","698252","0.0-6.0-0.160","LIGR","4","f","rechts","24","","fixation","","","",""
"567","img/150_120.png","70","image-keyboard-response","327","698820","0.0-6.0-1.160","LIGR","4","f","rechts","24","","","self","f","150","true"
"null","<div style=""font-size:60px;"">+</div>","null","html-keyboard-response","328","699321","0.0-6.0-0.161","LIGR","4","f","rechts","24","","fixation","","","",""
"650","img/90_180.png","74","image-keyboard-response","329","699972","0.0-6.0-1.161","LIGR","4","f","rechts","24","","","self","j","90","true"
"null","<div style=""font-size:60px;"">+</div>","null","html-keyboard-response","330","700474","0.0-6.0-0.162","LIGR","4","f","rechts","24","","fixation","","","",""
"650","img/60_210.png","74","image-keyboard-response","331","701125","0.0-6.0-1.162","LIGR","4","f","rechts","24","","","self","j","60","true"
"null","<div style=""font-size:60px;"">+</div>","null","html-keyboard-response","332","701577","0.0-6.0-0.163","LIGR","4","f","rechts","24","","fixation","","","",""
"903","img/60_330.png","70","image-keyboard-response","333","702482","0.0-6.0-1.163","LIGR","4","f","rechts","24","","","self","f","60","true"
"null","<div style=""font-size:60px;"">+</div>","null","html-keyboard-response","334","702933","0.0-6.0-0.164","LIGR","4","f","rechts","24","","fixation","","","",""
"594","img/0_60.png","74","image-keyboard-response","335","703529","0.0-6.0-1.164","LIGR","4","f","rechts","24","","","self","j","0","true"
"null","<div style=""font-size:60px;"">+</div>","null","html-keyboard-response","336","703880","0.0-6.0-0.165","LIGR","4","f","rechts","24","","fixation","","","",""
"672","img/150_180.png","74","image-keyboard-response","337","704554","0.0-6.0-1.165","LIGR","4","f","rechts","24","","","self","j","150","true"
"null","<div style=""font-size:60px;"">+</div>","null","html-keyboard-response","338","705005","0.0-6.0-0.166","LIGR","4","f","rechts","24","","fixation","","","",""
"613","img/30_240.png","70","image-keyboard-response","339","705619","0.0-6.0-1.166","LIGR","4","f","rechts","24","","","self","f","30","true"
"null","<div style=""font-size:60px;"">+</div>","null","html-keyboard-response","340","706071","0.0-6.0-0.167","LIGR","4","f","rechts","24","","fixation","","","",""
"709","img/90_210.png","74","image-keyboard-response","341","706781","0.0-6.0-1.167","LIGR","4","f","rechts","24","","","self","j","90","true"
"null","<div style=""font-size:60px;"">+</div>","null","html-keyboard-response","342","707283","0.0-6.0-0.168","LIGR","4","f","rechts","24","","fixation","","","",""
"628","img/150_270.png","74","image-keyboard-response","343","707913","0.0-6.0-1.168","LIGR","4","f","rechts","24","","","self","j","150","true"
"null","<div style=""font-size:60px;"">+</div>","null","html-keyboard-response","344","708214","0.0-6.0-0.169","LIGR","4","f","rechts","24","","fixation","","","",""
"962","img/120_30.png","74","image-keyboard-response","345","709178","0.0-6.0-1.169","LIGR","4","f","rechts","24","","","self","j","120","true"
"null","<div style=""font-size:60px;"">+</div>","null","html-keyboard-response","346","709679","0.0-6.0-0.170","LIGR","4","f","rechts","24","","fixation","","","",""
"621","img/0_270.png","70","image-keyboard-response","347","710302","0.0-6.0-1.170","LIGR","4","f","rechts","24","","","self","f","0","true"
"null","<div style=""font-size:60px;"">+</div>","null","html-keyboard-response","348","710802","0.0-6.0-0.171","LIGR","4","f","rechts","24","","fixation","","","",""
"693","img/90_150.png","70","image-keyboard-response","349","711497","0.0-6.0-1.171","LIGR","4","f","rechts","24","","","self","f","90","true"
"null","<div style=""font-size:60px;"">+</div>","null","html-keyboard-response","350","711848","0.0-6.0-0.172","LIGR","4","f","rechts","24","","fixation","","","",""
"687","img/60_180.png","74","image-keyboard-response","351","712536","0.0-6.0-1.172","LIGR","4","f","rechts","24","","","self","j","60","true"
"null","<div style=""font-size:60px;"">+</div>","null","html-keyboard-response","352","712888","0.0-6.0-0.173","LIGR","4","f","rechts","24","","fixation","","","",""
"646","img/120_210.png","74","image-keyboard-response","353","713534","0.0-6.0-1.173","LIGR","4","f","rechts","24","","","self","j","120","true"
"null","<div style=""font-size:60px;"">+</div>","null","html-keyboard-response","354","713986","0.0-6.0-0.174","LIGR","4","f","rechts","24","","fixation","","","",""
"726","img/90_30.png","74","image-keyboard-response","355","714713","0.0-6.0-1.174","LIGR","4","f","rechts","24","","","self","j","90","true"
"null","<div style=""font-size:60px;"">+</div>","null","html-keyboard-response","356","715165","0.0-6.0-0.175","LIGR","4","f","rechts","24","","fixation","","","",""
"569","img/L60_180.png","70","image-keyboard-response","357","715735","0.0-6.0-1.175","LIGR","4","f","rechts","24","","","self","f","60","true"
"null","<div style=""font-size:60px;"">+</div>","null","html-keyboard-response","358","716086","0.0-6.0-0.176","LIGR","4","f","rechts","24","","fixation","","","",""
"620","img/60_150.png","70","image-keyboard-response","359","716707","0.0-6.0-1.176","LIGR","4","f","rechts","24","","","self","f","60","true"
"null","<div style=""font-size:60px;"">+</div>","null","html-keyboard-response","360","717109","0.0-6.0-0.177","LIGR","4","f","rechts","24","","fixation","","","",""
"609","img/150_240.png","74","image-keyboard-response","361","717719","0.0-6.0-1.177","LIGR","4","f","rechts","24","","","self","j","150","true"
"null","<div style=""font-size:60px;"">+</div>","null","html-keyboard-response","362","718221","0.0-6.0-0.178","LIGR","4","f","rechts","24","","fixation","","","",""
"588","img/L150_180.png","70","image-keyboard-response","363","718810","0.0-6.0-1.178","LIGR","4","f","rechts","24","","","self","f","150","true"
"null","<div style=""font-size:60px;"">+</div>","null","html-keyboard-response","364","719312","0.0-6.0-0.179","LIGR","4","f","rechts","24","","fixation","","","",""
"682","img/L120_180.png","70","image-keyboard-response","365","719995","0.0-6.0-1.179","LIGR","4","f","rechts","24","","","self","f","120","true"
"null","<div style=""font-size:60px;"">+</div>","null","html-keyboard-response","366","720447","0.0-6.0-0.180","LIGR","4","f","rechts","24","","fixation","","","",""
"618","img/60_90.png","74","image-keyboard-response","367","721066","0.0-6.0-1.180","LIGR","4","f","rechts","24","","","self","j","60","true"
"null","<div style=""font-size:60px;"">+</div>","null","html-keyboard-response","368","721568","0.0-6.0-0.181","LIGR","4","f","rechts","24","","fixation","","","",""
"634","img/0_240.png","70","image-keyboard-response","369","722203","0.0-6.0-1.181","LIGR","4","f","rechts","24","","","self","f","0","true"
"null","<div style=""font-size:60px;"">+</div>","null","html-keyboard-response","370","722555","0.0-6.0-0.182","LIGR","4","f","rechts","24","","fixation","","","",""
"923","img/150_60.png","70","image-keyboard-response","371","723479","0.0-6.0-1.182","LIGR","4","f","rechts","24","","","self","f","150","true"
"null","<div style=""font-size:60px;"">+</div>","null","html-keyboard-response","372","723931","0.0-6.0-0.183","LIGR","4","f","rechts","24","","fixation","","","",""
"884","img/150_300.png","74","image-keyboard-response","373","724816","0.0-6.0-1.183","LIGR","4","f","rechts","24","","","self","j","150","true"
"null","<div style=""font-size:60px;"">+</div>","null","html-keyboard-response","374","725268","0.0-6.0-0.184","LIGR","4","f","rechts","24","","fixation","","","",""
"600","img/0_30.png","74","image-keyboard-response","375","725869","0.0-6.0-1.184","LIGR","4","f","rechts","24","","","self","j","0","true"
"null","<div style=""font-size:60px;"">+</div>","null","html-keyboard-response","376","726221","0.0-6.0-0.185","LIGR","4","f","rechts","24","","fixation","","","",""
"602","img/60_30.png","74","image-keyboard-response","377","726824","0.0-6.0-1.185","LIGR","4","f","rechts","24","","","self","j","60","true"
"null","<div style=""font-size:60px;"">+</div>","null","html-keyboard-response","378","727226","0.0-6.0-0.186","LIGR","4","f","rechts","24","","fixation","","","",""
"556","img/0_90.png","74","image-keyboard-response","379","727783","0.0-6.0-1.186","LIGR","4","f","rechts","24","","","self","j","0","true"
"null","<div style=""font-size:60px;"">+</div>","null","html-keyboard-response","380","728185","0.0-6.0-0.187","LIGR","4","f","rechts","24","","fixation","","","",""
"548","img/0_300.png","70","image-keyboard-response","381","728734","0.0-6.0-1.187","LIGR","4","f","rechts","24","","","self","f","0","true"
"null","<div style=""font-size:60px;"">+</div>","null","html-keyboard-response","382","729136","0.0-6.0-0.188","LIGR","4","f","rechts","24","","fixation","","","",""
"726","img/L30_180.png","70","image-keyboard-response","383","729862","0.0-6.0-1.188","LIGR","4","f","rechts","24","","","self","f","30","true"
"null","<div style=""font-size:60px;"">+</div>","null","html-keyboard-response","384","730364","0.0-6.0-0.189","LIGR","4","f","rechts","24","","fixation","","","",""
"709","img/120_270.png","74","image-keyboard-response","385","731074","0.0-6.0-1.189","LIGR","4","f","rechts","24","","","self","j","120","true"
"null","<div style=""font-size:60px;"">+</div>","null","html-keyboard-response","386","731576","0.0-6.0-0.190","LIGR","4","f","rechts","24","","fixation","","","",""
"558","img/0_330.png","70","image-keyboard-response","387","732134","0.0-6.0-1.190","LIGR","4","f","rechts","24","","","self","f","0","true"
"null","<div style=""font-size:60px;"">+</div>","null","html-keyboard-response","388","732636","0.0-6.0-0.191","LIGR","4","f","rechts","24","","fixation","","","",""
"701","img/90_300.png","70","image-keyboard-response","389","733338","0.0-6.0-1.191","LIGR","4","f","rechts","24","","","self","f","90","true"
"null","<div style=""font-size:60px;"">+</div>","null","html-keyboard-response","390","733640","0.0-6.0-0.192","LIGR","4","f","rechts","24","","fixation","","","",""
"776","img/120_330.png","70","image-keyboard-response","391","734416","0.0-6.0-1.192","LIGR","4","f","rechts","24","","","self","f","120","true"
"null","<div style=""font-size:60px;"">+</div>","null","html-keyboard-response","392","734718","0.0-6.0-0.193","LIGR","4","f","rechts","24","","fixation","","","",""
"742","img/90_60.png","74","image-keyboard-response","393","735460","0.0-6.0-1.193","LIGR","4","f","rechts","24","","","self","j","90","true"
"null","<div style=""font-size:60px;"">+</div>","null","html-keyboard-response","394","735812","0.0-6.0-0.194","LIGR","4","f","rechts","24","","fixation","","","",""
"956","img/30_60.png","74","image-keyboard-response","395","736768","0.0-6.0-1.194","LIGR","4","f","rechts","24","","","self","j","30","true"
"null","<div style=""font-size:60px;"">+</div>","null","html-keyboard-response","396","737220","0.0-6.0-0.195","LIGR","4","f","rechts","24","","fixation","","","",""
"680","img/0_120.png","74","image-keyboard-response","397","737900","0.0-6.0-1.195","LIGR","4","f","rechts","24","","","self","j","0","true"
"null","<div style=""font-size:60px;"">+</div>","null","html-keyboard-response","398","738402","0.0-6.0-0.196","LIGR","4","f","rechts","24","","fixation","","","",""
"818","img/120_90.png","70","image-keyboard-response","399","739220","0.0-6.0-1.196","LIGR","4","f","rechts","24","","","self","f","120","true"
"null","<div style=""font-size:60px;"">+</div>","null","html-keyboard-response","400","739620","0.0-6.0-0.197","LIGR","4","f","rechts","24","","fixation","","","",""
"592","img/30_180.png","74","image-keyboard-response","401","740213","0.0-6.0-1.197","LIGR","4","f","rechts","24","","","self","j","30","true"
"null","<div style=""font-size:60px;"">+</div>","null","html-keyboard-response","402","740715","0.0-6.0-0.198","LIGR","4","f","rechts","24","","fixation","","","",""
"675","img/30_120.png","74","image-keyboard-response","403","741390","0.0-6.0-1.198","LIGR","4","f","rechts","24","","","self","j","30","true"
"null","<div style=""font-size:60px;"">+</div>","null","html-keyboard-response","404","741742","0.0-6.0-0.199","LIGR","4","f","rechts","24","","fixation","","","",""
"570","img/90_120.png","70","image-keyboard-response","405","742312","0.0-6.0-1.199","LIGR","4","f","rechts","24","","","self","f","90","true"
"null","<div style=""font-size:60px;"">+</div>","null","html-keyboard-response","406","742664","0.0-6.0-0.200","LIGR","4","f","rechts","24","","fixation","","","",""
"558","img/0_210.png","70","image-keyboard-response","407","743222","0.0-6.0-1.200","LIGR","4","f","rechts","24","","","self","f","0","true"
"null","<div style=""font-size:60px;"">+</div>","null","html-keyboard-response","408","743624","0.0-6.0-0.201","LIGR","4","f","rechts","24","","fixation","","","",""
"541","img/120_180.png","74","image-keyboard-response","409","744166","0.0-6.0-1.201","LIGR","4","f","rechts","24","","","self","j","120","true"
"null","<div style=""font-size:60px;"">+</div>","null","html-keyboard-response","410","744517","0.0-6.0-0.202","LIGR","4","f","rechts","24","","fixation","","","",""
"597","img/L90_180.png","70","image-keyboard-response","411","745115","0.0-6.0-1.202","LIGR","4","f","rechts","24","","","self","f","90","true"
"null","<div style=""font-size:60px;"">+</div>","null","html-keyboard-response","412","745567","0.0-6.0-0.203","LIGR","4","f","rechts","24","","fixation","","","",""
"780","img/90_240.png","74","image-keyboard-response","413","746347","0.0-6.0-1.203","LIGR","4","f","rechts","24","","","self","j","90","true"
"null","<div style=""font-size:60px;"">+</div>","null","html-keyboard-response","414","746699","0.0-6.0-0.204","LIGR","4","f","rechts","24","","fixation","","","",""
"890","img/90_330.png","70","image-keyboard-response","415","747589","0.0-6.0-1.204","LIGR","4","f","rechts","24","","","self","f","90","true"
"null","<div style=""font-size:60px;"">+</div>","null","html-keyboard-response","416","747941","0.0-6.0-0.205","LIGR","4","f","rechts","24","","fixation","","","",""
"873","img/30_270.png","70","image-keyboard-response","417","748815","0.0-6.0-1.205","LIGR","4","f","rechts","24","","","self","f","30","true"
"null","<div style=""font-size:60px;"">+</div>","null","html-keyboard-response","418","749316","0.0-6.0-0.206","LIGR","4","f","rechts","24","","fixation","","","",""
"823","img/150_90.png","70","image-keyboard-response","419","750141","0.0-6.0-1.206","LIGR","4","f","rechts","24","","","self","f","150","true"
"null","<div style=""font-size:60px;"">+</div>","null","html-keyboard-response","420","750592","0.0-6.0-0.207","LIGR","4","f","rechts","24","","fixation","","","",""
"684","img/30_300.png","70","image-keyboard-response","421","751277","0.0-6.0-1.207","LIGR","4","f","rechts","24","","","self","f","30","true"
"7335","<p>Du hast in 97% der Versuche korrekt entschieden.</p><p>Deine durchschnittliche Reaktionszeit war  689ms.</p><p>Dr&uuml;cke eine beliebige Taste, um die Session zu beenden. Vielen Dank!</p>","75","html-keyboard-response","422","758614","0.0-7.0","LIGR","4","f","rechts","24","","","","","",""
