"rt","stimulus","key_press","trial_type","trial_index","time_elapsed","internal_node_id","subject","session","sex","handedness","age","responses","test_part","condition","correct_response","angle","correct"
"3363","<p>Mental Rotation Experiment.</p> <p>Dr&uuml;cke eine beliebige Taste, um anzufangen.</p>","70","html-keyboard-response","0","3367","0.0-0.0","LIGR","3","f","rechts","24","","","","","",""
"2866","","","survey-text","1","6235","0.0-1.0","LIGR","3","f","rechts","24","{""Q0"":""LIGR""}","","","","",""
"1594","","","survey-text","2","7830","0.0-2.0","LIGR","3","f","rechts","24","{""Q0"":""3""}","","","","",""
"2974","","","survey-multi-choice","3","10805","0.0-3.0","LIGR","3","f","rechts","24","{""Q0"":""f"",""Q1"":""rechts""}","","","","",""
"2404","","","survey-text","4","13210","0.0-4.0","LIGR","3","f","rechts","24","{""Q0"":""24""}","","","","",""
"112853","<p> Stell dir vor, dass du vor einem runden Tisch stehst, auf dem sich ein blauer Ball am Tischrand befindet. Entlang des Tischrands ist jeweils ein verschieden langer Pfeil. Nun bewegst du dich entlang dieses Pfeils bis an seine Spitze. Wenn du am Ende des Pfeils angekommen bist, schau zur Tischmitte. </p> <img src='img/90_180.png'></img> <br> <p>Entscheide dann, ob der Ball von deiner neuen (vorgestellten) Position links oder rechts von dir liegt.</p> <p>Dr&uuml;cke die <strong>'f'</strong>-Taste f&uuml;r links, die <strong>'j'</strong>-Taste f&uuml;r rechts.</p> <br><p> Das Bild wird jeweils 1 Sekunde lang pr&auml;sentiert. Du hast 3 Sekunden Zeit eine Entscheidung zu treffen.</p>","32","html-keyboard-response","5","126065","0.0-5.0","LIGR","3","f","rechts","24","","","","","",""
"null","<div style=""font-size:60px;"">+</div>","null","html-keyboard-response","6","127570","0.0-6.0-0.0","LIGR","3","f","rechts","24","","fixation","","","",""
"814","img/L90_180.png","70","image-keyboard-response","7","128386","0.0-6.0-1.0","LIGR","3","f","rechts","24","","","self","f","90","true"
"null","<div style=""font-size:60px;"">+</div>","null","html-keyboard-response","8","128888","0.0-6.0-0.1","LIGR","3","f","rechts","24","","fixation","","","",""
"1525","img/30_60.png","74","image-keyboard-response","9","130414","0.0-6.0-1.1","LIGR","3","f","rechts","24","","","self","j","30","true"
"null","<div style=""font-size:60px;"">+</div>","null","html-keyboard-response","10","130816","0.0-6.0-0.2","LIGR","3","f","rechts","24","","fixation","","","",""
"777","img/150_90.png","70","image-keyboard-response","11","131595","0.0-6.0-1.2","LIGR","3","f","rechts","24","","","self","f","150","true"
"null","<div style=""font-size:60px;"">+</div>","null","html-keyboard-response","12","132097","0.0-6.0-0.3","LIGR","3","f","rechts","24","","fixation","","","",""
"763","img/150_240.png","74","image-keyboard-response","13","132860","0.0-6.0-1.3","LIGR","3","f","rechts","24","","","self","j","150","true"
"null","<div style=""font-size:60px;"">+</div>","null","html-keyboard-response","14","133362","0.0-6.0-0.4","LIGR","3","f","rechts","24","","fixation","","","",""
"780","img/120_270.png","74","image-keyboard-response","15","134143","0.0-6.0-1.4","LIGR","3","f","rechts","24","","","self","j","120","true"
"null","<div style=""font-size:60px;"">+</div>","null","html-keyboard-response","16","134645","0.0-6.0-0.5","LIGR","3","f","rechts","24","","fixation","","","",""
"661","img/0_90.png","74","image-keyboard-response","17","135307","0.0-6.0-1.5","LIGR","3","f","rechts","24","","","self","j","0","true"
"null","<div style=""font-size:60px;"">+</div>","null","html-keyboard-response","18","135608","0.0-6.0-0.6","LIGR","3","f","rechts","24","","fixation","","","",""
"655","img/0_210.png","70","image-keyboard-response","19","136265","0.0-6.0-1.6","LIGR","3","f","rechts","24","","","self","f","0","true"
"null","<div style=""font-size:60px;"">+</div>","null","html-keyboard-response","20","136666","0.0-6.0-0.7","LIGR","3","f","rechts","24","","fixation","","","",""
"561","img/0_240.png","70","image-keyboard-response","21","137228","0.0-6.0-1.7","LIGR","3","f","rechts","24","","","self","f","0","true"
"null","<div style=""font-size:60px;"">+</div>","null","html-keyboard-response","22","137730","0.0-6.0-0.8","LIGR","3","f","rechts","24","","fixation","","","",""
"757","img/30_270.png","70","image-keyboard-response","23","138488","0.0-6.0-1.8","LIGR","3","f","rechts","24","","","self","f","30","true"
"null","<div style=""font-size:60px;"">+</div>","null","html-keyboard-response","24","138890","0.0-6.0-0.9","LIGR","3","f","rechts","24","","fixation","","","",""
"1083","img/60_270.png","70","image-keyboard-response","25","139975","0.0-6.0-1.9","LIGR","3","f","rechts","24","","","self","f","60","true"
"null","<div style=""font-size:60px;"">+</div>","null","html-keyboard-response","26","140327","0.0-6.0-0.10","LIGR","3","f","rechts","24","","fixation","","","",""
"715","img/90_150.png","70","image-keyboard-response","27","141043","0.0-6.0-1.10","LIGR","3","f","rechts","24","","","self","f","90","true"
"null","<div style=""font-size:60px;"">+</div>","null","html-keyboard-response","28","141495","0.0-6.0-0.11","LIGR","3","f","rechts","24","","fixation","","","",""
"658","img/90_120.png","70","image-keyboard-response","29","142154","0.0-6.0-1.11","LIGR","3","f","rechts","24","","","self","f","90","true"
"null","<div style=""font-size:60px;"">+</div>","null","html-keyboard-response","30","142456","0.0-6.0-0.12","LIGR","3","f","rechts","24","","fixation","","","",""
"947","img/90_330.png","70","image-keyboard-response","31","143404","0.0-6.0-1.12","LIGR","3","f","rechts","24","","","self","f","90","true"
"null","<div style=""font-size:60px;"">+</div>","null","html-keyboard-response","32","143756","0.0-6.0-0.13","LIGR","3","f","rechts","24","","fixation","","","",""
"953","img/0_30.png","74","image-keyboard-response","33","144711","0.0-6.0-1.13","LIGR","3","f","rechts","24","","","self","j","0","true"
"null","<div style=""font-size:60px;"">+</div>","null","html-keyboard-response","34","145112","0.0-6.0-0.14","LIGR","3","f","rechts","24","","fixation","","","",""
"824","img/150_300.png","74","image-keyboard-response","35","145937","0.0-6.0-1.14","LIGR","3","f","rechts","24","","","self","j","150","true"
"null","<div style=""font-size:60px;"">+</div>","null","html-keyboard-response","36","146439","0.0-6.0-0.15","LIGR","3","f","rechts","24","","fixation","","","",""
"617","img/150_270.png","74","image-keyboard-response","37","147057","0.0-6.0-1.15","LIGR","3","f","rechts","24","","","self","j","150","true"
"null","<div style=""font-size:60px;"">+</div>","null","html-keyboard-response","38","147359","0.0-6.0-0.16","LIGR","3","f","rechts","24","","fixation","","","",""
"711","img/90_180.png","74","image-keyboard-response","39","148070","0.0-6.0-1.16","LIGR","3","f","rechts","24","","","self","j","90","true"
"null","<div style=""font-size:60px;"">+</div>","null","html-keyboard-response","40","148522","0.0-6.0-0.17","LIGR","3","f","rechts","24","","fixation","","","",""
"815","img/60_150.png","70","image-keyboard-response","41","149338","0.0-6.0-1.17","LIGR","3","f","rechts","24","","","self","f","60","true"
"null","<div style=""font-size:60px;"">+</div>","null","html-keyboard-response","42","149790","0.0-6.0-0.18","LIGR","3","f","rechts","24","","fixation","","","",""
"796","img/0_150.png","74","image-keyboard-response","43","150588","0.0-6.0-1.18","LIGR","3","f","rechts","24","","","self","j","0","true"
"null","<div style=""font-size:60px;"">+</div>","null","html-keyboard-response","44","150889","0.0-6.0-0.19","LIGR","3","f","rechts","24","","fixation","","","",""
"756","img/L60_180.png","70","image-keyboard-response","45","151647","0.0-6.0-1.19","LIGR","3","f","rechts","24","","","self","f","60","true"
"null","<div style=""font-size:60px;"">+</div>","null","html-keyboard-response","46","152148","0.0-6.0-0.20","LIGR","3","f","rechts","24","","fixation","","","",""
"826","img/L30_180.png","70","image-keyboard-response","47","152977","0.0-6.0-1.20","LIGR","3","f","rechts","24","","","self","f","30","true"
"null","<div style=""font-size:60px;"">+</div>","null","html-keyboard-response","48","153478","0.0-6.0-0.21","LIGR","3","f","rechts","24","","fixation","","","",""
"624","img/L120_180.png","70","image-keyboard-response","49","154104","0.0-6.0-1.21","LIGR","3","f","rechts","24","","","self","f","120","true"
"null","<div style=""font-size:60px;"">+</div>","null","html-keyboard-response","50","154606","0.0-6.0-0.22","LIGR","3","f","rechts","24","","fixation","","","",""
"1074","img/150_120.png","70","image-keyboard-response","51","155682","0.0-6.0-1.22","LIGR","3","f","rechts","24","","","self","f","150","true"
"null","<div style=""font-size:60px;"">+</div>","null","html-keyboard-response","52","155983","0.0-6.0-0.23","LIGR","3","f","rechts","24","","fixation","","","",""
"824","img/60_210.png","74","image-keyboard-response","53","156808","0.0-6.0-1.23","LIGR","3","f","rechts","24","","","self","j","60","true"
"null","<div style=""font-size:60px;"">+</div>","null","html-keyboard-response","54","157160","0.0-6.0-0.24","LIGR","3","f","rechts","24","","fixation","","","",""
"891","img/60_30.png","74","image-keyboard-response","55","158052","0.0-6.0-1.24","LIGR","3","f","rechts","24","","","self","j","60","true"
"null","<div style=""font-size:60px;"">+</div>","null","html-keyboard-response","56","158504","0.0-6.0-0.25","LIGR","3","f","rechts","24","","fixation","","","",""
"975","img/90_240.png","74","image-keyboard-response","57","159480","0.0-6.0-1.25","LIGR","3","f","rechts","24","","","self","j","90","true"
"null","<div style=""font-size:60px;"">+</div>","null","html-keyboard-response","58","159932","0.0-6.0-0.26","LIGR","3","f","rechts","24","","fixation","","","",""
"760","img/60_90.png","74","image-keyboard-response","59","160693","0.0-6.0-1.26","LIGR","3","f","rechts","24","","","self","j","60","true"
"null","<div style=""font-size:60px;"">+</div>","null","html-keyboard-response","60","160995","0.0-6.0-0.27","LIGR","3","f","rechts","24","","fixation","","","",""
"1076","img/L150_180.png","70","image-keyboard-response","61","162072","0.0-6.0-1.27","LIGR","3","f","rechts","24","","","self","f","150","true"
"null","<div style=""font-size:60px;"">+</div>","null","html-keyboard-response","62","162524","0.0-6.0-0.28","LIGR","3","f","rechts","24","","fixation","","","",""
"1643","img/30_90.png","74","image-keyboard-response","63","164168","0.0-6.0-1.28","LIGR","3","f","rechts","24","","","self","j","30","true"
"null","<div style=""font-size:60px;"">+</div>","null","html-keyboard-response","64","164620","0.0-6.0-0.29","LIGR","3","f","rechts","24","","fixation","","","",""
"814","img/120_90.png","70","image-keyboard-response","65","165436","0.0-6.0-1.29","LIGR","3","f","rechts","24","","","self","f","120","true"
"null","<div style=""font-size:60px;"">+</div>","null","html-keyboard-response","66","165888","0.0-6.0-0.30","LIGR","3","f","rechts","24","","fixation","","","",""
"1005","img/120_30.png","74","image-keyboard-response","67","166895","0.0-6.0-1.30","LIGR","3","f","rechts","24","","","self","j","120","true"
"null","<div style=""font-size:60px;"">+</div>","null","html-keyboard-response","68","167396","0.0-6.0-0.31","LIGR","3","f","rechts","24","","fixation","","","",""
"1115","img/30_120.png","74","image-keyboard-response","69","168512","0.0-6.0-1.31","LIGR","3","f","rechts","24","","","self","j","30","true"
"null","<div style=""font-size:60px;"">+</div>","null","html-keyboard-response","70","168964","0.0-6.0-0.32","LIGR","3","f","rechts","24","","fixation","","","",""
"943","img/90_300.png","70","image-keyboard-response","71","169909","0.0-6.0-1.32","LIGR","3","f","rechts","24","","","self","f","90","true"
"null","<div style=""font-size:60px;"">+</div>","null","html-keyboard-response","72","170310","0.0-6.0-0.33","LIGR","3","f","rechts","24","","fixation","","","",""
"733","img/60_180.png","74","image-keyboard-response","73","171044","0.0-6.0-1.33","LIGR","3","f","rechts","24","","","self","j","60","true"
"null","<div style=""font-size:60px;"">+</div>","null","html-keyboard-response","74","171496","0.0-6.0-0.34","LIGR","3","f","rechts","24","","fixation","","","",""
"699","img/0_120.png","74","image-keyboard-response","75","172197","0.0-6.0-1.34","LIGR","3","f","rechts","24","","","self","j","0","true"
"null","<div style=""font-size:60px;"">+</div>","null","html-keyboard-response","76","172649","0.0-6.0-0.35","LIGR","3","f","rechts","24","","fixation","","","",""
"739","img/30_180.png","74","image-keyboard-response","77","173390","0.0-6.0-1.35","LIGR","3","f","rechts","24","","","self","j","30","true"
"null","<div style=""font-size:60px;"">+</div>","null","html-keyboard-response","78","173741","0.0-6.0-0.36","LIGR","3","f","rechts","24","","fixation","","","",""
"579","img/120_150.png","70","image-keyboard-response","79","174323","0.0-6.0-1.36","LIGR","3","f","rechts","24","","","self","f","120","true"
"null","<div style=""font-size:60px;"">+</div>","null","html-keyboard-response","80","174774","0.0-6.0-0.37","LIGR","3","f","rechts","24","","fixation","","","",""
"607","img/0_270.png","70","image-keyboard-response","81","175383","0.0-6.0-1.37","LIGR","3","f","rechts","24","","","self","f","0","true"
"null","<div style=""font-size:60px;"">+</div>","null","html-keyboard-response","82","175734","0.0-6.0-0.38","LIGR","3","f","rechts","24","","fixation","","","",""
"669","img/90_210.png","74","image-keyboard-response","83","176406","0.0-6.0-1.38","LIGR","3","f","rechts","24","","","self","j","90","true"
"null","<div style=""font-size:60px;"">+</div>","null","html-keyboard-response","84","176758","0.0-6.0-0.39","LIGR","3","f","rechts","24","","fixation","","","",""
"637","img/0_60.png","74","image-keyboard-response","85","177397","0.0-6.0-1.39","LIGR","3","f","rechts","24","","","self","j","0","true"
"null","<div style=""font-size:60px;"">+</div>","null","html-keyboard-response","86","177898","0.0-6.0-0.40","LIGR","3","f","rechts","24","","fixation","","","",""
"539","img/0_300.png","70","image-keyboard-response","87","178440","0.0-6.0-1.40","LIGR","3","f","rechts","24","","","self","f","0","true"
"null","<div style=""font-size:60px;"">+</div>","null","html-keyboard-response","88","178741","0.0-6.0-0.41","LIGR","3","f","rechts","24","","fixation","","","",""
"551","img/0_330.png","70","image-keyboard-response","89","179294","0.0-6.0-1.41","LIGR","3","f","rechts","24","","","self","f","0","true"
"null","<div style=""font-size:60px;"">+</div>","null","html-keyboard-response","90","179745","0.0-6.0-0.42","LIGR","3","f","rechts","24","","fixation","","","",""
"638","img/150_60.png","70","image-keyboard-response","91","180386","0.0-6.0-1.42","LIGR","3","f","rechts","24","","","self","f","150","true"
"null","<div style=""font-size:60px;"">+</div>","null","html-keyboard-response","92","180787","0.0-6.0-0.43","LIGR","3","f","rechts","24","","fixation","","","",""
"654","img/30_300.png","70","image-keyboard-response","93","181443","0.0-6.0-1.43","LIGR","3","f","rechts","24","","","self","f","30","true"
"null","<div style=""font-size:60px;"">+</div>","null","html-keyboard-response","94","181744","0.0-6.0-0.44","LIGR","3","f","rechts","24","","fixation","","","",""
"614","img/120_210.png","74","image-keyboard-response","95","182360","0.0-6.0-1.44","LIGR","3","f","rechts","24","","","self","j","120","true"
"null","<div style=""font-size:60px;"">+</div>","null","html-keyboard-response","96","182660","0.0-6.0-0.45","LIGR","3","f","rechts","24","","fixation","","","",""
"562","img/150_180.png","74","image-keyboard-response","97","183224","0.0-6.0-1.45","LIGR","3","f","rechts","24","","","self","j","150","true"
"null","<div style=""font-size:60px;"">+</div>","null","html-keyboard-response","98","183625","0.0-6.0-0.46","LIGR","3","f","rechts","24","","fixation","","","",""
"1073","img/90_30.png","74","image-keyboard-response","99","184701","0.0-6.0-1.46","LIGR","3","f","rechts","24","","","self","j","90","true"
"null","<div style=""font-size:60px;"">+</div>","null","html-keyboard-response","100","185202","0.0-6.0-0.47","LIGR","3","f","rechts","24","","fixation","","","",""
"1116","img/90_60.png","74","image-keyboard-response","101","186321","0.0-6.0-1.47","LIGR","3","f","rechts","24","","","self","j","90","true"
"null","<div style=""font-size:60px;"">+</div>","null","html-keyboard-response","102","186722","0.0-6.0-0.48","LIGR","3","f","rechts","24","","fixation","","","",""
"804","img/30_240.png","70","image-keyboard-response","103","187528","0.0-6.0-1.48","LIGR","3","f","rechts","24","","","self","f","30","true"
"null","<div style=""font-size:60px;"">+</div>","null","html-keyboard-response","104","188029","0.0-6.0-0.49","LIGR","3","f","rechts","24","","fixation","","","",""
"670","img/60_330.png","70","image-keyboard-response","105","188701","0.0-6.0-1.49","LIGR","3","f","rechts","24","","","self","f","60","true"
"null","<div style=""font-size:60px;"">+</div>","null","html-keyboard-response","106","189152","0.0-6.0-0.50","LIGR","3","f","rechts","24","","fixation","","","",""
"639","img/120_180.png","74","image-keyboard-response","107","189792","0.0-6.0-1.50","LIGR","3","f","rechts","24","","","self","j","120","true"
"null","<div style=""font-size:60px;"">+</div>","null","html-keyboard-response","108","190294","0.0-6.0-0.51","LIGR","3","f","rechts","24","","fixation","","","",""
"758","img/120_330.png","70","image-keyboard-response","109","191054","0.0-6.0-1.51","LIGR","3","f","rechts","24","","","self","f","120","true"
"null","<div style=""font-size:60px;"">+</div>","null","html-keyboard-response","110","191556","0.0-6.0-0.52","LIGR","3","f","rechts","24","","fixation","","","",""
"678","img/L90_180.png","70","image-keyboard-response","111","192234","0.0-6.0-1.52","LIGR","3","f","rechts","24","","","self","f","90","true"
"null","<div style=""font-size:60px;"">+</div>","null","html-keyboard-response","112","192536","0.0-6.0-0.53","LIGR","3","f","rechts","24","","fixation","","","",""
"628","img/90_330.png","70","image-keyboard-response","113","193165","0.0-6.0-1.53","LIGR","3","f","rechts","24","","","self","f","90","true"
"null","<div style=""font-size:60px;"">+</div>","null","html-keyboard-response","114","193616","0.0-6.0-0.54","LIGR","3","f","rechts","24","","fixation","","","",""
"590","img/0_60.png","74","image-keyboard-response","115","194208","0.0-6.0-1.54","LIGR","3","f","rechts","24","","","self","j","0","true"
"null","<div style=""font-size:60px;"">+</div>","null","html-keyboard-response","116","194509","0.0-6.0-0.55","LIGR","3","f","rechts","24","","fixation","","","",""
"596","img/150_270.png","74","image-keyboard-response","117","195107","0.0-6.0-1.55","LIGR","3","f","rechts","24","","","self","j","150","true"
"null","<div style=""font-size:60px;"">+</div>","null","html-keyboard-response","118","195508","0.0-6.0-0.56","LIGR","3","f","rechts","24","","fixation","","","",""
"565","img/0_120.png","74","image-keyboard-response","119","196074","0.0-6.0-1.56","LIGR","3","f","rechts","24","","","self","j","0","true"
"null","<div style=""font-size:60px;"">+</div>","null","html-keyboard-response","120","196376","0.0-6.0-0.57","LIGR","3","f","rechts","24","","fixation","","","",""
"923","img/120_30.png","74","image-keyboard-response","121","197299","0.0-6.0-1.57","LIGR","3","f","rechts","24","","","self","j","120","true"
"null","<div style=""font-size:60px;"">+</div>","null","html-keyboard-response","122","197701","0.0-6.0-0.58","LIGR","3","f","rechts","24","","fixation","","","",""
"692","img/30_180.png","74","image-keyboard-response","123","198394","0.0-6.0-1.58","LIGR","3","f","rechts","24","","","self","j","30","true"
"null","<div style=""font-size:60px;"">+</div>","null","html-keyboard-response","124","198846","0.0-6.0-0.59","LIGR","3","f","rechts","24","","fixation","","","",""
"605","img/0_270.png","70","image-keyboard-response","125","199452","0.0-6.0-1.59","LIGR","3","f","rechts","24","","","self","f","0","true"
"null","<div style=""font-size:60px;"">+</div>","null","html-keyboard-response","126","199804","0.0-6.0-0.60","LIGR","3","f","rechts","24","","fixation","","","",""
"645","img/30_300.png","70","image-keyboard-response","127","200451","0.0-6.0-1.60","LIGR","3","f","rechts","24","","","self","f","30","true"
"null","<div style=""font-size:60px;"">+</div>","null","html-keyboard-response","128","200852","0.0-6.0-0.61","LIGR","3","f","rechts","24","","fixation","","","",""
"685","img/L120_180.png","70","image-keyboard-response","129","201538","0.0-6.0-1.61","LIGR","3","f","rechts","24","","","self","f","120","true"
"null","<div style=""font-size:60px;"">+</div>","null","html-keyboard-response","130","201990","0.0-6.0-0.62","LIGR","3","f","rechts","24","","fixation","","","",""
"734","img/150_120.png","70","image-keyboard-response","131","202724","0.0-6.0-1.62","LIGR","3","f","rechts","24","","","self","f","150","true"
"null","<div style=""font-size:60px;"">+</div>","null","html-keyboard-response","132","203176","0.0-6.0-0.63","LIGR","3","f","rechts","24","","fixation","","","",""
"659","img/0_210.png","70","image-keyboard-response","133","203836","0.0-6.0-1.63","LIGR","3","f","rechts","24","","","self","f","0","true"
"null","<div style=""font-size:60px;"">+</div>","null","html-keyboard-response","134","204138","0.0-6.0-0.64","LIGR","3","f","rechts","24","","fixation","","","",""
"772","img/30_90.png","74","image-keyboard-response","135","204911","0.0-6.0-1.64","LIGR","3","f","rechts","24","","","self","j","30","true"
"null","<div style=""font-size:60px;"">+</div>","null","html-keyboard-response","136","205213","0.0-6.0-0.65","LIGR","3","f","rechts","24","","fixation","","","",""
"605","img/90_180.png","74","image-keyboard-response","137","205819","0.0-6.0-1.65","LIGR","3","f","rechts","24","","","self","j","90","true"
"null","<div style=""font-size:60px;"">+</div>","null","html-keyboard-response","138","206171","0.0-6.0-0.66","LIGR","3","f","rechts","24","","fixation","","","",""
"560","img/90_150.png","70","image-keyboard-response","139","206731","0.0-6.0-1.66","LIGR","3","f","rechts","24","","","self","f","90","true"
"null","<div style=""font-size:60px;"">+</div>","null","html-keyboard-response","140","207183","0.0-6.0-0.67","LIGR","3","f","rechts","24","","fixation","","","",""
"718","img/150_180.png","74","image-keyboard-response","141","207902","0.0-6.0-1.67","LIGR","3","f","rechts","24","","","self","j","150","true"
"null","<div style=""font-size:60px;"">+</div>","null","html-keyboard-response","142","208204","0.0-6.0-0.68","LIGR","3","f","rechts","24","","fixation","","","",""
"837","img/120_90.png","70","image-keyboard-response","143","209041","0.0-6.0-1.68","LIGR","3","f","rechts","24","","","self","f","120","true"
"null","<div style=""font-size:60px;"">+</div>","null","html-keyboard-response","144","209443","0.0-6.0-0.69","LIGR","3","f","rechts","24","","fixation","","","",""
"857","img/L150_180.png","70","image-keyboard-response","145","210301","0.0-6.0-1.69","LIGR","3","f","rechts","24","","","self","f","150","true"
"null","<div style=""font-size:60px;"">+</div>","null","html-keyboard-response","146","210703","0.0-6.0-0.70","LIGR","3","f","rechts","24","","fixation","","","",""
"661","img/60_150.png","70","image-keyboard-response","147","211365","0.0-6.0-1.70","LIGR","3","f","rechts","24","","","self","f","60","true"
"null","<div style=""font-size:60px;"">+</div>","null","html-keyboard-response","148","211867","0.0-6.0-0.71","LIGR","3","f","rechts","24","","fixation","","","",""
"670","img/150_300.png","74","image-keyboard-response","149","212538","0.0-6.0-1.71","LIGR","3","f","rechts","24","","","self","j","150","true"
"null","<div style=""font-size:60px;"">+</div>","null","html-keyboard-response","150","212940","0.0-6.0-0.72","LIGR","3","f","rechts","24","","fixation","","","",""
"1438","img/90_30.png","74","image-keyboard-response","151","214378","0.0-6.0-1.72","LIGR","3","f","rechts","24","","","self","j","90","true"
"null","<div style=""font-size:60px;"">+</div>","null","html-keyboard-response","152","214680","0.0-6.0-0.73","LIGR","3","f","rechts","24","","fixation","","","",""
"738","img/120_270.png","74","image-keyboard-response","153","215418","0.0-6.0-1.73","LIGR","3","f","rechts","24","","","self","j","120","true"
"null","<div style=""font-size:60px;"">+</div>","null","html-keyboard-response","154","215770","0.0-6.0-0.74","LIGR","3","f","rechts","24","","fixation","","","",""
"918","img/30_60.png","74","image-keyboard-response","155","216689","0.0-6.0-1.74","LIGR","3","f","rechts","24","","","self","j","30","true"
"null","<div style=""font-size:60px;"">+</div>","null","html-keyboard-response","156","217191","0.0-6.0-0.75","LIGR","3","f","rechts","24","","fixation","","","",""
"987","img/90_300.png","70","image-keyboard-response","157","218178","0.0-6.0-1.75","LIGR","3","f","rechts","24","","","self","f","90","true"
"null","<div style=""font-size:60px;"">+</div>","null","html-keyboard-response","158","218530","0.0-6.0-0.76","LIGR","3","f","rechts","24","","fixation","","","",""
"769","img/60_30.png","74","image-keyboard-response","159","219299","0.0-6.0-1.76","LIGR","3","f","rechts","24","","","self","j","60","true"
"null","<div style=""font-size:60px;"">+</div>","null","html-keyboard-response","160","219751","0.0-6.0-0.77","LIGR","3","f","rechts","24","","fixation","","","",""
"686","img/90_120.png","70","image-keyboard-response","161","220437","0.0-6.0-1.77","LIGR","3","f","rechts","24","","","self","f","90","true"
"null","<div style=""font-size:60px;"">+</div>","null","html-keyboard-response","162","220939","0.0-6.0-0.78","LIGR","3","f","rechts","24","","fixation","","","",""
"821","img/90_240.png","74","image-keyboard-response","163","221760","0.0-6.0-1.78","LIGR","3","f","rechts","24","","","self","j","90","true"
"null","<div style=""font-size:60px;"">+</div>","null","html-keyboard-response","164","222112","0.0-6.0-0.79","LIGR","3","f","rechts","24","","fixation","","","",""
"553","img/0_240.png","70","image-keyboard-response","165","222665","0.0-6.0-1.79","LIGR","3","f","rechts","24","","","self","f","0","true"
"null","<div style=""font-size:60px;"">+</div>","null","html-keyboard-response","166","223167","0.0-6.0-0.80","LIGR","3","f","rechts","24","","fixation","","","",""
"768","img/30_270.png","70","image-keyboard-response","167","223935","0.0-6.0-1.80","LIGR","3","f","rechts","24","","","self","f","30","true"
"null","<div style=""font-size:60px;"">+</div>","null","html-keyboard-response","168","224437","0.0-6.0-0.81","LIGR","3","f","rechts","24","","fixation","","","",""
"578","img/120_150.png","70","image-keyboard-response","169","225015","0.0-6.0-1.81","LIGR","3","f","rechts","24","","","self","f","120","true"
"null","<div style=""font-size:60px;"">+</div>","null","html-keyboard-response","170","225367","0.0-6.0-0.82","LIGR","3","f","rechts","24","","fixation","","","",""
"624","img/0_150.png","74","image-keyboard-response","171","225991","0.0-6.0-1.82","LIGR","3","f","rechts","24","","","self","j","0","true"
"null","<div style=""font-size:60px;"">+</div>","null","html-keyboard-response","172","226393","0.0-6.0-0.83","LIGR","3","f","rechts","24","","fixation","","","",""
"795","img/60_270.png","70","image-keyboard-response","173","227188","0.0-6.0-1.83","LIGR","3","f","rechts","24","","","self","f","60","true"
"null","<div style=""font-size:60px;"">+</div>","null","html-keyboard-response","174","227640","0.0-6.0-0.84","LIGR","3","f","rechts","24","","fixation","","","",""
"872","img/30_120.png","74","image-keyboard-response","175","228512","0.0-6.0-1.84","LIGR","3","f","rechts","24","","","self","j","30","true"
"null","<div style=""font-size:60px;"">+</div>","null","html-keyboard-response","176","228914","0.0-6.0-0.85","LIGR","3","f","rechts","24","","fixation","","","",""
"745","img/30_240.png","70","image-keyboard-response","177","229659","0.0-6.0-1.85","LIGR","3","f","rechts","24","","","self","f","30","true"
"null","<div style=""font-size:60px;"">+</div>","null","html-keyboard-response","178","230010","0.0-6.0-0.86","LIGR","3","f","rechts","24","","fixation","","","",""
"601","img/L60_180.png","70","image-keyboard-response","179","230612","0.0-6.0-1.86","LIGR","3","f","rechts","24","","","self","f","60","true"
"null","<div style=""font-size:60px;"">+</div>","null","html-keyboard-response","180","230964","0.0-6.0-0.87","LIGR","3","f","rechts","24","","fixation","","","",""
"650","img/150_90.png","70","image-keyboard-response","181","231614","0.0-6.0-1.87","LIGR","3","f","rechts","24","","","self","f","150","true"
"null","<div style=""font-size:60px;"">+</div>","null","html-keyboard-response","182","231965","0.0-6.0-0.88","LIGR","3","f","rechts","24","","fixation","","","",""
"649","img/L30_180.png","70","image-keyboard-response","183","232616","0.0-6.0-1.88","LIGR","3","f","rechts","24","","","self","f","30","true"
"null","<div style=""font-size:60px;"">+</div>","null","html-keyboard-response","184","232967","0.0-6.0-0.89","LIGR","3","f","rechts","24","","fixation","","","",""
"620","img/0_90.png","74","image-keyboard-response","185","233588","0.0-6.0-1.89","LIGR","3","f","rechts","24","","","self","j","0","true"
"null","<div style=""font-size:60px;"">+</div>","null","html-keyboard-response","186","233889","0.0-6.0-0.90","LIGR","3","f","rechts","24","","fixation","","","",""
"810","img/60_210.png","74","image-keyboard-response","187","234700","0.0-6.0-1.90","LIGR","3","f","rechts","24","","","self","j","60","true"
"null","<div style=""font-size:60px;"">+</div>","null","html-keyboard-response","188","235102","0.0-6.0-0.91","LIGR","3","f","rechts","24","","fixation","","","",""
"570","img/0_300.png","70","image-keyboard-response","189","235672","0.0-6.0-1.91","LIGR","3","f","rechts","24","","","self","f","0","true"
"null","<div style=""font-size:60px;"">+</div>","null","html-keyboard-response","190","236124","0.0-6.0-0.92","LIGR","3","f","rechts","24","","fixation","","","",""
"879","img/90_210.png","74","image-keyboard-response","191","237003","0.0-6.0-1.92","LIGR","3","f","rechts","24","","","self","j","90","true"
"null","<div style=""font-size:60px;"">+</div>","null","html-keyboard-response","192","237304","0.0-6.0-0.93","LIGR","3","f","rechts","24","","fixation","","","",""
"696","img/150_60.png","70","image-keyboard-response","193","238001","0.0-6.0-1.93","LIGR","3","f","rechts","24","","","self","f","150","true"
"null","<div style=""font-size:60px;"">+</div>","null","html-keyboard-response","194","238402","0.0-6.0-0.94","LIGR","3","f","rechts","24","","fixation","","","",""
"788","img/0_330.png","70","image-keyboard-response","195","239191","0.0-6.0-1.94","LIGR","3","f","rechts","24","","","self","f","0","true"
"null","<div style=""font-size:60px;"">+</div>","null","html-keyboard-response","196","239693","0.0-6.0-0.95","LIGR","3","f","rechts","24","","fixation","","","",""
"621","img/150_240.png","74","image-keyboard-response","197","240314","0.0-6.0-1.95","LIGR","3","f","rechts","24","","","self","j","150","true"
"null","<div style=""font-size:60px;"">+</div>","null","html-keyboard-response","198","240615","0.0-6.0-0.96","LIGR","3","f","rechts","24","","fixation","","","",""
"572","img/0_30.png","74","image-keyboard-response","199","241188","0.0-6.0-1.96","LIGR","3","f","rechts","24","","","self","j","0","true"
"null","<div style=""font-size:60px;"">+</div>","null","html-keyboard-response","200","241540","0.0-6.0-0.97","LIGR","3","f","rechts","24","","fixation","","","",""
"699","img/60_330.png","70","image-keyboard-response","201","242241","0.0-6.0-1.97","LIGR","3","f","rechts","24","","","self","f","60","true"
"null","<div style=""font-size:60px;"">+</div>","null","html-keyboard-response","202","242592","0.0-6.0-0.98","LIGR","3","f","rechts","24","","fixation","","","",""
"928","img/120_330.png","70","image-keyboard-response","203","243522","0.0-6.0-1.98","LIGR","3","f","rechts","24","","","self","f","120","true"
"null","<div style=""font-size:60px;"">+</div>","null","html-keyboard-response","204","243824","0.0-6.0-0.99","LIGR","3","f","rechts","24","","fixation","","","",""
"771","img/60_90.png","74","image-keyboard-response","205","244597","0.0-6.0-1.99","LIGR","3","f","rechts","24","","","self","j","60","true"
"null","<div style=""font-size:60px;"">+</div>","null","html-keyboard-response","206","244949","0.0-6.0-0.100","LIGR","3","f","rechts","24","","fixation","","","",""
"670","img/60_180.png","74","image-keyboard-response","207","245620","0.0-6.0-1.100","LIGR","3","f","rechts","24","","","self","j","60","true"
"null","<div style=""font-size:60px;"">+</div>","null","html-keyboard-response","208","246121","0.0-6.0-0.101","LIGR","3","f","rechts","24","","fixation","","","",""
"760","img/120_180.png","74","image-keyboard-response","209","246883","0.0-6.0-1.101","LIGR","3","f","rechts","24","","","self","j","120","true"
"null","<div style=""font-size:60px;"">+</div>","null","html-keyboard-response","210","247384","0.0-6.0-0.102","LIGR","3","f","rechts","24","","fixation","","","",""
"607","img/120_210.png","74","image-keyboard-response","211","247992","0.0-6.0-1.102","LIGR","3","f","rechts","24","","","self","j","120","true"
"null","<div style=""font-size:60px;"">+</div>","null","html-keyboard-response","212","248494","0.0-6.0-0.103","LIGR","3","f","rechts","24","","fixation","","","",""
"1075","img/90_60.png","74","image-keyboard-response","213","249570","0.0-6.0-1.103","LIGR","3","f","rechts","24","","","self","j","90","true"
"null","<div style=""font-size:60px;"">+</div>","null","html-keyboard-response","214","249972","0.0-6.0-0.104","LIGR","3","f","rechts","24","","fixation","","","",""
"640","img/120_210.png","74","image-keyboard-response","215","250613","0.0-6.0-1.104","LIGR","3","f","rechts","24","","","self","j","120","true"
"null","<div style=""font-size:60px;"">+</div>","null","html-keyboard-response","216","251114","0.0-6.0-0.105","LIGR","3","f","rechts","24","","fixation","","","",""
"628","img/0_30.png","74","image-keyboard-response","217","251744","0.0-6.0-1.105","LIGR","3","f","rechts","24","","","self","j","0","true"
"null","<div style=""font-size:60px;"">+</div>","null","html-keyboard-response","218","252045","0.0-6.0-0.106","LIGR","3","f","rechts","24","","fixation","","","",""
"589","img/0_90.png","74","image-keyboard-response","219","252635","0.0-6.0-1.106","LIGR","3","f","rechts","24","","","self","j","0","true"
"null","<div style=""font-size:60px;"">+</div>","null","html-keyboard-response","220","253037","0.0-6.0-0.107","LIGR","3","f","rechts","24","","fixation","","","",""
"737","img/120_330.png","70","image-keyboard-response","221","253775","0.0-6.0-1.107","LIGR","3","f","rechts","24","","","self","f","120","true"
"null","<div style=""font-size:60px;"">+</div>","null","html-keyboard-response","222","254077","0.0-6.0-0.108","LIGR","3","f","rechts","24","","fixation","","","",""
"703","img/120_90.png","70","image-keyboard-response","223","254780","0.0-6.0-1.108","LIGR","3","f","rechts","24","","","self","f","120","true"
"null","<div style=""font-size:60px;"">+</div>","null","html-keyboard-response","224","255232","0.0-6.0-0.109","LIGR","3","f","rechts","24","","fixation","","","",""
"658","img/150_270.png","74","image-keyboard-response","225","255891","0.0-6.0-1.109","LIGR","3","f","rechts","24","","","self","j","150","true"
"null","<div style=""font-size:60px;"">+</div>","null","html-keyboard-response","226","256243","0.0-6.0-0.110","LIGR","3","f","rechts","24","","fixation","","","",""
"600","img/120_180.png","74","image-keyboard-response","227","256844","0.0-6.0-1.110","LIGR","3","f","rechts","24","","","self","j","120","true"
"null","<div style=""font-size:60px;"">+</div>","null","html-keyboard-response","228","257196","0.0-6.0-0.111","LIGR","3","f","rechts","24","","fixation","","","",""
"729","img/30_90.png","74","image-keyboard-response","229","257926","0.0-6.0-1.111","LIGR","3","f","rechts","24","","","self","j","30","true"
"null","<div style=""font-size:60px;"">+</div>","null","html-keyboard-response","230","258278","0.0-6.0-0.112","LIGR","3","f","rechts","24","","fixation","","","",""
"629","img/60_30.png","74","image-keyboard-response","231","258908","0.0-6.0-1.112","LIGR","3","f","rechts","24","","","self","j","60","true"
"null","<div style=""font-size:60px;"">+</div>","null","html-keyboard-response","232","259210","0.0-6.0-0.113","LIGR","3","f","rechts","24","","fixation","","","",""
"545","img/0_270.png","70","image-keyboard-response","233","259756","0.0-6.0-1.113","LIGR","3","f","rechts","24","","","self","f","0","true"
"null","<div style=""font-size:60px;"">+</div>","null","html-keyboard-response","234","260058","0.0-6.0-0.114","LIGR","3","f","rechts","24","","fixation","","","",""
"538","img/L90_180.png","70","image-keyboard-response","235","260597","0.0-6.0-1.114","LIGR","3","f","rechts","24","","","self","f","90","true"
"null","<div style=""font-size:60px;"">+</div>","null","html-keyboard-response","236","260999","0.0-6.0-0.115","LIGR","3","f","rechts","24","","fixation","","","",""
"588","img/90_120.png","70","image-keyboard-response","237","261588","0.0-6.0-1.115","LIGR","3","f","rechts","24","","","self","f","90","true"
"null","<div style=""font-size:60px;"">+</div>","null","html-keyboard-response","238","261890","0.0-6.0-0.116","LIGR","3","f","rechts","24","","fixation","","","",""
"573","img/150_240.png","74","image-keyboard-response","239","262464","0.0-6.0-1.116","LIGR","3","f","rechts","24","","","self","j","150","true"
"null","<div style=""font-size:60px;"">+</div>","null","html-keyboard-response","240","262816","0.0-6.0-0.117","LIGR","3","f","rechts","24","","fixation","","","",""
"561","img/L30_180.png","70","image-keyboard-response","241","263378","0.0-6.0-1.117","LIGR","3","f","rechts","24","","","self","f","30","true"
"null","<div style=""font-size:60px;"">+</div>","null","html-keyboard-response","242","263780","0.0-6.0-0.118","LIGR","3","f","rechts","24","","fixation","","","",""
"673","img/150_180.png","74","image-keyboard-response","243","264453","0.0-6.0-1.118","LIGR","3","f","rechts","24","","","self","j","150","true"
"null","<div style=""font-size:60px;"">+</div>","null","html-keyboard-response","244","264955","0.0-6.0-0.119","LIGR","3","f","rechts","24","","fixation","","","",""
"654","img/0_60.png","74","image-keyboard-response","245","265610","0.0-6.0-1.119","LIGR","3","f","rechts","24","","","self","j","0","true"
"null","<div style=""font-size:60px;"">+</div>","null","html-keyboard-response","246","266011","0.0-6.0-0.120","LIGR","3","f","rechts","24","","fixation","","","",""
"699","img/90_30.png","74","image-keyboard-response","247","266711","0.0-6.0-1.120","LIGR","3","f","rechts","24","","","self","j","90","true"
"null","<div style=""font-size:60px;"">+</div>","null","html-keyboard-response","248","267013","0.0-6.0-0.121","LIGR","3","f","rechts","24","","fixation","","","",""
"638","img/0_330.png","70","image-keyboard-response","249","267652","0.0-6.0-1.121","LIGR","3","f","rechts","24","","","self","f","0","true"
"null","<div style=""font-size:60px;"">+</div>","null","html-keyboard-response","250","267954","0.0-6.0-0.122","LIGR","3","f","rechts","24","","fixation","","","",""
"628","img/30_270.png","70","image-keyboard-response","251","268582","0.0-6.0-1.122","LIGR","3","f","rechts","24","","","self","f","30","true"
"null","<div style=""font-size:60px;"">+</div>","null","html-keyboard-response","252","269084","0.0-6.0-0.123","LIGR","3","f","rechts","24","","fixation","","","",""
"1059","img/30_120.png","74","image-keyboard-response","253","270143","0.0-6.0-1.123","LIGR","3","f","rechts","24","","","self","j","30","true"
"null","<div style=""font-size:60px;"">+</div>","null","html-keyboard-response","254","270495","0.0-6.0-0.124","LIGR","3","f","rechts","24","","fixation","","","",""
"550","img/L120_180.png","70","image-keyboard-response","255","271045","0.0-6.0-1.124","LIGR","3","f","rechts","24","","","self","f","120","true"
"null","<div style=""font-size:60px;"">+</div>","null","html-keyboard-response","256","271346","0.0-6.0-0.125","LIGR","3","f","rechts","24","","fixation","","","",""
"713","img/150_60.png","74","image-keyboard-response","257","272059","0.0-6.0-1.125","LIGR","3","f","rechts","24","","","self","f","150","false"
"null","<div style=""font-size:60px;"">+</div>","null","html-keyboard-response","258","272511","0.0-6.0-0.126","LIGR","3","f","rechts","24","","fixation","","","",""
"814","img/120_30.png","74","image-keyboard-response","259","273326","0.0-6.0-1.126","LIGR","3","f","rechts","24","","","self","j","120","true"
"null","<div style=""font-size:60px;"">+</div>","null","html-keyboard-response","260","273728","0.0-6.0-0.127","LIGR","3","f","rechts","24","","fixation","","","",""
"743","img/90_60.png","74","image-keyboard-response","261","274471","0.0-6.0-1.127","LIGR","3","f","rechts","24","","","self","j","90","true"
"null","<div style=""font-size:60px;"">+</div>","null","html-keyboard-response","262","274973","0.0-6.0-0.128","LIGR","3","f","rechts","24","","fixation","","","",""
"1056","img/90_180.png","74","image-keyboard-response","263","276030","0.0-6.0-1.128","LIGR","3","f","rechts","24","","","self","j","90","true"
"null","<div style=""font-size:60px;"">+</div>","null","html-keyboard-response","264","276432","0.0-6.0-0.129","LIGR","3","f","rechts","24","","fixation","","","",""
"590","img/0_240.png","70","image-keyboard-response","265","277022","0.0-6.0-1.129","LIGR","3","f","rechts","24","","","self","f","0","true"
"null","<div style=""font-size:60px;"">+</div>","null","html-keyboard-response","266","277374","0.0-6.0-0.130","LIGR","3","f","rechts","24","","fixation","","","",""
"647","img/150_120.png","70","image-keyboard-response","267","278022","0.0-6.0-1.130","LIGR","3","f","rechts","24","","","self","f","150","true"
"null","<div style=""font-size:60px;"">+</div>","null","html-keyboard-response","268","278474","0.0-6.0-0.131","LIGR","3","f","rechts","24","","fixation","","","",""
"780","img/60_270.png","70","image-keyboard-response","269","279254","0.0-6.0-1.131","LIGR","3","f","rechts","24","","","self","f","60","true"
"null","<div style=""font-size:60px;"">+</div>","null","html-keyboard-response","270","279556","0.0-6.0-0.132","LIGR","3","f","rechts","24","","fixation","","","",""
"1079","img/30_240.png","70","image-keyboard-response","271","280635","0.0-6.0-1.132","LIGR","3","f","rechts","24","","","self","f","30","true"
"null","<div style=""font-size:60px;"">+</div>","null","html-keyboard-response","272","281037","0.0-6.0-0.133","LIGR","3","f","rechts","24","","fixation","","","",""
"757","img/60_180.png","74","image-keyboard-response","273","281795","0.0-6.0-1.133","LIGR","3","f","rechts","24","","","self","j","60","true"
"null","<div style=""font-size:60px;"">+</div>","null","html-keyboard-response","274","282197","0.0-6.0-0.134","LIGR","3","f","rechts","24","","fixation","","","",""
"813","img/90_240.png","74","image-keyboard-response","275","283010","0.0-6.0-1.134","LIGR","3","f","rechts","24","","","self","j","90","true"
"null","<div style=""font-size:60px;"">+</div>","null","html-keyboard-response","276","283462","0.0-6.0-0.135","LIGR","3","f","rechts","24","","fixation","","","",""
"1195","img/150_90.png","70","image-keyboard-response","277","284658","0.0-6.0-1.135","LIGR","3","f","rechts","24","","","self","f","150","true"
"null","<div style=""font-size:60px;"">+</div>","null","html-keyboard-response","278","285160","0.0-6.0-0.136","LIGR","3","f","rechts","24","","fixation","","","",""
"1180","img/90_330.png","70","image-keyboard-response","279","286342","0.0-6.0-1.136","LIGR","3","f","rechts","24","","","self","f","90","true"
"null","<div style=""font-size:60px;"">+</div>","null","html-keyboard-response","280","286693","0.0-6.0-0.137","LIGR","3","f","rechts","24","","fixation","","","",""
"649","img/0_120.png","74","image-keyboard-response","281","287344","0.0-6.0-1.137","LIGR","3","f","rechts","24","","","self","j","0","true"
"null","<div style=""font-size:60px;"">+</div>","null","html-keyboard-response","282","287845","0.0-6.0-0.138","LIGR","3","f","rechts","24","","fixation","","","",""
"800","img/60_210.png","74","image-keyboard-response","283","288646","0.0-6.0-1.138","LIGR","3","f","rechts","24","","","self","j","60","true"
"null","<div style=""font-size:60px;"">+</div>","null","html-keyboard-response","284","288998","0.0-6.0-0.139","LIGR","3","f","rechts","24","","fixation","","","",""
"848","img/L150_180.png","70","image-keyboard-response","285","289848","0.0-6.0-1.139","LIGR","3","f","rechts","24","","","self","f","150","true"
"null","<div style=""font-size:60px;"">+</div>","null","html-keyboard-response","286","290249","0.0-6.0-0.140","LIGR","3","f","rechts","24","","fixation","","","",""
"771","img/120_270.png","74","image-keyboard-response","287","291022","0.0-6.0-1.140","LIGR","3","f","rechts","24","","","self","j","120","true"
"null","<div style=""font-size:60px;"">+</div>","null","html-keyboard-response","288","291473","0.0-6.0-0.141","LIGR","3","f","rechts","24","","fixation","","","",""
"673","img/30_180.png","74","image-keyboard-response","289","292148","0.0-6.0-1.141","LIGR","3","f","rechts","24","","","self","j","30","true"
"null","<div style=""font-size:60px;"">+</div>","null","html-keyboard-response","290","292500","0.0-6.0-0.142","LIGR","3","f","rechts","24","","fixation","","","",""
"683","img/150_300.png","74","image-keyboard-response","291","293183","0.0-6.0-1.142","LIGR","3","f","rechts","24","","","self","j","150","true"
"null","<div style=""font-size:60px;"">+</div>","null","html-keyboard-response","292","293634","0.0-6.0-0.143","LIGR","3","f","rechts","24","","fixation","","","",""
"950","img/30_60.png","74","image-keyboard-response","293","294586","0.0-6.0-1.143","LIGR","3","f","rechts","24","","","self","j","30","true"
"null","<div style=""font-size:60px;"">+</div>","null","html-keyboard-response","294","294987","0.0-6.0-0.144","LIGR","3","f","rechts","24","","fixation","","","",""
"1965","img/90_300.png","70","image-keyboard-response","295","296954","0.0-6.0-1.144","LIGR","3","f","rechts","24","","","self","f","90","true"
"null","<div style=""font-size:60px;"">+</div>","null","html-keyboard-response","296","297305","0.0-6.0-0.145","LIGR","3","f","rechts","24","","fixation","","","",""
"647","img/0_300.png","70","image-keyboard-response","297","297953","0.0-6.0-1.145","LIGR","3","f","rechts","24","","","self","f","0","true"
"null","<div style=""font-size:60px;"">+</div>","null","html-keyboard-response","298","298455","0.0-6.0-0.146","LIGR","3","f","rechts","24","","fixation","","","",""
"678","img/90_210.png","74","image-keyboard-response","299","299134","0.0-6.0-1.146","LIGR","3","f","rechts","24","","","self","j","90","true"
"null","<div style=""font-size:60px;"">+</div>","null","html-keyboard-response","300","299586","0.0-6.0-0.147","LIGR","3","f","rechts","24","","fixation","","","",""
"711","img/30_300.png","70","image-keyboard-response","301","300299","0.0-6.0-1.147","LIGR","3","f","rechts","24","","","self","f","30","true"
"null","<div style=""font-size:60px;"">+</div>","null","html-keyboard-response","302","300800","0.0-6.0-0.148","LIGR","3","f","rechts","24","","fixation","","","",""
"753","img/60_150.png","70","image-keyboard-response","303","301554","0.0-6.0-1.148","LIGR","3","f","rechts","24","","","self","f","60","true"
"null","<div style=""font-size:60px;"">+</div>","null","html-keyboard-response","304","301856","0.0-6.0-0.149","LIGR","3","f","rechts","24","","fixation","","","",""
"790","img/60_90.png","74","image-keyboard-response","305","302647","0.0-6.0-1.149","LIGR","3","f","rechts","24","","","self","j","60","true"
"null","<div style=""font-size:60px;"">+</div>","null","html-keyboard-response","306","303049","0.0-6.0-0.150","LIGR","3","f","rechts","24","","fixation","","","",""
"622","img/90_150.png","70","image-keyboard-response","307","303672","0.0-6.0-1.150","LIGR","3","f","rechts","24","","","self","f","90","true"
"null","<div style=""font-size:60px;"">+</div>","null","html-keyboard-response","308","304124","0.0-6.0-0.151","LIGR","3","f","rechts","24","","fixation","","","",""
"668","img/0_210.png","70","image-keyboard-response","309","304793","0.0-6.0-1.151","LIGR","3","f","rechts","24","","","self","f","0","true"
"null","<div style=""font-size:60px;"">+</div>","null","html-keyboard-response","310","305195","0.0-6.0-0.152","LIGR","3","f","rechts","24","","fixation","","","",""
"636","img/120_150.png","70","image-keyboard-response","311","305832","0.0-6.0-1.152","LIGR","3","f","rechts","24","","","self","f","120","true"
"null","<div style=""font-size:60px;"">+</div>","null","html-keyboard-response","312","306334","0.0-6.0-0.153","LIGR","3","f","rechts","24","","fixation","","","",""
"732","img/60_330.png","70","image-keyboard-response","313","307067","0.0-6.0-1.153","LIGR","3","f","rechts","24","","","self","f","60","true"
"null","<div style=""font-size:60px;"">+</div>","null","html-keyboard-response","314","307518","0.0-6.0-0.154","LIGR","3","f","rechts","24","","fixation","","","",""
"641","img/0_150.png","74","image-keyboard-response","315","308160","0.0-6.0-1.154","LIGR","3","f","rechts","24","","","self","j","0","true"
"null","<div style=""font-size:60px;"">+</div>","null","html-keyboard-response","316","308562","0.0-6.0-0.155","LIGR","3","f","rechts","24","","fixation","","","",""
"616","img/L60_180.png","70","image-keyboard-response","317","309178","0.0-6.0-1.155","LIGR","3","f","rechts","24","","","self","f","60","true"
"null","<div style=""font-size:60px;"">+</div>","null","html-keyboard-response","318","309530","0.0-6.0-0.156","LIGR","3","f","rechts","24","","fixation","","","",""
"834","img/90_60.png","74","image-keyboard-response","319","310365","0.0-6.0-1.156","LIGR","3","f","rechts","24","","","self","j","90","true"
"null","<div style=""font-size:60px;"">+</div>","null","html-keyboard-response","320","310767","0.0-6.0-0.157","LIGR","3","f","rechts","24","","fixation","","","",""
"535","img/L120_180.png","70","image-keyboard-response","321","311303","0.0-6.0-1.157","LIGR","3","f","rechts","24","","","self","f","120","true"
"null","<div style=""font-size:60px;"">+</div>","null","html-keyboard-response","322","311755","0.0-6.0-0.158","LIGR","3","f","rechts","24","","fixation","","","",""
"661","img/150_60.png","70","image-keyboard-response","323","312417","0.0-6.0-1.158","LIGR","3","f","rechts","24","","","self","f","150","true"
"null","<div style=""font-size:60px;"">+</div>","null","html-keyboard-response","324","312819","0.0-6.0-0.159","LIGR","3","f","rechts","24","","fixation","","","",""
"616","img/120_180.png","74","image-keyboard-response","325","313435","0.0-6.0-1.159","LIGR","3","f","rechts","24","","","self","j","120","true"
"null","<div style=""font-size:60px;"">+</div>","null","html-keyboard-response","326","313736","0.0-6.0-0.160","LIGR","3","f","rechts","24","","fixation","","","",""
"521","img/L150_180.png","70","image-keyboard-response","327","314258","0.0-6.0-1.160","LIGR","3","f","rechts","24","","","self","f","150","true"
"null","<div style=""font-size:60px;"">+</div>","null","html-keyboard-response","328","314710","0.0-6.0-0.161","LIGR","3","f","rechts","24","","fixation","","","",""
"570","img/L90_180.png","70","image-keyboard-response","329","315281","0.0-6.0-1.161","LIGR","3","f","rechts","24","","","self","f","90","true"
"null","<div style=""font-size:60px;"">+</div>","null","html-keyboard-response","330","315733","0.0-6.0-0.162","LIGR","3","f","rechts","24","","fixation","","","",""
"625","img/150_240.png","74","image-keyboard-response","331","316358","0.0-6.0-1.162","LIGR","3","f","rechts","24","","","self","j","150","true"
"null","<div style=""font-size:60px;"">+</div>","null","html-keyboard-response","332","316860","0.0-6.0-0.163","LIGR","3","f","rechts","24","","fixation","","","",""
"604","img/90_150.png","70","image-keyboard-response","333","317464","0.0-6.0-1.163","LIGR","3","f","rechts","24","","","self","f","90","true"
"null","<div style=""font-size:60px;"">+</div>","null","html-keyboard-response","334","317916","0.0-6.0-0.164","LIGR","3","f","rechts","24","","fixation","","","",""
"652","img/120_270.png","74","image-keyboard-response","335","318568","0.0-6.0-1.164","LIGR","3","f","rechts","24","","","self","j","120","true"
"null","<div style=""font-size:60px;"">+</div>","null","html-keyboard-response","336","318870","0.0-6.0-0.165","LIGR","3","f","rechts","24","","fixation","","","",""
"841","img/90_30.png","74","image-keyboard-response","337","319711","0.0-6.0-1.165","LIGR","3","f","rechts","24","","","self","j","90","true"
"null","<div style=""font-size:60px;"">+</div>","null","html-keyboard-response","338","320163","0.0-6.0-0.166","LIGR","3","f","rechts","24","","fixation","","","",""
"729","img/120_90.png","70","image-keyboard-response","339","320892","0.0-6.0-1.166","LIGR","3","f","rechts","24","","","self","f","120","true"
"null","<div style=""font-size:60px;"">+</div>","null","html-keyboard-response","340","321244","0.0-6.0-0.167","LIGR","3","f","rechts","24","","fixation","","","",""
"550","img/120_150.png","70","image-keyboard-response","341","321794","0.0-6.0-1.167","LIGR","3","f","rechts","24","","","self","f","120","true"
"null","<div style=""font-size:60px;"">+</div>","null","html-keyboard-response","342","322296","0.0-6.0-0.168","LIGR","3","f","rechts","24","","fixation","","","",""
"628","img/0_30.png","74","image-keyboard-response","343","322925","0.0-6.0-1.168","LIGR","3","f","rechts","24","","","self","j","0","true"
"null","<div style=""font-size:60px;"">+</div>","null","html-keyboard-response","344","323227","0.0-6.0-0.169","LIGR","3","f","rechts","24","","fixation","","","",""
"704","img/30_240.png","70","image-keyboard-response","345","323931","0.0-6.0-1.169","LIGR","3","f","rechts","24","","","self","f","30","true"
"null","<div style=""font-size:60px;"">+</div>","null","html-keyboard-response","346","324333","0.0-6.0-0.170","LIGR","3","f","rechts","24","","fixation","","","",""
"833","img/30_270.png","70","image-keyboard-response","347","325166","0.0-6.0-1.170","LIGR","3","f","rechts","24","","","self","f","30","true"
"null","<div style=""font-size:60px;"">+</div>","null","html-keyboard-response","348","325468","0.0-6.0-0.171","LIGR","3","f","rechts","24","","fixation","","","",""
"807","img/30_300.png","70","image-keyboard-response","349","326275","0.0-6.0-1.171","LIGR","3","f","rechts","24","","","self","f","30","true"
"null","<div style=""font-size:60px;"">+</div>","null","html-keyboard-response","350","326627","0.0-6.0-0.172","LIGR","3","f","rechts","24","","fixation","","","",""
"851","img/90_120.png","70","image-keyboard-response","351","327478","0.0-6.0-1.172","LIGR","3","f","rechts","24","","","self","f","90","true"
"null","<div style=""font-size:60px;"">+</div>","null","html-keyboard-response","352","327779","0.0-6.0-0.173","LIGR","3","f","rechts","24","","fixation","","","",""
"991","img/120_330.png","70","image-keyboard-response","353","328771","0.0-6.0-1.173","LIGR","3","f","rechts","24","","","self","f","120","true"
"null","<div style=""font-size:60px;"">+</div>","null","html-keyboard-response","354","329072","0.0-6.0-0.174","LIGR","3","f","rechts","24","","fixation","","","",""
"645","img/0_90.png","74","image-keyboard-response","355","329717","0.0-6.0-1.174","LIGR","3","f","rechts","24","","","self","j","0","true"
"null","<div style=""font-size:60px;"">+</div>","null","html-keyboard-response","356","330069","0.0-6.0-0.175","LIGR","3","f","rechts","24","","fixation","","","",""
"592","img/0_120.png","74","image-keyboard-response","357","330662","0.0-6.0-1.175","LIGR","3","f","rechts","24","","","self","j","0","true"
"null","<div style=""font-size:60px;"">+</div>","null","html-keyboard-response","358","331014","0.0-6.0-0.176","LIGR","3","f","rechts","24","","fixation","","","",""
"756","img/150_270.png","74","image-keyboard-response","359","331771","0.0-6.0-1.176","LIGR","3","f","rechts","24","","","self","j","150","true"
"null","<div style=""font-size:60px;"">+</div>","null","html-keyboard-response","360","332172","0.0-6.0-0.177","LIGR","3","f","rechts","24","","fixation","","","",""
"614","img/L60_180.png","70","image-keyboard-response","361","332787","0.0-6.0-1.177","LIGR","3","f","rechts","24","","","self","f","60","true"
"null","<div style=""font-size:60px;"">+</div>","null","html-keyboard-response","362","333189","0.0-6.0-0.178","LIGR","3","f","rechts","24","","fixation","","","",""
"719","img/60_210.png","74","image-keyboard-response","363","333909","0.0-6.0-1.178","LIGR","3","f","rechts","24","","","self","j","60","true"
"null","<div style=""font-size:60px;"">+</div>","null","html-keyboard-response","364","334261","0.0-6.0-0.179","LIGR","3","f","rechts","24","","fixation","","","",""
"1012","img/30_90.png","74","image-keyboard-response","365","335275","0.0-6.0-1.179","LIGR","3","f","rechts","24","","","self","j","30","true"
"null","<div style=""font-size:60px;"">+</div>","null","html-keyboard-response","366","335676","0.0-6.0-0.180","LIGR","3","f","rechts","24","","fixation","","","",""
"712","img/60_150.png","70","image-keyboard-response","367","336389","0.0-6.0-1.180","LIGR","3","f","rechts","24","","","self","f","60","true"
"null","<div style=""font-size:60px;"">+</div>","null","html-keyboard-response","368","336890","0.0-6.0-0.181","LIGR","3","f","rechts","24","","fixation","","","",""
"777","img/60_30.png","74","image-keyboard-response","369","337669","0.0-6.0-1.181","LIGR","3","f","rechts","24","","","self","j","60","true"
"null","<div style=""font-size:60px;"">+</div>","null","html-keyboard-response","370","338170","0.0-6.0-0.182","LIGR","3","f","rechts","24","","fixation","","","",""
"647","img/0_210.png","70","image-keyboard-response","371","338818","0.0-6.0-1.182","LIGR","3","f","rechts","24","","","self","f","0","true"
"null","<div style=""font-size:60px;"">+</div>","null","html-keyboard-response","372","339119","0.0-6.0-0.183","LIGR","3","f","rechts","24","","fixation","","","",""
"580","img/30_180.png","74","image-keyboard-response","373","339701","0.0-6.0-1.183","LIGR","3","f","rechts","24","","","self","j","30","true"
"null","<div style=""font-size:60px;"">+</div>","null","html-keyboard-response","374","340152","0.0-6.0-0.184","LIGR","3","f","rechts","24","","fixation","","","",""
"617","img/0_150.png","74","image-keyboard-response","375","340771","0.0-6.0-1.184","LIGR","3","f","rechts","24","","","self","j","0","true"
"null","<div style=""font-size:60px;"">+</div>","null","html-keyboard-response","376","341072","0.0-6.0-0.185","LIGR","3","f","rechts","24","","fixation","","","",""
"599","img/0_60.png","74","image-keyboard-response","377","341673","0.0-6.0-1.185","LIGR","3","f","rechts","24","","","self","j","0","true"
"null","<div style=""font-size:60px;"">+</div>","null","html-keyboard-response","378","341974","0.0-6.0-0.186","LIGR","3","f","rechts","24","","fixation","","","",""
"814","img/90_300.png","70","image-keyboard-response","379","342789","0.0-6.0-1.186","LIGR","3","f","rechts","24","","","self","f","90","true"
"null","<div style=""font-size:60px;"">+</div>","null","html-keyboard-response","380","343141","0.0-6.0-0.187","LIGR","3","f","rechts","24","","fixation","","","",""
"840","img/30_60.png","74","image-keyboard-response","381","343983","0.0-6.0-1.187","LIGR","3","f","rechts","24","","","self","j","30","true"
"null","<div style=""font-size:60px;"">+</div>","null","html-keyboard-response","382","344434","0.0-6.0-0.188","LIGR","3","f","rechts","24","","fixation","","","",""
"1000","img/120_30.png","74","image-keyboard-response","383","345436","0.0-6.0-1.188","LIGR","3","f","rechts","24","","","self","j","120","true"
"null","<div style=""font-size:60px;"">+</div>","null","html-keyboard-response","384","345737","0.0-6.0-0.189","LIGR","3","f","rechts","24","","fixation","","","",""
"1238","img/30_120.png","74","image-keyboard-response","385","346976","0.0-6.0-1.189","LIGR","3","f","rechts","24","","","self","j","30","true"
"null","<div style=""font-size:60px;"">+</div>","null","html-keyboard-response","386","347427","0.0-6.0-0.190","LIGR","3","f","rechts","24","","fixation","","","",""
"817","img/90_330.png","70","image-keyboard-response","387","348245","0.0-6.0-1.190","LIGR","3","f","rechts","24","","","self","f","90","true"
"null","<div style=""font-size:60px;"">+</div>","null","html-keyboard-response","388","348597","0.0-6.0-0.191","LIGR","3","f","rechts","24","","fixation","","","",""
"792","img/0_300.png","70","image-keyboard-response","389","349390","0.0-6.0-1.191","LIGR","3","f","rechts","24","","","self","f","0","true"
"null","<div style=""font-size:60px;"">+</div>","null","html-keyboard-response","390","349792","0.0-6.0-0.192","LIGR","3","f","rechts","24","","fixation","","","",""
"822","img/60_90.png","74","image-keyboard-response","391","350615","0.0-6.0-1.192","LIGR","3","f","rechts","24","","","self","j","60","true"
"null","<div style=""font-size:60px;"">+</div>","null","html-keyboard-response","392","351067","0.0-6.0-0.193","LIGR","3","f","rechts","24","","fixation","","","",""
"1739","img/60_180.png","74","image-keyboard-response","393","352807","0.0-6.0-1.193","LIGR","3","f","rechts","24","","","self","j","60","true"
"null","<div style=""font-size:60px;"">+</div>","null","html-keyboard-response","394","353159","0.0-6.0-0.194","LIGR","3","f","rechts","24","","fixation","","","",""
"1590","img/90_210.png","74","image-keyboard-response","395","354750","0.0-6.0-1.194","LIGR","3","f","rechts","24","","","self","j","90","true"
"null","<div style=""font-size:60px;"">+</div>","null","html-keyboard-response","396","355202","0.0-6.0-0.195","LIGR","3","f","rechts","24","","fixation","","","",""
"1073","img/90_240.png","74","image-keyboard-response","397","356276","0.0-6.0-1.195","LIGR","3","f","rechts","24","","","self","j","90","true"
"null","<div style=""font-size:60px;"">+</div>","null","html-keyboard-response","398","356728","0.0-6.0-0.196","LIGR","3","f","rechts","24","","fixation","","","",""
"817","img/150_120.png","70","image-keyboard-response","399","357546","0.0-6.0-1.196","LIGR","3","f","rechts","24","","","self","f","150","true"
"null","<div style=""font-size:60px;"">+</div>","null","html-keyboard-response","400","357848","0.0-6.0-0.197","LIGR","3","f","rechts","24","","fixation","","","",""
"1322","img/150_300.png","74","image-keyboard-response","401","359171","0.0-6.0-1.197","LIGR","3","f","rechts","24","","","self","j","150","true"
"null","<div style=""font-size:60px;"">+</div>","null","html-keyboard-response","402","359473","0.0-6.0-0.198","LIGR","3","f","rechts","24","","fixation","","","",""
"689","img/0_270.png","70","image-keyboard-response","403","360163","0.0-6.0-1.198","LIGR","3","f","rechts","24","","","self","f","0","true"
"null","<div style=""font-size:60px;"">+</div>","null","html-keyboard-response","404","360515","0.0-6.0-0.199","LIGR","3","f","rechts","24","","fixation","","","",""
"1211","img/150_180.png","74","image-keyboard-response","405","361727","0.0-6.0-1.199","LIGR","3","f","rechts","24","","","self","j","150","true"
"null","<div style=""font-size:60px;"">+</div>","null","html-keyboard-response","406","362079","0.0-6.0-0.200","LIGR","3","f","rechts","24","","fixation","","","",""
"836","img/L30_180.png","70","image-keyboard-response","407","362916","0.0-6.0-1.200","LIGR","3","f","rechts","24","","","self","f","30","true"
"null","<div style=""font-size:60px;"">+</div>","null","html-keyboard-response","408","363268","0.0-6.0-0.201","LIGR","3","f","rechts","24","","fixation","","","",""
"994","img/60_270.png","70","image-keyboard-response","409","364262","0.0-6.0-1.201","LIGR","3","f","rechts","24","","","self","f","60","true"
"null","<div style=""font-size:60px;"">+</div>","null","html-keyboard-response","410","364614","0.0-6.0-0.202","LIGR","3","f","rechts","24","","fixation","","","",""
"642","img/90_180.png","74","image-keyboard-response","411","365257","0.0-6.0-1.202","LIGR","3","f","rechts","24","","","self","j","90","true"
"null","<div style=""font-size:60px;"">+</div>","null","html-keyboard-response","412","365609","0.0-6.0-0.203","LIGR","3","f","rechts","24","","fixation","","","",""
"678","img/60_330.png","70","image-keyboard-response","413","366287","0.0-6.0-1.203","LIGR","3","f","rechts","24","","","self","f","60","true"
"null","<div style=""font-size:60px;"">+</div>","null","html-keyboard-response","414","366738","0.0-6.0-0.204","LIGR","3","f","rechts","24","","fixation","","","",""
"724","img/0_330.png","70","image-keyboard-response","415","367463","0.0-6.0-1.204","LIGR","3","f","rechts","24","","","self","f","0","true"
"null","<div style=""font-size:60px;"">+</div>","null","html-keyboard-response","416","367764","0.0-6.0-0.205","LIGR","3","f","rechts","24","","fixation","","","",""
"758","img/120_210.png","74","image-keyboard-response","417","368523","0.0-6.0-1.205","LIGR","3","f","rechts","24","","","self","j","120","true"
"null","<div style=""font-size:60px;"">+</div>","null","html-keyboard-response","418","368975","0.0-6.0-0.206","LIGR","3","f","rechts","24","","fixation","","","",""
"1090","img/150_90.png","70","image-keyboard-response","419","370065","0.0-6.0-1.206","LIGR","3","f","rechts","24","","","self","f","150","true"
"null","<div style=""font-size:60px;"">+</div>","null","html-keyboard-response","420","370367","0.0-6.0-0.207","LIGR","3","f","rechts","24","","fixation","","","",""
"803","img/0_240.png","70","image-keyboard-response","421","371170","0.0-6.0-1.207","LIGR","3","f","rechts","24","","","self","f","0","true"
"5650","<p>Du hast in 97% der Versuche korrekt entschieden.</p><p>Deine durchschnittliche Reaktionszeit war  774ms.</p><p>Dr&uuml;cke eine beliebige Taste, um die Session zu beenden. Vielen Dank!</p>","74","html-keyboard-response","422","376821","0.0-7.0","LIGR","3","f","rechts","24","","","","","",""
