"rt","stimulus","key_press","trial_type","trial_index","time_elapsed","internal_node_id","subject","session","sex","handedness","age","responses","test_part","condition","correct_response","angle","correct"
"6108","<p>Mental Rotation Experiment.</p> <p>Dr&uuml;cke eine beliebige Taste, um anzufangen.</p>","13","html-keyboard-response","0","6145","0.0-0.0","FLSE","2","m","rechts","23","","","","","",""
"11729","","","survey-text","1","17879","0.0-1.0","FLSE","2","m","rechts","23","{""Q0"":""FLSE""}","","","","",""
"13982","","","survey-text","2","31862","0.0-2.0","FLSE","2","m","rechts","23","{""Q0"":""2""}","","","","",""
"44087","","","survey-multi-choice","3","75953","0.0-3.0","FLSE","2","m","rechts","23","{""Q0"":""m"",""Q1"":""rechts""}","","","","",""
"3057","","","survey-text","4","79011","0.0-4.0","FLSE","2","m","rechts","23","{""Q0"":""23""}","","","","",""
"55722","<p>Stell dir vor, dass du vor einem runden Tisch stehst, auf dem sich ein blauer Ball am Tischrand befindet. Entlang des Tischrands ist jeweils ein verschieden langer Pfeil. Nun bleibst du an deinem Platz vor dem Tisch und rotierst den Tisch entlang des Pfeils (gleiche Richtung und Länge). </p> <img src='img/30_180.png'></img> <br><p> Nachdem du diese (vorgestellte) Rotation durchgef&uuml;hrt hast, schau in Richtung der Tischmitte, und entscheide dann, ob der Ball links oder rechts von dir liegt.</p> <p>Dr&uuml;cke die <strong>'f'</strong>-Taste f&uuml;r links, die <strong>'j'</strong>-Taste f&uuml;r rechts.</p><br><p> Das Bild wird jeweils 1 Sekunde lang pr&auml;sentiert. Du hast 3 Sekunden Zeit eine Entscheidung zu treffen.</p>","70","html-keyboard-response","5","134743","0.0-5.0","FLSE","2","m","rechts","23","","","","","",""
"null","<div style=""font-size:60px;"">+</div>","null","html-keyboard-response","6","136159","0.0-6.0-0.0","FLSE","2","m","rechts","23","","fixation","","","",""
"1178","img/0_30.png","70","image-keyboard-response","7","137358","0.0-6.0-1.0","FLSE","2","m","rechts","23","","","object","j","0","false"
"null","<div style=""font-size:60px;"">+</div>","null","html-keyboard-response","8","137885","0.0-6.0-0.1","FLSE","2","m","rechts","23","","fixation","","","",""
"703","img/0_270.png","70","image-keyboard-response","9","138607","0.0-6.0-1.1","FLSE","2","m","rechts","23","","","object","f","0","true"
"null","<div style=""font-size:60px;"">+</div>","null","html-keyboard-response","10","139072","0.0-6.0-0.2","FLSE","2","m","rechts","23","","fixation","","","",""
"1148","img/30_270.png","74","image-keyboard-response","11","140237","0.0-6.0-1.2","FLSE","2","m","rechts","23","","","object","f","30","false"
"null","<div style=""font-size:60px;"">+</div>","null","html-keyboard-response","12","140667","0.0-6.0-0.3","FLSE","2","m","rechts","23","","fixation","","","",""
"937","img/90_60.png","70","image-keyboard-response","13","141622","0.0-6.0-1.3","FLSE","2","m","rechts","23","","","object","f","90","true"
"null","<div style=""font-size:60px;"">+</div>","null","html-keyboard-response","14","142088","0.0-6.0-0.4","FLSE","2","m","rechts","23","","fixation","","","",""
"787","img/0_90.png","74","image-keyboard-response","15","142893","0.0-6.0-1.4","FLSE","2","m","rechts","23","","","object","j","0","true"
"null","<div style=""font-size:60px;"">+</div>","null","html-keyboard-response","16","143418","0.0-6.0-0.5","FLSE","2","m","rechts","23","","fixation","","","",""
"1040","img/30_60.png","74","image-keyboard-response","17","144478","0.0-6.0-1.5","FLSE","2","m","rechts","23","","","object","j","30","true"
"null","<div style=""font-size:60px;"">+</div>","null","html-keyboard-response","18","144886","0.0-6.0-0.6","FLSE","2","m","rechts","23","","fixation","","","",""
"970","img/30_120.png","70","image-keyboard-response","19","145873","0.0-6.0-1.6","FLSE","2","m","rechts","23","","","object","j","30","false"
"null","<div style=""font-size:60px;"">+</div>","null","html-keyboard-response","20","146240","0.0-6.0-0.7","FLSE","2","m","rechts","23","","fixation","","","",""
"870","img/0_150.png","74","image-keyboard-response","21","147123","0.0-6.0-1.7","FLSE","2","m","rechts","23","","","object","j","0","true"
"null","<div style=""font-size:60px;"">+</div>","null","html-keyboard-response","22","147583","0.0-6.0-0.8","FLSE","2","m","rechts","23","","fixation","","","",""
"945","img/120_210.png","70","image-keyboard-response","23","148541","0.0-6.0-1.8","FLSE","2","m","rechts","23","","","object","f","120","true"
"null","<div style=""font-size:60px;"">+</div>","null","html-keyboard-response","24","148944","0.0-6.0-0.9","FLSE","2","m","rechts","23","","fixation","","","",""
"960","img/L60_180.png","74","image-keyboard-response","25","149923","0.0-6.0-1.9","FLSE","2","m","rechts","23","","","object","j","60","true"
"null","<div style=""font-size:60px;"">+</div>","null","html-keyboard-response","26","150303","0.0-6.0-0.10","FLSE","2","m","rechts","23","","fixation","","","",""
"906","img/60_150.png","74","image-keyboard-response","27","151215","0.0-6.0-1.10","FLSE","2","m","rechts","23","","","object","j","60","true"
"null","<div style=""font-size:60px;"">+</div>","null","html-keyboard-response","28","151538","0.0-6.0-0.11","FLSE","2","m","rechts","23","","fixation","","","",""
"955","img/90_210.png","70","image-keyboard-response","29","152512","0.0-6.0-1.11","FLSE","2","m","rechts","23","","","object","f","90","true"
"null","<div style=""font-size:60px;"">+</div>","null","html-keyboard-response","30","152931","0.0-6.0-0.12","FLSE","2","m","rechts","23","","fixation","","","",""
"1745","img/120_330.png","74","image-keyboard-response","31","154694","0.0-6.0-1.12","FLSE","2","m","rechts","23","","","object","j","120","true"
"null","<div style=""font-size:60px;"">+</div>","null","html-keyboard-response","32","155055","0.0-6.0-0.13","FLSE","2","m","rechts","23","","fixation","","","",""
"983","img/L90_180.png","74","image-keyboard-response","33","156055","0.0-6.0-1.13","FLSE","2","m","rechts","23","","","object","j","90","true"
"null","<div style=""font-size:60px;"">+</div>","null","html-keyboard-response","34","156368","0.0-6.0-0.14","FLSE","2","m","rechts","23","","fixation","","","",""
"936","img/90_240.png","70","image-keyboard-response","35","157325","0.0-6.0-1.14","FLSE","2","m","rechts","23","","","object","f","90","true"
"null","<div style=""font-size:60px;"">+</div>","null","html-keyboard-response","36","157633","0.0-6.0-0.15","FLSE","2","m","rechts","23","","fixation","","","",""
"1101","img/90_180.png","70","image-keyboard-response","37","158765","0.0-6.0-1.15","FLSE","2","m","rechts","23","","","object","f","90","true"
"null","<div style=""font-size:60px;"">+</div>","null","html-keyboard-response","38","159085","0.0-6.0-0.16","FLSE","2","m","rechts","23","","fixation","","","",""
"967","img/0_210.png","70","image-keyboard-response","39","160072","0.0-6.0-1.16","FLSE","2","m","rechts","23","","","object","f","0","true"
"null","<div style=""font-size:60px;"">+</div>","null","html-keyboard-response","40","160430","0.0-6.0-0.17","FLSE","2","m","rechts","23","","fixation","","","",""
"941","img/60_210.png","70","image-keyboard-response","41","161388","0.0-6.0-1.17","FLSE","2","m","rechts","23","","","object","f","60","true"
"null","<div style=""font-size:60px;"">+</div>","null","html-keyboard-response","42","161804","0.0-6.0-0.18","FLSE","2","m","rechts","23","","fixation","","","",""
"1026","img/L30_180.png","74","image-keyboard-response","43","162849","0.0-6.0-1.18","FLSE","2","m","rechts","23","","","object","j","30","true"
"null","<div style=""font-size:60px;"">+</div>","null","html-keyboard-response","44","163213","0.0-6.0-0.19","FLSE","2","m","rechts","23","","fixation","","","",""
"1507","img/60_270.png","70","image-keyboard-response","45","164739","0.0-6.0-1.19","FLSE","2","m","rechts","23","","","object","f","60","true"
"null","<div style=""font-size:60px;"">+</div>","null","html-keyboard-response","46","165197","0.0-6.0-0.20","FLSE","2","m","rechts","23","","fixation","","","",""
"1774","img/30_90.png","70","image-keyboard-response","47","166989","0.0-6.0-1.20","FLSE","2","m","rechts","23","","","object","j","30","false"
"null","<div style=""font-size:60px;"">+</div>","null","html-keyboard-response","48","167494","0.0-6.0-0.21","FLSE","2","m","rechts","23","","fixation","","","",""
"972","img/150_120.png","74","image-keyboard-response","49","168487","0.0-6.0-1.21","FLSE","2","m","rechts","23","","","object","f","150","false"
"null","<div style=""font-size:60px;"">+</div>","null","html-keyboard-response","50","168915","0.0-6.0-0.22","FLSE","2","m","rechts","23","","fixation","","","",""
"1031","img/L120_180.png","74","image-keyboard-response","51","169964","0.0-6.0-1.22","FLSE","2","m","rechts","23","","","object","j","120","true"
"null","<div style=""font-size:60px;"">+</div>","null","html-keyboard-response","52","170274","0.0-6.0-0.23","FLSE","2","m","rechts","23","","fixation","","","",""
"817","img/30_300.png","70","image-keyboard-response","53","171097","0.0-6.0-1.23","FLSE","2","m","rechts","23","","","object","f","30","true"
"null","<div style=""font-size:60px;"">+</div>","null","html-keyboard-response","54","171556","0.0-6.0-0.24","FLSE","2","m","rechts","23","","fixation","","","",""
"680","img/0_330.png","70","image-keyboard-response","55","172254","0.0-6.0-1.24","FLSE","2","m","rechts","23","","","object","f","0","true"
"null","<div style=""font-size:60px;"">+</div>","null","html-keyboard-response","56","172619","0.0-6.0-0.25","FLSE","2","m","rechts","23","","fixation","","","",""
"925","img/90_300.png","74","image-keyboard-response","57","173561","0.0-6.0-1.25","FLSE","2","m","rechts","23","","","object","j","90","true"
"null","<div style=""font-size:60px;"">+</div>","null","html-keyboard-response","58","174027","0.0-6.0-0.26","FLSE","2","m","rechts","23","","fixation","","","",""
"854","img/60_330.png","70","image-keyboard-response","59","174901","0.0-6.0-1.26","FLSE","2","m","rechts","23","","","object","j","60","false"
"null","<div style=""font-size:60px;"">+</div>","null","html-keyboard-response","60","175433","0.0-6.0-0.27","FLSE","2","m","rechts","23","","fixation","","","",""
"944","img/90_120.png","74","image-keyboard-response","61","176395","0.0-6.0-1.27","FLSE","2","m","rechts","23","","","object","j","90","true"
"null","<div style=""font-size:60px;"">+</div>","null","html-keyboard-response","62","176808","0.0-6.0-0.28","FLSE","2","m","rechts","23","","fixation","","","",""
"896","img/120_270.png","74","image-keyboard-response","63","177721","0.0-6.0-1.28","FLSE","2","m","rechts","23","","","object","j","120","true"
"null","<div style=""font-size:60px;"">+</div>","null","html-keyboard-response","64","178198","0.0-6.0-0.29","FLSE","2","m","rechts","23","","fixation","","","",""
"899","img/120_90.png","74","image-keyboard-response","65","179118","0.0-6.0-1.29","FLSE","2","m","rechts","23","","","object","f","120","false"
"null","<div style=""font-size:60px;"">+</div>","null","html-keyboard-response","66","179635","0.0-6.0-0.30","FLSE","2","m","rechts","23","","fixation","","","",""
"963","img/60_180.png","70","image-keyboard-response","67","180615","0.0-6.0-1.30","FLSE","2","m","rechts","23","","","object","f","60","true"
"null","<div style=""font-size:60px;"">+</div>","null","html-keyboard-response","68","181074","0.0-6.0-0.31","FLSE","2","m","rechts","23","","fixation","","","",""
"1243","img/150_240.png","70","image-keyboard-response","69","182334","0.0-6.0-1.31","FLSE","2","m","rechts","23","","","object","j","150","false"
"null","<div style=""font-size:60px;"">+</div>","null","html-keyboard-response","70","182838","0.0-6.0-0.32","FLSE","2","m","rechts","23","","fixation","","","",""
"726","img/0_240.png","70","image-keyboard-response","71","183585","0.0-6.0-1.32","FLSE","2","m","rechts","23","","","object","f","0","true"
"null","<div style=""font-size:60px;"">+</div>","null","html-keyboard-response","72","183950","0.0-6.0-0.33","FLSE","2","m","rechts","23","","fixation","","","",""
"1215","img/150_300.png","74","image-keyboard-response","73","185182","0.0-6.0-1.33","FLSE","2","m","rechts","23","","","object","j","150","true"
"null","<div style=""font-size:60px;"">+</div>","null","html-keyboard-response","74","185607","0.0-6.0-0.34","FLSE","2","m","rechts","23","","fixation","","","",""
"1043","img/60_30.png","74","image-keyboard-response","75","186668","0.0-6.0-1.34","FLSE","2","m","rechts","23","","","object","f","60","false"
"null","<div style=""font-size:60px;"">+</div>","null","html-keyboard-response","76","187044","0.0-6.0-0.35","FLSE","2","m","rechts","23","","fixation","","","",""
"1517","img/90_30.png","70","image-keyboard-response","77","188580","0.0-6.0-1.35","FLSE","2","m","rechts","23","","","object","f","90","true"
"null","<div style=""font-size:60px;"">+</div>","null","html-keyboard-response","78","188934","0.0-6.0-0.36","FLSE","2","m","rechts","23","","fixation","","","",""
"null","img/60_90.png","null","image-keyboard-response","79","191980","0.0-6.0-1.36","FLSE","2","m","rechts","23","","","object","j","60","false"
"null","<div style=""font-size:60px;"">+</div>","null","html-keyboard-response","80","192345","0.0-6.0-0.37","FLSE","2","m","rechts","23","","fixation","","","",""
"null","img/150_180.png","null","image-keyboard-response","81","195356","0.0-6.0-1.37","FLSE","2","m","rechts","23","","","object","f","150","false"
"null","<div style=""font-size:60px;"">+</div>","null","html-keyboard-response","82","195808","0.0-6.0-0.38","FLSE","2","m","rechts","23","","fixation","","","",""
"146","img/150_270.png","74","image-keyboard-response","83","195976","0.0-6.0-1.38","FLSE","2","m","rechts","23","","","object","j","150","true"
"null","<div style=""font-size:60px;"">+</div>","null","html-keyboard-response","84","196284","0.0-6.0-0.39","FLSE","2","m","rechts","23","","fixation","","","",""
"1435","img/L150_180.png","74","image-keyboard-response","85","197726","0.0-6.0-1.39","FLSE","2","m","rechts","23","","","object","j","150","true"
"null","<div style=""font-size:60px;"">+</div>","null","html-keyboard-response","86","198253","0.0-6.0-0.40","FLSE","2","m","rechts","23","","fixation","","","",""
"1035","img/30_240.png","74","image-keyboard-response","87","199299","0.0-6.0-1.40","FLSE","2","m","rechts","23","","","object","f","30","false"
"null","<div style=""font-size:60px;"">+</div>","null","html-keyboard-response","88","199706","0.0-6.0-0.41","FLSE","2","m","rechts","23","","fixation","","","",""
"1174","img/120_30.png","70","image-keyboard-response","89","200888","0.0-6.0-1.41","FLSE","2","m","rechts","23","","","object","f","120","true"
"null","<div style=""font-size:60px;"">+</div>","null","html-keyboard-response","90","201314","0.0-6.0-0.42","FLSE","2","m","rechts","23","","fixation","","","",""
"715","img/0_300.png","70","image-keyboard-response","91","202036","0.0-6.0-1.42","FLSE","2","m","rechts","23","","","object","f","0","true"
"null","<div style=""font-size:60px;"">+</div>","null","html-keyboard-response","92","202345","0.0-6.0-0.43","FLSE","2","m","rechts","23","","fixation","","","",""
"1100","img/0_120.png","74","image-keyboard-response","93","203453","0.0-6.0-1.43","FLSE","2","m","rechts","23","","","object","j","0","true"
"null","<div style=""font-size:60px;"">+</div>","null","html-keyboard-response","94","203910","0.0-6.0-0.44","FLSE","2","m","rechts","23","","fixation","","","",""
"920","img/120_150.png","74","image-keyboard-response","95","204847","0.0-6.0-1.44","FLSE","2","m","rechts","23","","","object","j","120","true"
"null","<div style=""font-size:60px;"">+</div>","null","html-keyboard-response","96","205361","0.0-6.0-0.45","FLSE","2","m","rechts","23","","fixation","","","",""
"632","img/0_60.png","74","image-keyboard-response","97","206007","0.0-6.0-1.45","FLSE","2","m","rechts","23","","","object","j","0","true"
"null","<div style=""font-size:60px;"">+</div>","null","html-keyboard-response","98","206470","0.0-6.0-0.46","FLSE","2","m","rechts","23","","fixation","","","",""
"901","img/150_60.png","74","image-keyboard-response","99","207391","0.0-6.0-1.46","FLSE","2","m","rechts","23","","","object","f","150","false"
"null","<div style=""font-size:60px;"">+</div>","null","html-keyboard-response","100","207769","0.0-6.0-0.47","FLSE","2","m","rechts","23","","fixation","","","",""
"1381","img/90_150.png","74","image-keyboard-response","101","209167","0.0-6.0-1.47","FLSE","2","m","rechts","23","","","object","j","90","true"
"null","<div style=""font-size:60px;"">+</div>","null","html-keyboard-response","102","209676","0.0-6.0-0.48","FLSE","2","m","rechts","23","","fixation","","","",""
"2807","img/30_180.png","74","image-keyboard-response","103","212502","0.0-6.0-1.48","FLSE","2","m","rechts","23","","","object","f","30","false"
"null","<div style=""font-size:60px;"">+</div>","null","html-keyboard-response","104","212873","0.0-6.0-0.49","FLSE","2","m","rechts","23","","fixation","","","",""
"1000","img/90_330.png","74","image-keyboard-response","105","213890","0.0-6.0-1.49","FLSE","2","m","rechts","23","","","object","j","90","true"
"null","<div style=""font-size:60px;"">+</div>","null","html-keyboard-response","106","214348","0.0-6.0-0.50","FLSE","2","m","rechts","23","","fixation","","","",""
"975","img/120_180.png","70","image-keyboard-response","107","215331","0.0-6.0-1.50","FLSE","2","m","rechts","23","","","object","f","120","true"
"null","<div style=""font-size:60px;"">+</div>","null","html-keyboard-response","108","215803","0.0-6.0-0.51","FLSE","2","m","rechts","23","","fixation","","","",""
"849","img/150_90.png","74","image-keyboard-response","109","216669","0.0-6.0-1.51","FLSE","2","m","rechts","23","","","object","f","150","false"
"null","<div style=""font-size:60px;"">+</div>","null","html-keyboard-response","110","216974","0.0-6.0-0.52","FLSE","2","m","rechts","23","","fixation","","","",""
"1004","img/60_330.png","74","image-keyboard-response","111","217987","0.0-6.0-1.52","FLSE","2","m","rechts","23","","","object","j","60","true"
"null","<div style=""font-size:60px;"">+</div>","null","html-keyboard-response","112","218364","0.0-6.0-0.53","FLSE","2","m","rechts","23","","fixation","","","",""
"1029","img/30_180.png","74","image-keyboard-response","113","219397","0.0-6.0-1.53","FLSE","2","m","rechts","23","","","object","f","30","false"
"null","<div style=""font-size:60px;"">+</div>","null","html-keyboard-response","114","219911","0.0-6.0-0.54","FLSE","2","m","rechts","23","","fixation","","","",""
"858","img/30_240.png","74","image-keyboard-response","115","220778","0.0-6.0-1.54","FLSE","2","m","rechts","23","","","object","f","30","false"
"null","<div style=""font-size:60px;"">+</div>","null","html-keyboard-response","116","221136","0.0-6.0-0.55","FLSE","2","m","rechts","23","","fixation","","","",""
"2296","img/30_90.png","74","image-keyboard-response","117","223446","0.0-6.0-1.55","FLSE","2","m","rechts","23","","","object","j","30","true"
"null","<div style=""font-size:60px;"">+</div>","null","html-keyboard-response","118","223877","0.0-6.0-0.56","FLSE","2","m","rechts","23","","fixation","","","",""
"665","img/0_300.png","70","image-keyboard-response","119","224546","0.0-6.0-1.56","FLSE","2","m","rechts","23","","","object","f","0","true"
"null","<div style=""font-size:60px;"">+</div>","null","html-keyboard-response","120","225002","0.0-6.0-0.57","FLSE","2","m","rechts","23","","fixation","","","",""
"715","img/30_270.png","70","image-keyboard-response","121","225726","0.0-6.0-1.57","FLSE","2","m","rechts","23","","","object","f","30","true"
"null","<div style=""font-size:60px;"">+</div>","null","html-keyboard-response","122","226081","0.0-6.0-0.58","FLSE","2","m","rechts","23","","fixation","","","",""
"741","img/0_240.png","70","image-keyboard-response","123","226830","0.0-6.0-1.58","FLSE","2","m","rechts","23","","","object","f","0","true"
"null","<div style=""font-size:60px;"">+</div>","null","html-keyboard-response","124","227189","0.0-6.0-0.59","FLSE","2","m","rechts","23","","fixation","","","",""
"723","img/60_90.png","74","image-keyboard-response","125","227923","0.0-6.0-1.59","FLSE","2","m","rechts","23","","","object","j","60","true"
"null","<div style=""font-size:60px;"">+</div>","null","html-keyboard-response","126","228433","0.0-6.0-0.60","FLSE","2","m","rechts","23","","fixation","","","",""
"918","img/0_120.png","74","image-keyboard-response","127","229360","0.0-6.0-1.60","FLSE","2","m","rechts","23","","","object","j","0","true"
"null","<div style=""font-size:60px;"">+</div>","null","html-keyboard-response","128","229886","0.0-6.0-0.61","FLSE","2","m","rechts","23","","fixation","","","",""
"892","img/0_210.png","70","image-keyboard-response","129","230791","0.0-6.0-1.61","FLSE","2","m","rechts","23","","","object","f","0","true"
"null","<div style=""font-size:60px;"">+</div>","null","html-keyboard-response","130","231322","0.0-6.0-0.62","FLSE","2","m","rechts","23","","fixation","","","",""
"1330","img/120_30.png","74","image-keyboard-response","131","232658","0.0-6.0-1.62","FLSE","2","m","rechts","23","","","object","f","120","false"
"null","<div style=""font-size:60px;"">+</div>","null","html-keyboard-response","132","233072","0.0-6.0-0.63","FLSE","2","m","rechts","23","","fixation","","","",""
"1409","img/90_330.png","74","image-keyboard-response","133","234492","0.0-6.0-1.63","FLSE","2","m","rechts","23","","","object","j","90","true"
"null","<div style=""font-size:60px;"">+</div>","null","html-keyboard-response","134","234807","0.0-6.0-0.64","FLSE","2","m","rechts","23","","fixation","","","",""
"568","img/0_30.png","74","image-keyboard-response","135","235390","0.0-6.0-1.64","FLSE","2","m","rechts","23","","","object","j","0","true"
"null","<div style=""font-size:60px;"">+</div>","null","html-keyboard-response","136","235901","0.0-6.0-0.65","FLSE","2","m","rechts","23","","fixation","","","",""
"965","img/150_240.png","70","image-keyboard-response","137","236877","0.0-6.0-1.65","FLSE","2","m","rechts","23","","","object","j","150","false"
"null","<div style=""font-size:60px;"">+</div>","null","html-keyboard-response","138","237338","0.0-6.0-0.66","FLSE","2","m","rechts","23","","fixation","","","",""
"1168","img/150_90.png","74","image-keyboard-response","139","238508","0.0-6.0-1.66","FLSE","2","m","rechts","23","","","object","f","150","false"
"null","<div style=""font-size:60px;"">+</div>","null","html-keyboard-response","140","239013","0.0-6.0-0.67","FLSE","2","m","rechts","23","","fixation","","","",""
"1172","img/90_240.png","70","image-keyboard-response","141","240196","0.0-6.0-1.67","FLSE","2","m","rechts","23","","","object","f","90","true"
"null","<div style=""font-size:60px;"">+</div>","null","html-keyboard-response","142","240621","0.0-6.0-0.68","FLSE","2","m","rechts","23","","fixation","","","",""
"1004","img/60_30.png","70","image-keyboard-response","143","241635","0.0-6.0-1.68","FLSE","2","m","rechts","23","","","object","f","60","true"
"null","<div style=""font-size:60px;"">+</div>","null","html-keyboard-response","144","242059","0.0-6.0-0.69","FLSE","2","m","rechts","23","","fixation","","","",""
"1128","img/30_120.png","74","image-keyboard-response","145","243200","0.0-6.0-1.69","FLSE","2","m","rechts","23","","","object","j","30","true"
"null","<div style=""font-size:60px;"">+</div>","null","html-keyboard-response","146","243606","0.0-6.0-0.70","FLSE","2","m","rechts","23","","fixation","","","",""
"1090","img/120_270.png","70","image-keyboard-response","147","244707","0.0-6.0-1.70","FLSE","2","m","rechts","23","","","object","j","120","false"
"null","<div style=""font-size:60px;"">+</div>","null","html-keyboard-response","148","245231","0.0-6.0-0.71","FLSE","2","m","rechts","23","","fixation","","","",""
"1073","img/150_300.png","70","image-keyboard-response","149","246314","0.0-6.0-1.71","FLSE","2","m","rechts","23","","","object","j","150","false"
"null","<div style=""font-size:60px;"">+</div>","null","html-keyboard-response","150","246684","0.0-6.0-0.72","FLSE","2","m","rechts","23","","fixation","","","",""
"699","img/0_90.png","74","image-keyboard-response","151","247394","0.0-6.0-1.72","FLSE","2","m","rechts","23","","","object","j","0","true"
"null","<div style=""font-size:60px;"">+</div>","null","html-keyboard-response","152","247903","0.0-6.0-0.73","FLSE","2","m","rechts","23","","fixation","","","",""
"1156","img/90_210.png","70","image-keyboard-response","153","249072","0.0-6.0-1.73","FLSE","2","m","rechts","23","","","object","f","90","true"
"null","<div style=""font-size:60px;"">+</div>","null","html-keyboard-response","154","249590","0.0-6.0-0.74","FLSE","2","m","rechts","23","","fixation","","","",""
"603","img/0_150.png","74","image-keyboard-response","155","250206","0.0-6.0-1.74","FLSE","2","m","rechts","23","","","object","j","0","true"
"null","<div style=""font-size:60px;"">+</div>","null","html-keyboard-response","156","250682","0.0-6.0-0.75","FLSE","2","m","rechts","23","","fixation","","","",""
"679","img/0_330.png","70","image-keyboard-response","157","251375","0.0-6.0-1.75","FLSE","2","m","rechts","23","","","object","f","0","true"
"null","<div style=""font-size:60px;"">+</div>","null","html-keyboard-response","158","251841","0.0-6.0-0.76","FLSE","2","m","rechts","23","","fixation","","","",""
"1064","img/90_60.png","70","image-keyboard-response","159","252920","0.0-6.0-1.76","FLSE","2","m","rechts","23","","","object","f","90","true"
"null","<div style=""font-size:60px;"">+</div>","null","html-keyboard-response","160","253435","0.0-6.0-0.77","FLSE","2","m","rechts","23","","fixation","","","",""
"2191","img/150_60.png","74","image-keyboard-response","161","255635","0.0-6.0-1.77","FLSE","2","m","rechts","23","","","object","f","150","false"
"null","<div style=""font-size:60px;"">+</div>","null","html-keyboard-response","162","256054","0.0-6.0-0.78","FLSE","2","m","rechts","23","","fixation","","","",""
"1457","img/120_150.png","70","image-keyboard-response","163","257521","0.0-6.0-1.78","FLSE","2","m","rechts","23","","","object","j","120","false"
"null","<div style=""font-size:60px;"">+</div>","null","html-keyboard-response","164","257823","0.0-6.0-0.79","FLSE","2","m","rechts","23","","fixation","","","",""
"1386","img/150_270.png","70","image-keyboard-response","165","259219","0.0-6.0-1.79","FLSE","2","m","rechts","23","","","object","j","150","false"
"null","<div style=""font-size:60px;"">+</div>","null","html-keyboard-response","166","259698","0.0-6.0-0.80","FLSE","2","m","rechts","23","","fixation","","","",""
"924","img/150_120.png","74","image-keyboard-response","167","260635","0.0-6.0-1.80","FLSE","2","m","rechts","23","","","object","f","150","false"
"null","<div style=""font-size:60px;"">+</div>","null","html-keyboard-response","168","261057","0.0-6.0-0.81","FLSE","2","m","rechts","23","","fixation","","","",""
"1818","img/L60_180.png","74","image-keyboard-response","169","262888","0.0-6.0-1.81","FLSE","2","m","rechts","23","","","object","j","60","true"
"null","<div style=""font-size:60px;"">+</div>","null","html-keyboard-response","170","263292","0.0-6.0-0.82","FLSE","2","m","rechts","23","","fixation","","","",""
"1245","img/90_120.png","70","image-keyboard-response","171","264543","0.0-6.0-1.82","FLSE","2","m","rechts","23","","","object","j","90","false"
"null","<div style=""font-size:60px;"">+</div>","null","html-keyboard-response","172","265058","0.0-6.0-0.83","FLSE","2","m","rechts","23","","fixation","","","",""
"860","img/60_210.png","70","image-keyboard-response","173","265923","0.0-6.0-1.83","FLSE","2","m","rechts","23","","","object","f","60","true"
"null","<div style=""font-size:60px;"">+</div>","null","html-keyboard-response","174","266231","0.0-6.0-0.84","FLSE","2","m","rechts","23","","fixation","","","",""
"1043","img/90_150.png","74","image-keyboard-response","175","267284","0.0-6.0-1.84","FLSE","2","m","rechts","23","","","object","j","90","true"
"null","<div style=""font-size:60px;"">+</div>","null","html-keyboard-response","176","267605","0.0-6.0-0.85","FLSE","2","m","rechts","23","","fixation","","","",""
"1242","img/L30_180.png","74","image-keyboard-response","177","268860","0.0-6.0-1.85","FLSE","2","m","rechts","23","","","object","j","30","true"
"null","<div style=""font-size:60px;"">+</div>","null","html-keyboard-response","178","269215","0.0-6.0-0.86","FLSE","2","m","rechts","23","","fixation","","","",""
"972","img/90_300.png","74","image-keyboard-response","179","270200","0.0-6.0-1.86","FLSE","2","m","rechts","23","","","object","j","90","true"
"null","<div style=""font-size:60px;"">+</div>","null","html-keyboard-response","180","270652","0.0-6.0-0.87","FLSE","2","m","rechts","23","","fixation","","","",""
"1030","img/120_90.png","74","image-keyboard-response","181","271695","0.0-6.0-1.87","FLSE","2","m","rechts","23","","","object","f","120","false"
"null","<div style=""font-size:60px;"">+</div>","null","html-keyboard-response","182","272105","0.0-6.0-0.88","FLSE","2","m","rechts","23","","fixation","","","",""
"706","img/0_60.png","74","image-keyboard-response","183","272821","0.0-6.0-1.88","FLSE","2","m","rechts","23","","","object","j","0","true"
"null","<div style=""font-size:60px;"">+</div>","null","html-keyboard-response","184","273340","0.0-6.0-0.89","FLSE","2","m","rechts","23","","fixation","","","",""
"944","img/90_180.png","70","image-keyboard-response","185","274293","0.0-6.0-1.89","FLSE","2","m","rechts","23","","","object","f","90","true"
"null","<div style=""font-size:60px;"">+</div>","null","html-keyboard-response","186","274825","0.0-6.0-0.90","FLSE","2","m","rechts","23","","fixation","","","",""
"1067","img/120_180.png","70","image-keyboard-response","187","275902","0.0-6.0-1.90","FLSE","2","m","rechts","23","","","object","f","120","true"
"null","<div style=""font-size:60px;"">+</div>","null","html-keyboard-response","188","276357","0.0-6.0-0.91","FLSE","2","m","rechts","23","","fixation","","","",""
"1869","img/120_330.png","74","image-keyboard-response","189","278234","0.0-6.0-1.91","FLSE","2","m","rechts","23","","","object","j","120","true"
"null","<div style=""font-size:60px;"">+</div>","null","html-keyboard-response","190","278638","0.0-6.0-0.92","FLSE","2","m","rechts","23","","fixation","","","",""
"1145","img/30_60.png","74","image-keyboard-response","191","279797","0.0-6.0-1.92","FLSE","2","m","rechts","23","","","object","j","30","true"
"null","<div style=""font-size:60px;"">+</div>","null","html-keyboard-response","192","280153","0.0-6.0-0.93","FLSE","2","m","rechts","23","","fixation","","","",""
"1082","img/60_150.png","74","image-keyboard-response","193","281249","0.0-6.0-1.93","FLSE","2","m","rechts","23","","","object","j","60","true"
"null","<div style=""font-size:60px;"">+</div>","null","html-keyboard-response","194","281607","0.0-6.0-0.94","FLSE","2","m","rechts","23","","fixation","","","",""
"706","img/0_270.png","70","image-keyboard-response","195","282326","0.0-6.0-1.94","FLSE","2","m","rechts","23","","","object","f","0","true"
"null","<div style=""font-size:60px;"">+</div>","null","html-keyboard-response","196","282685","0.0-6.0-0.95","FLSE","2","m","rechts","23","","fixation","","","",""
"1126","img/90_30.png","70","image-keyboard-response","197","283825","0.0-6.0-1.95","FLSE","2","m","rechts","23","","","object","f","90","true"
"null","<div style=""font-size:60px;"">+</div>","null","html-keyboard-response","198","284280","0.0-6.0-0.96","FLSE","2","m","rechts","23","","fixation","","","",""
"993","img/60_270.png","74","image-keyboard-response","199","285286","0.0-6.0-1.96","FLSE","2","m","rechts","23","","","object","f","60","false"
"null","<div style=""font-size:60px;"">+</div>","null","html-keyboard-response","200","285703","0.0-6.0-0.97","FLSE","2","m","rechts","23","","fixation","","","",""
"1192","img/L90_180.png","74","image-keyboard-response","201","286906","0.0-6.0-1.97","FLSE","2","m","rechts","23","","","object","j","90","true"
"null","<div style=""font-size:60px;"">+</div>","null","html-keyboard-response","202","287373","0.0-6.0-0.98","FLSE","2","m","rechts","23","","fixation","","","",""
"894","img/120_210.png","70","image-keyboard-response","203","288278","0.0-6.0-1.98","FLSE","2","m","rechts","23","","","object","f","120","true"
"null","<div style=""font-size:60px;"">+</div>","null","html-keyboard-response","204","288687","0.0-6.0-0.99","FLSE","2","m","rechts","23","","fixation","","","",""
"1066","img/30_300.png","74","image-keyboard-response","205","289765","0.0-6.0-1.99","FLSE","2","m","rechts","23","","","object","f","30","false"
"null","<div style=""font-size:60px;"">+</div>","null","html-keyboard-response","206","290186","0.0-6.0-0.100","FLSE","2","m","rechts","23","","fixation","","","",""
"1726","img/L150_180.png","74","image-keyboard-response","207","291924","0.0-6.0-1.100","FLSE","2","m","rechts","23","","","object","j","150","true"
"null","<div style=""font-size:60px;"">+</div>","null","html-keyboard-response","208","292388","0.0-6.0-0.101","FLSE","2","m","rechts","23","","fixation","","","",""
"1106","img/L120_180.png","74","image-keyboard-response","209","293498","0.0-6.0-1.101","FLSE","2","m","rechts","23","","","object","j","120","true"
"null","<div style=""font-size:60px;"">+</div>","null","html-keyboard-response","210","293923","0.0-6.0-0.102","FLSE","2","m","rechts","23","","fixation","","","",""
"1430","img/60_180.png","70","image-keyboard-response","211","295365","0.0-6.0-1.102","FLSE","2","m","rechts","23","","","object","f","60","true"
"null","<div style=""font-size:60px;"">+</div>","null","html-keyboard-response","212","295677","0.0-6.0-0.103","FLSE","2","m","rechts","23","","fixation","","","",""
"1150","img/150_180.png","70","image-keyboard-response","213","296840","0.0-6.0-1.103","FLSE","2","m","rechts","23","","","object","f","150","true"
"null","<div style=""font-size:60px;"">+</div>","null","html-keyboard-response","214","297161","0.0-6.0-0.104","FLSE","2","m","rechts","23","","fixation","","","",""
"1277","img/120_90.png","74","image-keyboard-response","215","298447","0.0-6.0-1.104","FLSE","2","m","rechts","23","","","object","f","120","false"
"null","<div style=""font-size:60px;"">+</div>","null","html-keyboard-response","216","298754","0.0-6.0-0.105","FLSE","2","m","rechts","23","","fixation","","","",""
"1170","img/150_270.png","70","image-keyboard-response","217","299934","0.0-6.0-1.105","FLSE","2","m","rechts","23","","","object","j","150","false"
"null","<div style=""font-size:60px;"">+</div>","null","html-keyboard-response","218","300317","0.0-6.0-0.106","FLSE","2","m","rechts","23","","fixation","","","",""
"1475","img/120_330.png","74","image-keyboard-response","219","301803","0.0-6.0-1.106","FLSE","2","m","rechts","23","","","object","j","120","true"
"null","<div style=""font-size:60px;"">+</div>","null","html-keyboard-response","220","302114","0.0-6.0-0.107","FLSE","2","m","rechts","23","","fixation","","","",""
"1271","img/30_180.png","70","image-keyboard-response","221","303397","0.0-6.0-1.107","FLSE","2","m","rechts","23","","","object","f","30","true"
"null","<div style=""font-size:60px;"">+</div>","null","html-keyboard-response","222","303756","0.0-6.0-0.108","FLSE","2","m","rechts","23","","fixation","","","",""
"1117","img/L60_180.png","74","image-keyboard-response","223","304885","0.0-6.0-1.108","FLSE","2","m","rechts","23","","","object","j","60","true"
"null","<div style=""font-size:60px;"">+</div>","null","html-keyboard-response","224","305410","0.0-6.0-0.109","FLSE","2","m","rechts","23","","fixation","","","",""
"974","img/0_330.png","70","image-keyboard-response","225","306390","0.0-6.0-1.109","FLSE","2","m","rechts","23","","","object","f","0","true"
"null","<div style=""font-size:60px;"">+</div>","null","html-keyboard-response","226","306741","0.0-6.0-0.110","FLSE","2","m","rechts","23","","fixation","","","",""
"1170","img/150_90.png","74","image-keyboard-response","227","307922","0.0-6.0-1.110","FLSE","2","m","rechts","23","","","object","f","150","false"
"null","<div style=""font-size:60px;"">+</div>","null","html-keyboard-response","228","308334","0.0-6.0-0.111","FLSE","2","m","rechts","23","","fixation","","","",""
"1262","img/120_270.png","70","image-keyboard-response","229","309609","0.0-6.0-1.111","FLSE","2","m","rechts","23","","","object","j","120","false"
"null","<div style=""font-size:60px;"">+</div>","null","html-keyboard-response","230","309912","0.0-6.0-0.112","FLSE","2","m","rechts","23","","fixation","","","",""
"1162","img/60_150.png","74","image-keyboard-response","231","311084","0.0-6.0-1.112","FLSE","2","m","rechts","23","","","object","j","60","true"
"null","<div style=""font-size:60px;"">+</div>","null","html-keyboard-response","232","311505","0.0-6.0-0.113","FLSE","2","m","rechts","23","","fixation","","","",""
"1334","img/150_180.png","74","image-keyboard-response","233","312850","0.0-6.0-1.113","FLSE","2","m","rechts","23","","","object","f","150","false"
"null","<div style=""font-size:60px;"">+</div>","null","html-keyboard-response","234","313305","0.0-6.0-0.114","FLSE","2","m","rechts","23","","fixation","","","",""
"1009","img/30_120.png","70","image-keyboard-response","235","314323","0.0-6.0-1.114","FLSE","2","m","rechts","23","","","object","j","30","false"
"null","<div style=""font-size:60px;"">+</div>","null","html-keyboard-response","236","314726","0.0-6.0-0.115","FLSE","2","m","rechts","23","","fixation","","","",""
"796","img/0_240.png","70","image-keyboard-response","237","315535","0.0-6.0-1.115","FLSE","2","m","rechts","23","","","object","f","0","true"
"null","<div style=""font-size:60px;"">+</div>","null","html-keyboard-response","238","315867","0.0-6.0-0.116","FLSE","2","m","rechts","23","","fixation","","","",""
"1022","img/90_240.png","74","image-keyboard-response","239","316899","0.0-6.0-1.116","FLSE","2","m","rechts","23","","","object","f","90","false"
"null","<div style=""font-size:60px;"">+</div>","null","html-keyboard-response","240","317323","0.0-6.0-0.117","FLSE","2","m","rechts","23","","fixation","","","",""
"null","img/90_60.png","null","image-keyboard-response","241","320561","0.0-6.0-1.117","FLSE","2","m","rechts","23","","","object","f","90","false"
"null","<div style=""font-size:60px;"">+</div>","null","html-keyboard-response","242","320984","0.0-6.0-0.118","FLSE","2","m","rechts","23","","fixation","","","",""
"1353","img/60_30.png","74","image-keyboard-response","243","322366","0.0-6.0-1.118","FLSE","2","m","rechts","23","","","object","f","60","false"
"null","<div style=""font-size:60px;"">+</div>","null","html-keyboard-response","244","322894","0.0-6.0-0.119","FLSE","2","m","rechts","23","","fixation","","","",""
"1213","img/150_60.png","74","image-keyboard-response","245","324123","0.0-6.0-1.119","FLSE","2","m","rechts","23","","","object","f","150","false"
"null","<div style=""font-size:60px;"">+</div>","null","html-keyboard-response","246","324439","0.0-6.0-0.120","FLSE","2","m","rechts","23","","fixation","","","",""
"1492","img/0_90.png","70","image-keyboard-response","247","325945","0.0-6.0-1.120","FLSE","2","m","rechts","23","","","object","j","0","false"
"null","<div style=""font-size:60px;"">+</div>","null","html-keyboard-response","248","326254","0.0-6.0-0.121","FLSE","2","m","rechts","23","","fixation","","","",""
"2863","img/L150_180.png","74","image-keyboard-response","249","329130","0.0-6.0-1.121","FLSE","2","m","rechts","23","","","object","j","150","true"
"null","<div style=""font-size:60px;"">+</div>","null","html-keyboard-response","250","329569","0.0-6.0-0.122","FLSE","2","m","rechts","23","","fixation","","","",""
"1236","img/60_270.png","74","image-keyboard-response","251","330815","0.0-6.0-1.122","FLSE","2","m","rechts","23","","","object","f","60","false"
"null","<div style=""font-size:60px;"">+</div>","null","html-keyboard-response","252","331237","0.0-6.0-0.123","FLSE","2","m","rechts","23","","fixation","","","",""
"1181","img/120_150.png","74","image-keyboard-response","253","332426","0.0-6.0-1.123","FLSE","2","m","rechts","23","","","object","j","120","true"
"null","<div style=""font-size:60px;"">+</div>","null","html-keyboard-response","254","332789","0.0-6.0-0.124","FLSE","2","m","rechts","23","","fixation","","","",""
"904","img/150_240.png","70","image-keyboard-response","255","333707","0.0-6.0-1.124","FLSE","2","m","rechts","23","","","object","j","150","false"
"null","<div style=""font-size:60px;"">+</div>","null","html-keyboard-response","256","334214","0.0-6.0-0.125","FLSE","2","m","rechts","23","","fixation","","","",""
"1185","img/30_240.png","74","image-keyboard-response","257","335404","0.0-6.0-1.125","FLSE","2","m","rechts","23","","","object","f","30","false"
"null","<div style=""font-size:60px;"">+</div>","null","html-keyboard-response","258","335807","0.0-6.0-0.126","FLSE","2","m","rechts","23","","fixation","","","",""
"1009","img/60_90.png","70","image-keyboard-response","259","336821","0.0-6.0-1.126","FLSE","2","m","rechts","23","","","object","j","60","false"
"null","<div style=""font-size:60px;"">+</div>","null","html-keyboard-response","260","337338","0.0-6.0-0.127","FLSE","2","m","rechts","23","","fixation","","","",""
"918","img/0_150.png","70","image-keyboard-response","261","338262","0.0-6.0-1.127","FLSE","2","m","rechts","23","","","object","j","0","false"
"null","<div style=""font-size:60px;"">+</div>","null","html-keyboard-response","262","338620","0.0-6.0-0.128","FLSE","2","m","rechts","23","","fixation","","","",""
"839","img/90_150.png","74","image-keyboard-response","263","339465","0.0-6.0-1.128","FLSE","2","m","rechts","23","","","object","j","90","true"
"null","<div style=""font-size:60px;"">+</div>","null","html-keyboard-response","264","339870","0.0-6.0-0.129","FLSE","2","m","rechts","23","","fixation","","","",""
"681","img/0_270.png","70","image-keyboard-response","265","340557","0.0-6.0-1.129","FLSE","2","m","rechts","23","","","object","f","0","true"
"null","<div style=""font-size:60px;"">+</div>","null","html-keyboard-response","266","341089","0.0-6.0-0.130","FLSE","2","m","rechts","23","","fixation","","","",""
"1702","img/90_30.png","74","image-keyboard-response","267","342795","0.0-6.0-1.130","FLSE","2","m","rechts","23","","","object","f","90","false"
"null","<div style=""font-size:60px;"">+</div>","null","html-keyboard-response","268","343152","0.0-6.0-0.131","FLSE","2","m","rechts","23","","fixation","","","",""
"1121","img/60_330.png","74","image-keyboard-response","269","344280","0.0-6.0-1.131","FLSE","2","m","rechts","23","","","object","j","60","true"
"null","<div style=""font-size:60px;"">+</div>","null","html-keyboard-response","270","344730","0.0-6.0-0.132","FLSE","2","m","rechts","23","","fixation","","","",""
"1050","img/L90_180.png","74","image-keyboard-response","271","345786","0.0-6.0-1.132","FLSE","2","m","rechts","23","","","object","j","90","true"
"null","<div style=""font-size:60px;"">+</div>","null","html-keyboard-response","272","346106","0.0-6.0-0.133","FLSE","2","m","rechts","23","","fixation","","","",""
"814","img/120_210.png","70","image-keyboard-response","273","346924","0.0-6.0-1.133","FLSE","2","m","rechts","23","","","object","f","120","true"
"null","<div style=""font-size:60px;"">+</div>","null","html-keyboard-response","274","347340","0.0-6.0-0.134","FLSE","2","m","rechts","23","","fixation","","","",""
"1098","img/60_210.png","70","image-keyboard-response","275","348443","0.0-6.0-1.134","FLSE","2","m","rechts","23","","","object","f","60","true"
"null","<div style=""font-size:60px;"">+</div>","null","html-keyboard-response","276","348966","0.0-6.0-0.135","FLSE","2","m","rechts","23","","fixation","","","",""
"1215","img/90_180.png","70","image-keyboard-response","277","350186","0.0-6.0-1.135","FLSE","2","m","rechts","23","","","object","f","90","true"
"null","<div style=""font-size:60px;"">+</div>","null","html-keyboard-response","278","350544","0.0-6.0-0.136","FLSE","2","m","rechts","23","","fixation","","","",""
"1045","img/30_300.png","74","image-keyboard-response","279","351593","0.0-6.0-1.136","FLSE","2","m","rechts","23","","","object","f","30","false"
"null","<div style=""font-size:60px;"">+</div>","null","html-keyboard-response","280","352106","0.0-6.0-0.137","FLSE","2","m","rechts","23","","fixation","","","",""
"1325","img/120_30.png","74","image-keyboard-response","281","353436","0.0-6.0-1.137","FLSE","2","m","rechts","23","","","object","f","120","false"
"null","<div style=""font-size:60px;"">+</div>","null","html-keyboard-response","282","353951","0.0-6.0-0.138","FLSE","2","m","rechts","23","","fixation","","","",""
"807","img/0_30.png","74","image-keyboard-response","283","354765","0.0-6.0-1.138","FLSE","2","m","rechts","23","","","object","j","0","true"
"null","<div style=""font-size:60px;"">+</div>","null","html-keyboard-response","284","355124","0.0-6.0-0.139","FLSE","2","m","rechts","23","","fixation","","","",""
"1052","img/90_330.png","74","image-keyboard-response","285","356182","0.0-6.0-1.139","FLSE","2","m","rechts","23","","","object","j","90","true"
"null","<div style=""font-size:60px;"">+</div>","null","html-keyboard-response","286","356592","0.0-6.0-0.140","FLSE","2","m","rechts","23","","fixation","","","",""
"1263","img/90_210.png","70","image-keyboard-response","287","357860","0.0-6.0-1.140","FLSE","2","m","rechts","23","","","object","f","90","true"
"null","<div style=""font-size:60px;"">+</div>","null","html-keyboard-response","288","358186","0.0-6.0-0.141","FLSE","2","m","rechts","23","","fixation","","","",""
"972","img/150_300.png","74","image-keyboard-response","289","359163","0.0-6.0-1.141","FLSE","2","m","rechts","23","","","object","j","150","true"
"null","<div style=""font-size:60px;"">+</div>","null","html-keyboard-response","290","359654","0.0-6.0-0.142","FLSE","2","m","rechts","23","","fixation","","","",""
"987","img/30_60.png","70","image-keyboard-response","291","360647","0.0-6.0-1.142","FLSE","2","m","rechts","23","","","object","j","30","false"
"null","<div style=""font-size:60px;"">+</div>","null","html-keyboard-response","292","361154","0.0-6.0-0.143","FLSE","2","m","rechts","23","","fixation","","","",""
"827","img/L30_180.png","74","image-keyboard-response","293","361988","0.0-6.0-1.143","FLSE","2","m","rechts","23","","","object","j","30","true"
"null","<div style=""font-size:60px;"">+</div>","null","html-keyboard-response","294","362340","0.0-6.0-0.144","FLSE","2","m","rechts","23","","fixation","","","",""
"1114","img/30_270.png","74","image-keyboard-response","295","363462","0.0-6.0-1.144","FLSE","2","m","rechts","23","","","object","f","30","false"
"null","<div style=""font-size:60px;"">+</div>","null","html-keyboard-response","296","363873","0.0-6.0-0.145","FLSE","2","m","rechts","23","","fixation","","","",""
"830","img/0_120.png","74","image-keyboard-response","297","364710","0.0-6.0-1.145","FLSE","2","m","rechts","23","","","object","j","0","true"
"null","<div style=""font-size:60px;"">+</div>","null","html-keyboard-response","298","365171","0.0-6.0-0.146","FLSE","2","m","rechts","23","","fixation","","","",""
"1064","img/30_90.png","70","image-keyboard-response","299","366240","0.0-6.0-1.146","FLSE","2","m","rechts","23","","","object","j","30","false"
"null","<div style=""font-size:60px;"">+</div>","null","html-keyboard-response","300","366561","0.0-6.0-0.147","FLSE","2","m","rechts","23","","fixation","","","",""
"1036","img/L120_180.png","74","image-keyboard-response","301","367602","0.0-6.0-1.147","FLSE","2","m","rechts","23","","","object","j","120","true"
"null","<div style=""font-size:60px;"">+</div>","null","html-keyboard-response","302","367967","0.0-6.0-0.148","FLSE","2","m","rechts","23","","fixation","","","",""
"832","img/0_60.png","74","image-keyboard-response","303","368804","0.0-6.0-1.148","FLSE","2","m","rechts","23","","","object","j","0","true"
"null","<div style=""font-size:60px;"">+</div>","null","html-keyboard-response","304","369109","0.0-6.0-0.149","FLSE","2","m","rechts","23","","fixation","","","",""
"1074","img/90_120.png","74","image-keyboard-response","305","370189","0.0-6.0-1.149","FLSE","2","m","rechts","23","","","object","j","90","true"
"null","<div style=""font-size:60px;"">+</div>","null","html-keyboard-response","306","370642","0.0-6.0-0.150","FLSE","2","m","rechts","23","","fixation","","","",""
"1385","img/150_120.png","74","image-keyboard-response","307","372035","0.0-6.0-1.150","FLSE","2","m","rechts","23","","","object","f","150","false"
"null","<div style=""font-size:60px;"">+</div>","null","html-keyboard-response","308","372438","0.0-6.0-0.151","FLSE","2","m","rechts","23","","fixation","","","",""
"1829","img/60_180.png","70","image-keyboard-response","309","374274","0.0-6.0-1.151","FLSE","2","m","rechts","23","","","object","f","60","true"
"null","<div style=""font-size:60px;"">+</div>","null","html-keyboard-response","310","374734","0.0-6.0-0.152","FLSE","2","m","rechts","23","","fixation","","","",""
"1263","img/120_180.png","70","image-keyboard-response","311","376005","0.0-6.0-1.152","FLSE","2","m","rechts","23","","","object","f","120","true"
"null","<div style=""font-size:60px;"">+</div>","null","html-keyboard-response","312","376531","0.0-6.0-0.153","FLSE","2","m","rechts","23","","fixation","","","",""
"952","img/90_300.png","74","image-keyboard-response","313","377490","0.0-6.0-1.153","FLSE","2","m","rechts","23","","","object","j","90","true"
"null","<div style=""font-size:60px;"">+</div>","null","html-keyboard-response","314","377907","0.0-6.0-0.154","FLSE","2","m","rechts","23","","fixation","","","",""
"770","img/0_300.png","70","image-keyboard-response","315","378684","0.0-6.0-1.154","FLSE","2","m","rechts","23","","","object","f","0","true"
"null","<div style=""font-size:60px;"">+</div>","null","html-keyboard-response","316","379049","0.0-6.0-0.155","FLSE","2","m","rechts","23","","fixation","","","",""
"684","img/0_210.png","70","image-keyboard-response","317","379741","0.0-6.0-1.155","FLSE","2","m","rechts","23","","","object","f","0","true"
"null","<div style=""font-size:60px;"">+</div>","null","html-keyboard-response","318","380205","0.0-6.0-0.156","FLSE","2","m","rechts","23","","fixation","","","",""
"979","img/30_120.png","70","image-keyboard-response","319","381192","0.0-6.0-1.156","FLSE","2","m","rechts","23","","","object","j","30","false"
"null","<div style=""font-size:60px;"">+</div>","null","html-keyboard-response","320","381611","0.0-6.0-0.157","FLSE","2","m","rechts","23","","fixation","","","",""
"822","img/150_90.png","70","image-keyboard-response","321","382440","0.0-6.0-1.157","FLSE","2","m","rechts","23","","","object","f","150","true"
"null","<div style=""font-size:60px;"">+</div>","null","html-keyboard-response","322","382845","0.0-6.0-0.158","FLSE","2","m","rechts","23","","fixation","","","",""
"714","img/0_270.png","70","image-keyboard-response","323","383566","0.0-6.0-1.158","FLSE","2","m","rechts","23","","","object","f","0","true"
"null","<div style=""font-size:60px;"">+</div>","null","html-keyboard-response","324","384081","0.0-6.0-0.159","FLSE","2","m","rechts","23","","fixation","","","",""
"898","img/150_120.png","74","image-keyboard-response","325","384983","0.0-6.0-1.159","FLSE","2","m","rechts","23","","","object","f","150","false"
"null","<div style=""font-size:60px;"">+</div>","null","html-keyboard-response","326","385345","0.0-6.0-0.160","FLSE","2","m","rechts","23","","fixation","","","",""
"1239","img/30_180.png","70","image-keyboard-response","327","386592","0.0-6.0-1.160","FLSE","2","m","rechts","23","","","object","f","30","true"
"null","<div style=""font-size:60px;"">+</div>","null","html-keyboard-response","328","387111","0.0-6.0-0.161","FLSE","2","m","rechts","23","","fixation","","","",""
"1206","img/30_270.png","74","image-keyboard-response","329","388323","0.0-6.0-1.161","FLSE","2","m","rechts","23","","","object","f","30","false"
"null","<div style=""font-size:60px;"">+</div>","null","html-keyboard-response","330","388676","0.0-6.0-0.162","FLSE","2","m","rechts","23","","fixation","","","",""
"1746","img/30_90.png","70","image-keyboard-response","331","390427","0.0-6.0-1.162","FLSE","2","m","rechts","23","","","object","j","30","false"
"null","<div style=""font-size:60px;"">+</div>","null","html-keyboard-response","332","390941","0.0-6.0-0.163","FLSE","2","m","rechts","23","","fixation","","","",""
"1011","img/90_300.png","74","image-keyboard-response","333","391958","0.0-6.0-1.163","FLSE","2","m","rechts","23","","","object","j","90","true"
"null","<div style=""font-size:60px;"">+</div>","null","html-keyboard-response","334","392316","0.0-6.0-0.164","FLSE","2","m","rechts","23","","fixation","","","",""
"715","img/0_90.png","74","image-keyboard-response","335","393037","0.0-6.0-1.164","FLSE","2","m","rechts","23","","","object","j","0","true"
"null","<div style=""font-size:60px;"">+</div>","null","html-keyboard-response","336","393551","0.0-6.0-0.165","FLSE","2","m","rechts","23","","fixation","","","",""
"729","img/0_120.png","74","image-keyboard-response","337","394287","0.0-6.0-1.165","FLSE","2","m","rechts","23","","","object","j","0","true"
"null","<div style=""font-size:60px;"">+</div>","null","html-keyboard-response","338","394693","0.0-6.0-0.166","FLSE","2","m","rechts","23","","fixation","","","",""
"938","img/90_210.png","70","image-keyboard-response","339","395635","0.0-6.0-1.166","FLSE","2","m","rechts","23","","","object","f","90","true"
"null","<div style=""font-size:60px;"">+</div>","null","html-keyboard-response","340","396050","0.0-6.0-0.167","FLSE","2","m","rechts","23","","fixation","","","",""
"670","img/0_240.png","70","image-keyboard-response","341","396729","0.0-6.0-1.167","FLSE","2","m","rechts","23","","","object","f","0","true"
"null","<div style=""font-size:60px;"">+</div>","null","html-keyboard-response","342","397192","0.0-6.0-0.168","FLSE","2","m","rechts","23","","fixation","","","",""
"780","img/0_60.png","74","image-keyboard-response","343","397977","0.0-6.0-1.168","FLSE","2","m","rechts","23","","","object","j","0","true"
"null","<div style=""font-size:60px;"">+</div>","null","html-keyboard-response","344","398490","0.0-6.0-0.169","FLSE","2","m","rechts","23","","fixation","","","",""
"1169","img/60_180.png","70","image-keyboard-response","345","399665","0.0-6.0-1.169","FLSE","2","m","rechts","23","","","object","f","60","true"
"null","<div style=""font-size:60px;"">+</div>","null","html-keyboard-response","346","399975","0.0-6.0-0.170","FLSE","2","m","rechts","23","","fixation","","","",""
"989","img/L90_180.png","74","image-keyboard-response","347","400970","0.0-6.0-1.170","FLSE","2","m","rechts","23","","","object","j","90","true"
"null","<div style=""font-size:60px;"">+</div>","null","html-keyboard-response","348","401427","0.0-6.0-0.171","FLSE","2","m","rechts","23","","fixation","","","",""
"628","img/0_300.png","70","image-keyboard-response","349","402061","0.0-6.0-1.171","FLSE","2","m","rechts","23","","","object","f","0","true"
"null","<div style=""font-size:60px;"">+</div>","null","html-keyboard-response","350","402427","0.0-6.0-0.172","FLSE","2","m","rechts","23","","fixation","","","",""
"887","img/150_180.png","70","image-keyboard-response","351","403321","0.0-6.0-1.172","FLSE","2","m","rechts","23","","","object","f","150","true"
"null","<div style=""font-size:60px;"">+</div>","null","html-keyboard-response","352","403756","0.0-6.0-0.173","FLSE","2","m","rechts","23","","fixation","","","",""
"989","img/90_330.png","74","image-keyboard-response","353","404751","0.0-6.0-1.173","FLSE","2","m","rechts","23","","","object","j","90","true"
"null","<div style=""font-size:60px;"">+</div>","null","html-keyboard-response","354","405241","0.0-6.0-0.174","FLSE","2","m","rechts","23","","fixation","","","",""
"929","img/30_60.png","70","image-keyboard-response","355","406178","0.0-6.0-1.174","FLSE","2","m","rechts","23","","","object","j","30","false"
"null","<div style=""font-size:60px;"">+</div>","null","html-keyboard-response","356","406492","0.0-6.0-0.175","FLSE","2","m","rechts","23","","fixation","","","",""
"994","img/60_30.png","70","image-keyboard-response","357","407494","0.0-6.0-1.175","FLSE","2","m","rechts","23","","","object","f","60","true"
"null","<div style=""font-size:60px;"">+</div>","null","html-keyboard-response","358","407804","0.0-6.0-0.176","FLSE","2","m","rechts","23","","fixation","","","",""
"696","img/90_30.png","70","image-keyboard-response","359","408508","0.0-6.0-1.176","FLSE","2","m","rechts","23","","","object","f","90","true"
"null","<div style=""font-size:60px;"">+</div>","null","html-keyboard-response","360","409023","0.0-6.0-0.177","FLSE","2","m","rechts","23","","fixation","","","",""
"918","img/120_90.png","74","image-keyboard-response","361","409947","0.0-6.0-1.177","FLSE","2","m","rechts","23","","","object","f","120","false"
"null","<div style=""font-size:60px;"">+</div>","null","html-keyboard-response","362","410413","0.0-6.0-0.178","FLSE","2","m","rechts","23","","fixation","","","",""
"665","img/0_30.png","74","image-keyboard-response","363","411084","0.0-6.0-1.178","FLSE","2","m","rechts","23","","","object","j","0","true"
"null","<div style=""font-size:60px;"">+</div>","null","html-keyboard-response","364","411616","0.0-6.0-0.179","FLSE","2","m","rechts","23","","fixation","","","",""
"846","img/120_270.png","70","image-keyboard-response","365","412468","0.0-6.0-1.179","FLSE","2","m","rechts","23","","","object","j","120","false"
"null","<div style=""font-size:60px;"">+</div>","null","html-keyboard-response","366","412820","0.0-6.0-0.180","FLSE","2","m","rechts","23","","fixation","","","",""
"911","img/90_240.png","70","image-keyboard-response","367","413739","0.0-6.0-1.180","FLSE","2","m","rechts","23","","","object","f","90","true"
"null","<div style=""font-size:60px;"">+</div>","null","html-keyboard-response","368","414054","0.0-6.0-0.181","FLSE","2","m","rechts","23","","fixation","","","",""
"895","img/90_150.png","74","image-keyboard-response","369","414954","0.0-6.0-1.181","FLSE","2","m","rechts","23","","","object","j","90","true"
"null","<div style=""font-size:60px;"">+</div>","null","html-keyboard-response","370","415368","0.0-6.0-0.182","FLSE","2","m","rechts","23","","fixation","","","",""
"919","img/90_120.png","74","image-keyboard-response","371","416291","0.0-6.0-1.182","FLSE","2","m","rechts","23","","","object","j","90","true"
"null","<div style=""font-size:60px;"">+</div>","null","html-keyboard-response","372","416648","0.0-6.0-0.183","FLSE","2","m","rechts","23","","fixation","","","",""
"1042","img/60_150.png","74","image-keyboard-response","373","417699","0.0-6.0-1.183","FLSE","2","m","rechts","23","","","object","j","60","true"
"null","<div style=""font-size:60px;"">+</div>","null","html-keyboard-response","374","418007","0.0-6.0-0.184","FLSE","2","m","rechts","23","","fixation","","","",""
"809","img/90_180.png","70","image-keyboard-response","375","418824","0.0-6.0-1.184","FLSE","2","m","rechts","23","","","object","f","90","true"
"null","<div style=""font-size:60px;"">+</div>","null","html-keyboard-response","376","419338","0.0-6.0-0.185","FLSE","2","m","rechts","23","","fixation","","","",""
"1068","img/120_30.png","74","image-keyboard-response","377","420410","0.0-6.0-1.185","FLSE","2","m","rechts","23","","","object","f","120","false"
"null","<div style=""font-size:60px;"">+</div>","null","html-keyboard-response","378","420743","0.0-6.0-0.186","FLSE","2","m","rechts","23","","fixation","","","",""
"1132","img/60_90.png","70","image-keyboard-response","379","421882","0.0-6.0-1.186","FLSE","2","m","rechts","23","","","object","j","60","false"
"null","<div style=""font-size:60px;"">+</div>","null","html-keyboard-response","380","422321","0.0-6.0-0.187","FLSE","2","m","rechts","23","","fixation","","","",""
"949","img/L60_180.png","74","image-keyboard-response","381","423278","0.0-6.0-1.187","FLSE","2","m","rechts","23","","","object","j","60","true"
"null","<div style=""font-size:60px;"">+</div>","null","html-keyboard-response","382","423729","0.0-6.0-0.188","FLSE","2","m","rechts","23","","fixation","","","",""
"1037","img/L150_180.png","74","image-keyboard-response","383","424773","0.0-6.0-1.188","FLSE","2","m","rechts","23","","","object","j","150","true"
"null","<div style=""font-size:60px;"">+</div>","null","html-keyboard-response","384","425291","0.0-6.0-0.189","FLSE","2","m","rechts","23","","fixation","","","",""
"736","img/0_150.png","74","image-keyboard-response","385","426035","0.0-6.0-1.189","FLSE","2","m","rechts","23","","","object","j","0","true"
"null","<div style=""font-size:60px;"">+</div>","null","html-keyboard-response","386","426526","0.0-6.0-0.190","FLSE","2","m","rechts","23","","fixation","","","",""
"762","img/60_270.png","70","image-keyboard-response","387","427293","0.0-6.0-1.190","FLSE","2","m","rechts","23","","","object","f","60","true"
"null","<div style=""font-size:60px;"">+</div>","null","html-keyboard-response","388","427760","0.0-6.0-0.191","FLSE","2","m","rechts","23","","fixation","","","",""
"880","img/120_150.png","74","image-keyboard-response","389","428645","0.0-6.0-1.191","FLSE","2","m","rechts","23","","","object","j","120","true"
"null","<div style=""font-size:60px;"">+</div>","null","html-keyboard-response","390","429166","0.0-6.0-0.192","FLSE","2","m","rechts","23","","fixation","","","",""
"873","img/150_300.png","70","image-keyboard-response","391","430054","0.0-6.0-1.192","FLSE","2","m","rechts","23","","","object","j","150","false"
"null","<div style=""font-size:60px;"">+</div>","null","html-keyboard-response","392","430574","0.0-6.0-0.193","FLSE","2","m","rechts","23","","fixation","","","",""
"1136","img/150_240.png","74","image-keyboard-response","393","431716","0.0-6.0-1.193","FLSE","2","m","rechts","23","","","object","j","150","true"
"null","<div style=""font-size:60px;"">+</div>","null","html-keyboard-response","394","432120","0.0-6.0-0.194","FLSE","2","m","rechts","23","","fixation","","","",""
"811","img/150_270.png","70","image-keyboard-response","395","432945","0.0-6.0-1.194","FLSE","2","m","rechts","23","","","object","j","150","false"
"null","<div style=""font-size:60px;"">+</div>","null","html-keyboard-response","396","433355","0.0-6.0-0.195","FLSE","2","m","rechts","23","","fixation","","","",""
"641","img/0_210.png","70","image-keyboard-response","397","434011","0.0-6.0-1.195","FLSE","2","m","rechts","23","","","object","f","0","true"
"null","<div style=""font-size:60px;"">+</div>","null","html-keyboard-response","398","434527","0.0-6.0-0.196","FLSE","2","m","rechts","23","","fixation","","","",""
"565","img/L30_180.png","70","image-keyboard-response","399","435102","0.0-6.0-1.196","FLSE","2","m","rechts","23","","","object","j","30","false"
"null","<div style=""font-size:60px;"">+</div>","null","html-keyboard-response","400","435605","0.0-6.0-0.197","FLSE","2","m","rechts","23","","fixation","","","",""
"1222","img/30_240.png","74","image-keyboard-response","401","436834","0.0-6.0-1.197","FLSE","2","m","rechts","23","","","object","f","30","false"
"null","<div style=""font-size:60px;"">+</div>","null","html-keyboard-response","402","437261","0.0-6.0-0.198","FLSE","2","m","rechts","23","","fixation","","","",""
"991","img/90_60.png","70","image-keyboard-response","403","438266","0.0-6.0-1.198","FLSE","2","m","rechts","23","","","object","f","90","true"
"null","<div style=""font-size:60px;"">+</div>","null","html-keyboard-response","404","438791","0.0-6.0-0.199","FLSE","2","m","rechts","23","","fixation","","","",""
"1038","img/60_210.png","70","image-keyboard-response","405","439842","0.0-6.0-1.199","FLSE","2","m","rechts","23","","","object","f","60","true"
"null","<div style=""font-size:60px;"">+</div>","null","html-keyboard-response","406","440370","0.0-6.0-0.200","FLSE","2","m","rechts","23","","fixation","","","",""
"1021","img/120_330.png","74","image-keyboard-response","407","441405","0.0-6.0-1.200","FLSE","2","m","rechts","23","","","object","j","120","true"
"null","<div style=""font-size:60px;"">+</div>","null","html-keyboard-response","408","441715","0.0-6.0-0.201","FLSE","2","m","rechts","23","","fixation","","","",""
"1183","img/L120_180.png","74","image-keyboard-response","409","442912","0.0-6.0-1.201","FLSE","2","m","rechts","23","","","object","j","120","true"
"null","<div style=""font-size:60px;"">+</div>","null","html-keyboard-response","410","443435","0.0-6.0-0.202","FLSE","2","m","rechts","23","","fixation","","","",""
"936","img/60_330.png","74","image-keyboard-response","411","444384","0.0-6.0-1.202","FLSE","2","m","rechts","23","","","object","j","60","true"
"null","<div style=""font-size:60px;"">+</div>","null","html-keyboard-response","412","444691","0.0-6.0-0.203","FLSE","2","m","rechts","23","","fixation","","","",""
"null","img/120_180.png","null","image-keyboard-response","413","447704","0.0-6.0-1.203","FLSE","2","m","rechts","23","","","object","f","120","false"
"null","<div style=""font-size:60px;"">+</div>","null","html-keyboard-response","414","448072","0.0-6.0-0.204","FLSE","2","m","rechts","23","","fixation","","","",""
"7","img/120_210.png","74","image-keyboard-response","415","448088","0.0-6.0-1.204","FLSE","2","m","rechts","23","","","object","f","120","false"
"null","<div style=""font-size:60px;"">+</div>","null","html-keyboard-response","416","448600","0.0-6.0-0.205","FLSE","2","m","rechts","23","","fixation","","","",""
"661","img/0_330.png","70","image-keyboard-response","417","449269","0.0-6.0-1.205","FLSE","2","m","rechts","23","","","object","f","0","true"
"null","<div style=""font-size:60px;"">+</div>","null","html-keyboard-response","418","449598","0.0-6.0-0.206","FLSE","2","m","rechts","23","","fixation","","","",""
"1046","img/30_300.png","74","image-keyboard-response","419","450650","0.0-6.0-1.206","FLSE","2","m","rechts","23","","","object","f","30","false"
"null","<div style=""font-size:60px;"">+</div>","null","html-keyboard-response","420","451020","0.0-6.0-0.207","FLSE","2","m","rechts","23","","fixation","","","",""
"1144","img/150_60.png","74","image-keyboard-response","421","452180","0.0-6.0-1.207","FLSE","2","m","rechts","23","","","object","f","150","false"
"30795","<p>Du hast in 64% der Versuche korrekt entschieden.</p><p>Deine durchschnittliche Reaktionszeit war  1008ms.</p><p>Dr&uuml;cke eine beliebige Taste, um die Session zu beenden. Vielen Dank!</p>","32","html-keyboard-response","422","482977","0.0-7.0","FLSE","2","m","rechts","23","","","","","",""
