"rt","stimulus","key_press","trial_type","trial_index","time_elapsed","internal_node_id","subject","session","sex","handedness","age","responses","test_part","condition","correct_response","angle","correct"
"15085","<p>Mental Rotation Experiment.</p> <p>Dr&uuml;cke eine beliebige Taste, um anzufangen.</p>","13","html-keyboard-response","0","15098","0.0-0.0","FLSE","3","m","rechts","23","","","","","",""
"5165","","","survey-text","1","20267","0.0-1.0","FLSE","3","m","rechts","23","{""Q0"":""FLSE""}","","","","",""
"16200","","","survey-text","2","36467","0.0-2.0","FLSE","3","m","rechts","23","{""Q0"":""3""}","","","","",""
"4642","","","survey-multi-choice","3","41114","0.0-3.0","FLSE","3","m","rechts","23","{""Q0"":""m"",""Q1"":""rechts""}","","","","",""
"3069","","","survey-text","4","44185","0.0-4.0","FLSE","3","m","rechts","23","{""Q0"":""23""}","","","","",""
"90189","<p>Stell dir vor, dass du vor einem runden Tisch stehst, auf dem sich ein blauer Ball am Tischrand befindet. Entlang des Tischrands ist jeweils ein verschieden langer Pfeil. Nun bleibst du an deinem Platz vor dem Tisch und rotierst den Tisch entlang des Pfeils (gleiche Richtung und Länge). </p> <img src='img/30_180.png'></img> <br><p> Nachdem du diese (vorgestellte) Rotation durchgef&uuml;hrt hast, schau in Richtung der Tischmitte, und entscheide dann, ob der Ball links oder rechts von dir liegt.</p> <p>Dr&uuml;cke die <strong>'f'</strong>-Taste f&uuml;r links, die <strong>'j'</strong>-Taste f&uuml;r rechts.</p><br><p> Das Bild wird jeweils 1 Sekunde lang pr&auml;sentiert. Du hast 3 Sekunden Zeit eine Entscheidung zu treffen.</p>","70","html-keyboard-response","5","134384","0.0-5.0","FLSE","3","m","rechts","23","","","","","",""
"null","<div style=""font-size:60px;"">+</div>","null","html-keyboard-response","6","135754","0.0-6.0-0.0","FLSE","3","m","rechts","23","","fixation","","","",""
"972","img/0_270.png","70","image-keyboard-response","7","136745","0.0-6.0-1.0","FLSE","3","m","rechts","23","","","object","f","0","true"
"null","<div style=""font-size:60px;"">+</div>","null","html-keyboard-response","8","137163","0.0-6.0-0.1","FLSE","3","m","rechts","23","","fixation","","","",""
"1026","img/150_270.png","70","image-keyboard-response","9","138205","0.0-6.0-1.1","FLSE","3","m","rechts","23","","","object","j","150","false"
"null","<div style=""font-size:60px;"">+</div>","null","html-keyboard-response","10","138677","0.0-6.0-0.2","FLSE","3","m","rechts","23","","fixation","","","",""
"974","img/90_240.png","70","image-keyboard-response","11","139668","0.0-6.0-1.2","FLSE","3","m","rechts","23","","","object","f","90","true"
"null","<div style=""font-size:60px;"">+</div>","null","html-keyboard-response","12","140022","0.0-6.0-0.3","FLSE","3","m","rechts","23","","fixation","","","",""
"1157","img/30_120.png","74","image-keyboard-response","13","141199","0.0-6.0-1.3","FLSE","3","m","rechts","23","","","object","j","30","true"
"null","<div style=""font-size:60px;"">+</div>","null","html-keyboard-response","14","141609","0.0-6.0-0.4","FLSE","3","m","rechts","23","","fixation","","","",""
"1091","img/90_60.png","70","image-keyboard-response","15","142718","0.0-6.0-1.4","FLSE","3","m","rechts","23","","","object","f","90","true"
"null","<div style=""font-size:60px;"">+</div>","null","html-keyboard-response","16","143092","0.0-6.0-0.5","FLSE","3","m","rechts","23","","fixation","","","",""
"922","img/30_300.png","74","image-keyboard-response","17","144032","0.0-6.0-1.5","FLSE","3","m","rechts","23","","","object","f","30","false"
"null","<div style=""font-size:60px;"">+</div>","null","html-keyboard-response","18","144359","0.0-6.0-0.6","FLSE","3","m","rechts","23","","fixation","","","",""
"1099","img/150_60.png","74","image-keyboard-response","19","145473","0.0-6.0-1.6","FLSE","3","m","rechts","23","","","object","f","150","false"
"null","<div style=""font-size:60px;"">+</div>","null","html-keyboard-response","20","145789","0.0-6.0-0.7","FLSE","3","m","rechts","23","","fixation","","","",""
"982","img/120_90.png","74","image-keyboard-response","21","146789","0.0-6.0-1.7","FLSE","3","m","rechts","23","","","object","f","120","false"
"null","<div style=""font-size:60px;"">+</div>","null","html-keyboard-response","22","147295","0.0-6.0-0.8","FLSE","3","m","rechts","23","","fixation","","","",""
"623","img/0_240.png","70","image-keyboard-response","23","147926","0.0-6.0-1.8","FLSE","3","m","rechts","23","","","object","f","0","true"
"null","<div style=""font-size:60px;"">+</div>","null","html-keyboard-response","24","148342","0.0-6.0-0.9","FLSE","3","m","rechts","23","","fixation","","","",""
"1017","img/120_270.png","70","image-keyboard-response","25","149376","0.0-6.0-1.9","FLSE","3","m","rechts","23","","","object","j","120","false"
"null","<div style=""font-size:60px;"">+</div>","null","html-keyboard-response","26","149841","0.0-6.0-0.10","FLSE","3","m","rechts","23","","fixation","","","",""
"840","img/30_180.png","70","image-keyboard-response","27","150692","0.0-6.0-1.10","FLSE","3","m","rechts","23","","","object","f","30","true"
"null","<div style=""font-size:60px;"">+</div>","null","html-keyboard-response","28","151045","0.0-6.0-0.11","FLSE","3","m","rechts","23","","fixation","","","",""
"788","img/0_150.png","74","image-keyboard-response","29","151852","0.0-6.0-1.11","FLSE","3","m","rechts","23","","","object","j","0","true"
"null","<div style=""font-size:60px;"">+</div>","null","html-keyboard-response","30","152170","0.0-6.0-0.12","FLSE","3","m","rechts","23","","fixation","","","",""
"608","img/0_300.png","70","image-keyboard-response","31","152798","0.0-6.0-1.12","FLSE","3","m","rechts","23","","","object","f","0","true"
"null","<div style=""font-size:60px;"">+</div>","null","html-keyboard-response","32","153263","0.0-6.0-0.13","FLSE","3","m","rechts","23","","fixation","","","",""
"493","img/0_330.png","70","image-keyboard-response","33","153763","0.0-6.0-1.13","FLSE","3","m","rechts","23","","","object","f","0","true"
"null","<div style=""font-size:60px;"">+</div>","null","html-keyboard-response","34","154139","0.0-6.0-0.14","FLSE","3","m","rechts","23","","fixation","","","",""
"886","img/60_270.png","74","image-keyboard-response","35","155047","0.0-6.0-1.14","FLSE","3","m","rechts","23","","","object","f","60","false"
"null","<div style=""font-size:60px;"">+</div>","null","html-keyboard-response","36","155404","0.0-6.0-0.15","FLSE","3","m","rechts","23","","fixation","","","",""
"1065","img/30_240.png","74","image-keyboard-response","37","156488","0.0-6.0-1.15","FLSE","3","m","rechts","23","","","object","f","30","false"
"null","<div style=""font-size:60px;"">+</div>","null","html-keyboard-response","38","156952","0.0-6.0-0.16","FLSE","3","m","rechts","23","","fixation","","","",""
"900","img/150_180.png","70","image-keyboard-response","39","157871","0.0-6.0-1.16","FLSE","3","m","rechts","23","","","object","f","150","true"
"null","<div style=""font-size:60px;"">+</div>","null","html-keyboard-response","40","158248","0.0-6.0-0.17","FLSE","3","m","rechts","23","","fixation","","","",""
"1008","img/30_60.png","70","image-keyboard-response","41","159264","0.0-6.0-1.17","FLSE","3","m","rechts","23","","","object","j","30","false"
"null","<div style=""font-size:60px;"">+</div>","null","html-keyboard-response","42","159577","0.0-6.0-0.18","FLSE","3","m","rechts","23","","fixation","","","",""
"763","img/60_90.png","70","image-keyboard-response","43","160357","0.0-6.0-1.18","FLSE","3","m","rechts","23","","","object","j","60","false"
"null","<div style=""font-size:60px;"">+</div>","null","html-keyboard-response","44","160733","0.0-6.0-0.19","FLSE","3","m","rechts","23","","fixation","","","",""
"808","img/L30_180.png","74","image-keyboard-response","45","161560","0.0-6.0-1.19","FLSE","3","m","rechts","23","","","object","j","30","true"
"null","<div style=""font-size:60px;"">+</div>","null","html-keyboard-response","46","162032","0.0-6.0-0.20","FLSE","3","m","rechts","23","","fixation","","","",""
"658","img/0_90.png","74","image-keyboard-response","47","162709","0.0-6.0-1.20","FLSE","3","m","rechts","23","","","object","j","0","true"
"null","<div style=""font-size:60px;"">+</div>","null","html-keyboard-response","48","163064","0.0-6.0-0.21","FLSE","3","m","rechts","23","","fixation","","","",""
"584","img/0_60.png","74","image-keyboard-response","49","163664","0.0-6.0-1.21","FLSE","3","m","rechts","23","","","object","j","0","true"
"null","<div style=""font-size:60px;"">+</div>","null","html-keyboard-response","50","163969","0.0-6.0-0.22","FLSE","3","m","rechts","23","","fixation","","","",""
"960","img/90_330.png","74","image-keyboard-response","51","164947","0.0-6.0-1.22","FLSE","3","m","rechts","23","","","object","j","90","true"
"null","<div style=""font-size:60px;"">+</div>","null","html-keyboard-response","52","165250","0.0-6.0-0.23","FLSE","3","m","rechts","23","","fixation","","","",""
"962","img/30_270.png","74","image-keyboard-response","53","166218","0.0-6.0-1.23","FLSE","3","m","rechts","23","","","object","f","30","false"
"null","<div style=""font-size:60px;"">+</div>","null","html-keyboard-response","54","166580","0.0-6.0-0.24","FLSE","3","m","rechts","23","","fixation","","","",""
"891","img/120_210.png","70","image-keyboard-response","55","167489","0.0-6.0-1.24","FLSE","3","m","rechts","23","","","object","f","120","true"
"null","<div style=""font-size:60px;"">+</div>","null","html-keyboard-response","56","167800","0.0-6.0-0.25","FLSE","3","m","rechts","23","","fixation","","","",""
"866","img/90_300.png","74","image-keyboard-response","57","168681","0.0-6.0-1.25","FLSE","3","m","rechts","23","","","object","j","90","true"
"null","<div style=""font-size:60px;"">+</div>","null","html-keyboard-response","58","169096","0.0-6.0-0.26","FLSE","3","m","rechts","23","","fixation","","","",""
"905","img/150_120.png","74","image-keyboard-response","59","170022","0.0-6.0-1.26","FLSE","3","m","rechts","23","","","object","f","150","false"
"null","<div style=""font-size:60px;"">+</div>","null","html-keyboard-response","60","170486","0.0-6.0-0.27","FLSE","3","m","rechts","23","","fixation","","","",""
"877","img/60_210.png","70","image-keyboard-response","61","171383","0.0-6.0-1.27","FLSE","3","m","rechts","23","","","object","f","60","true"
"null","<div style=""font-size:60px;"">+</div>","null","html-keyboard-response","62","171910","0.0-6.0-0.28","FLSE","3","m","rechts","23","","fixation","","","",""
"1018","img/60_150.png","74","image-keyboard-response","63","172945","0.0-6.0-1.28","FLSE","3","m","rechts","23","","","object","j","60","true"
"null","<div style=""font-size:60px;"">+</div>","null","html-keyboard-response","64","173347","0.0-6.0-0.29","FLSE","3","m","rechts","23","","fixation","","","",""
"696","img/0_210.png","70","image-keyboard-response","65","174062","0.0-6.0-1.29","FLSE","3","m","rechts","23","","","object","f","0","true"
"null","<div style=""font-size:60px;"">+</div>","null","html-keyboard-response","66","174519","0.0-6.0-0.30","FLSE","3","m","rechts","23","","fixation","","","",""
"534","img/0_30.png","74","image-keyboard-response","67","175071","0.0-6.0-1.30","FLSE","3","m","rechts","23","","","object","j","0","true"
"null","<div style=""font-size:60px;"">+</div>","null","html-keyboard-response","68","175489","0.0-6.0-0.31","FLSE","3","m","rechts","23","","fixation","","","",""
"940","img/60_30.png","70","image-keyboard-response","69","176445","0.0-6.0-1.31","FLSE","3","m","rechts","23","","","object","f","60","true"
"null","<div style=""font-size:60px;"">+</div>","null","html-keyboard-response","70","176802","0.0-6.0-0.32","FLSE","3","m","rechts","23","","fixation","","","",""
"965","img/120_180.png","70","image-keyboard-response","71","177784","0.0-6.0-1.32","FLSE","3","m","rechts","23","","","object","f","120","true"
"null","<div style=""font-size:60px;"">+</div>","null","html-keyboard-response","72","178114","0.0-6.0-0.33","FLSE","3","m","rechts","23","","fixation","","","",""
"968","img/150_90.png","74","image-keyboard-response","73","179100","0.0-6.0-1.33","FLSE","3","m","rechts","23","","","object","f","150","false"
"null","<div style=""font-size:60px;"">+</div>","null","html-keyboard-response","74","179412","0.0-6.0-0.34","FLSE","3","m","rechts","23","","fixation","","","",""
"895","img/60_180.png","70","image-keyboard-response","75","180325","0.0-6.0-1.34","FLSE","3","m","rechts","23","","","object","f","60","true"
"null","<div style=""font-size:60px;"">+</div>","null","html-keyboard-response","76","180677","0.0-6.0-0.35","FLSE","3","m","rechts","23","","fixation","","","",""
"768","img/90_120.png","74","image-keyboard-response","77","181463","0.0-6.0-1.35","FLSE","3","m","rechts","23","","","object","j","90","true"
"null","<div style=""font-size:60px;"">+</div>","null","html-keyboard-response","78","181928","0.0-6.0-0.36","FLSE","3","m","rechts","23","","fixation","","","",""
"924","img/150_300.png","70","image-keyboard-response","79","182869","0.0-6.0-1.36","FLSE","3","m","rechts","23","","","object","j","150","false"
"null","<div style=""font-size:60px;"">+</div>","null","html-keyboard-response","80","183333","0.0-6.0-0.37","FLSE","3","m","rechts","23","","fixation","","","",""
"983","img/90_180.png","70","image-keyboard-response","81","184329","0.0-6.0-1.37","FLSE","3","m","rechts","23","","","object","f","90","true"
"null","<div style=""font-size:60px;"">+</div>","null","html-keyboard-response","82","184693","0.0-6.0-0.38","FLSE","3","m","rechts","23","","fixation","","","",""
"814","img/L150_180.png","74","image-keyboard-response","83","185524","0.0-6.0-1.38","FLSE","3","m","rechts","23","","","object","j","150","true"
"null","<div style=""font-size:60px;"">+</div>","null","html-keyboard-response","84","185990","0.0-6.0-0.39","FLSE","3","m","rechts","23","","fixation","","","",""
"820","img/120_150.png","74","image-keyboard-response","85","186827","0.0-6.0-1.39","FLSE","3","m","rechts","23","","","object","j","120","true"
"null","<div style=""font-size:60px;"">+</div>","null","html-keyboard-response","86","187131","0.0-6.0-0.40","FLSE","3","m","rechts","23","","fixation","","","",""
"1072","img/L60_180.png","74","image-keyboard-response","87","188222","0.0-6.0-1.40","FLSE","3","m","rechts","23","","","object","j","60","true"
"null","<div style=""font-size:60px;"">+</div>","null","html-keyboard-response","88","188742","0.0-6.0-0.41","FLSE","3","m","rechts","23","","fixation","","","",""
"881","img/90_30.png","70","image-keyboard-response","89","189641","0.0-6.0-1.41","FLSE","3","m","rechts","23","","","object","f","90","true"
"null","<div style=""font-size:60px;"">+</div>","null","html-keyboard-response","90","190023","0.0-6.0-0.42","FLSE","3","m","rechts","23","","fixation","","","",""
"726","img/30_90.png","70","image-keyboard-response","91","190767","0.0-6.0-1.42","FLSE","3","m","rechts","23","","","object","j","30","false"
"null","<div style=""font-size:60px;"">+</div>","null","html-keyboard-response","92","191225","0.0-6.0-0.43","FLSE","3","m","rechts","23","","fixation","","","",""
"772","img/150_240.png","70","image-keyboard-response","93","192003","0.0-6.0-1.43","FLSE","3","m","rechts","23","","","object","j","150","false"
"null","<div style=""font-size:60px;"">+</div>","null","html-keyboard-response","94","192319","0.0-6.0-0.44","FLSE","3","m","rechts","23","","fixation","","","",""
"1004","img/90_210.png","70","image-keyboard-response","95","193330","0.0-6.0-1.44","FLSE","3","m","rechts","23","","","object","f","90","true"
"null","<div style=""font-size:60px;"">+</div>","null","html-keyboard-response","96","193710","0.0-6.0-0.45","FLSE","3","m","rechts","23","","fixation","","","",""
"1121","img/60_330.png","70","image-keyboard-response","97","194850","0.0-6.0-1.45","FLSE","3","m","rechts","23","","","object","j","60","false"
"null","<div style=""font-size:60px;"">+</div>","null","html-keyboard-response","98","195179","0.0-6.0-0.46","FLSE","3","m","rechts","23","","fixation","","","",""
"1382","img/120_330.png","74","image-keyboard-response","99","196582","0.0-6.0-1.46","FLSE","3","m","rechts","23","","","object","j","120","true"
"null","<div style=""font-size:60px;"">+</div>","null","html-keyboard-response","100","197039","0.0-6.0-0.47","FLSE","3","m","rechts","23","","fixation","","","",""
"1010","img/L90_180.png","74","image-keyboard-response","101","198068","0.0-6.0-1.47","FLSE","3","m","rechts","23","","","object","j","90","true"
"null","<div style=""font-size:60px;"">+</div>","null","html-keyboard-response","102","198523","0.0-6.0-0.48","FLSE","3","m","rechts","23","","fixation","","","",""
"737","img/0_120.png","74","image-keyboard-response","103","199280","0.0-6.0-1.48","FLSE","3","m","rechts","23","","","object","j","0","true"
"null","<div style=""font-size:60px;"">+</div>","null","html-keyboard-response","104","199806","0.0-6.0-0.49","FLSE","3","m","rechts","23","","fixation","","","",""
"857","img/90_150.png","74","image-keyboard-response","105","200677","0.0-6.0-1.49","FLSE","3","m","rechts","23","","","object","j","90","true"
"null","<div style=""font-size:60px;"">+</div>","null","html-keyboard-response","106","200993","0.0-6.0-0.50","FLSE","3","m","rechts","23","","fixation","","","",""
"1228","img/120_30.png","70","image-keyboard-response","107","202238","0.0-6.0-1.50","FLSE","3","m","rechts","23","","","object","f","120","true"
"null","<div style=""font-size:60px;"">+</div>","null","html-keyboard-response","108","202650","0.0-6.0-0.51","FLSE","3","m","rechts","23","","fixation","","","",""
"767","img/L120_180.png","74","image-keyboard-response","109","203433","0.0-6.0-1.51","FLSE","3","m","rechts","23","","","object","j","120","true"
"null","<div style=""font-size:60px;"">+</div>","null","html-keyboard-response","110","203744","0.0-6.0-0.52","FLSE","3","m","rechts","23","","fixation","","","",""
"1378","img/30_270.png","74","image-keyboard-response","111","205133","0.0-6.0-1.52","FLSE","3","m","rechts","23","","","object","f","30","false"
"null","<div style=""font-size:60px;"">+</div>","null","html-keyboard-response","112","205493","0.0-6.0-0.53","FLSE","3","m","rechts","23","","fixation","","","",""
"826","img/30_60.png","70","image-keyboard-response","113","206334","0.0-6.0-1.53","FLSE","3","m","rechts","23","","","object","j","30","false"
"null","<div style=""font-size:60px;"">+</div>","null","html-keyboard-response","114","206650","0.0-6.0-0.54","FLSE","3","m","rechts","23","","fixation","","","",""
"1383","img/60_90.png","70","image-keyboard-response","115","208045","0.0-6.0-1.54","FLSE","3","m","rechts","23","","","object","j","60","false"
"null","<div style=""font-size:60px;"">+</div>","null","html-keyboard-response","116","208557","0.0-6.0-0.55","FLSE","3","m","rechts","23","","fixation","","","",""
"838","img/90_240.png","70","image-keyboard-response","117","209408","0.0-6.0-1.55","FLSE","3","m","rechts","23","","","object","f","90","true"
"null","<div style=""font-size:60px;"">+</div>","null","html-keyboard-response","118","209915","0.0-6.0-0.56","FLSE","3","m","rechts","23","","fixation","","","",""
"777","img/150_120.png","74","image-keyboard-response","119","210702","0.0-6.0-1.56","FLSE","3","m","rechts","23","","","object","f","150","false"
"null","<div style=""font-size:60px;"">+</div>","null","html-keyboard-response","120","211118","0.0-6.0-0.57","FLSE","3","m","rechts","23","","fixation","","","",""
"637","img/0_240.png","70","image-keyboard-response","121","211770","0.0-6.0-1.57","FLSE","3","m","rechts","23","","","object","f","0","true"
"null","<div style=""font-size:60px;"">+</div>","null","html-keyboard-response","122","212135","0.0-6.0-0.58","FLSE","3","m","rechts","23","","fixation","","","",""
"718","img/90_180.png","70","image-keyboard-response","123","212862","0.0-6.0-1.58","FLSE","3","m","rechts","23","","","object","f","90","true"
"null","<div style=""font-size:60px;"">+</div>","null","html-keyboard-response","124","213322","0.0-6.0-0.59","FLSE","3","m","rechts","23","","fixation","","","",""
"805","img/90_120.png","74","image-keyboard-response","125","214131","0.0-6.0-1.59","FLSE","3","m","rechts","23","","","object","j","90","true"
"null","<div style=""font-size:60px;"">+</div>","null","html-keyboard-response","126","214495","0.0-6.0-0.60","FLSE","3","m","rechts","23","","fixation","","","",""
"764","img/60_210.png","70","image-keyboard-response","127","215268","0.0-6.0-1.60","FLSE","3","m","rechts","23","","","object","f","60","true"
"null","<div style=""font-size:60px;"">+</div>","null","html-keyboard-response","128","215588","0.0-6.0-0.61","FLSE","3","m","rechts","23","","fixation","","","",""
"745","img/30_180.png","70","image-keyboard-response","129","216348","0.0-6.0-1.61","FLSE","3","m","rechts","23","","","object","f","30","true"
"null","<div style=""font-size:60px;"">+</div>","null","html-keyboard-response","130","216651","0.0-6.0-0.62","FLSE","3","m","rechts","23","","fixation","","","",""
"710","img/0_330.png","70","image-keyboard-response","131","217374","0.0-6.0-1.62","FLSE","3","m","rechts","23","","","object","f","0","true"
"null","<div style=""font-size:60px;"">+</div>","null","html-keyboard-response","132","217729","0.0-6.0-0.63","FLSE","3","m","rechts","23","","fixation","","","",""
"777","img/90_330.png","74","image-keyboard-response","133","218519","0.0-6.0-1.63","FLSE","3","m","rechts","23","","","object","j","90","true"
"null","<div style=""font-size:60px;"">+</div>","null","html-keyboard-response","134","218840","0.0-6.0-0.64","FLSE","3","m","rechts","23","","fixation","","","",""
"974","img/120_90.png","74","image-keyboard-response","135","219827","0.0-6.0-1.64","FLSE","3","m","rechts","23","","","object","f","120","false"
"null","<div style=""font-size:60px;"">+</div>","null","html-keyboard-response","136","220152","0.0-6.0-0.65","FLSE","3","m","rechts","23","","fixation","","","",""
"875","img/30_300.png","74","image-keyboard-response","137","221040","0.0-6.0-1.65","FLSE","3","m","rechts","23","","","object","f","30","false"
"null","<div style=""font-size:60px;"">+</div>","null","html-keyboard-response","138","221542","0.0-6.0-0.66","FLSE","3","m","rechts","23","","fixation","","","",""
"827","img/L60_180.png","74","image-keyboard-response","139","222380","0.0-6.0-1.66","FLSE","3","m","rechts","23","","","object","j","60","true"
"null","<div style=""font-size:60px;"">+</div>","null","html-keyboard-response","140","222809","0.0-6.0-0.67","FLSE","3","m","rechts","23","","fixation","","","",""
"763","img/120_180.png","70","image-keyboard-response","141","223582","0.0-6.0-1.67","FLSE","3","m","rechts","23","","","object","f","120","true"
"null","<div style=""font-size:60px;"">+</div>","null","html-keyboard-response","142","223902","0.0-6.0-0.68","FLSE","3","m","rechts","23","","fixation","","","",""
"900","img/L90_180.png","74","image-keyboard-response","143","224811","0.0-6.0-1.68","FLSE","3","m","rechts","23","","","object","j","90","true"
"null","<div style=""font-size:60px;"">+</div>","null","html-keyboard-response","144","225122","0.0-6.0-0.69","FLSE","3","m","rechts","23","","fixation","","","",""
"689","img/0_120.png","74","image-keyboard-response","145","225820","0.0-6.0-1.69","FLSE","3","m","rechts","23","","","object","j","0","true"
"null","<div style=""font-size:60px;"">+</div>","null","html-keyboard-response","146","226244","0.0-6.0-0.70","FLSE","3","m","rechts","23","","fixation","","","",""
"925","img/90_30.png","70","image-keyboard-response","147","227183","0.0-6.0-1.70","FLSE","3","m","rechts","23","","","object","f","90","true"
"null","<div style=""font-size:60px;"">+</div>","null","html-keyboard-response","148","227637","0.0-6.0-0.71","FLSE","3","m","rechts","23","","fixation","","","",""
"760","img/150_90.png","74","image-keyboard-response","149","228407","0.0-6.0-1.71","FLSE","3","m","rechts","23","","","object","f","150","false"
"null","<div style=""font-size:60px;"">+</div>","null","html-keyboard-response","150","228919","0.0-6.0-0.72","FLSE","3","m","rechts","23","","fixation","","","",""
"670","img/0_60.png","74","image-keyboard-response","151","229602","0.0-6.0-1.72","FLSE","3","m","rechts","23","","","object","j","0","true"
"null","<div style=""font-size:60px;"">+</div>","null","html-keyboard-response","152","229965","0.0-6.0-0.73","FLSE","3","m","rechts","23","","fixation","","","",""
"862","img/120_330.png","74","image-keyboard-response","153","230839","0.0-6.0-1.73","FLSE","3","m","rechts","23","","","object","j","120","true"
"null","<div style=""font-size:60px;"">+</div>","null","html-keyboard-response","154","231357","0.0-6.0-0.74","FLSE","3","m","rechts","23","","fixation","","","",""
"941","img/30_240.png","74","image-keyboard-response","155","232311","0.0-6.0-1.74","FLSE","3","m","rechts","23","","","object","f","30","false"
"null","<div style=""font-size:60px;"">+</div>","null","html-keyboard-response","156","232624","0.0-6.0-0.75","FLSE","3","m","rechts","23","","fixation","","","",""
"1207","img/L30_180.png","74","image-keyboard-response","157","233844","0.0-6.0-1.75","FLSE","3","m","rechts","23","","","object","j","30","true"
"null","<div style=""font-size:60px;"">+</div>","null","html-keyboard-response","158","234217","0.0-6.0-0.76","FLSE","3","m","rechts","23","","fixation","","","",""
"900","img/150_240.png","70","image-keyboard-response","159","235126","0.0-6.0-1.76","FLSE","3","m","rechts","23","","","object","j","150","false"
"null","<div style=""font-size:60px;"">+</div>","null","html-keyboard-response","160","235451","0.0-6.0-0.77","FLSE","3","m","rechts","23","","fixation","","","",""
"855","img/150_300.png","74","image-keyboard-response","161","236316","0.0-6.0-1.77","FLSE","3","m","rechts","23","","","object","j","150","true"
"null","<div style=""font-size:60px;"">+</div>","null","html-keyboard-response","162","236827","0.0-6.0-0.78","FLSE","3","m","rechts","23","","fixation","","","",""
"771","img/120_210.png","70","image-keyboard-response","163","237612","0.0-6.0-1.78","FLSE","3","m","rechts","23","","","object","f","120","true"
"null","<div style=""font-size:60px;"">+</div>","null","html-keyboard-response","164","237983","0.0-6.0-0.79","FLSE","3","m","rechts","23","","fixation","","","",""
"811","img/120_150.png","74","image-keyboard-response","165","238804","0.0-6.0-1.79","FLSE","3","m","rechts","23","","","object","j","120","true"
"null","<div style=""font-size:60px;"">+</div>","null","html-keyboard-response","166","239218","0.0-6.0-0.80","FLSE","3","m","rechts","23","","fixation","","","",""
"653","img/0_270.png","70","image-keyboard-response","167","239885","0.0-6.0-1.80","FLSE","3","m","rechts","23","","","object","f","0","true"
"null","<div style=""font-size:60px;"">+</div>","null","html-keyboard-response","168","240248","0.0-6.0-0.81","FLSE","3","m","rechts","23","","fixation","","","",""
"1065","img/120_30.png","70","image-keyboard-response","169","241322","0.0-6.0-1.81","FLSE","3","m","rechts","23","","","object","f","120","true"
"null","<div style=""font-size:60px;"">+</div>","null","html-keyboard-response","170","241841","0.0-6.0-0.82","FLSE","3","m","rechts","23","","fixation","","","",""
"867","img/L120_180.png","74","image-keyboard-response","171","242720","0.0-6.0-1.82","FLSE","3","m","rechts","23","","","object","j","120","true"
"null","<div style=""font-size:60px;"">+</div>","null","html-keyboard-response","172","243231","0.0-6.0-0.83","FLSE","3","m","rechts","23","","fixation","","","",""
"1102","img/60_330.png","74","image-keyboard-response","173","244337","0.0-6.0-1.83","FLSE","3","m","rechts","23","","","object","j","60","true"
"null","<div style=""font-size:60px;"">+</div>","null","html-keyboard-response","174","244794","0.0-6.0-0.84","FLSE","3","m","rechts","23","","fixation","","","",""
"658","img/0_300.png","70","image-keyboard-response","175","245465","0.0-6.0-1.84","FLSE","3","m","rechts","23","","","object","f","0","true"
"null","<div style=""font-size:60px;"">+</div>","null","html-keyboard-response","176","245828","0.0-6.0-0.85","FLSE","3","m","rechts","23","","fixation","","","",""
"714","img/150_180.png","70","image-keyboard-response","177","246558","0.0-6.0-1.85","FLSE","3","m","rechts","23","","","object","f","150","true"
"null","<div style=""font-size:60px;"">+</div>","null","html-keyboard-response","178","247032","0.0-6.0-0.86","FLSE","3","m","rechts","23","","fixation","","","",""
"614","img/0_30.png","74","image-keyboard-response","179","247659","0.0-6.0-1.86","FLSE","3","m","rechts","23","","","object","j","0","true"
"null","<div style=""font-size:60px;"">+</div>","null","html-keyboard-response","180","247969","0.0-6.0-0.87","FLSE","3","m","rechts","23","","fixation","","","",""
"656","img/0_210.png","70","image-keyboard-response","181","248637","0.0-6.0-1.87","FLSE","3","m","rechts","23","","","object","f","0","true"
"null","<div style=""font-size:60px;"">+</div>","null","html-keyboard-response","182","249016","0.0-6.0-0.88","FLSE","3","m","rechts","23","","fixation","","","",""
"765","img/90_300.png","74","image-keyboard-response","183","249794","0.0-6.0-1.88","FLSE","3","m","rechts","23","","","object","j","90","true"
"null","<div style=""font-size:60px;"">+</div>","null","html-keyboard-response","184","250172","0.0-6.0-0.89","FLSE","3","m","rechts","23","","fixation","","","",""
"929","img/60_150.png","74","image-keyboard-response","185","251112","0.0-6.0-1.89","FLSE","3","m","rechts","23","","","object","j","60","true"
"null","<div style=""font-size:60px;"">+</div>","null","html-keyboard-response","186","251579","0.0-6.0-0.90","FLSE","3","m","rechts","23","","fixation","","","",""
"905","img/60_30.png","70","image-keyboard-response","187","252495","0.0-6.0-1.90","FLSE","3","m","rechts","23","","","object","f","60","true"
"null","<div style=""font-size:60px;"">+</div>","null","html-keyboard-response","188","252875","0.0-6.0-0.91","FLSE","3","m","rechts","23","","fixation","","","",""
"1026","img/90_60.png","70","image-keyboard-response","189","253913","0.0-6.0-1.91","FLSE","3","m","rechts","23","","","object","f","90","true"
"null","<div style=""font-size:60px;"">+</div>","null","html-keyboard-response","190","254326","0.0-6.0-0.92","FLSE","3","m","rechts","23","","fixation","","","",""
"939","img/30_120.png","70","image-keyboard-response","191","255272","0.0-6.0-1.92","FLSE","3","m","rechts","23","","","object","j","30","false"
"null","<div style=""font-size:60px;"">+</div>","null","html-keyboard-response","192","255624","0.0-6.0-0.93","FLSE","3","m","rechts","23","","fixation","","","",""
"805","img/60_270.png","74","image-keyboard-response","193","256445","0.0-6.0-1.93","FLSE","3","m","rechts","23","","","object","f","60","false"
"null","<div style=""font-size:60px;"">+</div>","null","html-keyboard-response","194","256906","0.0-6.0-0.94","FLSE","3","m","rechts","23","","fixation","","","",""
"1528","img/150_60.png","70","image-keyboard-response","195","258447","0.0-6.0-1.94","FLSE","3","m","rechts","23","","","object","f","150","true"
"null","<div style=""font-size:60px;"">+</div>","null","html-keyboard-response","196","258871","0.0-6.0-0.95","FLSE","3","m","rechts","23","","fixation","","","",""
"1014","img/L150_180.png","74","image-keyboard-response","197","259898","0.0-6.0-1.95","FLSE","3","m","rechts","23","","","object","j","150","true"
"null","<div style=""font-size:60px;"">+</div>","null","html-keyboard-response","198","260354","0.0-6.0-0.96","FLSE","3","m","rechts","23","","fixation","","","",""
"710","img/90_210.png","70","image-keyboard-response","199","261071","0.0-6.0-1.96","FLSE","3","m","rechts","23","","","object","f","90","true"
"null","<div style=""font-size:60px;"">+</div>","null","html-keyboard-response","200","261480","0.0-6.0-0.97","FLSE","3","m","rechts","23","","fixation","","","",""
"1095","img/30_90.png","70","image-keyboard-response","201","262586","0.0-6.0-1.97","FLSE","3","m","rechts","23","","","object","j","30","false"
"null","<div style=""font-size:60px;"">+</div>","null","html-keyboard-response","202","262918","0.0-6.0-0.98","FLSE","3","m","rechts","23","","fixation","","","",""
"1140","img/120_270.png","70","image-keyboard-response","203","264073","0.0-6.0-1.98","FLSE","3","m","rechts","23","","","object","j","120","false"
"null","<div style=""font-size:60px;"">+</div>","null","html-keyboard-response","204","264590","0.0-6.0-0.99","FLSE","3","m","rechts","23","","fixation","","","",""
"856","img/90_150.png","74","image-keyboard-response","205","265456","0.0-6.0-1.99","FLSE","3","m","rechts","23","","","object","j","90","true"
"null","<div style=""font-size:60px;"">+</div>","null","html-keyboard-response","206","265824","0.0-6.0-0.100","FLSE","3","m","rechts","23","","fixation","","","",""
"722","img/60_180.png","70","image-keyboard-response","207","266559","0.0-6.0-1.100","FLSE","3","m","rechts","23","","","object","f","60","true"
"null","<div style=""font-size:60px;"">+</div>","null","html-keyboard-response","208","266873","0.0-6.0-0.101","FLSE","3","m","rechts","23","","fixation","","","",""
"1011","img/150_270.png","70","image-keyboard-response","209","267897","0.0-6.0-1.101","FLSE","3","m","rechts","23","","","object","j","150","false"
"null","<div style=""font-size:60px;"">+</div>","null","html-keyboard-response","210","268278","0.0-6.0-0.102","FLSE","3","m","rechts","23","","fixation","","","",""
"605","img/0_90.png","74","image-keyboard-response","211","268888","0.0-6.0-1.102","FLSE","3","m","rechts","23","","","object","j","0","true"
"null","<div style=""font-size:60px;"">+</div>","null","html-keyboard-response","212","269404","0.0-6.0-0.103","FLSE","3","m","rechts","23","","fixation","","","",""
"595","img/0_150.png","74","image-keyboard-response","213","270012","0.0-6.0-1.103","FLSE","3","m","rechts","23","","","object","j","0","true"
"null","<div style=""font-size:60px;"">+</div>","null","html-keyboard-response","214","270420","0.0-6.0-0.104","FLSE","3","m","rechts","23","","fixation","","","",""
"550","img/L30_180.png","70","image-keyboard-response","215","270980","0.0-6.0-1.104","FLSE","3","m","rechts","23","","","object","j","30","false"
"null","<div style=""font-size:60px;"">+</div>","null","html-keyboard-response","216","271356","0.0-6.0-0.105","FLSE","3","m","rechts","23","","fixation","","","",""
"757","img/L150_180.png","74","image-keyboard-response","217","272116","0.0-6.0-1.105","FLSE","3","m","rechts","23","","","object","j","150","true"
"null","<div style=""font-size:60px;"">+</div>","null","html-keyboard-response","218","272576","0.0-6.0-0.106","FLSE","3","m","rechts","23","","fixation","","","",""
"801","img/120_90.png","74","image-keyboard-response","219","273386","0.0-6.0-1.106","FLSE","3","m","rechts","23","","","object","f","120","false"
"null","<div style=""font-size:60px;"">+</div>","null","html-keyboard-response","220","273888","0.0-6.0-0.107","FLSE","3","m","rechts","23","","fixation","","","",""
"881","img/L60_180.png","74","image-keyboard-response","221","274781","0.0-6.0-1.107","FLSE","3","m","rechts","23","","","object","j","60","true"
"null","<div style=""font-size:60px;"">+</div>","null","html-keyboard-response","222","275153","0.0-6.0-0.108","FLSE","3","m","rechts","23","","fixation","","","",""
"1374","img/30_120.png","70","image-keyboard-response","223","276538","0.0-6.0-1.108","FLSE","3","m","rechts","23","","","object","j","30","false"
"null","<div style=""font-size:60px;"">+</div>","null","html-keyboard-response","224","276952","0.0-6.0-0.109","FLSE","3","m","rechts","23","","fixation","","","",""
"1005","img/150_270.png","70","image-keyboard-response","225","277966","0.0-6.0-1.109","FLSE","3","m","rechts","23","","","object","j","150","false"
"null","<div style=""font-size:60px;"">+</div>","null","html-keyboard-response","226","278295","0.0-6.0-0.110","FLSE","3","m","rechts","23","","fixation","","","",""
"1196","img/150_60.png","74","image-keyboard-response","227","279497","0.0-6.0-1.110","FLSE","3","m","rechts","23","","","object","f","150","false"
"null","<div style=""font-size:60px;"">+</div>","null","html-keyboard-response","228","280014","0.0-6.0-0.111","FLSE","3","m","rechts","23","","fixation","","","",""
"1145","img/150_120.png","74","image-keyboard-response","229","281174","0.0-6.0-1.111","FLSE","3","m","rechts","23","","","object","f","150","false"
"null","<div style=""font-size:60px;"">+</div>","null","html-keyboard-response","230","281655","0.0-6.0-0.112","FLSE","3","m","rechts","23","","fixation","","","",""
"652","img/0_210.png","70","image-keyboard-response","231","282318","0.0-6.0-1.112","FLSE","3","m","rechts","23","","","object","f","0","true"
"null","<div style=""font-size:60px;"">+</div>","null","html-keyboard-response","232","282733","0.0-6.0-0.113","FLSE","3","m","rechts","23","","fixation","","","",""
"844","img/90_30.png","70","image-keyboard-response","233","283590","0.0-6.0-1.113","FLSE","3","m","rechts","23","","","object","f","90","true"
"null","<div style=""font-size:60px;"">+</div>","null","html-keyboard-response","234","284045","0.0-6.0-0.114","FLSE","3","m","rechts","23","","fixation","","","",""
"862","img/120_150.png","74","image-keyboard-response","235","284919","0.0-6.0-1.114","FLSE","3","m","rechts","23","","","object","j","120","true"
"null","<div style=""font-size:60px;"">+</div>","null","html-keyboard-response","236","285374","0.0-6.0-0.115","FLSE","3","m","rechts","23","","fixation","","","",""
"630","img/0_60.png","74","image-keyboard-response","237","286010","0.0-6.0-1.115","FLSE","3","m","rechts","23","","","object","j","0","true"
"null","<div style=""font-size:60px;"">+</div>","null","html-keyboard-response","238","286374","0.0-6.0-0.116","FLSE","3","m","rechts","23","","fixation","","","",""
"730","img/150_180.png","70","image-keyboard-response","239","287113","0.0-6.0-1.116","FLSE","3","m","rechts","23","","","object","f","150","true"
"null","<div style=""font-size:60px;"">+</div>","null","html-keyboard-response","240","287531","0.0-6.0-0.117","FLSE","3","m","rechts","23","","fixation","","","",""
"602","img/0_120.png","74","image-keyboard-response","241","288147","0.0-6.0-1.117","FLSE","3","m","rechts","23","","","object","j","0","true"
"null","<div style=""font-size:60px;"">+</div>","null","html-keyboard-response","242","288671","0.0-6.0-0.118","FLSE","3","m","rechts","23","","fixation","","","",""
"533","img/0_240.png","70","image-keyboard-response","243","289216","0.0-6.0-1.118","FLSE","3","m","rechts","23","","","object","f","0","true"
"null","<div style=""font-size:60px;"">+</div>","null","html-keyboard-response","244","289531","0.0-6.0-0.119","FLSE","3","m","rechts","23","","fixation","","","",""
"795","img/60_90.png","74","image-keyboard-response","245","290338","0.0-6.0-1.119","FLSE","3","m","rechts","23","","","object","j","60","true"
"null","<div style=""font-size:60px;"">+</div>","null","html-keyboard-response","246","290811","0.0-6.0-0.120","FLSE","3","m","rechts","23","","fixation","","","",""
"612","img/0_150.png","74","image-keyboard-response","247","291433","0.0-6.0-1.120","FLSE","3","m","rechts","23","","","object","j","0","true"
"null","<div style=""font-size:60px;"">+</div>","null","html-keyboard-response","248","291765","0.0-6.0-0.121","FLSE","3","m","rechts","23","","fixation","","","",""
"762","img/90_210.png","70","image-keyboard-response","249","292534","0.0-6.0-1.121","FLSE","3","m","rechts","23","","","object","f","90","true"
"null","<div style=""font-size:60px;"">+</div>","null","html-keyboard-response","250","292844","0.0-6.0-0.122","FLSE","3","m","rechts","23","","fixation","","","",""
"793","img/150_90.png","74","image-keyboard-response","251","293649","0.0-6.0-1.122","FLSE","3","m","rechts","23","","","object","f","150","false"
"null","<div style=""font-size:60px;"">+</div>","null","html-keyboard-response","252","293967","0.0-6.0-0.123","FLSE","3","m","rechts","23","","fixation","","","",""
"784","img/90_300.png","74","image-keyboard-response","253","294763","0.0-6.0-1.123","FLSE","3","m","rechts","23","","","object","j","90","true"
"null","<div style=""font-size:60px;"">+</div>","null","html-keyboard-response","254","295177","0.0-6.0-0.124","FLSE","3","m","rechts","23","","fixation","","","",""
"1035","img/L120_180.png","74","image-keyboard-response","255","296225","0.0-6.0-1.124","FLSE","3","m","rechts","23","","","object","j","120","true"
"null","<div style=""font-size:60px;"">+</div>","null","html-keyboard-response","256","296594","0.0-6.0-0.125","FLSE","3","m","rechts","23","","fixation","","","",""
"656","img/0_30.png","74","image-keyboard-response","257","297260","0.0-6.0-1.125","FLSE","3","m","rechts","23","","","object","j","0","true"
"null","<div style=""font-size:60px;"">+</div>","null","html-keyboard-response","258","297641","0.0-6.0-0.126","FLSE","3","m","rechts","23","","fixation","","","",""
"893","img/60_30.png","70","image-keyboard-response","259","298544","0.0-6.0-1.126","FLSE","3","m","rechts","23","","","object","f","60","true"
"null","<div style=""font-size:60px;"">+</div>","null","html-keyboard-response","260","298859","0.0-6.0-0.127","FLSE","3","m","rechts","23","","fixation","","","",""
"868","img/90_60.png","70","image-keyboard-response","261","299735","0.0-6.0-1.127","FLSE","3","m","rechts","23","","","object","f","90","true"
"null","<div style=""font-size:60px;"">+</div>","null","html-keyboard-response","262","300047","0.0-6.0-0.128","FLSE","3","m","rechts","23","","fixation","","","",""
"817","img/60_150.png","74","image-keyboard-response","263","300872","0.0-6.0-1.128","FLSE","3","m","rechts","23","","","object","j","60","true"
"null","<div style=""font-size:60px;"">+</div>","null","html-keyboard-response","264","301343","0.0-6.0-0.129","FLSE","3","m","rechts","23","","fixation","","","",""
"838","img/90_240.png","70","image-keyboard-response","265","302188","0.0-6.0-1.129","FLSE","3","m","rechts","23","","","object","f","90","true"
"null","<div style=""font-size:60px;"">+</div>","null","html-keyboard-response","266","302719","0.0-6.0-0.130","FLSE","3","m","rechts","23","","fixation","","","",""
"657","img/60_210.png","70","image-keyboard-response","267","303390","0.0-6.0-1.130","FLSE","3","m","rechts","23","","","object","f","60","true"
"null","<div style=""font-size:60px;"">+</div>","null","html-keyboard-response","268","303703","0.0-6.0-0.131","FLSE","3","m","rechts","23","","fixation","","","",""
"1192","img/120_330.png","74","image-keyboard-response","269","304899","0.0-6.0-1.131","FLSE","3","m","rechts","23","","","object","j","120","true"
"null","<div style=""font-size:60px;"">+</div>","null","html-keyboard-response","270","305267","0.0-6.0-0.132","FLSE","3","m","rechts","23","","fixation","","","",""
"1017","img/60_270.png","74","image-keyboard-response","271","306295","0.0-6.0-1.132","FLSE","3","m","rechts","23","","","object","f","60","false"
"null","<div style=""font-size:60px;"">+</div>","null","html-keyboard-response","272","306657","0.0-6.0-0.133","FLSE","3","m","rechts","23","","fixation","","","",""
"714","img/0_330.png","70","image-keyboard-response","273","307384","0.0-6.0-1.133","FLSE","3","m","rechts","23","","","object","f","0","true"
"null","<div style=""font-size:60px;"">+</div>","null","html-keyboard-response","274","307750","0.0-6.0-0.134","FLSE","3","m","rechts","23","","fixation","","","",""
"736","img/L90_180.png","74","image-keyboard-response","275","308499","0.0-6.0-1.134","FLSE","3","m","rechts","23","","","object","j","90","true"
"null","<div style=""font-size:60px;"">+</div>","null","html-keyboard-response","276","309017","0.0-6.0-0.135","FLSE","3","m","rechts","23","","fixation","","","",""
"863","img/30_60.png","70","image-keyboard-response","277","309893","0.0-6.0-1.135","FLSE","3","m","rechts","23","","","object","j","30","false"
"null","<div style=""font-size:60px;"">+</div>","null","html-keyboard-response","278","310250","0.0-6.0-0.136","FLSE","3","m","rechts","23","","fixation","","","",""
"704","img/0_90.png","74","image-keyboard-response","279","310964","0.0-6.0-1.136","FLSE","3","m","rechts","23","","","object","j","0","true"
"null","<div style=""font-size:60px;"">+</div>","null","html-keyboard-response","280","311374","0.0-6.0-0.137","FLSE","3","m","rechts","23","","fixation","","","",""
"777","img/90_120.png","74","image-keyboard-response","281","312155","0.0-6.0-1.137","FLSE","3","m","rechts","23","","","object","j","90","true"
"null","<div style=""font-size:60px;"">+</div>","null","html-keyboard-response","282","312611","0.0-6.0-0.138","FLSE","3","m","rechts","23","","fixation","","","",""
"993","img/150_300.png","74","image-keyboard-response","283","313618","0.0-6.0-1.138","FLSE","3","m","rechts","23","","","object","j","150","true"
"null","<div style=""font-size:60px;"">+</div>","null","html-keyboard-response","284","314096","0.0-6.0-0.139","FLSE","3","m","rechts","23","","fixation","","","",""
"930","img/60_180.png","70","image-keyboard-response","285","315035","0.0-6.0-1.139","FLSE","3","m","rechts","23","","","object","f","60","true"
"null","<div style=""font-size:60px;"">+</div>","null","html-keyboard-response","286","315391","0.0-6.0-0.140","FLSE","3","m","rechts","23","","fixation","","","",""
"962","img/120_180.png","70","image-keyboard-response","287","316359","0.0-6.0-1.140","FLSE","3","m","rechts","23","","","object","f","120","true"
"null","<div style=""font-size:60px;"">+</div>","null","html-keyboard-response","288","316722","0.0-6.0-0.141","FLSE","3","m","rechts","23","","fixation","","","",""
"1448","img/90_330.png","74","image-keyboard-response","289","318183","0.0-6.0-1.141","FLSE","3","m","rechts","23","","","object","j","90","true"
"null","<div style=""font-size:60px;"">+</div>","null","html-keyboard-response","290","318596","0.0-6.0-0.142","FLSE","3","m","rechts","23","","fixation","","","",""
"1175","img/30_270.png","74","image-keyboard-response","291","319784","0.0-6.0-1.142","FLSE","3","m","rechts","23","","","object","f","30","false"
"null","<div style=""font-size:60px;"">+</div>","null","html-keyboard-response","292","320144","0.0-6.0-0.143","FLSE","3","m","rechts","23","","fixation","","","",""
"1026","img/90_150.png","74","image-keyboard-response","293","321179","0.0-6.0-1.143","FLSE","3","m","rechts","23","","","object","j","90","true"
"null","<div style=""font-size:60px;"">+</div>","null","html-keyboard-response","294","321486","0.0-6.0-0.144","FLSE","3","m","rechts","23","","fixation","","","",""
"748","img/90_180.png","70","image-keyboard-response","295","322247","0.0-6.0-1.144","FLSE","3","m","rechts","23","","","object","f","90","true"
"null","<div style=""font-size:60px;"">+</div>","null","html-keyboard-response","296","322706","0.0-6.0-0.145","FLSE","3","m","rechts","23","","fixation","","","",""
"809","img/150_240.png","70","image-keyboard-response","297","323530","0.0-6.0-1.145","FLSE","3","m","rechts","23","","","object","j","150","false"
"null","<div style=""font-size:60px;"">+</div>","null","html-keyboard-response","298","324034","0.0-6.0-0.146","FLSE","3","m","rechts","23","","fixation","","","",""
"597","img/0_300.png","70","image-keyboard-response","299","324645","0.0-6.0-1.146","FLSE","3","m","rechts","23","","","object","f","0","true"
"null","<div style=""font-size:60px;"">+</div>","null","html-keyboard-response","300","325019","0.0-6.0-0.147","FLSE","3","m","rechts","23","","fixation","","","",""
"598","img/0_270.png","70","image-keyboard-response","301","325631","0.0-6.0-1.147","FLSE","3","m","rechts","23","","","object","f","0","true"
"null","<div style=""font-size:60px;"">+</div>","null","html-keyboard-response","302","326049","0.0-6.0-0.148","FLSE","3","m","rechts","23","","fixation","","","",""
"998","img/30_90.png","74","image-keyboard-response","303","327052","0.0-6.0-1.148","FLSE","3","m","rechts","23","","","object","j","30","true"
"null","<div style=""font-size:60px;"">+</div>","null","html-keyboard-response","304","327361","0.0-6.0-0.149","FLSE","3","m","rechts","23","","fixation","","","",""
"941","img/120_210.png","70","image-keyboard-response","305","328309","0.0-6.0-1.149","FLSE","3","m","rechts","23","","","object","f","120","true"
"null","<div style=""font-size:60px;"">+</div>","null","html-keyboard-response","306","328833","0.0-6.0-0.150","FLSE","3","m","rechts","23","","fixation","","","",""
"756","img/30_240.png","74","image-keyboard-response","307","329602","0.0-6.0-1.150","FLSE","3","m","rechts","23","","","object","f","30","false"
"null","<div style=""font-size:60px;"">+</div>","null","html-keyboard-response","308","329973","0.0-6.0-0.151","FLSE","3","m","rechts","23","","fixation","","","",""
"1095","img/120_270.png","70","image-keyboard-response","309","331078","0.0-6.0-1.151","FLSE","3","m","rechts","23","","","object","j","120","false"
"null","<div style=""font-size:60px;"">+</div>","null","html-keyboard-response","310","331394","0.0-6.0-0.152","FLSE","3","m","rechts","23","","fixation","","","",""
"994","img/30_300.png","74","image-keyboard-response","311","332393","0.0-6.0-1.152","FLSE","3","m","rechts","23","","","object","f","30","false"
"null","<div style=""font-size:60px;"">+</div>","null","html-keyboard-response","312","332853","0.0-6.0-0.153","FLSE","3","m","rechts","23","","fixation","","","",""
"1069","img/60_330.png","74","image-keyboard-response","313","333936","0.0-6.0-1.153","FLSE","3","m","rechts","23","","","object","j","60","true"
"null","<div style=""font-size:60px;"">+</div>","null","html-keyboard-response","314","334462","0.0-6.0-0.154","FLSE","3","m","rechts","23","","fixation","","","",""
"1024","img/120_30.png","70","image-keyboard-response","315","335501","0.0-6.0-1.154","FLSE","3","m","rechts","23","","","object","f","120","true"
"null","<div style=""font-size:60px;"">+</div>","null","html-keyboard-response","316","336008","0.0-6.0-0.155","FLSE","3","m","rechts","23","","fixation","","","",""
"905","img/30_180.png","70","image-keyboard-response","317","336928","0.0-6.0-1.155","FLSE","3","m","rechts","23","","","object","f","30","true"
"null","<div style=""font-size:60px;"">+</div>","null","html-keyboard-response","318","337399","0.0-6.0-0.156","FLSE","3","m","rechts","23","","fixation","","","",""
"842","img/150_240.png","70","image-keyboard-response","319","338246","0.0-6.0-1.156","FLSE","3","m","rechts","23","","","object","j","150","false"
"null","<div style=""font-size:60px;"">+</div>","null","html-keyboard-response","320","338758","0.0-6.0-0.157","FLSE","3","m","rechts","23","","fixation","","","",""
"688","img/120_180.png","70","image-keyboard-response","321","339456","0.0-6.0-1.157","FLSE","3","m","rechts","23","","","object","f","120","true"
"null","<div style=""font-size:60px;"">+</div>","null","html-keyboard-response","322","339820","0.0-6.0-0.158","FLSE","3","m","rechts","23","","fixation","","","",""
"686","img/0_90.png","74","image-keyboard-response","323","340518","0.0-6.0-1.158","FLSE","3","m","rechts","23","","","object","j","0","true"
"null","<div style=""font-size:60px;"">+</div>","null","html-keyboard-response","324","340899","0.0-6.0-0.159","FLSE","3","m","rechts","23","","fixation","","","",""
"876","img/30_120.png","74","image-keyboard-response","325","341788","0.0-6.0-1.159","FLSE","3","m","rechts","23","","","object","j","30","true"
"null","<div style=""font-size:60px;"">+</div>","null","html-keyboard-response","326","342151","0.0-6.0-0.160","FLSE","3","m","rechts","23","","fixation","","","",""
"1034","img/60_210.png","74","image-keyboard-response","327","343195","0.0-6.0-1.160","FLSE","3","m","rechts","23","","","object","f","60","false"
"null","<div style=""font-size:60px;"">+</div>","null","html-keyboard-response","328","343573","0.0-6.0-0.161","FLSE","3","m","rechts","23","","fixation","","","",""
"880","img/90_150.png","74","image-keyboard-response","329","344465","0.0-6.0-1.161","FLSE","3","m","rechts","23","","","object","j","90","true"
"null","<div style=""font-size:60px;"">+</div>","null","html-keyboard-response","330","344993","0.0-6.0-0.162","FLSE","3","m","rechts","23","","fixation","","","",""
"855","img/150_180.png","70","image-keyboard-response","331","345862","0.0-6.0-1.162","FLSE","3","m","rechts","23","","","object","f","150","true"
"null","<div style=""font-size:60px;"">+</div>","null","html-keyboard-response","332","346383","0.0-6.0-0.163","FLSE","3","m","rechts","23","","fixation","","","",""
"1158","img/L150_180.png","74","image-keyboard-response","333","347549","0.0-6.0-1.163","FLSE","3","m","rechts","23","","","object","j","150","true"
"null","<div style=""font-size:60px;"">+</div>","null","html-keyboard-response","334","347915","0.0-6.0-0.164","FLSE","3","m","rechts","23","","fixation","","","",""
"1186","img/120_30.png","70","image-keyboard-response","335","349113","0.0-6.0-1.164","FLSE","3","m","rechts","23","","","object","f","120","true"
"null","<div style=""font-size:60px;"">+</div>","null","html-keyboard-response","336","349571","0.0-6.0-0.165","FLSE","3","m","rechts","23","","fixation","","","",""
"1040","img/30_90.png","70","image-keyboard-response","337","350621","0.0-6.0-1.165","FLSE","3","m","rechts","23","","","object","j","30","false"
"null","<div style=""font-size:60px;"">+</div>","null","html-keyboard-response","338","351103","0.0-6.0-0.166","FLSE","3","m","rechts","23","","fixation","","","",""
"987","img/90_210.png","70","image-keyboard-response","339","352105","0.0-6.0-1.166","FLSE","3","m","rechts","23","","","object","f","90","true"
"null","<div style=""font-size:60px;"">+</div>","null","html-keyboard-response","340","352511","0.0-6.0-0.167","FLSE","3","m","rechts","23","","fixation","","","",""
"1042","img/60_270.png","74","image-keyboard-response","341","353568","0.0-6.0-1.167","FLSE","3","m","rechts","23","","","object","f","60","false"
"null","<div style=""font-size:60px;"">+</div>","null","html-keyboard-response","342","353870","0.0-6.0-0.168","FLSE","3","m","rechts","23","","fixation","","","",""
"1100","img/120_150.png","74","image-keyboard-response","343","354984","0.0-6.0-1.168","FLSE","3","m","rechts","23","","","object","j","120","true"
"null","<div style=""font-size:60px;"">+</div>","null","html-keyboard-response","344","355447","0.0-6.0-0.169","FLSE","3","m","rechts","23","","fixation","","","",""
"1224","img/120_90.png","70","image-keyboard-response","345","356684","0.0-6.0-1.169","FLSE","3","m","rechts","23","","","object","f","120","true"
"null","<div style=""font-size:60px;"">+</div>","null","html-keyboard-response","346","357152","0.0-6.0-0.170","FLSE","3","m","rechts","23","","fixation","","","",""
"1185","img/30_60.png","74","image-keyboard-response","347","358346","0.0-6.0-1.170","FLSE","3","m","rechts","23","","","object","j","30","true"
"null","<div style=""font-size:60px;"">+</div>","null","html-keyboard-response","348","358651","0.0-6.0-0.171","FLSE","3","m","rechts","23","","fixation","","","",""
"906","img/60_30.png","70","image-keyboard-response","349","359575","0.0-6.0-1.171","FLSE","3","m","rechts","23","","","object","f","60","true"
"null","<div style=""font-size:60px;"">+</div>","null","html-keyboard-response","350","360104","0.0-6.0-0.172","FLSE","3","m","rechts","23","","fixation","","","",""
"910","img/90_30.png","70","image-keyboard-response","351","361027","0.0-6.0-1.172","FLSE","3","m","rechts","23","","","object","f","90","true"
"null","<div style=""font-size:60px;"">+</div>","null","html-keyboard-response","352","361384","0.0-6.0-0.173","FLSE","3","m","rechts","23","","fixation","","","",""
"964","img/30_270.png","74","image-keyboard-response","353","362352","0.0-6.0-1.173","FLSE","3","m","rechts","23","","","object","f","30","false"
"null","<div style=""font-size:60px;"">+</div>","null","html-keyboard-response","354","362776","0.0-6.0-0.174","FLSE","3","m","rechts","23","","fixation","","","",""
"932","img/120_270.png","70","image-keyboard-response","355","363716","0.0-6.0-1.174","FLSE","3","m","rechts","23","","","object","j","120","false"
"null","<div style=""font-size:60px;"">+</div>","null","html-keyboard-response","356","364074","0.0-6.0-0.175","FLSE","3","m","rechts","23","","fixation","","","",""
"1147","img/60_180.png","70","image-keyboard-response","357","365234","0.0-6.0-1.175","FLSE","3","m","rechts","23","","","object","f","60","true"
"null","<div style=""font-size:60px;"">+</div>","null","html-keyboard-response","358","365684","0.0-6.0-0.176","FLSE","3","m","rechts","23","","fixation","","","",""
"1293","img/60_330.png","74","image-keyboard-response","359","366988","0.0-6.0-1.176","FLSE","3","m","rechts","23","","","object","j","60","true"
"null","<div style=""font-size:60px;"">+</div>","null","html-keyboard-response","360","367498","0.0-6.0-0.177","FLSE","3","m","rechts","23","","fixation","","","",""
"965","img/90_240.png","70","image-keyboard-response","361","368473","0.0-6.0-1.177","FLSE","3","m","rechts","23","","","object","f","90","true"
"null","<div style=""font-size:60px;"">+</div>","null","html-keyboard-response","362","368826","0.0-6.0-0.178","FLSE","3","m","rechts","23","","fixation","","","",""
"659","img/0_210.png","70","image-keyboard-response","363","369498","0.0-6.0-1.178","FLSE","3","m","rechts","23","","","object","f","0","true"
"null","<div style=""font-size:60px;"">+</div>","null","html-keyboard-response","364","370029","0.0-6.0-0.179","FLSE","3","m","rechts","23","","fixation","","","",""
"605","img/30_240.png","70","image-keyboard-response","365","370645","0.0-6.0-1.179","FLSE","3","m","rechts","23","","","object","f","30","true"
"null","<div style=""font-size:60px;"">+</div>","null","html-keyboard-response","366","371021","0.0-6.0-0.180","FLSE","3","m","rechts","23","","fixation","","","",""
"796","img/L90_180.png","74","image-keyboard-response","367","371827","0.0-6.0-1.180","FLSE","3","m","rechts","23","","","object","j","90","true"
"null","<div style=""font-size:60px;"">+</div>","null","html-keyboard-response","368","372248","0.0-6.0-0.181","FLSE","3","m","rechts","23","","fixation","","","",""
"683","img/120_210.png","70","image-keyboard-response","369","372940","0.0-6.0-1.181","FLSE","3","m","rechts","23","","","object","f","120","true"
"null","<div style=""font-size:60px;"">+</div>","null","html-keyboard-response","370","373263","0.0-6.0-0.182","FLSE","3","m","rechts","23","","fixation","","","",""
"770","img/90_180.png","70","image-keyboard-response","371","374043","0.0-6.0-1.182","FLSE","3","m","rechts","23","","","object","f","90","true"
"null","<div style=""font-size:60px;"">+</div>","null","html-keyboard-response","372","374372","0.0-6.0-0.183","FLSE","3","m","rechts","23","","fixation","","","",""
"767","img/0_300.png","70","image-keyboard-response","373","375144","0.0-6.0-1.183","FLSE","3","m","rechts","23","","","object","f","0","true"
"null","<div style=""font-size:60px;"">+</div>","null","html-keyboard-response","374","375498","0.0-6.0-0.184","FLSE","3","m","rechts","23","","fixation","","","",""
"681","img/0_30.png","74","image-keyboard-response","375","376192","0.0-6.0-1.184","FLSE","3","m","rechts","23","","","object","j","0","true"
"null","<div style=""font-size:60px;"">+</div>","null","html-keyboard-response","376","376612","0.0-6.0-0.185","FLSE","3","m","rechts","23","","fixation","","","",""
"578","img/60_150.png","70","image-keyboard-response","377","377203","0.0-6.0-1.185","FLSE","3","m","rechts","23","","","object","j","60","false"
"null","<div style=""font-size:60px;"">+</div>","null","html-keyboard-response","378","377566","0.0-6.0-0.186","FLSE","3","m","rechts","23","","fixation","","","",""
"763","img/0_270.png","70","image-keyboard-response","379","378339","0.0-6.0-1.186","FLSE","3","m","rechts","23","","","object","f","0","true"
"null","<div style=""font-size:60px;"">+</div>","null","html-keyboard-response","380","378800","0.0-6.0-0.187","FLSE","3","m","rechts","23","","fixation","","","",""
"823","img/30_180.png","70","image-keyboard-response","381","379633","0.0-6.0-1.187","FLSE","3","m","rechts","23","","","object","f","30","true"
"null","<div style=""font-size:60px;"">+</div>","null","html-keyboard-response","382","380003","0.0-6.0-0.188","FLSE","3","m","rechts","23","","fixation","","","",""
"988","img/90_60.png","70","image-keyboard-response","383","381005","0.0-6.0-1.188","FLSE","3","m","rechts","23","","","object","f","90","true"
"null","<div style=""font-size:60px;"">+</div>","null","html-keyboard-response","384","381378","0.0-6.0-0.189","FLSE","3","m","rechts","23","","fixation","","","",""
"1052","img/90_330.png","74","image-keyboard-response","385","382433","0.0-6.0-1.189","FLSE","3","m","rechts","23","","","object","j","90","true"
"null","<div style=""font-size:60px;"">+</div>","null","html-keyboard-response","386","382800","0.0-6.0-0.190","FLSE","3","m","rechts","23","","fixation","","","",""
"950","img/150_90.png","70","image-keyboard-response","387","383763","0.0-6.0-1.190","FLSE","3","m","rechts","23","","","object","f","150","true"
"null","<div style=""font-size:60px;"">+</div>","null","html-keyboard-response","388","384127","0.0-6.0-0.191","FLSE","3","m","rechts","23","","fixation","","","",""
"634","img/0_330.png","70","image-keyboard-response","389","384776","0.0-6.0-1.191","FLSE","3","m","rechts","23","","","object","f","0","true"
"null","<div style=""font-size:60px;"">+</div>","null","html-keyboard-response","390","385082","0.0-6.0-0.192","FLSE","3","m","rechts","23","","fixation","","","",""
"995","img/90_300.png","74","image-keyboard-response","391","386092","0.0-6.0-1.192","FLSE","3","m","rechts","23","","","object","j","90","true"
"null","<div style=""font-size:60px;"">+</div>","null","html-keyboard-response","392","386505","0.0-6.0-0.193","FLSE","3","m","rechts","23","","fixation","","","",""
"651","img/0_150.png","74","image-keyboard-response","393","387170","0.0-6.0-1.193","FLSE","3","m","rechts","23","","","object","j","0","true"
"null","<div style=""font-size:60px;"">+</div>","null","html-keyboard-response","394","387599","0.0-6.0-0.194","FLSE","3","m","rechts","23","","fixation","","","",""
"864","img/60_90.png","70","image-keyboard-response","395","388476","0.0-6.0-1.194","FLSE","3","m","rechts","23","","","object","j","60","false"
"null","<div style=""font-size:60px;"">+</div>","null","html-keyboard-response","396","389004","0.0-6.0-0.195","FLSE","3","m","rechts","23","","fixation","","","",""
"1093","img/30_300.png","74","image-keyboard-response","397","390107","0.0-6.0-1.195","FLSE","3","m","rechts","23","","","object","f","30","false"
"null","<div style=""font-size:60px;"">+</div>","null","html-keyboard-response","398","390614","0.0-6.0-0.196","FLSE","3","m","rechts","23","","fixation","","","",""
"1143","img/150_270.png","70","image-keyboard-response","399","391774","0.0-6.0-1.196","FLSE","3","m","rechts","23","","","object","j","150","false"
"null","<div style=""font-size:60px;"">+</div>","null","html-keyboard-response","400","392129","0.0-6.0-0.197","FLSE","3","m","rechts","23","","fixation","","","",""
"743","img/0_60.png","74","image-keyboard-response","401","392886","0.0-6.0-1.197","FLSE","3","m","rechts","23","","","object","j","0","true"
"null","<div style=""font-size:60px;"">+</div>","null","html-keyboard-response","402","393192","0.0-6.0-0.198","FLSE","3","m","rechts","23","","fixation","","","",""
"1066","img/120_330.png","74","image-keyboard-response","403","394272","0.0-6.0-1.198","FLSE","3","m","rechts","23","","","object","j","120","true"
"null","<div style=""font-size:60px;"">+</div>","null","html-keyboard-response","404","394629","0.0-6.0-0.199","FLSE","3","m","rechts","23","","fixation","","","",""
"1055","img/L30_180.png","74","image-keyboard-response","405","395698","0.0-6.0-1.199","FLSE","3","m","rechts","23","","","object","j","30","true"
"null","<div style=""font-size:60px;"">+</div>","null","html-keyboard-response","406","396160","0.0-6.0-0.200","FLSE","3","m","rechts","23","","fixation","","","",""
"1313","img/150_60.png","74","image-keyboard-response","407","397488","0.0-6.0-1.200","FLSE","3","m","rechts","23","","","object","f","150","false"
"null","<div style=""font-size:60px;"">+</div>","null","html-keyboard-response","408","397897","0.0-6.0-0.201","FLSE","3","m","rechts","23","","fixation","","","",""
"624","img/0_120.png","74","image-keyboard-response","409","398534","0.0-6.0-1.201","FLSE","3","m","rechts","23","","","object","j","0","true"
"null","<div style=""font-size:60px;"">+</div>","null","html-keyboard-response","410","399052","0.0-6.0-0.202","FLSE","3","m","rechts","23","","fixation","","","",""
"930","img/150_300.png","70","image-keyboard-response","411","399997","0.0-6.0-1.202","FLSE","3","m","rechts","23","","","object","j","150","false"
"null","<div style=""font-size:60px;"">+</div>","null","html-keyboard-response","412","400348","0.0-6.0-0.203","FLSE","3","m","rechts","23","","fixation","","","",""
"634","img/0_240.png","70","image-keyboard-response","413","400997","0.0-6.0-1.203","FLSE","3","m","rechts","23","","","object","f","0","true"
"null","<div style=""font-size:60px;"">+</div>","null","html-keyboard-response","414","401508","0.0-6.0-0.204","FLSE","3","m","rechts","23","","fixation","","","",""
"838","img/L120_180.png","74","image-keyboard-response","415","402358","0.0-6.0-1.204","FLSE","3","m","rechts","23","","","object","j","120","true"
"null","<div style=""font-size:60px;"">+</div>","null","html-keyboard-response","416","402867","0.0-6.0-0.205","FLSE","3","m","rechts","23","","fixation","","","",""
"908","img/150_120.png","74","image-keyboard-response","417","403788","0.0-6.0-1.205","FLSE","3","m","rechts","23","","","object","f","150","false"
"null","<div style=""font-size:60px;"">+</div>","null","html-keyboard-response","418","404241","0.0-6.0-0.206","FLSE","3","m","rechts","23","","fixation","","","",""
"895","img/L60_180.png","74","image-keyboard-response","419","405149","0.0-6.0-1.206","FLSE","3","m","rechts","23","","","object","j","60","true"
"null","<div style=""font-size:60px;"">+</div>","null","html-keyboard-response","420","405460","0.0-6.0-0.207","FLSE","3","m","rechts","23","","fixation","","","",""
"977","img/90_120.png","74","image-keyboard-response","421","406451","0.0-6.0-1.207","FLSE","3","m","rechts","23","","","object","j","90","true"
"20580","<p>Du hast in 71% der Versuche korrekt entschieden.</p><p>Deine durchschnittliche Reaktionszeit war  854ms.</p><p>Dr&uuml;cke eine beliebige Taste, um die Session zu beenden. Vielen Dank!</p>","32","html-keyboard-response","422","427032","0.0-7.0","FLSE","3","m","rechts","23","","","","","",""
