"rt","stimulus","key_press","trial_type","trial_index","time_elapsed","internal_node_id","subject","session","sex","handedness","age","responses","test_part","condition","correct_response","angle","correct"
"872","<p>Mental Rotation Experiment.</p> <p>Dr&uuml;cke eine beliebige Taste, um anzufangen.</p>","13","html-keyboard-response","0","884","0.0-0.0","FLSE","4","m","rechts","23","","","","","",""
"6061","","","survey-text","1","6947","0.0-1.0","FLSE","4","m","rechts","23","{""Q0"":""FLSE""}","","","","",""
"3541","","","survey-text","2","10490","0.0-2.0","FLSE","4","m","rechts","23","{""Q0"":""4""}","","","","",""
"19631","","","survey-multi-choice","3","30124","0.0-3.0","FLSE","4","m","rechts","23","{""Q0"":""m"",""Q1"":""rechts""}","","","","",""
"5158","","","survey-text","4","35284","0.0-4.0","FLSE","4","m","rechts","23","{""Q0"":""23""}","","","","",""
"41264","<p>Stell dir vor, dass du vor einem runden Tisch stehst, auf dem sich ein blauer Ball am Tischrand befindet. Entlang des Tischrands ist jeweils ein verschieden langer Pfeil. Nun bleibst du an deinem Platz vor dem Tisch und rotierst den Tisch entlang des Pfeils (gleiche Richtung und Länge). </p> <img src='img/30_180.png'></img> <br><p> Nachdem du diese (vorgestellte) Rotation durchgef&uuml;hrt hast, schau in Richtung der Tischmitte, und entscheide dann, ob der Ball links oder rechts von dir liegt.</p> <p>Dr&uuml;cke die <strong>'f'</strong>-Taste f&uuml;r links, die <strong>'j'</strong>-Taste f&uuml;r rechts.</p><br><p> Das Bild wird jeweils 1 Sekunde lang pr&auml;sentiert. Du hast 3 Sekunden Zeit eine Entscheidung zu treffen.</p>","70","html-keyboard-response","5","76557","0.0-5.0","FLSE","4","m","rechts","23","","","","","",""
"null","<div style=""font-size:60px;"">+</div>","null","html-keyboard-response","6","78024","0.0-6.0-0.0","FLSE","4","m","rechts","23","","fixation","","","",""
"1137","img/30_60.png","70","image-keyboard-response","7","79181","0.0-6.0-1.0","FLSE","4","m","rechts","23","","","object","j","30","false"
"null","<div style=""font-size:60px;"">+</div>","null","html-keyboard-response","8","79598","0.0-6.0-0.1","FLSE","4","m","rechts","23","","fixation","","","",""
"1222","img/60_30.png","70","image-keyboard-response","9","80838","0.0-6.0-1.1","FLSE","4","m","rechts","23","","","object","f","60","true"
"null","<div style=""font-size:60px;"">+</div>","null","html-keyboard-response","10","81197","0.0-6.0-0.2","FLSE","4","m","rechts","23","","fixation","","","",""
"892","img/90_300.png","74","image-keyboard-response","11","82111","0.0-6.0-1.2","FLSE","4","m","rechts","23","","","object","j","90","true"
"null","<div style=""font-size:60px;"">+</div>","null","html-keyboard-response","12","82618","0.0-6.0-0.3","FLSE","4","m","rechts","23","","fixation","","","",""
"644","img/0_150.png","74","image-keyboard-response","13","83278","0.0-6.0-1.3","FLSE","4","m","rechts","23","","","object","j","0","true"
"null","<div style=""font-size:60px;"">+</div>","null","html-keyboard-response","14","83634","0.0-6.0-0.4","FLSE","4","m","rechts","23","","fixation","","","",""
"617","img/0_240.png","70","image-keyboard-response","15","84268","0.0-6.0-1.4","FLSE","4","m","rechts","23","","","object","f","0","true"
"null","<div style=""font-size:60px;"">+</div>","null","html-keyboard-response","16","84773","0.0-6.0-0.5","FLSE","4","m","rechts","23","","fixation","","","",""
"829","img/90_60.png","70","image-keyboard-response","17","85621","0.0-6.0-1.5","FLSE","4","m","rechts","23","","","object","f","90","true"
"null","<div style=""font-size:60px;"">+</div>","null","html-keyboard-response","18","85979","0.0-6.0-0.6","FLSE","4","m","rechts","23","","fixation","","","",""
"571","img/0_210.png","70","image-keyboard-response","19","86565","0.0-6.0-1.6","FLSE","4","m","rechts","23","","","object","f","0","true"
"null","<div style=""font-size:60px;"">+</div>","null","html-keyboard-response","20","87072","0.0-6.0-0.7","FLSE","4","m","rechts","23","","fixation","","","",""
"814","img/90_30.png","70","image-keyboard-response","21","87904","0.0-6.0-1.7","FLSE","4","m","rechts","23","","","object","f","90","true"
"null","<div style=""font-size:60px;"">+</div>","null","html-keyboard-response","22","88432","0.0-6.0-0.8","FLSE","4","m","rechts","23","","fixation","","","",""
"613","img/0_270.png","70","image-keyboard-response","23","89064","0.0-6.0-1.8","FLSE","4","m","rechts","23","","","object","f","0","true"
"null","<div style=""font-size:60px;"">+</div>","null","html-keyboard-response","24","89369","0.0-6.0-0.9","FLSE","4","m","rechts","23","","fixation","","","",""
"888","img/120_210.png","70","image-keyboard-response","25","90275","0.0-6.0-1.9","FLSE","4","m","rechts","23","","","object","f","120","true"
"null","<div style=""font-size:60px;"">+</div>","null","html-keyboard-response","26","90729","0.0-6.0-0.10","FLSE","4","m","rechts","23","","fixation","","","",""
"791","img/60_150.png","74","image-keyboard-response","27","91538","0.0-6.0-1.10","FLSE","4","m","rechts","23","","","object","j","60","true"
"null","<div style=""font-size:60px;"">+</div>","null","html-keyboard-response","28","92012","0.0-6.0-0.11","FLSE","4","m","rechts","23","","fixation","","","",""
"781","img/90_210.png","70","image-keyboard-response","29","92810","0.0-6.0-1.11","FLSE","4","m","rechts","23","","","object","f","90","true"
"null","<div style=""font-size:60px;"">+</div>","null","html-keyboard-response","30","93136","0.0-6.0-0.12","FLSE","4","m","rechts","23","","fixation","","","",""
"1015","img/30_240.png","74","image-keyboard-response","31","94171","0.0-6.0-1.12","FLSE","4","m","rechts","23","","","object","f","30","false"
"null","<div style=""font-size:60px;"">+</div>","null","html-keyboard-response","32","94542","0.0-6.0-0.13","FLSE","4","m","rechts","23","","fixation","","","",""
"903","img/90_120.png","74","image-keyboard-response","33","95464","0.0-6.0-1.13","FLSE","4","m","rechts","23","","","object","j","90","true"
"null","<div style=""font-size:60px;"">+</div>","null","html-keyboard-response","34","95825","0.0-6.0-0.14","FLSE","4","m","rechts","23","","fixation","","","",""
"877","img/L120_180.png","74","image-keyboard-response","35","96723","0.0-6.0-1.14","FLSE","4","m","rechts","23","","","object","j","120","true"
"null","<div style=""font-size:60px;"">+</div>","null","html-keyboard-response","36","97152","0.0-6.0-0.15","FLSE","4","m","rechts","23","","fixation","","","",""
"904","img/150_270.png","70","image-keyboard-response","37","98074","0.0-6.0-1.15","FLSE","4","m","rechts","23","","","object","j","150","false"
"null","<div style=""font-size:60px;"">+</div>","null","html-keyboard-response","38","98480","0.0-6.0-0.16","FLSE","4","m","rechts","23","","fixation","","","",""
"1666","img/60_90.png","70","image-keyboard-response","39","100168","0.0-6.0-1.16","FLSE","4","m","rechts","23","","","object","j","60","false"
"null","<div style=""font-size:60px;"">+</div>","null","html-keyboard-response","40","100623","0.0-6.0-0.17","FLSE","4","m","rechts","23","","fixation","","","",""
"1179","img/120_90.png","74","image-keyboard-response","41","101820","0.0-6.0-1.17","FLSE","4","m","rechts","23","","","object","f","120","false"
"null","<div style=""font-size:60px;"">+</div>","null","html-keyboard-response","42","102325","0.0-6.0-0.18","FLSE","4","m","rechts","23","","fixation","","","",""
"982","img/150_120.png","74","image-keyboard-response","43","103315","0.0-6.0-1.18","FLSE","4","m","rechts","23","","","object","f","150","false"
"null","<div style=""font-size:60px;"">+</div>","null","html-keyboard-response","44","103717","0.0-6.0-0.19","FLSE","4","m","rechts","23","","fixation","","","",""
"1057","img/90_330.png","74","image-keyboard-response","45","104791","0.0-6.0-1.19","FLSE","4","m","rechts","23","","","object","j","90","true"
"null","<div style=""font-size:60px;"">+</div>","null","html-keyboard-response","46","105247","0.0-6.0-0.20","FLSE","4","m","rechts","23","","fixation","","","",""
"2331","img/150_240.png","74","image-keyboard-response","47","107585","0.0-6.0-1.20","FLSE","4","m","rechts","23","","","object","j","150","true"
"null","<div style=""font-size:60px;"">+</div>","null","html-keyboard-response","48","108049","0.0-6.0-0.21","FLSE","4","m","rechts","23","","fixation","","","",""
"883","img/120_330.png","74","image-keyboard-response","49","108951","0.0-6.0-1.21","FLSE","4","m","rechts","23","","","object","j","120","true"
"null","<div style=""font-size:60px;"">+</div>","null","html-keyboard-response","50","109252","0.0-6.0-0.22","FLSE","4","m","rechts","23","","fixation","","","",""
"975","img/60_180.png","70","image-keyboard-response","51","110234","0.0-6.0-1.22","FLSE","4","m","rechts","23","","","object","f","60","true"
"null","<div style=""font-size:60px;"">+</div>","null","html-keyboard-response","52","110749","0.0-6.0-0.23","FLSE","4","m","rechts","23","","fixation","","","",""
"965","img/120_270.png","70","image-keyboard-response","53","111732","0.0-6.0-1.23","FLSE","4","m","rechts","23","","","object","j","120","false"
"null","<div style=""font-size:60px;"">+</div>","null","html-keyboard-response","54","112062","0.0-6.0-0.24","FLSE","4","m","rechts","23","","fixation","","","",""
"957","img/150_90.png","74","image-keyboard-response","55","113036","0.0-6.0-1.24","FLSE","4","m","rechts","23","","","object","f","150","false"
"null","<div style=""font-size:60px;"">+</div>","null","html-keyboard-response","56","113391","0.0-6.0-0.25","FLSE","4","m","rechts","23","","fixation","","","",""
"1214","img/120_150.png","74","image-keyboard-response","57","114623","0.0-6.0-1.25","FLSE","4","m","rechts","23","","","object","j","120","true"
"null","<div style=""font-size:60px;"">+</div>","null","html-keyboard-response","58","114983","0.0-6.0-0.26","FLSE","4","m","rechts","23","","fixation","","","",""
"826","img/150_180.png","70","image-keyboard-response","59","115829","0.0-6.0-1.26","FLSE","4","m","rechts","23","","","object","f","150","true"
"null","<div style=""font-size:60px;"">+</div>","null","html-keyboard-response","60","116139","0.0-6.0-0.27","FLSE","4","m","rechts","23","","fixation","","","",""
"1278","img/60_330.png","74","image-keyboard-response","61","117435","0.0-6.0-1.27","FLSE","4","m","rechts","23","","","object","j","60","true"
"null","<div style=""font-size:60px;"">+</div>","null","html-keyboard-response","62","117764","0.0-6.0-0.28","FLSE","4","m","rechts","23","","fixation","","","",""
"880","img/120_30.png","70","image-keyboard-response","63","118663","0.0-6.0-1.28","FLSE","4","m","rechts","23","","","object","f","120","true"
"null","<div style=""font-size:60px;"">+</div>","null","html-keyboard-response","64","119140","0.0-6.0-0.29","FLSE","4","m","rechts","23","","fixation","","","",""
"944","img/150_300.png","70","image-keyboard-response","65","120102","0.0-6.0-1.29","FLSE","4","m","rechts","23","","","object","j","150","false"
"null","<div style=""font-size:60px;"">+</div>","null","html-keyboard-response","66","120514","0.0-6.0-0.30","FLSE","4","m","rechts","23","","fixation","","","",""
"661","img/0_120.png","74","image-keyboard-response","67","121194","0.0-6.0-1.30","FLSE","4","m","rechts","23","","","object","j","0","true"
"null","<div style=""font-size:60px;"">+</div>","null","html-keyboard-response","68","121514","0.0-6.0-0.31","FLSE","4","m","rechts","23","","fixation","","","",""
"796","img/L150_180.png","74","image-keyboard-response","69","122327","0.0-6.0-1.31","FLSE","4","m","rechts","23","","","object","j","150","true"
"null","<div style=""font-size:60px;"">+</div>","null","html-keyboard-response","70","122732","0.0-6.0-0.32","FLSE","4","m","rechts","23","","fixation","","","",""
"637","img/0_60.png","74","image-keyboard-response","71","123387","0.0-6.0-1.32","FLSE","4","m","rechts","23","","","object","j","0","true"
"null","<div style=""font-size:60px;"">+</div>","null","html-keyboard-response","72","123748","0.0-6.0-0.33","FLSE","4","m","rechts","23","","fixation","","","",""
"814","img/L90_180.png","74","image-keyboard-response","73","124579","0.0-6.0-1.33","FLSE","4","m","rechts","23","","","object","j","90","true"
"null","<div style=""font-size:60px;"">+</div>","null","html-keyboard-response","74","125045","0.0-6.0-0.34","FLSE","4","m","rechts","23","","fixation","","","",""
"887","img/120_180.png","70","image-keyboard-response","75","125951","0.0-6.0-1.34","FLSE","4","m","rechts","23","","","object","f","120","true"
"null","<div style=""font-size:60px;"">+</div>","null","html-keyboard-response","76","126468","0.0-6.0-0.35","FLSE","4","m","rechts","23","","fixation","","","",""
"1030","img/60_210.png","70","image-keyboard-response","77","127517","0.0-6.0-1.35","FLSE","4","m","rechts","23","","","object","f","60","true"
"null","<div style=""font-size:60px;"">+</div>","null","html-keyboard-response","78","127984","0.0-6.0-0.36","FLSE","4","m","rechts","23","","fixation","","","",""
"966","img/60_270.png","74","image-keyboard-response","79","128968","0.0-6.0-1.36","FLSE","4","m","rechts","23","","","object","f","60","false"
"null","<div style=""font-size:60px;"">+</div>","null","html-keyboard-response","80","129390","0.0-6.0-0.37","FLSE","4","m","rechts","23","","fixation","","","",""
"804","img/90_180.png","70","image-keyboard-response","81","130216","0.0-6.0-1.37","FLSE","4","m","rechts","23","","","object","f","90","true"
"null","<div style=""font-size:60px;"">+</div>","null","html-keyboard-response","82","130531","0.0-6.0-0.38","FLSE","4","m","rechts","23","","fixation","","","",""
"877","img/30_180.png","70","image-keyboard-response","83","131420","0.0-6.0-1.38","FLSE","4","m","rechts","23","","","object","f","30","true"
"null","<div style=""font-size:60px;"">+</div>","null","html-keyboard-response","84","131749","0.0-6.0-0.39","FLSE","4","m","rechts","23","","fixation","","","",""
"991","img/30_120.png","74","image-keyboard-response","85","132758","0.0-6.0-1.39","FLSE","4","m","rechts","23","","","object","j","30","true"
"null","<div style=""font-size:60px;"">+</div>","null","html-keyboard-response","86","133233","0.0-6.0-0.40","FLSE","4","m","rechts","23","","fixation","","","",""
"1094","img/30_90.png","70","image-keyboard-response","87","134334","0.0-6.0-1.40","FLSE","4","m","rechts","23","","","object","j","30","false"
"null","<div style=""font-size:60px;"">+</div>","null","html-keyboard-response","88","134639","0.0-6.0-0.41","FLSE","4","m","rechts","23","","fixation","","","",""
"700","img/0_90.png","74","image-keyboard-response","89","135346","0.0-6.0-1.41","FLSE","4","m","rechts","23","","","object","j","0","true"
"null","<div style=""font-size:60px;"">+</div>","null","html-keyboard-response","90","135656","0.0-6.0-0.42","FLSE","4","m","rechts","23","","fixation","","","",""
"581","img/0_30.png","74","image-keyboard-response","91","136255","0.0-6.0-1.42","FLSE","4","m","rechts","23","","","object","j","0","true"
"null","<div style=""font-size:60px;"">+</div>","null","html-keyboard-response","92","136782","0.0-6.0-0.43","FLSE","4","m","rechts","23","","fixation","","","",""
"887","img/90_150.png","74","image-keyboard-response","93","137687","0.0-6.0-1.43","FLSE","4","m","rechts","23","","","object","j","90","true"
"null","<div style=""font-size:60px;"">+</div>","null","html-keyboard-response","94","138001","0.0-6.0-0.44","FLSE","4","m","rechts","23","","fixation","","","",""
"916","img/L60_180.png","74","image-keyboard-response","95","138935","0.0-6.0-1.44","FLSE","4","m","rechts","23","","","object","j","60","true"
"null","<div style=""font-size:60px;"">+</div>","null","html-keyboard-response","96","139265","0.0-6.0-0.45","FLSE","4","m","rechts","23","","fixation","","","",""
"990","img/150_60.png","74","image-keyboard-response","97","140263","0.0-6.0-1.45","FLSE","4","m","rechts","23","","","object","f","150","false"
"null","<div style=""font-size:60px;"">+</div>","null","html-keyboard-response","98","140641","0.0-6.0-0.46","FLSE","4","m","rechts","23","","fixation","","","",""
"975","img/90_240.png","70","image-keyboard-response","99","141634","0.0-6.0-1.46","FLSE","4","m","rechts","23","","","object","f","90","true"
"null","<div style=""font-size:60px;"">+</div>","null","html-keyboard-response","100","141953","0.0-6.0-0.47","FLSE","4","m","rechts","23","","fixation","","","",""
"1251","img/30_300.png","74","image-keyboard-response","101","143222","0.0-6.0-1.47","FLSE","4","m","rechts","23","","","object","f","30","false"
"null","<div style=""font-size:60px;"">+</div>","null","html-keyboard-response","102","143625","0.0-6.0-0.48","FLSE","4","m","rechts","23","","fixation","","","",""
"992","img/30_270.png","74","image-keyboard-response","103","144637","0.0-6.0-1.48","FLSE","4","m","rechts","23","","","object","f","30","false"
"null","<div style=""font-size:60px;"">+</div>","null","html-keyboard-response","104","145094","0.0-6.0-0.49","FLSE","4","m","rechts","23","","fixation","","","",""
"979","img/L30_180.png","74","image-keyboard-response","105","146090","0.0-6.0-1.49","FLSE","4","m","rechts","23","","","object","j","30","true"
"null","<div style=""font-size:60px;"">+</div>","null","html-keyboard-response","106","146552","0.0-6.0-0.50","FLSE","4","m","rechts","23","","fixation","","","",""
"756","img/0_330.png","70","image-keyboard-response","107","147326","0.0-6.0-1.50","FLSE","4","m","rechts","23","","","object","f","0","true"
"null","<div style=""font-size:60px;"">+</div>","null","html-keyboard-response","108","147630","0.0-6.0-0.51","FLSE","4","m","rechts","23","","fixation","","","",""
"511","img/0_300.png","70","image-keyboard-response","109","148160","0.0-6.0-1.51","FLSE","4","m","rechts","23","","","object","f","0","true"
"null","<div style=""font-size:60px;"">+</div>","null","html-keyboard-response","110","148568","0.0-6.0-0.52","FLSE","4","m","rechts","23","","fixation","","","",""
"705","img/90_180.png","70","image-keyboard-response","111","149282","0.0-6.0-1.52","FLSE","4","m","rechts","23","","","object","f","90","true"
"null","<div style=""font-size:60px;"">+</div>","null","html-keyboard-response","112","149693","0.0-6.0-0.53","FLSE","4","m","rechts","23","","fixation","","","",""
"851","img/90_120.png","74","image-keyboard-response","113","150557","0.0-6.0-1.53","FLSE","4","m","rechts","23","","","object","j","90","true"
"null","<div style=""font-size:60px;"">+</div>","null","html-keyboard-response","114","150880","0.0-6.0-0.54","FLSE","4","m","rechts","23","","fixation","","","",""
"1024","img/90_60.png","70","image-keyboard-response","115","151917","0.0-6.0-1.54","FLSE","4","m","rechts","23","","","object","f","90","true"
"null","<div style=""font-size:60px;"">+</div>","null","html-keyboard-response","116","152442","0.0-6.0-0.55","FLSE","4","m","rechts","23","","fixation","","","",""
"947","img/150_270.png","70","image-keyboard-response","117","153402","0.0-6.0-1.55","FLSE","4","m","rechts","23","","","object","j","150","false"
"null","<div style=""font-size:60px;"">+</div>","null","html-keyboard-response","118","153811","0.0-6.0-0.56","FLSE","4","m","rechts","23","","fixation","","","",""
"1078","img/30_300.png","74","image-keyboard-response","119","154899","0.0-6.0-1.56","FLSE","4","m","rechts","23","","","object","f","30","false"
"null","<div style=""font-size:60px;"">+</div>","null","html-keyboard-response","120","155406","0.0-6.0-0.57","FLSE","4","m","rechts","23","","fixation","","","",""
"1407","img/150_300.png","70","image-keyboard-response","121","156823","0.0-6.0-1.57","FLSE","4","m","rechts","23","","","object","j","150","false"
"null","<div style=""font-size:60px;"">+</div>","null","html-keyboard-response","122","157186","0.0-6.0-0.58","FLSE","4","m","rechts","23","","fixation","","","",""
"940","img/L120_180.png","74","image-keyboard-response","123","158139","0.0-6.0-1.58","FLSE","4","m","rechts","23","","","object","j","120","true"
"null","<div style=""font-size:60px;"">+</div>","null","html-keyboard-response","124","158655","0.0-6.0-0.59","FLSE","4","m","rechts","23","","fixation","","","",""
"1477","img/L90_180.png","74","image-keyboard-response","125","160142","0.0-6.0-1.59","FLSE","4","m","rechts","23","","","object","j","90","true"
"null","<div style=""font-size:60px;"">+</div>","null","html-keyboard-response","126","160545","0.0-6.0-0.60","FLSE","4","m","rechts","23","","fixation","","","",""
"979","img/30_90.png","70","image-keyboard-response","127","161535","0.0-6.0-1.60","FLSE","4","m","rechts","23","","","object","j","30","false"
"null","<div style=""font-size:60px;"">+</div>","null","html-keyboard-response","128","161967","0.0-6.0-0.61","FLSE","4","m","rechts","23","","fixation","","","",""
"929","img/60_90.png","70","image-keyboard-response","129","162909","0.0-6.0-1.61","FLSE","4","m","rechts","23","","","object","j","60","false"
"null","<div style=""font-size:60px;"">+</div>","null","html-keyboard-response","130","163326","0.0-6.0-0.62","FLSE","4","m","rechts","23","","fixation","","","",""
"949","img/90_330.png","74","image-keyboard-response","131","164279","0.0-6.0-1.62","FLSE","4","m","rechts","23","","","object","j","90","true"
"null","<div style=""font-size:60px;"">+</div>","null","html-keyboard-response","132","164732","0.0-6.0-0.63","FLSE","4","m","rechts","23","","fixation","","","",""
"920","img/0_270.png","70","image-keyboard-response","133","165665","0.0-6.0-1.63","FLSE","4","m","rechts","23","","","object","f","0","true"
"null","<div style=""font-size:60px;"">+</div>","null","html-keyboard-response","134","166047","0.0-6.0-0.64","FLSE","4","m","rechts","23","","fixation","","","",""
"542","img/0_300.png","70","image-keyboard-response","135","166598","0.0-6.0-1.64","FLSE","4","m","rechts","23","","","object","f","0","true"
"null","<div style=""font-size:60px;"">+</div>","null","html-keyboard-response","136","166969","0.0-6.0-0.65","FLSE","4","m","rechts","23","","fixation","","","",""
"633","img/0_90.png","74","image-keyboard-response","137","167611","0.0-6.0-1.65","FLSE","4","m","rechts","23","","","object","j","0","true"
"null","<div style=""font-size:60px;"">+</div>","null","html-keyboard-response","138","168032","0.0-6.0-0.66","FLSE","4","m","rechts","23","","fixation","","","",""
"545","img/0_210.png","70","image-keyboard-response","139","168590","0.0-6.0-1.66","FLSE","4","m","rechts","23","","","object","f","0","true"
"null","<div style=""font-size:60px;"">+</div>","null","html-keyboard-response","140","169047","0.0-6.0-0.67","FLSE","4","m","rechts","23","","fixation","","","",""
"938","img/120_30.png","70","image-keyboard-response","141","169997","0.0-6.0-1.67","FLSE","4","m","rechts","23","","","object","f","120","true"
"null","<div style=""font-size:60px;"">+</div>","null","html-keyboard-response","142","170452","0.0-6.0-0.68","FLSE","4","m","rechts","23","","fixation","","","",""
"1050","img/120_270.png","70","image-keyboard-response","143","171516","0.0-6.0-1.68","FLSE","4","m","rechts","23","","","object","j","120","false"
"null","<div style=""font-size:60px;"">+</div>","null","html-keyboard-response","144","172031","0.0-6.0-0.69","FLSE","4","m","rechts","23","","fixation","","","",""
"1006","img/L150_180.png","74","image-keyboard-response","145","173047","0.0-6.0-1.69","FLSE","4","m","rechts","23","","","object","j","150","true"
"null","<div style=""font-size:60px;"">+</div>","null","html-keyboard-response","146","173515","0.0-6.0-0.70","FLSE","4","m","rechts","23","","fixation","","","",""
"1115","img/30_240.png","70","image-keyboard-response","147","174643","0.0-6.0-1.70","FLSE","4","m","rechts","23","","","object","f","30","true"
"null","<div style=""font-size:60px;"">+</div>","null","html-keyboard-response","148","175156","0.0-6.0-0.71","FLSE","4","m","rechts","23","","fixation","","","",""
"1061","img/90_30.png","70","image-keyboard-response","149","176230","0.0-6.0-1.71","FLSE","4","m","rechts","23","","","object","f","90","true"
"null","<div style=""font-size:60px;"">+</div>","null","html-keyboard-response","150","176643","0.0-6.0-0.72","FLSE","4","m","rechts","23","","fixation","","","",""
"957","img/0_240.png","70","image-keyboard-response","151","177612","0.0-6.0-1.72","FLSE","4","m","rechts","23","","","object","f","0","true"
"null","<div style=""font-size:60px;"">+</div>","null","html-keyboard-response","152","178126","0.0-6.0-0.73","FLSE","4","m","rechts","23","","fixation","","","",""
"768","img/90_210.png","70","image-keyboard-response","153","178908","0.0-6.0-1.73","FLSE","4","m","rechts","23","","","object","f","90","true"
"null","<div style=""font-size:60px;"">+</div>","null","html-keyboard-response","154","179423","0.0-6.0-0.74","FLSE","4","m","rechts","23","","fixation","","","",""
"802","img/90_150.png","74","image-keyboard-response","155","180234","0.0-6.0-1.74","FLSE","4","m","rechts","23","","","object","j","90","true"
"null","<div style=""font-size:60px;"">+</div>","null","html-keyboard-response","156","180594","0.0-6.0-0.75","FLSE","4","m","rechts","23","","fixation","","","",""
"969","img/30_120.png","70","image-keyboard-response","157","181573","0.0-6.0-1.75","FLSE","4","m","rechts","23","","","object","j","30","false"
"null","<div style=""font-size:60px;"">+</div>","null","html-keyboard-response","158","182000","0.0-6.0-0.76","FLSE","4","m","rechts","23","","fixation","","","",""
"906","img/90_300.png","74","image-keyboard-response","159","182911","0.0-6.0-1.76","FLSE","4","m","rechts","23","","","object","j","90","true"
"null","<div style=""font-size:60px;"">+</div>","null","html-keyboard-response","160","183375","0.0-6.0-0.77","FLSE","4","m","rechts","23","","fixation","","","",""
"958","img/120_150.png","74","image-keyboard-response","161","184339","0.0-6.0-1.77","FLSE","4","m","rechts","23","","","object","j","120","true"
"null","<div style=""font-size:60px;"">+</div>","null","html-keyboard-response","162","184844","0.0-6.0-0.78","FLSE","4","m","rechts","23","","fixation","","","",""
"878","img/150_180.png","70","image-keyboard-response","163","185736","0.0-6.0-1.78","FLSE","4","m","rechts","23","","","object","f","150","true"
"null","<div style=""font-size:60px;"">+</div>","null","html-keyboard-response","164","186159","0.0-6.0-0.79","FLSE","4","m","rechts","23","","fixation","","","",""
"1160","img/120_90.png","74","image-keyboard-response","165","187331","0.0-6.0-1.79","FLSE","4","m","rechts","23","","","object","f","120","false"
"null","<div style=""font-size:60px;"">+</div>","null","html-keyboard-response","166","187784","0.0-6.0-0.80","FLSE","4","m","rechts","23","","fixation","","","",""
"999","img/30_180.png","70","image-keyboard-response","167","188797","0.0-6.0-1.80","FLSE","4","m","rechts","23","","","object","f","30","true"
"null","<div style=""font-size:60px;"">+</div>","null","html-keyboard-response","168","189206","0.0-6.0-0.81","FLSE","4","m","rechts","23","","fixation","","","",""
"1027","img/120_180.png","70","image-keyboard-response","169","190248","0.0-6.0-1.81","FLSE","4","m","rechts","23","","","object","f","120","true"
"null","<div style=""font-size:60px;"">+</div>","null","html-keyboard-response","170","190611","0.0-6.0-0.82","FLSE","4","m","rechts","23","","fixation","","","",""
"1098","img/0_60.png","74","image-keyboard-response","171","191722","0.0-6.0-1.82","FLSE","4","m","rechts","23","","","object","j","0","true"
"null","<div style=""font-size:60px;"">+</div>","null","html-keyboard-response","172","192040","0.0-6.0-0.83","FLSE","4","m","rechts","23","","fixation","","","",""
"849","img/150_240.png","70","image-keyboard-response","173","192902","0.0-6.0-1.83","FLSE","4","m","rechts","23","","","object","j","150","false"
"null","<div style=""font-size:60px;"">+</div>","null","html-keyboard-response","174","193273","0.0-6.0-0.84","FLSE","4","m","rechts","23","","fixation","","","",""
"1008","img/150_60.png","74","image-keyboard-response","175","194284","0.0-6.0-1.84","FLSE","4","m","rechts","23","","","object","f","150","false"
"null","<div style=""font-size:60px;"">+</div>","null","html-keyboard-response","176","194587","0.0-6.0-0.85","FLSE","4","m","rechts","23","","fixation","","","",""
"1161","img/60_330.png","74","image-keyboard-response","177","195761","0.0-6.0-1.85","FLSE","4","m","rechts","23","","","object","j","60","true"
"null","<div style=""font-size:60px;"">+</div>","null","html-keyboard-response","178","196179","0.0-6.0-0.86","FLSE","4","m","rechts","23","","fixation","","","",""
"1024","img/30_270.png","74","image-keyboard-response","179","197212","0.0-6.0-1.86","FLSE","4","m","rechts","23","","","object","f","30","false"
"null","<div style=""font-size:60px;"">+</div>","null","html-keyboard-response","180","197540","0.0-6.0-0.87","FLSE","4","m","rechts","23","","fixation","","","",""
"1019","img/150_120.png","74","image-keyboard-response","181","198571","0.0-6.0-1.87","FLSE","4","m","rechts","23","","","object","f","150","false"
"null","<div style=""font-size:60px;"">+</div>","null","html-keyboard-response","182","199024","0.0-6.0-0.88","FLSE","4","m","rechts","23","","fixation","","","",""
"1244","img/60_180.png","74","image-keyboard-response","183","200280","0.0-6.0-1.88","FLSE","4","m","rechts","23","","","object","f","60","false"
"null","<div style=""font-size:60px;"">+</div>","null","html-keyboard-response","184","200790","0.0-6.0-0.89","FLSE","4","m","rechts","23","","fixation","","","",""
"832","img/L30_180.png","74","image-keyboard-response","185","201632","0.0-6.0-1.89","FLSE","4","m","rechts","23","","","object","j","30","true"
"null","<div style=""font-size:60px;"">+</div>","null","html-keyboard-response","186","201947","0.0-6.0-0.90","FLSE","4","m","rechts","23","","fixation","","","",""
"711","img/0_330.png","70","image-keyboard-response","187","202668","0.0-6.0-1.90","FLSE","4","m","rechts","23","","","object","f","0","true"
"null","<div style=""font-size:60px;"">+</div>","null","html-keyboard-response","188","203072","0.0-6.0-0.91","FLSE","4","m","rechts","23","","fixation","","","",""
"857","img/90_240.png","70","image-keyboard-response","189","203939","0.0-6.0-1.91","FLSE","4","m","rechts","23","","","object","f","90","true"
"null","<div style=""font-size:60px;"">+</div>","null","html-keyboard-response","190","204447","0.0-6.0-0.92","FLSE","4","m","rechts","23","","fixation","","","",""
"1007","img/60_270.png","74","image-keyboard-response","191","205468","0.0-6.0-1.92","FLSE","4","m","rechts","23","","","object","f","60","false"
"null","<div style=""font-size:60px;"">+</div>","null","html-keyboard-response","192","205776","0.0-6.0-0.93","FLSE","4","m","rechts","23","","fixation","","","",""
"984","img/120_330.png","74","image-keyboard-response","193","206772","0.0-6.0-1.93","FLSE","4","m","rechts","23","","","object","j","120","true"
"null","<div style=""font-size:60px;"">+</div>","null","html-keyboard-response","194","207087","0.0-6.0-0.94","FLSE","4","m","rechts","23","","fixation","","","",""
"820","img/60_210.png","70","image-keyboard-response","195","207921","0.0-6.0-1.94","FLSE","4","m","rechts","23","","","object","f","60","true"
"null","<div style=""font-size:60px;"">+</div>","null","html-keyboard-response","196","208274","0.0-6.0-0.95","FLSE","4","m","rechts","23","","fixation","","","",""
"621","img/0_120.png","74","image-keyboard-response","197","208901","0.0-6.0-1.95","FLSE","4","m","rechts","23","","","object","j","0","true"
"null","<div style=""font-size:60px;"">+</div>","null","html-keyboard-response","198","209227","0.0-6.0-0.96","FLSE","4","m","rechts","23","","fixation","","","",""
"812","img/150_90.png","74","image-keyboard-response","199","210057","0.0-6.0-1.96","FLSE","4","m","rechts","23","","","object","f","150","false"
"null","<div style=""font-size:60px;"">+</div>","null","html-keyboard-response","200","210511","0.0-6.0-0.97","FLSE","4","m","rechts","23","","fixation","","","",""
"1010","img/60_150.png","74","image-keyboard-response","201","211534","0.0-6.0-1.97","FLSE","4","m","rechts","23","","","object","j","60","true"
"null","<div style=""font-size:60px;"">+</div>","null","html-keyboard-response","202","211948","0.0-6.0-0.98","FLSE","4","m","rechts","23","","fixation","","","",""
"1158","img/60_30.png","70","image-keyboard-response","203","213118","0.0-6.0-1.98","FLSE","4","m","rechts","23","","","object","f","60","true"
"null","<div style=""font-size:60px;"">+</div>","null","html-keyboard-response","204","213494","0.0-6.0-0.99","FLSE","4","m","rechts","23","","fixation","","","",""
"702","img/0_30.png","74","image-keyboard-response","205","214209","0.0-6.0-1.99","FLSE","4","m","rechts","23","","","object","j","0","true"
"null","<div style=""font-size:60px;"">+</div>","null","html-keyboard-response","206","214666","0.0-6.0-0.100","FLSE","4","m","rechts","23","","fixation","","","",""
"1104","img/30_60.png","70","image-keyboard-response","207","215784","0.0-6.0-1.100","FLSE","4","m","rechts","23","","","object","j","30","false"
"null","<div style=""font-size:60px;"">+</div>","null","html-keyboard-response","208","216245","0.0-6.0-0.101","FLSE","4","m","rechts","23","","fixation","","","",""
"833","img/120_210.png","70","image-keyboard-response","209","217091","0.0-6.0-1.101","FLSE","4","m","rechts","23","","","object","f","120","true"
"null","<div style=""font-size:60px;"">+</div>","null","html-keyboard-response","210","217447","0.0-6.0-0.102","FLSE","4","m","rechts","23","","fixation","","","",""
"853","img/L60_180.png","74","image-keyboard-response","211","218314","0.0-6.0-1.102","FLSE","4","m","rechts","23","","","object","j","60","true"
"null","<div style=""font-size:60px;"">+</div>","null","html-keyboard-response","212","218666","0.0-6.0-0.103","FLSE","4","m","rechts","23","","fixation","","","",""
"661","img/0_150.png","74","image-keyboard-response","213","219339","0.0-6.0-1.103","FLSE","4","m","rechts","23","","","object","j","0","true"
"null","<div style=""font-size:60px;"">+</div>","null","html-keyboard-response","214","219807","0.0-6.0-0.104","FLSE","4","m","rechts","23","","fixation","","","",""
"1132","img/30_270.png","74","image-keyboard-response","215","220949","0.0-6.0-1.104","FLSE","4","m","rechts","23","","","object","f","30","false"
"null","<div style=""font-size:60px;"">+</div>","null","html-keyboard-response","216","221261","0.0-6.0-0.105","FLSE","4","m","rechts","23","","fixation","","","",""
"1044","img/90_330.png","74","image-keyboard-response","217","222317","0.0-6.0-1.105","FLSE","4","m","rechts","23","","","object","j","90","true"
"null","<div style=""font-size:60px;"">+</div>","null","html-keyboard-response","218","222621","0.0-6.0-0.106","FLSE","4","m","rechts","23","","fixation","","","",""
"837","img/60_330.png","74","image-keyboard-response","219","223468","0.0-6.0-1.106","FLSE","4","m","rechts","23","","","object","j","60","true"
"null","<div style=""font-size:60px;"">+</div>","null","html-keyboard-response","220","223980","0.0-6.0-0.107","FLSE","4","m","rechts","23","","fixation","","","",""
"927","img/30_300.png","74","image-keyboard-response","221","224921","0.0-6.0-1.107","FLSE","4","m","rechts","23","","","object","f","30","false"
"null","<div style=""font-size:60px;"">+</div>","null","html-keyboard-response","222","225323","0.0-6.0-0.108","FLSE","4","m","rechts","23","","fixation","","","",""
"932","img/90_300.png","74","image-keyboard-response","223","226258","0.0-6.0-1.108","FLSE","4","m","rechts","23","","","object","j","90","true"
"null","<div style=""font-size:60px;"">+</div>","null","html-keyboard-response","224","226778","0.0-6.0-0.109","FLSE","4","m","rechts","23","","fixation","","","",""
"1235","img/30_90.png","70","image-keyboard-response","225","228025","0.0-6.0-1.109","FLSE","4","m","rechts","23","","","object","j","30","false"
"null","<div style=""font-size:60px;"">+</div>","null","html-keyboard-response","226","228528","0.0-6.0-0.110","FLSE","4","m","rechts","23","","fixation","","","",""
"668","img/0_60.png","74","image-keyboard-response","227","229205","0.0-6.0-1.110","FLSE","4","m","rechts","23","","","object","j","0","true"
"null","<div style=""font-size:60px;"">+</div>","null","html-keyboard-response","228","229557","0.0-6.0-0.111","FLSE","4","m","rechts","23","","fixation","","","",""
"865","img/150_90.png","74","image-keyboard-response","229","230433","0.0-6.0-1.111","FLSE","4","m","rechts","23","","","object","f","150","false"
"null","<div style=""font-size:60px;"">+</div>","null","html-keyboard-response","230","230810","0.0-6.0-0.112","FLSE","4","m","rechts","23","","fixation","","","",""
"992","img/L90_180.png","74","image-keyboard-response","231","231816","0.0-6.0-1.112","FLSE","4","m","rechts","23","","","object","j","90","true"
"null","<div style=""font-size:60px;"">+</div>","null","html-keyboard-response","232","232231","0.0-6.0-0.113","FLSE","4","m","rechts","23","","fixation","","","",""
"875","img/120_150.png","74","image-keyboard-response","233","233110","0.0-6.0-1.113","FLSE","4","m","rechts","23","","","object","j","120","true"
"null","<div style=""font-size:60px;"">+</div>","null","html-keyboard-response","234","233513","0.0-6.0-0.114","FLSE","4","m","rechts","23","","fixation","","","",""
"1127","img/90_210.png","70","image-keyboard-response","235","234650","0.0-6.0-1.114","FLSE","4","m","rechts","23","","","object","f","90","true"
"null","<div style=""font-size:60px;"">+</div>","null","html-keyboard-response","236","235169","0.0-6.0-0.115","FLSE","4","m","rechts","23","","fixation","","","",""
"755","img/30_180.png","70","image-keyboard-response","237","235935","0.0-6.0-1.115","FLSE","4","m","rechts","23","","","object","f","30","true"
"null","<div style=""font-size:60px;"">+</div>","null","html-keyboard-response","238","236309","0.0-6.0-0.116","FLSE","4","m","rechts","23","","fixation","","","",""
"1084","img/120_330.png","74","image-keyboard-response","239","237396","0.0-6.0-1.116","FLSE","4","m","rechts","23","","","object","j","120","true"
"null","<div style=""font-size:60px;"">+</div>","null","html-keyboard-response","240","237762","0.0-6.0-0.117","FLSE","4","m","rechts","23","","fixation","","","",""
"914","img/90_150.png","74","image-keyboard-response","241","238690","0.0-6.0-1.117","FLSE","4","m","rechts","23","","","object","j","90","true"
"null","<div style=""font-size:60px;"">+</div>","null","html-keyboard-response","242","239012","0.0-6.0-0.118","FLSE","4","m","rechts","23","","fixation","","","",""
"950","img/30_240.png","70","image-keyboard-response","243","239972","0.0-6.0-1.118","FLSE","4","m","rechts","23","","","object","f","30","true"
"null","<div style=""font-size:60px;"">+</div>","null","html-keyboard-response","244","240404","0.0-6.0-0.119","FLSE","4","m","rechts","23","","fixation","","","",""
"874","img/60_30.png","70","image-keyboard-response","245","241287","0.0-6.0-1.119","FLSE","4","m","rechts","23","","","object","f","60","true"
"null","<div style=""font-size:60px;"">+</div>","null","html-keyboard-response","246","241718","0.0-6.0-0.120","FLSE","4","m","rechts","23","","fixation","","","",""
"650","img/0_120.png","74","image-keyboard-response","247","242378","0.0-6.0-1.120","FLSE","4","m","rechts","23","","","object","j","0","true"
"null","<div style=""font-size:60px;"">+</div>","null","html-keyboard-response","248","242889","0.0-6.0-0.121","FLSE","4","m","rechts","23","","fixation","","","",""
"788","img/60_270.png","74","image-keyboard-response","249","243686","0.0-6.0-1.121","FLSE","4","m","rechts","23","","","object","f","60","false"
"null","<div style=""font-size:60px;"">+</div>","null","html-keyboard-response","250","244202","0.0-6.0-0.122","FLSE","4","m","rechts","23","","fixation","","","",""
"946","img/90_30.png","70","image-keyboard-response","251","245159","0.0-6.0-1.122","FLSE","4","m","rechts","23","","","object","f","90","true"
"null","<div style=""font-size:60px;"">+</div>","null","html-keyboard-response","252","245530","0.0-6.0-0.123","FLSE","4","m","rechts","23","","fixation","","","",""
"1357","img/60_90.png","70","image-keyboard-response","253","246902","0.0-6.0-1.123","FLSE","4","m","rechts","23","","","object","j","60","false"
"null","<div style=""font-size:60px;"">+</div>","null","html-keyboard-response","254","247326","0.0-6.0-0.124","FLSE","4","m","rechts","23","","fixation","","","",""
"911","img/60_180.png","74","image-keyboard-response","255","248240","0.0-6.0-1.124","FLSE","4","m","rechts","23","","","object","f","60","false"
"null","<div style=""font-size:60px;"">+</div>","null","html-keyboard-response","256","248655","0.0-6.0-0.125","FLSE","4","m","rechts","23","","fixation","","","",""
"1216","img/150_300.png","74","image-keyboard-response","257","249885","0.0-6.0-1.125","FLSE","4","m","rechts","23","","","object","j","150","true"
"null","<div style=""font-size:60px;"">+</div>","null","html-keyboard-response","258","250389","0.0-6.0-0.126","FLSE","4","m","rechts","23","","fixation","","","",""
"869","img/90_60.png","70","image-keyboard-response","259","251265","0.0-6.0-1.126","FLSE","4","m","rechts","23","","","object","f","90","true"
"null","<div style=""font-size:60px;"">+</div>","null","html-keyboard-response","260","251782","0.0-6.0-0.127","FLSE","4","m","rechts","23","","fixation","","","",""
"1172","img/150_270.png","70","image-keyboard-response","261","252967","0.0-6.0-1.127","FLSE","4","m","rechts","23","","","object","j","150","false"
"null","<div style=""font-size:60px;"">+</div>","null","html-keyboard-response","262","253484","0.0-6.0-0.128","FLSE","4","m","rechts","23","","fixation","","","",""
"632","img/0_30.png","74","image-keyboard-response","263","254125","0.0-6.0-1.128","FLSE","4","m","rechts","23","","","object","j","0","true"
"null","<div style=""font-size:60px;"">+</div>","null","html-keyboard-response","264","254640","0.0-6.0-0.129","FLSE","4","m","rechts","23","","fixation","","","",""
"588","img/0_150.png","74","image-keyboard-response","265","255238","0.0-6.0-1.129","FLSE","4","m","rechts","23","","","object","j","0","true"
"null","<div style=""font-size:60px;"">+</div>","null","html-keyboard-response","266","255719","0.0-6.0-0.130","FLSE","4","m","rechts","23","","fixation","","","",""
"826","img/150_180.png","70","image-keyboard-response","267","256555","0.0-6.0-1.130","FLSE","4","m","rechts","23","","","object","f","150","true"
"null","<div style=""font-size:60px;"">+</div>","null","html-keyboard-response","268","256984","0.0-6.0-0.131","FLSE","4","m","rechts","23","","fixation","","","",""
"687","img/0_300.png","70","image-keyboard-response","269","257683","0.0-6.0-1.131","FLSE","4","m","rechts","23","","","object","f","0","true"
"null","<div style=""font-size:60px;"">+</div>","null","html-keyboard-response","270","258046","0.0-6.0-0.132","FLSE","4","m","rechts","23","","fixation","","","",""
"771","img/60_150.png","74","image-keyboard-response","271","258828","0.0-6.0-1.132","FLSE","4","m","rechts","23","","","object","j","60","true"
"null","<div style=""font-size:60px;"">+</div>","null","html-keyboard-response","272","259342","0.0-6.0-0.133","FLSE","4","m","rechts","23","","fixation","","","",""
"695","img/0_240.png","70","image-keyboard-response","273","260043","0.0-6.0-1.133","FLSE","4","m","rechts","23","","","object","f","0","true"
"null","<div style=""font-size:60px;"">+</div>","null","html-keyboard-response","274","260501","0.0-6.0-0.134","FLSE","4","m","rechts","23","","fixation","","","",""
"756","img/L30_180.png","74","image-keyboard-response","275","261267","0.0-6.0-1.134","FLSE","4","m","rechts","23","","","object","j","30","true"
"null","<div style=""font-size:60px;"">+</div>","null","html-keyboard-response","276","261626","0.0-6.0-0.135","FLSE","4","m","rechts","23","","fixation","","","",""
"733","img/60_210.png","70","image-keyboard-response","277","262369","0.0-6.0-1.135","FLSE","4","m","rechts","23","","","object","f","60","true"
"null","<div style=""font-size:60px;"">+</div>","null","html-keyboard-response","278","262845","0.0-6.0-0.136","FLSE","4","m","rechts","23","","fixation","","","",""
"1190","img/30_120.png","70","image-keyboard-response","279","264048","0.0-6.0-1.136","FLSE","4","m","rechts","23","","","object","j","30","false"
"null","<div style=""font-size:60px;"">+</div>","null","html-keyboard-response","280","264501","0.0-6.0-0.137","FLSE","4","m","rechts","23","","fixation","","","",""
"1168","img/120_180.png","70","image-keyboard-response","281","265680","0.0-6.0-1.137","FLSE","4","m","rechts","23","","","object","f","120","true"
"null","<div style=""font-size:60px;"">+</div>","null","html-keyboard-response","282","266048","0.0-6.0-0.138","FLSE","4","m","rechts","23","","fixation","","","",""
"1029","img/120_210.png","70","image-keyboard-response","283","267085","0.0-6.0-1.138","FLSE","4","m","rechts","23","","","object","f","120","true"
"null","<div style=""font-size:60px;"">+</div>","null","html-keyboard-response","284","267540","0.0-6.0-0.139","FLSE","4","m","rechts","23","","fixation","","","",""
"722","img/0_210.png","70","image-keyboard-response","285","268276","0.0-6.0-1.139","FLSE","4","m","rechts","23","","","object","f","0","true"
"null","<div style=""font-size:60px;"">+</div>","null","html-keyboard-response","286","268726","0.0-6.0-0.140","FLSE","4","m","rechts","23","","fixation","","","",""
"1083","img/30_60.png","70","image-keyboard-response","287","269820","0.0-6.0-1.140","FLSE","4","m","rechts","23","","","object","j","30","false"
"null","<div style=""font-size:60px;"">+</div>","null","html-keyboard-response","288","270274","0.0-6.0-0.141","FLSE","4","m","rechts","23","","fixation","","","",""
"859","img/0_90.png","74","image-keyboard-response","289","271148","0.0-6.0-1.141","FLSE","4","m","rechts","23","","","object","j","0","true"
"null","<div style=""font-size:60px;"">+</div>","null","html-keyboard-response","290","271570","0.0-6.0-0.142","FLSE","4","m","rechts","23","","fixation","","","",""
"912","img/120_90.png","74","image-keyboard-response","291","272495","0.0-6.0-1.142","FLSE","4","m","rechts","23","","","object","f","120","false"
"null","<div style=""font-size:60px;"">+</div>","null","html-keyboard-response","292","272914","0.0-6.0-0.143","FLSE","4","m","rechts","23","","fixation","","","",""
"1044","img/90_120.png","74","image-keyboard-response","293","273971","0.0-6.0-1.143","FLSE","4","m","rechts","23","","","object","j","90","true"
"null","<div style=""font-size:60px;"">+</div>","null","html-keyboard-response","294","274335","0.0-6.0-0.144","FLSE","4","m","rechts","23","","fixation","","","",""
"1080","img/150_60.png","74","image-keyboard-response","295","275420","0.0-6.0-1.144","FLSE","4","m","rechts","23","","","object","f","150","false"
"null","<div style=""font-size:60px;"">+</div>","null","html-keyboard-response","296","275932","0.0-6.0-0.145","FLSE","4","m","rechts","23","","fixation","","","",""
"989","img/150_120.png","74","image-keyboard-response","297","276930","0.0-6.0-1.145","FLSE","4","m","rechts","23","","","object","f","150","false"
"null","<div style=""font-size:60px;"">+</div>","null","html-keyboard-response","298","277244","0.0-6.0-0.146","FLSE","4","m","rechts","23","","fixation","","","",""
"997","img/120_270.png","70","image-keyboard-response","299","278257","0.0-6.0-1.146","FLSE","4","m","rechts","23","","","object","j","120","false"
"null","<div style=""font-size:60px;"">+</div>","null","html-keyboard-response","300","278666","0.0-6.0-0.147","FLSE","4","m","rechts","23","","fixation","","","",""
"1063","img/L150_180.png","74","image-keyboard-response","301","279742","0.0-6.0-1.147","FLSE","4","m","rechts","23","","","object","j","150","true"
"null","<div style=""font-size:60px;"">+</div>","null","html-keyboard-response","302","280104","0.0-6.0-0.148","FLSE","4","m","rechts","23","","fixation","","","",""
"1148","img/L60_180.png","74","image-keyboard-response","303","281261","0.0-6.0-1.148","FLSE","4","m","rechts","23","","","object","j","60","true"
"null","<div style=""font-size:60px;"">+</div>","null","html-keyboard-response","304","281744","0.0-6.0-0.149","FLSE","4","m","rechts","23","","fixation","","","",""
"977","img/90_240.png","70","image-keyboard-response","305","282734","0.0-6.0-1.149","FLSE","4","m","rechts","23","","","object","f","90","true"
"null","<div style=""font-size:60px;"">+</div>","null","html-keyboard-response","306","283150","0.0-6.0-0.150","FLSE","4","m","rechts","23","","fixation","","","",""
"1000","img/120_30.png","70","image-keyboard-response","307","284163","0.0-6.0-1.150","FLSE","4","m","rechts","23","","","object","f","120","true"
"null","<div style=""font-size:60px;"">+</div>","null","html-keyboard-response","308","284571","0.0-6.0-0.151","FLSE","4","m","rechts","23","","fixation","","","",""
"917","img/150_240.png","70","image-keyboard-response","309","285503","0.0-6.0-1.151","FLSE","4","m","rechts","23","","","object","j","150","false"
"null","<div style=""font-size:60px;"">+</div>","null","html-keyboard-response","310","286027","0.0-6.0-0.152","FLSE","4","m","rechts","23","","fixation","","","",""
"652","img/0_270.png","70","image-keyboard-response","311","286692","0.0-6.0-1.152","FLSE","4","m","rechts","23","","","object","f","0","true"
"null","<div style=""font-size:60px;"">+</div>","null","html-keyboard-response","312","287152","0.0-6.0-0.153","FLSE","4","m","rechts","23","","fixation","","","",""
"938","img/L120_180.png","74","image-keyboard-response","313","288106","0.0-6.0-1.153","FLSE","4","m","rechts","23","","","object","j","120","true"
"null","<div style=""font-size:60px;"">+</div>","null","html-keyboard-response","314","288432","0.0-6.0-0.154","FLSE","4","m","rechts","23","","fixation","","","",""
"1195","img/90_180.png","70","image-keyboard-response","315","289642","0.0-6.0-1.154","FLSE","4","m","rechts","23","","","object","f","90","true"
"null","<div style=""font-size:60px;"">+</div>","null","html-keyboard-response","316","289948","0.0-6.0-0.155","FLSE","4","m","rechts","23","","fixation","","","",""
"781","img/0_330.png","74","image-keyboard-response","317","290743","0.0-6.0-1.155","FLSE","4","m","rechts","23","","","object","f","0","false"
"null","<div style=""font-size:60px;"">+</div>","null","html-keyboard-response","318","291214","0.0-6.0-0.156","FLSE","4","m","rechts","23","","fixation","","","",""
"1002","img/30_180.png","70","image-keyboard-response","319","292229","0.0-6.0-1.156","FLSE","4","m","rechts","23","","","object","f","30","true"
"null","<div style=""font-size:60px;"">+</div>","null","html-keyboard-response","320","292698","0.0-6.0-0.157","FLSE","4","m","rechts","23","","fixation","","","",""
"936","img/L30_180.png","74","image-keyboard-response","321","293647","0.0-6.0-1.157","FLSE","4","m","rechts","23","","","object","j","30","true"
"null","<div style=""font-size:60px;"">+</div>","null","html-keyboard-response","322","294152","0.0-6.0-0.158","FLSE","4","m","rechts","23","","fixation","","","",""
"993","img/90_240.png","70","image-keyboard-response","323","295154","0.0-6.0-1.158","FLSE","4","m","rechts","23","","","object","f","90","true"
"null","<div style=""font-size:60px;"">+</div>","null","html-keyboard-response","324","295559","0.0-6.0-0.159","FLSE","4","m","rechts","23","","fixation","","","",""
"696","img/0_120.png","74","image-keyboard-response","325","296269","0.0-6.0-1.159","FLSE","4","m","rechts","23","","","object","j","0","true"
"null","<div style=""font-size:60px;"">+</div>","null","html-keyboard-response","326","296622","0.0-6.0-0.160","FLSE","4","m","rechts","23","","fixation","","","",""
"848","img/150_60.png","74","image-keyboard-response","327","297494","0.0-6.0-1.160","FLSE","4","m","rechts","23","","","object","f","150","false"
"null","<div style=""font-size:60px;"">+</div>","null","html-keyboard-response","328","297997","0.0-6.0-0.161","FLSE","4","m","rechts","23","","fixation","","","",""
"1053","img/90_120.png","74","image-keyboard-response","329","299059","0.0-6.0-1.161","FLSE","4","m","rechts","23","","","object","j","90","true"
"null","<div style=""font-size:60px;"">+</div>","null","html-keyboard-response","330","299591","0.0-6.0-0.162","FLSE","4","m","rechts","23","","fixation","","","",""
"1615","img/90_300.png","74","image-keyboard-response","331","301218","0.0-6.0-1.162","FLSE","4","m","rechts","23","","","object","j","90","true"
"null","<div style=""font-size:60px;"">+</div>","null","html-keyboard-response","332","301636","0.0-6.0-0.163","FLSE","4","m","rechts","23","","fixation","","","",""
"1108","img/90_210.png","70","image-keyboard-response","333","302748","0.0-6.0-1.163","FLSE","4","m","rechts","23","","","object","f","90","true"
"null","<div style=""font-size:60px;"">+</div>","null","html-keyboard-response","334","303168","0.0-6.0-0.164","FLSE","4","m","rechts","23","","fixation","","","",""
"973","img/60_30.png","70","image-keyboard-response","335","304154","0.0-6.0-1.164","FLSE","4","m","rechts","23","","","object","f","60","true"
"null","<div style=""font-size:60px;"">+</div>","null","html-keyboard-response","336","304465","0.0-6.0-0.165","FLSE","4","m","rechts","23","","fixation","","","",""
"1094","img/30_60.png","74","image-keyboard-response","337","305572","0.0-6.0-1.165","FLSE","4","m","rechts","23","","","object","j","30","true"
"null","<div style=""font-size:60px;"">+</div>","null","html-keyboard-response","338","305984","0.0-6.0-0.166","FLSE","4","m","rechts","23","","fixation","","","",""
"1601","img/30_270.png","74","image-keyboard-response","339","307598","0.0-6.0-1.166","FLSE","4","m","rechts","23","","","object","f","30","false"
"null","<div style=""font-size:60px;"">+</div>","null","html-keyboard-response","340","308061","0.0-6.0-0.167","FLSE","4","m","rechts","23","","fixation","","","",""
"1122","img/30_240.png","74","image-keyboard-response","341","309197","0.0-6.0-1.167","FLSE","4","m","rechts","23","","","object","f","30","false"
"null","<div style=""font-size:60px;"">+</div>","null","html-keyboard-response","342","309515","0.0-6.0-0.168","FLSE","4","m","rechts","23","","fixation","","","",""
"995","img/30_300.png","74","image-keyboard-response","343","310522","0.0-6.0-1.168","FLSE","4","m","rechts","23","","","object","f","30","false"
"null","<div style=""font-size:60px;"">+</div>","null","html-keyboard-response","344","310985","0.0-6.0-0.169","FLSE","4","m","rechts","23","","fixation","","","",""
"1187","img/60_270.png","74","image-keyboard-response","345","312186","0.0-6.0-1.169","FLSE","4","m","rechts","23","","","object","f","60","false"
"null","<div style=""font-size:60px;"">+</div>","null","html-keyboard-response","346","312704","0.0-6.0-0.170","FLSE","4","m","rechts","23","","fixation","","","",""
"1584","img/60_150.png","74","image-keyboard-response","347","314300","0.0-6.0-1.170","FLSE","4","m","rechts","23","","","object","j","60","true"
"null","<div style=""font-size:60px;"">+</div>","null","html-keyboard-response","348","314813","0.0-6.0-0.171","FLSE","4","m","rechts","23","","fixation","","","",""
"1063","img/L90_180.png","74","image-keyboard-response","349","315889","0.0-6.0-1.171","FLSE","4","m","rechts","23","","","object","j","90","true"
"null","<div style=""font-size:60px;"">+</div>","null","html-keyboard-response","350","316297","0.0-6.0-0.172","FLSE","4","m","rechts","23","","fixation","","","",""
"1004","img/120_210.png","70","image-keyboard-response","351","317306","0.0-6.0-1.172","FLSE","4","m","rechts","23","","","object","f","120","true"
"null","<div style=""font-size:60px;"">+</div>","null","html-keyboard-response","352","317765","0.0-6.0-0.173","FLSE","4","m","rechts","23","","fixation","","","",""
"1090","img/30_90.png","70","image-keyboard-response","353","318870","0.0-6.0-1.173","FLSE","4","m","rechts","23","","","object","j","30","false"
"null","<div style=""font-size:60px;"">+</div>","null","html-keyboard-response","354","319250","0.0-6.0-0.174","FLSE","4","m","rechts","23","","fixation","","","",""
"791","img/0_300.png","70","image-keyboard-response","355","320051","0.0-6.0-1.174","FLSE","4","m","rechts","23","","","object","f","0","true"
"null","<div style=""font-size:60px;"">+</div>","null","html-keyboard-response","356","320406","0.0-6.0-0.175","FLSE","4","m","rechts","23","","fixation","","","",""
"906","img/90_150.png","74","image-keyboard-response","357","321321","0.0-6.0-1.175","FLSE","4","m","rechts","23","","","object","j","90","true"
"null","<div style=""font-size:60px;"">+</div>","null","html-keyboard-response","358","321781","0.0-6.0-0.176","FLSE","4","m","rechts","23","","fixation","","","",""
"1082","img/150_300.png","74","image-keyboard-response","359","322876","0.0-6.0-1.176","FLSE","4","m","rechts","23","","","object","j","150","true"
"null","<div style=""font-size:60px;"">+</div>","null","html-keyboard-response","360","323281","0.0-6.0-0.177","FLSE","4","m","rechts","23","","fixation","","","",""
"925","img/90_60.png","70","image-keyboard-response","361","324225","0.0-6.0-1.177","FLSE","4","m","rechts","23","","","object","f","90","true"
"null","<div style=""font-size:60px;"">+</div>","null","html-keyboard-response","362","324703","0.0-6.0-0.178","FLSE","4","m","rechts","23","","fixation","","","",""
"770","img/0_210.png","70","image-keyboard-response","363","325484","0.0-6.0-1.178","FLSE","4","m","rechts","23","","","object","f","0","true"
"null","<div style=""font-size:60px;"">+</div>","null","html-keyboard-response","364","325798","0.0-6.0-0.179","FLSE","4","m","rechts","23","","fixation","","","",""
"854","img/150_270.png","70","image-keyboard-response","365","326666","0.0-6.0-1.179","FLSE","4","m","rechts","23","","","object","j","150","false"
"null","<div style=""font-size:60px;"">+</div>","null","html-keyboard-response","366","327033","0.0-6.0-0.180","FLSE","4","m","rechts","23","","fixation","","","",""
"1121","img/120_30.png","70","image-keyboard-response","367","328164","0.0-6.0-1.180","FLSE","4","m","rechts","23","","","object","f","120","true"
"null","<div style=""font-size:60px;"">+</div>","null","html-keyboard-response","368","328579","0.0-6.0-0.181","FLSE","4","m","rechts","23","","fixation","","","",""
"749","img/150_180.png","70","image-keyboard-response","369","329341","0.0-6.0-1.181","FLSE","4","m","rechts","23","","","object","f","150","true"
"null","<div style=""font-size:60px;"">+</div>","null","html-keyboard-response","370","329798","0.0-6.0-0.182","FLSE","4","m","rechts","23","","fixation","","","",""
"977","img/120_270.png","70","image-keyboard-response","371","330785","0.0-6.0-1.182","FLSE","4","m","rechts","23","","","object","j","120","false"
"null","<div style=""font-size:60px;"">+</div>","null","html-keyboard-response","372","331251","0.0-6.0-0.183","FLSE","4","m","rechts","23","","fixation","","","",""
"833","img/150_90.png","74","image-keyboard-response","373","332101","0.0-6.0-1.183","FLSE","4","m","rechts","23","","","object","f","150","false"
"null","<div style=""font-size:60px;"">+</div>","null","html-keyboard-response","374","332534","0.0-6.0-0.184","FLSE","4","m","rechts","23","","fixation","","","",""
"712","img/0_240.png","70","image-keyboard-response","375","333259","0.0-6.0-1.184","FLSE","4","m","rechts","23","","","object","f","0","true"
"null","<div style=""font-size:60px;"">+</div>","null","html-keyboard-response","376","333673","0.0-6.0-0.185","FLSE","4","m","rechts","23","","fixation","","","",""
"758","img/150_240.png","70","image-keyboard-response","377","334440","0.0-6.0-1.185","FLSE","4","m","rechts","23","","","object","j","150","false"
"null","<div style=""font-size:60px;"">+</div>","null","html-keyboard-response","378","334767","0.0-6.0-0.186","FLSE","4","m","rechts","23","","fixation","","","",""
"719","img/0_90.png","74","image-keyboard-response","379","335499","0.0-6.0-1.186","FLSE","4","m","rechts","23","","","object","j","0","true"
"null","<div style=""font-size:60px;"">+</div>","null","html-keyboard-response","380","336019","0.0-6.0-0.187","FLSE","4","m","rechts","23","","fixation","","","",""
"916","img/120_330.png","70","image-keyboard-response","381","336948","0.0-6.0-1.187","FLSE","4","m","rechts","23","","","object","j","120","false"
"null","<div style=""font-size:60px;"">+</div>","null","html-keyboard-response","382","337253","0.0-6.0-0.188","FLSE","4","m","rechts","23","","fixation","","","",""
"1119","img/90_330.png","74","image-keyboard-response","383","338388","0.0-6.0-1.188","FLSE","4","m","rechts","23","","","object","j","90","true"
"null","<div style=""font-size:60px;"">+</div>","null","html-keyboard-response","384","338691","0.0-6.0-0.189","FLSE","4","m","rechts","23","","fixation","","","",""
"1201","img/60_90.png","70","image-keyboard-response","385","339904","0.0-6.0-1.189","FLSE","4","m","rechts","23","","","object","j","60","false"
"null","<div style=""font-size:60px;"">+</div>","null","html-keyboard-response","386","340362","0.0-6.0-0.190","FLSE","4","m","rechts","23","","fixation","","","",""
"711","img/0_270.png","70","image-keyboard-response","387","341076","0.0-6.0-1.190","FLSE","4","m","rechts","23","","","object","f","0","true"
"null","<div style=""font-size:60px;"">+</div>","null","html-keyboard-response","388","341409","0.0-6.0-0.191","FLSE","4","m","rechts","23","","fixation","","","",""
"830","img/L150_180.png","74","image-keyboard-response","389","342246","0.0-6.0-1.191","FLSE","4","m","rechts","23","","","object","j","150","true"
"null","<div style=""font-size:60px;"">+</div>","null","html-keyboard-response","390","342550","0.0-6.0-0.192","FLSE","4","m","rechts","23","","fixation","","","",""
"1001","img/120_90.png","74","image-keyboard-response","391","343565","0.0-6.0-1.192","FLSE","4","m","rechts","23","","","object","f","120","false"
"null","<div style=""font-size:60px;"">+</div>","null","html-keyboard-response","392","343936","0.0-6.0-0.193","FLSE","4","m","rechts","23","","fixation","","","",""
"829","img/120_150.png","74","image-keyboard-response","393","344779","0.0-6.0-1.193","FLSE","4","m","rechts","23","","","object","j","120","true"
"null","<div style=""font-size:60px;"">+</div>","null","html-keyboard-response","394","345310","0.0-6.0-0.194","FLSE","4","m","rechts","23","","fixation","","","",""
"982","img/L60_180.png","74","image-keyboard-response","395","346299","0.0-6.0-1.194","FLSE","4","m","rechts","23","","","object","j","60","true"
"null","<div style=""font-size:60px;"">+</div>","null","html-keyboard-response","396","346764","0.0-6.0-0.195","FLSE","4","m","rechts","23","","fixation","","","",""
"1013","img/90_30.png","74","image-keyboard-response","397","347791","0.0-6.0-1.195","FLSE","4","m","rechts","23","","","object","f","90","false"
"null","<div style=""font-size:60px;"">+</div>","null","html-keyboard-response","398","348109","0.0-6.0-0.196","FLSE","4","m","rechts","23","","fixation","","","",""
"1158","img/60_210.png","70","image-keyboard-response","399","349280","0.0-6.0-1.196","FLSE","4","m","rechts","23","","","object","f","60","true"
"null","<div style=""font-size:60px;"">+</div>","null","html-keyboard-response","400","349686","0.0-6.0-0.197","FLSE","4","m","rechts","23","","fixation","","","",""
"656","img/0_30.png","74","image-keyboard-response","401","350357","0.0-6.0-1.197","FLSE","4","m","rechts","23","","","object","j","0","true"
"null","<div style=""font-size:60px;"">+</div>","null","html-keyboard-response","402","350766","0.0-6.0-0.198","FLSE","4","m","rechts","23","","fixation","","","",""
"771","img/90_180.png","70","image-keyboard-response","403","351550","0.0-6.0-1.198","FLSE","4","m","rechts","23","","","object","f","90","true"
"null","<div style=""font-size:60px;"">+</div>","null","html-keyboard-response","404","352016","0.0-6.0-0.199","FLSE","4","m","rechts","23","","fixation","","","",""
"1017","img/L120_180.png","74","image-keyboard-response","405","353046","0.0-6.0-1.199","FLSE","4","m","rechts","23","","","object","j","120","true"
"null","<div style=""font-size:60px;"">+</div>","null","html-keyboard-response","406","353500","0.0-6.0-0.200","FLSE","4","m","rechts","23","","fixation","","","",""
"978","img/60_180.png","70","image-keyboard-response","407","354494","0.0-6.0-1.200","FLSE","4","m","rechts","23","","","object","f","60","true"
"null","<div style=""font-size:60px;"">+</div>","null","html-keyboard-response","408","354859","0.0-6.0-0.201","FLSE","4","m","rechts","23","","fixation","","","",""
"987","img/60_330.png","74","image-keyboard-response","409","355860","0.0-6.0-1.201","FLSE","4","m","rechts","23","","","object","j","60","true"
"null","<div style=""font-size:60px;"">+</div>","null","html-keyboard-response","410","356173","0.0-6.0-0.202","FLSE","4","m","rechts","23","","fixation","","","",""
"1061","img/120_180.png","70","image-keyboard-response","411","357247","0.0-6.0-1.202","FLSE","4","m","rechts","23","","","object","f","120","true"
"null","<div style=""font-size:60px;"">+</div>","null","html-keyboard-response","412","357656","0.0-6.0-0.203","FLSE","4","m","rechts","23","","fixation","","","",""
"708","img/0_150.png","74","image-keyboard-response","413","358378","0.0-6.0-1.203","FLSE","4","m","rechts","23","","","object","j","0","true"
"null","<div style=""font-size:60px;"">+</div>","null","html-keyboard-response","414","358797","0.0-6.0-0.204","FLSE","4","m","rechts","23","","fixation","","","",""
"2275","img/0_60.png","74","image-keyboard-response","415","361085","0.0-6.0-1.204","FLSE","4","m","rechts","23","","","object","j","0","true"
"null","<div style=""font-size:60px;"">+</div>","null","html-keyboard-response","416","361488","0.0-6.0-0.205","FLSE","4","m","rechts","23","","fixation","","","",""
"1141","img/0_330.png","74","image-keyboard-response","417","362644","0.0-6.0-1.205","FLSE","4","m","rechts","23","","","object","f","0","false"
"null","<div style=""font-size:60px;"">+</div>","null","html-keyboard-response","418","363112","0.0-6.0-0.206","FLSE","4","m","rechts","23","","fixation","","","",""
"946","img/30_120.png","70","image-keyboard-response","419","364072","0.0-6.0-1.206","FLSE","4","m","rechts","23","","","object","j","30","false"
"null","<div style=""font-size:60px;"">+</div>","null","html-keyboard-response","420","364597","0.0-6.0-0.207","FLSE","4","m","rechts","23","","fixation","","","",""
"914","img/150_120.png","74","image-keyboard-response","421","365524","0.0-6.0-1.207","FLSE","4","m","rechts","23","","","object","f","150","false"
"13252","<p>Du hast in 68% der Versuche korrekt entschieden.</p><p>Deine durchschnittliche Reaktionszeit war  919ms.</p><p>Dr&uuml;cke eine beliebige Taste, um die Session zu beenden. Vielen Dank!</p>","32","html-keyboard-response","422","378782","0.0-7.0","FLSE","4","m","rechts","23","","","","","",""
