"rt","stimulus","key_press","trial_type","trial_index","time_elapsed","internal_node_id","subject","session","sex","handedness","age","responses","test_part","condition","correct_response","angle","correct"
"1204","<p>Mental Rotation Experiment.</p> <p>Dr&uuml;cke eine beliebige Taste, um anzufangen.</p>","13","html-keyboard-response","0","1240","0.0-0.0","FLSE","1","m","rechts","23","","","","","",""
"10178","","","survey-text","1","11420","0.0-1.0","FLSE","1","m","rechts","23","{""Q0"":""FLSE""}","","","","",""
"2593","","","survey-text","2","14015","0.0-2.0","FLSE","1","m","rechts","23","{""Q0"":""1""}","","","","",""
"12169","","","survey-multi-choice","3","26190","0.0-3.0","FLSE","1","m","rechts","23","{""Q0"":""m"",""Q1"":""rechts""}","","","","",""
"5161","","","survey-text","4","31351","0.0-4.0","FLSE","1","m","rechts","23","{""Q0"":""23""}","","","","",""
"20099","<p>Stell dir vor, dass du vor einem runden Tisch stehst, auf dem sich ein blauer Ball am Tischrand befindet. Entlang des Tischrands ist jeweils ein verschieden langer Pfeil. Nun bleibst du an deinem Platz vor dem Tisch und rotierst den Tisch entlang des Pfeils (gleiche Richtung und Länge). </p> <img src='img/30_180.png'></img> <br><p> Nachdem du diese (vorgestellte) Rotation durchgef&uuml;hrt hast, schau in Richtung der Tischmitte, und entscheide dann, ob der Ball links oder rechts von dir liegt.</p> <p>Dr&uuml;cke die <strong>'f'</strong>-Taste f&uuml;r links, die <strong>'j'</strong>-Taste f&uuml;r rechts.</p><br><p> Das Bild wird jeweils 1 Sekunde lang pr&auml;sentiert. Du hast 3 Sekunden Zeit eine Entscheidung zu treffen.</p>","74","html-keyboard-response","5","51459","0.0-5.0","FLSE","1","m","rechts","23","","","","","",""
"null","<div style=""font-size:60px;"">+</div>","null","html-keyboard-response","6","52784","0.0-6.0-0.0","FLSE","1","m","rechts","23","","fixation","","","",""
"1156","img/90_300.png","70","image-keyboard-response","7","53961","0.0-6.0-1.0","FLSE","1","m","rechts","23","","","object","j","90","false"
"null","<div style=""font-size:60px;"">+</div>","null","html-keyboard-response","8","54269","0.0-6.0-0.1","FLSE","1","m","rechts","23","","fixation","","","",""
"1358","img/120_210.png","74","image-keyboard-response","9","55644","0.0-6.0-1.1","FLSE","1","m","rechts","23","","","object","f","120","false"
"null","<div style=""font-size:60px;"">+</div>","null","html-keyboard-response","10","55957","0.0-6.0-0.2","FLSE","1","m","rechts","23","","fixation","","","",""
"839","img/150_120.png","70","image-keyboard-response","11","56814","0.0-6.0-1.2","FLSE","1","m","rechts","23","","","object","f","150","true"
"null","<div style=""font-size:60px;"">+</div>","null","html-keyboard-response","12","57269","0.0-6.0-0.3","FLSE","1","m","rechts","23","","fixation","","","",""
"900","img/0_120.png","74","image-keyboard-response","13","58186","0.0-6.0-1.3","FLSE","1","m","rechts","23","","","object","j","0","true"
"null","<div style=""font-size:60px;"">+</div>","null","html-keyboard-response","14","58550","0.0-6.0-0.4","FLSE","1","m","rechts","23","","fixation","","","",""
"1247","img/60_330.png","70","image-keyboard-response","15","59816","0.0-6.0-1.4","FLSE","1","m","rechts","23","","","object","j","60","false"
"null","<div style=""font-size:60px;"">+</div>","null","html-keyboard-response","16","60285","0.0-6.0-0.5","FLSE","1","m","rechts","23","","fixation","","","",""
"704","img/L60_180.png","70","image-keyboard-response","17","61009","0.0-6.0-1.5","FLSE","1","m","rechts","23","","","object","j","60","false"
"null","<div style=""font-size:60px;"">+</div>","null","html-keyboard-response","18","61472","0.0-6.0-0.6","FLSE","1","m","rechts","23","","fixation","","","",""
"633","img/0_270.png","70","image-keyboard-response","19","62125","0.0-6.0-1.6","FLSE","1","m","rechts","23","","","object","f","0","true"
"null","<div style=""font-size:60px;"">+</div>","null","html-keyboard-response","20","62503","0.0-6.0-0.7","FLSE","1","m","rechts","23","","fixation","","","",""
"1055","img/60_90.png","74","image-keyboard-response","21","63575","0.0-6.0-1.7","FLSE","1","m","rechts","23","","","object","j","60","true"
"null","<div style=""font-size:60px;"">+</div>","null","html-keyboard-response","22","63956","0.0-6.0-0.8","FLSE","1","m","rechts","23","","fixation","","","",""
"1018","img/0_240.png","70","image-keyboard-response","23","64992","0.0-6.0-1.8","FLSE","1","m","rechts","23","","","object","f","0","true"
"null","<div style=""font-size:60px;"">+</div>","null","html-keyboard-response","24","65364","0.0-6.0-0.9","FLSE","1","m","rechts","23","","fixation","","","",""
"1095","img/90_210.png","74","image-keyboard-response","25","66467","0.0-6.0-1.9","FLSE","1","m","rechts","23","","","object","f","90","false"
"null","<div style=""font-size:60px;"">+</div>","null","html-keyboard-response","26","66974","0.0-6.0-0.10","FLSE","1","m","rechts","23","","fixation","","","",""
"1294","img/90_240.png","74","image-keyboard-response","27","68286","0.0-6.0-1.10","FLSE","1","m","rechts","23","","","object","f","90","false"
"null","<div style=""font-size:60px;"">+</div>","null","html-keyboard-response","28","68801","0.0-6.0-0.11","FLSE","1","m","rechts","23","","fixation","","","",""
"737","img/30_240.png","70","image-keyboard-response","29","69546","0.0-6.0-1.11","FLSE","1","m","rechts","23","","","object","f","30","true"
"null","<div style=""font-size:60px;"">+</div>","null","html-keyboard-response","30","70005","0.0-6.0-0.12","FLSE","1","m","rechts","23","","fixation","","","",""
"584","img/0_210.png","70","image-keyboard-response","31","70606","0.0-6.0-1.12","FLSE","1","m","rechts","23","","","object","f","0","true"
"null","<div style=""font-size:60px;"">+</div>","null","html-keyboard-response","32","70910","0.0-6.0-0.13","FLSE","1","m","rechts","23","","fixation","","","",""
"566","img/0_300.png","70","image-keyboard-response","33","71494","0.0-6.0-1.13","FLSE","1","m","rechts","23","","","object","f","0","true"
"null","<div style=""font-size:60px;"">+</div>","null","html-keyboard-response","34","71848","0.0-6.0-0.14","FLSE","1","m","rechts","23","","fixation","","","",""
"836","img/30_90.png","74","image-keyboard-response","35","72710","0.0-6.0-1.14","FLSE","1","m","rechts","23","","","object","j","30","true"
"null","<div style=""font-size:60px;"">+</div>","null","html-keyboard-response","36","73113","0.0-6.0-0.15","FLSE","1","m","rechts","23","","fixation","","","",""
"1004","img/120_150.png","70","image-keyboard-response","37","74139","0.0-6.0-1.15","FLSE","1","m","rechts","23","","","object","j","120","false"
"null","<div style=""font-size:60px;"">+</div>","null","html-keyboard-response","38","74504","0.0-6.0-0.16","FLSE","1","m","rechts","23","","fixation","","","",""
"1144","img/120_180.png","74","image-keyboard-response","39","75670","0.0-6.0-1.16","FLSE","1","m","rechts","23","","","object","f","120","false"
"null","<div style=""font-size:60px;"">+</div>","null","html-keyboard-response","40","75974","0.0-6.0-0.17","FLSE","1","m","rechts","23","","fixation","","","",""
"1004","img/90_330.png","70","image-keyboard-response","41","76996","0.0-6.0-1.17","FLSE","1","m","rechts","23","","","object","j","90","false"
"null","<div style=""font-size:60px;"">+</div>","null","html-keyboard-response","42","77506","0.0-6.0-0.18","FLSE","1","m","rechts","23","","fixation","","","",""
"861","img/30_180.png","74","image-keyboard-response","43","78378","0.0-6.0-1.18","FLSE","1","m","rechts","23","","","object","f","30","false"
"null","<div style=""font-size:60px;"">+</div>","null","html-keyboard-response","44","78906","0.0-6.0-0.19","FLSE","1","m","rechts","23","","fixation","","","",""
"986","img/150_270.png","74","image-keyboard-response","45","79910","0.0-6.0-1.19","FLSE","1","m","rechts","23","","","object","j","150","true"
"null","<div style=""font-size:60px;"">+</div>","null","html-keyboard-response","46","80225","0.0-6.0-0.20","FLSE","1","m","rechts","23","","fixation","","","",""
"870","img/L150_180.png","70","image-keyboard-response","47","81116","0.0-6.0-1.20","FLSE","1","m","rechts","23","","","object","j","150","false"
"null","<div style=""font-size:60px;"">+</div>","null","html-keyboard-response","48","81476","0.0-6.0-0.21","FLSE","1","m","rechts","23","","fixation","","","",""
"800","img/0_60.png","74","image-keyboard-response","49","82295","0.0-6.0-1.21","FLSE","1","m","rechts","23","","","object","j","0","true"
"null","<div style=""font-size:60px;"">+</div>","null","html-keyboard-response","50","82662","0.0-6.0-0.22","FLSE","1","m","rechts","23","","fixation","","","",""
"797","img/120_90.png","70","image-keyboard-response","51","83477","0.0-6.0-1.22","FLSE","1","m","rechts","23","","","object","f","120","true"
"null","<div style=""font-size:60px;"">+</div>","null","html-keyboard-response","52","83880","0.0-6.0-0.23","FLSE","1","m","rechts","23","","fixation","","","",""
"827","img/L120_180.png","70","image-keyboard-response","53","84725","0.0-6.0-1.23","FLSE","1","m","rechts","23","","","object","j","120","false"
"null","<div style=""font-size:60px;"">+</div>","null","html-keyboard-response","54","85100","0.0-6.0-0.24","FLSE","1","m","rechts","23","","fixation","","","",""
"969","img/120_270.png","74","image-keyboard-response","55","86087","0.0-6.0-1.24","FLSE","1","m","rechts","23","","","object","j","120","true"
"null","<div style=""font-size:60px;"">+</div>","null","html-keyboard-response","56","86395","0.0-6.0-0.25","FLSE","1","m","rechts","23","","fixation","","","",""
"853","img/30_300.png","70","image-keyboard-response","57","87257","0.0-6.0-1.25","FLSE","1","m","rechts","23","","","object","f","30","true"
"null","<div style=""font-size:60px;"">+</div>","null","html-keyboard-response","58","87662","0.0-6.0-0.26","FLSE","1","m","rechts","23","","fixation","","","",""
"654","img/0_150.png","74","image-keyboard-response","59","88334","0.0-6.0-1.26","FLSE","1","m","rechts","23","","","object","j","0","true"
"null","<div style=""font-size:60px;"">+</div>","null","html-keyboard-response","60","88693","0.0-6.0-0.27","FLSE","1","m","rechts","23","","fixation","","","",""
"853","img/90_60.png","74","image-keyboard-response","61","89563","0.0-6.0-1.27","FLSE","1","m","rechts","23","","","object","f","90","false"
"null","<div style=""font-size:60px;"">+</div>","null","html-keyboard-response","62","89930","0.0-6.0-0.28","FLSE","1","m","rechts","23","","fixation","","","",""
"888","img/60_210.png","74","image-keyboard-response","63","90835","0.0-6.0-1.28","FLSE","1","m","rechts","23","","","object","f","60","false"
"null","<div style=""font-size:60px;"">+</div>","null","html-keyboard-response","64","91195","0.0-6.0-0.29","FLSE","1","m","rechts","23","","fixation","","","",""
"1872","img/L90_180.png","70","image-keyboard-response","65","93086","0.0-6.0-1.29","FLSE","1","m","rechts","23","","","object","j","90","false"
"null","<div style=""font-size:60px;"">+</div>","null","html-keyboard-response","66","93540","0.0-6.0-0.30","FLSE","1","m","rechts","23","","fixation","","","",""
"653","img/0_330.png","70","image-keyboard-response","67","94208","0.0-6.0-1.30","FLSE","1","m","rechts","23","","","object","f","0","true"
"null","<div style=""font-size:60px;"">+</div>","null","html-keyboard-response","68","94679","0.0-6.0-0.31","FLSE","1","m","rechts","23","","fixation","","","",""
"772","img/150_300.png","74","image-keyboard-response","69","95469","0.0-6.0-1.31","FLSE","1","m","rechts","23","","","object","j","150","true"
"null","<div style=""font-size:60px;"">+</div>","null","html-keyboard-response","70","95788","0.0-6.0-0.32","FLSE","1","m","rechts","23","","fixation","","","",""
"774","img/90_180.png","74","image-keyboard-response","71","96582","0.0-6.0-1.32","FLSE","1","m","rechts","23","","","object","f","90","false"
"null","<div style=""font-size:60px;"">+</div>","null","html-keyboard-response","72","97086","0.0-6.0-0.33","FLSE","1","m","rechts","23","","fixation","","","",""
"638","img/L30_180.png","70","image-keyboard-response","73","97744","0.0-6.0-1.33","FLSE","1","m","rechts","23","","","object","j","30","false"
"null","<div style=""font-size:60px;"">+</div>","null","html-keyboard-response","74","98101","0.0-6.0-0.34","FLSE","1","m","rechts","23","","fixation","","","",""
"1105","img/150_240.png","74","image-keyboard-response","75","99225","0.0-6.0-1.34","FLSE","1","m","rechts","23","","","object","j","150","true"
"null","<div style=""font-size:60px;"">+</div>","null","html-keyboard-response","76","99585","0.0-6.0-0.35","FLSE","1","m","rechts","23","","fixation","","","",""
"893","img/60_270.png","74","image-keyboard-response","77","100497","0.0-6.0-1.35","FLSE","1","m","rechts","23","","","object","f","60","false"
"null","<div style=""font-size:60px;"">+</div>","null","html-keyboard-response","78","100961","0.0-6.0-0.36","FLSE","1","m","rechts","23","","fixation","","","",""
"801","img/30_60.png","74","image-keyboard-response","79","101780","0.0-6.0-1.36","FLSE","1","m","rechts","23","","","object","j","30","true"
"null","<div style=""font-size:60px;"">+</div>","null","html-keyboard-response","80","102244","0.0-6.0-0.37","FLSE","1","m","rechts","23","","fixation","","","",""
"889","img/120_330.png","70","image-keyboard-response","81","103153","0.0-6.0-1.37","FLSE","1","m","rechts","23","","","object","j","120","false"
"null","<div style=""font-size:60px;"">+</div>","null","html-keyboard-response","82","103603","0.0-6.0-0.38","FLSE","1","m","rechts","23","","fixation","","","",""
"632","img/30_270.png","70","image-keyboard-response","83","104253","0.0-6.0-1.38","FLSE","1","m","rechts","23","","","object","f","30","true"
"null","<div style=""font-size:60px;"">+</div>","null","html-keyboard-response","84","104666","0.0-6.0-0.39","FLSE","1","m","rechts","23","","fixation","","","",""
"750","img/90_120.png","70","image-keyboard-response","85","105435","0.0-6.0-1.39","FLSE","1","m","rechts","23","","","object","j","90","false"
"null","<div style=""font-size:60px;"">+</div>","null","html-keyboard-response","86","105744","0.0-6.0-0.40","FLSE","1","m","rechts","23","","fixation","","","",""
"754","img/60_150.png","70","image-keyboard-response","87","106516","0.0-6.0-1.40","FLSE","1","m","rechts","23","","","object","j","60","false"
"null","<div style=""font-size:60px;"">+</div>","null","html-keyboard-response","88","106993","0.0-6.0-0.41","FLSE","1","m","rechts","23","","fixation","","","",""
"1146","img/60_180.png","74","image-keyboard-response","89","108157","0.0-6.0-1.41","FLSE","1","m","rechts","23","","","object","f","60","false"
"null","<div style=""font-size:60px;"">+</div>","null","html-keyboard-response","90","108618","0.0-6.0-0.42","FLSE","1","m","rechts","23","","fixation","","","",""
"735","img/150_60.png","70","image-keyboard-response","91","109372","0.0-6.0-1.42","FLSE","1","m","rechts","23","","","object","f","150","true"
"null","<div style=""font-size:60px;"">+</div>","null","html-keyboard-response","92","109680","0.0-6.0-0.43","FLSE","1","m","rechts","23","","fixation","","","",""
"710","img/0_90.png","74","image-keyboard-response","93","110407","0.0-6.0-1.43","FLSE","1","m","rechts","23","","","object","j","0","true"
"null","<div style=""font-size:60px;"">+</div>","null","html-keyboard-response","94","110714","0.0-6.0-0.44","FLSE","1","m","rechts","23","","fixation","","","",""
"847","img/30_120.png","74","image-keyboard-response","95","111580","0.0-6.0-1.44","FLSE","1","m","rechts","23","","","object","j","30","true"
"null","<div style=""font-size:60px;"">+</div>","null","html-keyboard-response","96","112088","0.0-6.0-0.45","FLSE","1","m","rechts","23","","fixation","","","",""
"838","img/150_90.png","70","image-keyboard-response","97","112952","0.0-6.0-1.45","FLSE","1","m","rechts","23","","","object","f","150","true"
"null","<div style=""font-size:60px;"">+</div>","null","html-keyboard-response","98","113355","0.0-6.0-0.46","FLSE","1","m","rechts","23","","fixation","","","",""
"1114","img/150_180.png","74","image-keyboard-response","99","114481","0.0-6.0-1.46","FLSE","1","m","rechts","23","","","object","f","150","false"
"null","<div style=""font-size:60px;"">+</div>","null","html-keyboard-response","100","114856","0.0-6.0-0.47","FLSE","1","m","rechts","23","","fixation","","","",""
"977","img/90_30.png","74","image-keyboard-response","101","115856","0.0-6.0-1.47","FLSE","1","m","rechts","23","","","object","f","90","false"
"null","<div style=""font-size:60px;"">+</div>","null","html-keyboard-response","102","116387","0.0-6.0-0.48","FLSE","1","m","rechts","23","","fixation","","","",""
"750","img/60_30.png","74","image-keyboard-response","103","117147","0.0-6.0-1.48","FLSE","1","m","rechts","23","","","object","f","60","false"
"null","<div style=""font-size:60px;"">+</div>","null","html-keyboard-response","104","117512","0.0-6.0-0.49","FLSE","1","m","rechts","23","","fixation","","","",""
"697","img/90_150.png","70","image-keyboard-response","105","118229","0.0-6.0-1.49","FLSE","1","m","rechts","23","","","object","j","90","false"
"null","<div style=""font-size:60px;"">+</div>","null","html-keyboard-response","106","118546","0.0-6.0-0.50","FLSE","1","m","rechts","23","","fixation","","","",""
"891","img/120_30.png","74","image-keyboard-response","107","119455","0.0-6.0-1.50","FLSE","1","m","rechts","23","","","object","f","120","false"
"null","<div style=""font-size:60px;"">+</div>","null","html-keyboard-response","108","119763","0.0-6.0-0.51","FLSE","1","m","rechts","23","","fixation","","","",""
"603","img/0_30.png","74","image-keyboard-response","109","120383","0.0-6.0-1.51","FLSE","1","m","rechts","23","","","object","j","0","true"
"null","<div style=""font-size:60px;"">+</div>","null","html-keyboard-response","110","120699","0.0-6.0-0.52","FLSE","1","m","rechts","23","","fixation","","","",""
"677","img/30_300.png","70","image-keyboard-response","111","121387","0.0-6.0-1.52","FLSE","1","m","rechts","23","","","object","f","30","true"
"null","<div style=""font-size:60px;"">+</div>","null","html-keyboard-response","112","121762","0.0-6.0-0.53","FLSE","1","m","rechts","23","","fixation","","","",""
"839","img/60_90.png","74","image-keyboard-response","113","122616","0.0-6.0-1.53","FLSE","1","m","rechts","23","","","object","j","60","true"
"null","<div style=""font-size:60px;"">+</div>","null","html-keyboard-response","114","123044","0.0-6.0-0.54","FLSE","1","m","rechts","23","","fixation","","","",""
"649","img/0_210.png","70","image-keyboard-response","115","123706","0.0-6.0-1.54","FLSE","1","m","rechts","23","","","object","f","0","true"
"null","<div style=""font-size:60px;"">+</div>","null","html-keyboard-response","116","124122","0.0-6.0-0.55","FLSE","1","m","rechts","23","","fixation","","","",""
"713","img/90_30.png","74","image-keyboard-response","117","124844","0.0-6.0-1.55","FLSE","1","m","rechts","23","","","object","f","90","false"
"null","<div style=""font-size:60px;"">+</div>","null","html-keyboard-response","118","125250","0.0-6.0-0.56","FLSE","1","m","rechts","23","","fixation","","","",""
"979","img/150_300.png","74","image-keyboard-response","119","126238","0.0-6.0-1.56","FLSE","1","m","rechts","23","","","object","j","150","true"
"null","<div style=""font-size:60px;"">+</div>","null","html-keyboard-response","120","126654","0.0-6.0-0.57","FLSE","1","m","rechts","23","","fixation","","","",""
"809","img/90_330.png","70","image-keyboard-response","121","127477","0.0-6.0-1.57","FLSE","1","m","rechts","23","","","object","j","90","false"
"null","<div style=""font-size:60px;"">+</div>","null","html-keyboard-response","122","127953","0.0-6.0-0.58","FLSE","1","m","rechts","23","","fixation","","","",""
"684","img/60_150.png","70","image-keyboard-response","123","128645","0.0-6.0-1.58","FLSE","1","m","rechts","23","","","object","j","60","false"
"null","<div style=""font-size:60px;"">+</div>","null","html-keyboard-response","124","129047","0.0-6.0-0.59","FLSE","1","m","rechts","23","","fixation","","","",""
"574","img/L120_180.png","70","image-keyboard-response","125","129636","0.0-6.0-1.59","FLSE","1","m","rechts","23","","","object","j","120","false"
"null","<div style=""font-size:60px;"">+</div>","null","html-keyboard-response","126","129952","0.0-6.0-0.60","FLSE","1","m","rechts","23","","fixation","","","",""
"709","img/90_180.png","74","image-keyboard-response","127","130671","0.0-6.0-1.60","FLSE","1","m","rechts","23","","","object","f","90","false"
"null","<div style=""font-size:60px;"">+</div>","null","html-keyboard-response","128","131030","0.0-6.0-0.61","FLSE","1","m","rechts","23","","fixation","","","",""
"790","img/30_120.png","74","image-keyboard-response","129","131829","0.0-6.0-1.61","FLSE","1","m","rechts","23","","","object","j","30","true"
"null","<div style=""font-size:60px;"">+</div>","null","html-keyboard-response","130","132186","0.0-6.0-0.62","FLSE","1","m","rechts","23","","fixation","","","",""
"702","img/L90_180.png","70","image-keyboard-response","131","132898","0.0-6.0-1.62","FLSE","1","m","rechts","23","","","object","j","90","false"
"null","<div style=""font-size:60px;"">+</div>","null","html-keyboard-response","132","133217","0.0-6.0-0.63","FLSE","1","m","rechts","23","","fixation","","","",""
"805","img/0_60.png","74","image-keyboard-response","133","134035","0.0-6.0-1.63","FLSE","1","m","rechts","23","","","object","j","0","true"
"null","<div style=""font-size:60px;"">+</div>","null","html-keyboard-response","134","134342","0.0-6.0-0.64","FLSE","1","m","rechts","23","","fixation","","","",""
"1032","img/30_240.png","74","image-keyboard-response","135","135382","0.0-6.0-1.64","FLSE","1","m","rechts","23","","","object","f","30","false"
"null","<div style=""font-size:60px;"">+</div>","null","html-keyboard-response","136","135845","0.0-6.0-0.65","FLSE","1","m","rechts","23","","fixation","","","",""
"720","img/L60_180.png","70","image-keyboard-response","137","136577","0.0-6.0-1.65","FLSE","1","m","rechts","23","","","object","j","60","false"
"null","<div style=""font-size:60px;"">+</div>","null","html-keyboard-response","138","136939","0.0-6.0-0.66","FLSE","1","m","rechts","23","","fixation","","","",""
"797","img/150_180.png","74","image-keyboard-response","139","137748","0.0-6.0-1.66","FLSE","1","m","rechts","23","","","object","f","150","false"
"null","<div style=""font-size:60px;"">+</div>","null","html-keyboard-response","140","138173","0.0-6.0-0.67","FLSE","1","m","rechts","23","","fixation","","","",""
"823","img/0_330.png","70","image-keyboard-response","141","139005","0.0-6.0-1.67","FLSE","1","m","rechts","23","","","object","f","0","true"
"null","<div style=""font-size:60px;"">+</div>","null","html-keyboard-response","142","139469","0.0-6.0-0.68","FLSE","1","m","rechts","23","","fixation","","","",""
"677","img/30_60.png","74","image-keyboard-response","143","140155","0.0-6.0-1.68","FLSE","1","m","rechts","23","","","object","j","30","true"
"null","<div style=""font-size:60px;"">+</div>","null","html-keyboard-response","144","140610","0.0-6.0-0.69","FLSE","1","m","rechts","23","","fixation","","","",""
"836","img/90_300.png","70","image-keyboard-response","145","141459","0.0-6.0-1.69","FLSE","1","m","rechts","23","","","object","j","90","false"
"null","<div style=""font-size:60px;"">+</div>","null","html-keyboard-response","146","141969","0.0-6.0-0.70","FLSE","1","m","rechts","23","","fixation","","","",""
"715","img/120_270.png","74","image-keyboard-response","147","142697","0.0-6.0-1.70","FLSE","1","m","rechts","23","","","object","j","120","true"
"null","<div style=""font-size:60px;"">+</div>","null","html-keyboard-response","148","143000","0.0-6.0-0.71","FLSE","1","m","rechts","23","","fixation","","","",""
"1304","img/30_180.png","74","image-keyboard-response","149","144317","0.0-6.0-1.71","FLSE","1","m","rechts","23","","","object","f","30","false"
"null","<div style=""font-size:60px;"">+</div>","null","html-keyboard-response","150","144624","0.0-6.0-0.72","FLSE","1","m","rechts","23","","fixation","","","",""
"874","img/60_30.png","74","image-keyboard-response","151","145508","0.0-6.0-1.72","FLSE","1","m","rechts","23","","","object","f","60","false"
"null","<div style=""font-size:60px;"">+</div>","null","html-keyboard-response","152","146018","0.0-6.0-0.73","FLSE","1","m","rechts","23","","fixation","","","",""
"693","img/90_60.png","74","image-keyboard-response","153","146725","0.0-6.0-1.73","FLSE","1","m","rechts","23","","","object","f","90","false"
"null","<div style=""font-size:60px;"">+</div>","null","html-keyboard-response","154","147157","0.0-6.0-0.74","FLSE","1","m","rechts","23","","fixation","","","",""
"703","img/120_330.png","70","image-keyboard-response","155","147871","0.0-6.0-1.74","FLSE","1","m","rechts","23","","","object","j","120","false"
"null","<div style=""font-size:60px;"">+</div>","null","html-keyboard-response","156","148190","0.0-6.0-0.75","FLSE","1","m","rechts","23","","fixation","","","",""
"741","img/150_90.png","70","image-keyboard-response","157","148940","0.0-6.0-1.75","FLSE","1","m","rechts","23","","","object","f","150","true"
"null","<div style=""font-size:60px;"">+</div>","null","html-keyboard-response","158","149471","0.0-6.0-0.76","FLSE","1","m","rechts","23","","fixation","","","",""
"718","img/0_150.png","74","image-keyboard-response","159","150200","0.0-6.0-1.76","FLSE","1","m","rechts","23","","","object","j","0","true"
"null","<div style=""font-size:60px;"">+</div>","null","html-keyboard-response","160","150517","0.0-6.0-0.77","FLSE","1","m","rechts","23","","fixation","","","",""
"561","img/0_270.png","70","image-keyboard-response","161","151090","0.0-6.0-1.77","FLSE","1","m","rechts","23","","","object","f","0","true"
"null","<div style=""font-size:60px;"">+</div>","null","html-keyboard-response","162","151390","0.0-6.0-0.78","FLSE","1","m","rechts","23","","fixation","","","",""
"808","img/150_60.png","74","image-keyboard-response","163","152204","0.0-6.0-1.78","FLSE","1","m","rechts","23","","","object","f","150","false"
"null","<div style=""font-size:60px;"">+</div>","null","html-keyboard-response","164","152564","0.0-6.0-0.79","FLSE","1","m","rechts","23","","fixation","","","",""
"650","img/0_240.png","70","image-keyboard-response","165","153227","0.0-6.0-1.79","FLSE","1","m","rechts","23","","","object","f","0","true"
"null","<div style=""font-size:60px;"">+</div>","null","html-keyboard-response","166","153595","0.0-6.0-0.80","FLSE","1","m","rechts","23","","fixation","","","",""
"520","img/0_90.png","74","image-keyboard-response","167","154126","0.0-6.0-1.80","FLSE","1","m","rechts","23","","","object","j","0","true"
"null","<div style=""font-size:60px;"">+</div>","null","html-keyboard-response","168","154455","0.0-6.0-0.81","FLSE","1","m","rechts","23","","fixation","","","",""
"532","img/0_300.png","70","image-keyboard-response","169","154993","0.0-6.0-1.81","FLSE","1","m","rechts","23","","","object","f","0","true"
"null","<div style=""font-size:60px;"">+</div>","null","html-keyboard-response","170","155503","0.0-6.0-0.82","FLSE","1","m","rechts","23","","fixation","","","",""
"546","img/120_210.png","74","image-keyboard-response","171","156061","0.0-6.0-1.82","FLSE","1","m","rechts","23","","","object","f","120","false"
"null","<div style=""font-size:60px;"">+</div>","null","html-keyboard-response","172","156424","0.0-6.0-0.83","FLSE","1","m","rechts","23","","fixation","","","",""
"714","img/150_240.png","74","image-keyboard-response","173","157143","0.0-6.0-1.83","FLSE","1","m","rechts","23","","","object","j","150","true"
"null","<div style=""font-size:60px;"">+</div>","null","html-keyboard-response","174","157550","0.0-6.0-0.84","FLSE","1","m","rechts","23","","fixation","","","",""
"672","img/30_90.png","74","image-keyboard-response","175","158234","0.0-6.0-1.84","FLSE","1","m","rechts","23","","","object","j","30","true"
"null","<div style=""font-size:60px;"">+</div>","null","html-keyboard-response","176","158595","0.0-6.0-0.85","FLSE","1","m","rechts","23","","fixation","","","",""
"814","img/90_240.png","74","image-keyboard-response","177","159425","0.0-6.0-1.85","FLSE","1","m","rechts","23","","","object","f","90","false"
"null","<div style=""font-size:60px;"">+</div>","null","html-keyboard-response","178","159831","0.0-6.0-0.86","FLSE","1","m","rechts","23","","fixation","","","",""
"661","img/90_210.png","74","image-keyboard-response","179","160506","0.0-6.0-1.86","FLSE","1","m","rechts","23","","","object","f","90","false"
"null","<div style=""font-size:60px;"">+</div>","null","html-keyboard-response","180","160863","0.0-6.0-0.87","FLSE","1","m","rechts","23","","fixation","","","",""
"1013","img/30_270.png","70","image-keyboard-response","181","161889","0.0-6.0-1.87","FLSE","1","m","rechts","23","","","object","f","30","true"
"null","<div style=""font-size:60px;"">+</div>","null","html-keyboard-response","182","162208","0.0-6.0-0.88","FLSE","1","m","rechts","23","","fixation","","","",""
"700","img/60_330.png","70","image-keyboard-response","183","162922","0.0-6.0-1.88","FLSE","1","m","rechts","23","","","object","j","60","false"
"null","<div style=""font-size:60px;"">+</div>","null","html-keyboard-response","184","163331","0.0-6.0-0.89","FLSE","1","m","rechts","23","","fixation","","","",""
"543","img/60_180.png","74","image-keyboard-response","185","163882","0.0-6.0-1.89","FLSE","1","m","rechts","23","","","object","f","60","false"
"null","<div style=""font-size:60px;"">+</div>","null","html-keyboard-response","186","164207","0.0-6.0-0.90","FLSE","1","m","rechts","23","","fixation","","","",""
"606","img/L150_180.png","70","image-keyboard-response","187","164827","0.0-6.0-1.90","FLSE","1","m","rechts","23","","","object","j","150","false"
"null","<div style=""font-size:60px;"">+</div>","null","html-keyboard-response","188","165191","0.0-6.0-0.91","FLSE","1","m","rechts","23","","fixation","","","",""
"826","img/120_90.png","70","image-keyboard-response","189","166031","0.0-6.0-1.91","FLSE","1","m","rechts","23","","","object","f","120","true"
"null","<div style=""font-size:60px;"">+</div>","null","html-keyboard-response","190","166439","0.0-6.0-0.92","FLSE","1","m","rechts","23","","fixation","","","",""
"632","img/0_30.png","74","image-keyboard-response","191","167075","0.0-6.0-1.92","FLSE","1","m","rechts","23","","","object","j","0","true"
"null","<div style=""font-size:60px;"">+</div>","null","html-keyboard-response","192","167581","0.0-6.0-0.93","FLSE","1","m","rechts","23","","fixation","","","",""
"473","img/60_210.png","74","image-keyboard-response","193","168067","0.0-6.0-1.93","FLSE","1","m","rechts","23","","","object","f","60","false"
"null","<div style=""font-size:60px;"">+</div>","null","html-keyboard-response","194","168519","0.0-6.0-0.94","FLSE","1","m","rechts","23","","fixation","","","",""
"651","img/90_150.png","70","image-keyboard-response","195","169181","0.0-6.0-1.94","FLSE","1","m","rechts","23","","","object","j","90","false"
"null","<div style=""font-size:60px;"">+</div>","null","html-keyboard-response","196","169489","0.0-6.0-0.95","FLSE","1","m","rechts","23","","fixation","","","",""
"590","img/150_270.png","74","image-keyboard-response","197","170091","0.0-6.0-1.95","FLSE","1","m","rechts","23","","","object","j","150","true"
"null","<div style=""font-size:60px;"">+</div>","null","html-keyboard-response","198","170598","0.0-6.0-0.96","FLSE","1","m","rechts","23","","fixation","","","",""
"683","img/60_270.png","70","image-keyboard-response","199","171295","0.0-6.0-1.96","FLSE","1","m","rechts","23","","","object","f","60","true"
"null","<div style=""font-size:60px;"">+</div>","null","html-keyboard-response","200","171723","0.0-6.0-0.97","FLSE","1","m","rechts","23","","fixation","","","",""
"640","img/120_30.png","74","image-keyboard-response","201","172373","0.0-6.0-1.97","FLSE","1","m","rechts","23","","","object","f","120","false"
"null","<div style=""font-size:60px;"">+</div>","null","html-keyboard-response","202","172801","0.0-6.0-0.98","FLSE","1","m","rechts","23","","fixation","","","",""
"741","img/120_150.png","70","image-keyboard-response","203","173556","0.0-6.0-1.98","FLSE","1","m","rechts","23","","","object","j","120","false"
"null","<div style=""font-size:60px;"">+</div>","null","html-keyboard-response","204","173865","0.0-6.0-0.99","FLSE","1","m","rechts","23","","fixation","","","",""
"634","img/120_180.png","74","image-keyboard-response","205","174514","0.0-6.0-1.99","FLSE","1","m","rechts","23","","","object","f","120","false"
"null","<div style=""font-size:60px;"">+</div>","null","html-keyboard-response","206","174818","0.0-6.0-0.100","FLSE","1","m","rechts","23","","fixation","","","",""
"616","img/L30_180.png","70","image-keyboard-response","207","175445","0.0-6.0-1.100","FLSE","1","m","rechts","23","","","object","j","30","false"
"null","<div style=""font-size:60px;"">+</div>","null","html-keyboard-response","208","175771","0.0-6.0-0.101","FLSE","1","m","rechts","23","","fixation","","","",""
"697","img/90_120.png","70","image-keyboard-response","209","176481","0.0-6.0-1.101","FLSE","1","m","rechts","23","","","object","j","90","false"
"null","<div style=""font-size:60px;"">+</div>","null","html-keyboard-response","210","176913","0.0-6.0-0.102","FLSE","1","m","rechts","23","","fixation","","","",""
"669","img/0_120.png","70","image-keyboard-response","211","177593","0.0-6.0-1.102","FLSE","1","m","rechts","23","","","object","j","0","false"
"null","<div style=""font-size:60px;"">+</div>","null","html-keyboard-response","212","177974","0.0-6.0-0.103","FLSE","1","m","rechts","23","","fixation","","","",""
"597","img/150_120.png","70","image-keyboard-response","213","178585","0.0-6.0-1.103","FLSE","1","m","rechts","23","","","object","f","150","true"
"null","<div style=""font-size:60px;"">+</div>","null","html-keyboard-response","214","178911","0.0-6.0-0.104","FLSE","1","m","rechts","23","","fixation","","","",""
"948","img/120_270.png","74","image-keyboard-response","215","179869","0.0-6.0-1.104","FLSE","1","m","rechts","23","","","object","j","120","true"
"null","<div style=""font-size:60px;"">+</div>","null","html-keyboard-response","216","180225","0.0-6.0-0.105","FLSE","1","m","rechts","23","","fixation","","","",""
"758","img/120_330.png","74","image-keyboard-response","217","180992","0.0-6.0-1.105","FLSE","1","m","rechts","23","","","object","j","120","true"
"null","<div style=""font-size:60px;"">+</div>","null","html-keyboard-response","218","181459","0.0-6.0-0.106","FLSE","1","m","rechts","23","","fixation","","","",""
"852","img/90_120.png","70","image-keyboard-response","219","182321","0.0-6.0-1.106","FLSE","1","m","rechts","23","","","object","j","90","false"
"null","<div style=""font-size:60px;"">+</div>","null","html-keyboard-response","220","182849","0.0-6.0-0.107","FLSE","1","m","rechts","23","","fixation","","","",""
"539","img/90_300.png","70","image-keyboard-response","221","183398","0.0-6.0-1.107","FLSE","1","m","rechts","23","","","object","j","90","false"
"null","<div style=""font-size:60px;"">+</div>","null","html-keyboard-response","222","183911","0.0-6.0-0.108","FLSE","1","m","rechts","23","","fixation","","","",""
"511","img/60_180.png","74","image-keyboard-response","223","184432","0.0-6.0-1.108","FLSE","1","m","rechts","23","","","object","f","60","false"
"null","<div style=""font-size:60px;"">+</div>","null","html-keyboard-response","224","184833","0.0-6.0-0.109","FLSE","1","m","rechts","23","","fixation","","","",""
"692","img/60_90.png","74","image-keyboard-response","225","185537","0.0-6.0-1.109","FLSE","1","m","rechts","23","","","object","j","60","true"
"null","<div style=""font-size:60px;"">+</div>","null","html-keyboard-response","226","185897","0.0-6.0-0.110","FLSE","1","m","rechts","23","","fixation","","","",""
"778","img/150_120.png","70","image-keyboard-response","227","186684","0.0-6.0-1.110","FLSE","1","m","rechts","23","","","object","f","150","true"
"null","<div style=""font-size:60px;"">+</div>","null","html-keyboard-response","228","186992","0.0-6.0-0.111","FLSE","1","m","rechts","23","","fixation","","","",""
"527","img/L150_180.png","70","image-keyboard-response","229","187527","0.0-6.0-1.111","FLSE","1","m","rechts","23","","","object","j","150","false"
"null","<div style=""font-size:60px;"">+</div>","null","html-keyboard-response","230","187882","0.0-6.0-0.112","FLSE","1","m","rechts","23","","fixation","","","",""
"571","img/0_30.png","74","image-keyboard-response","231","188463","0.0-6.0-1.112","FLSE","1","m","rechts","23","","","object","j","0","true"
"null","<div style=""font-size:60px;"">+</div>","null","html-keyboard-response","232","188882","0.0-6.0-0.113","FLSE","1","m","rechts","23","","fixation","","","",""
"583","img/0_120.png","74","image-keyboard-response","233","189474","0.0-6.0-1.113","FLSE","1","m","rechts","23","","","object","j","0","true"
"null","<div style=""font-size:60px;"">+</div>","null","html-keyboard-response","234","189986","0.0-6.0-0.114","FLSE","1","m","rechts","23","","fixation","","","",""
"464","img/0_60.png","74","image-keyboard-response","235","190461","0.0-6.0-1.114","FLSE","1","m","rechts","23","","","object","j","0","true"
"null","<div style=""font-size:60px;"">+</div>","null","html-keyboard-response","236","190875","0.0-6.0-0.115","FLSE","1","m","rechts","23","","fixation","","","",""
"727","img/30_240.png","70","image-keyboard-response","237","191612","0.0-6.0-1.115","FLSE","1","m","rechts","23","","","object","f","30","true"
"null","<div style=""font-size:60px;"">+</div>","null","html-keyboard-response","238","192031","0.0-6.0-0.116","FLSE","1","m","rechts","23","","fixation","","","",""
"548","img/0_210.png","70","image-keyboard-response","239","192592","0.0-6.0-1.116","FLSE","1","m","rechts","23","","","object","f","0","true"
"null","<div style=""font-size:60px;"">+</div>","null","html-keyboard-response","240","192906","0.0-6.0-0.117","FLSE","1","m","rechts","23","","fixation","","","",""
"708","img/150_270.png","74","image-keyboard-response","241","193625","0.0-6.0-1.117","FLSE","1","m","rechts","23","","","object","j","150","true"
"null","<div style=""font-size:60px;"">+</div>","null","html-keyboard-response","242","194142","0.0-6.0-0.118","FLSE","1","m","rechts","23","","fixation","","","",""
"736","img/30_180.png","74","image-keyboard-response","243","194888","0.0-6.0-1.118","FLSE","1","m","rechts","23","","","object","f","30","false"
"null","<div style=""font-size:60px;"">+</div>","null","html-keyboard-response","244","195298","0.0-6.0-0.119","FLSE","1","m","rechts","23","","fixation","","","",""
"958","img/150_90.png","70","image-keyboard-response","245","196270","0.0-6.0-1.119","FLSE","1","m","rechts","23","","","object","f","150","true"
"null","<div style=""font-size:60px;"">+</div>","null","html-keyboard-response","246","196736","0.0-6.0-0.120","FLSE","1","m","rechts","23","","fixation","","","",""
"944","img/120_150.png","70","image-keyboard-response","247","197689","0.0-6.0-1.120","FLSE","1","m","rechts","23","","","object","j","120","false"
"null","<div style=""font-size:60px;"">+</div>","null","html-keyboard-response","248","198093","0.0-6.0-0.121","FLSE","1","m","rechts","23","","fixation","","","",""
"765","img/60_270.png","70","image-keyboard-response","249","198869","0.0-6.0-1.121","FLSE","1","m","rechts","23","","","object","f","60","true"
"null","<div style=""font-size:60px;"">+</div>","null","html-keyboard-response","250","199329","0.0-6.0-0.122","FLSE","1","m","rechts","23","","fixation","","","",""
"557","img/0_240.png","70","image-keyboard-response","251","199895","0.0-6.0-1.122","FLSE","1","m","rechts","23","","","object","f","0","true"
"null","<div style=""font-size:60px;"">+</div>","null","html-keyboard-response","252","200299","0.0-6.0-0.123","FLSE","1","m","rechts","23","","fixation","","","",""
"542","img/150_180.png","74","image-keyboard-response","253","200856","0.0-6.0-1.123","FLSE","1","m","rechts","23","","","object","f","150","false"
"null","<div style=""font-size:60px;"">+</div>","null","html-keyboard-response","254","201174","0.0-6.0-0.124","FLSE","1","m","rechts","23","","fixation","","","",""
"624","img/30_60.png","74","image-keyboard-response","255","201816","0.0-6.0-1.124","FLSE","1","m","rechts","23","","","object","j","30","true"
"null","<div style=""font-size:60px;"">+</div>","null","html-keyboard-response","256","202126","0.0-6.0-0.125","FLSE","1","m","rechts","23","","fixation","","","",""
"582","img/30_270.png","70","image-keyboard-response","257","202718","0.0-6.0-1.125","FLSE","1","m","rechts","23","","","object","f","30","true"
"null","<div style=""font-size:60px;"">+</div>","null","html-keyboard-response","258","203174","0.0-6.0-0.126","FLSE","1","m","rechts","23","","fixation","","","",""
"535","img/150_240.png","74","image-keyboard-response","259","203718","0.0-6.0-1.126","FLSE","1","m","rechts","23","","","object","j","150","true"
"null","<div style=""font-size:60px;"">+</div>","null","html-keyboard-response","260","204080","0.0-6.0-0.127","FLSE","1","m","rechts","23","","fixation","","","",""
"641","img/90_210.png","74","image-keyboard-response","261","204731","0.0-6.0-1.127","FLSE","1","m","rechts","23","","","object","f","90","false"
"null","<div style=""font-size:60px;"">+</div>","null","html-keyboard-response","262","205096","0.0-6.0-0.128","FLSE","1","m","rechts","23","","fixation","","","",""
"849","img/150_300.png","74","image-keyboard-response","263","205957","0.0-6.0-1.128","FLSE","1","m","rechts","23","","","object","j","150","true"
"null","<div style=""font-size:60px;"">+</div>","null","html-keyboard-response","264","206407","0.0-6.0-0.129","FLSE","1","m","rechts","23","","fixation","","","",""
"659","img/60_210.png","74","image-keyboard-response","265","207070","0.0-6.0-1.129","FLSE","1","m","rechts","23","","","object","f","60","false"
"null","<div style=""font-size:60px;"">+</div>","null","html-keyboard-response","266","207438","0.0-6.0-0.130","FLSE","1","m","rechts","23","","fixation","","","",""
"1156","img/150_60.png","74","image-keyboard-response","267","208602","0.0-6.0-1.130","FLSE","1","m","rechts","23","","","object","f","150","false"
"null","<div style=""font-size:60px;"">+</div>","null","html-keyboard-response","268","208970","0.0-6.0-0.131","FLSE","1","m","rechts","23","","fixation","","","",""
"967","img/L120_180.png","70","image-keyboard-response","269","209950","0.0-6.0-1.131","FLSE","1","m","rechts","23","","","object","j","120","false"
"null","<div style=""font-size:60px;"">+</div>","null","html-keyboard-response","270","210378","0.0-6.0-0.132","FLSE","1","m","rechts","23","","fixation","","","",""
"693","img/0_150.png","74","image-keyboard-response","271","211074","0.0-6.0-1.132","FLSE","1","m","rechts","23","","","object","j","0","true"
"null","<div style=""font-size:60px;"">+</div>","null","html-keyboard-response","272","211441","0.0-6.0-0.133","FLSE","1","m","rechts","23","","fixation","","","",""
"495","img/60_150.png","70","image-keyboard-response","273","211941","0.0-6.0-1.133","FLSE","1","m","rechts","23","","","object","j","60","false"
"null","<div style=""font-size:60px;"">+</div>","null","html-keyboard-response","274","212394","0.0-6.0-0.134","FLSE","1","m","rechts","23","","fixation","","","",""
"499","img/0_90.png","74","image-keyboard-response","275","212897","0.0-6.0-1.134","FLSE","1","m","rechts","23","","","object","j","0","true"
"null","<div style=""font-size:60px;"">+</div>","null","html-keyboard-response","276","213253","0.0-6.0-0.135","FLSE","1","m","rechts","23","","fixation","","","",""
"523","img/90_240.png","74","image-keyboard-response","277","213787","0.0-6.0-1.135","FLSE","1","m","rechts","23","","","object","f","90","false"
"null","<div style=""font-size:60px;"">+</div>","null","html-keyboard-response","278","214096","0.0-6.0-0.136","FLSE","1","m","rechts","23","","fixation","","","",""
"704","img/30_90.png","74","image-keyboard-response","279","214810","0.0-6.0-1.136","FLSE","1","m","rechts","23","","","object","j","30","true"
"null","<div style=""font-size:60px;"">+</div>","null","html-keyboard-response","280","215174","0.0-6.0-0.137","FLSE","1","m","rechts","23","","fixation","","","",""
"679","img/L60_180.png","70","image-keyboard-response","281","215869","0.0-6.0-1.137","FLSE","1","m","rechts","23","","","object","j","60","false"
"null","<div style=""font-size:60px;"">+</div>","null","html-keyboard-response","282","216377","0.0-6.0-0.138","FLSE","1","m","rechts","23","","fixation","","","",""
"476","img/30_120.png","70","image-keyboard-response","283","216858","0.0-6.0-1.138","FLSE","1","m","rechts","23","","","object","j","30","false"
"null","<div style=""font-size:60px;"">+</div>","null","html-keyboard-response","284","217361","0.0-6.0-0.139","FLSE","1","m","rechts","23","","fixation","","","",""
"542","img/0_270.png","70","image-keyboard-response","285","217915","0.0-6.0-1.139","FLSE","1","m","rechts","23","","","object","f","0","true"
"null","<div style=""font-size:60px;"">+</div>","null","html-keyboard-response","286","218331","0.0-6.0-0.140","FLSE","1","m","rechts","23","","fixation","","","",""
"493","img/90_60.png","70","image-keyboard-response","287","218839","0.0-6.0-1.140","FLSE","1","m","rechts","23","","","object","f","90","true"
"null","<div style=""font-size:60px;"">+</div>","null","html-keyboard-response","288","219315","0.0-6.0-0.141","FLSE","1","m","rechts","23","","fixation","","","",""
"499","img/0_300.png","70","image-keyboard-response","289","219828","0.0-6.0-1.141","FLSE","1","m","rechts","23","","","object","f","0","true"
"null","<div style=""font-size:60px;"">+</div>","null","html-keyboard-response","290","220348","0.0-6.0-0.142","FLSE","1","m","rechts","23","","fixation","","","",""
"563","img/90_180.png","74","image-keyboard-response","291","220919","0.0-6.0-1.142","FLSE","1","m","rechts","23","","","object","f","90","false"
"null","<div style=""font-size:60px;"">+</div>","null","html-keyboard-response","292","221394","0.0-6.0-0.143","FLSE","1","m","rechts","23","","fixation","","","",""
"611","img/120_90.png","70","image-keyboard-response","293","222012","0.0-6.0-1.143","FLSE","1","m","rechts","23","","","object","f","120","true"
"null","<div style=""font-size:60px;"">+</div>","null","html-keyboard-response","294","222426","0.0-6.0-0.144","FLSE","1","m","rechts","23","","fixation","","","",""
"783","img/90_30.png","74","image-keyboard-response","295","223216","0.0-6.0-1.144","FLSE","1","m","rechts","23","","","object","f","90","false"
"null","<div style=""font-size:60px;"">+</div>","null","html-keyboard-response","296","223520","0.0-6.0-0.145","FLSE","1","m","rechts","23","","fixation","","","",""
"784","img/60_30.png","74","image-keyboard-response","297","224317","0.0-6.0-1.145","FLSE","1","m","rechts","23","","","object","f","60","false"
"null","<div style=""font-size:60px;"">+</div>","null","html-keyboard-response","298","224723","0.0-6.0-0.146","FLSE","1","m","rechts","23","","fixation","","","",""
"835","img/120_210.png","74","image-keyboard-response","299","225572","0.0-6.0-1.146","FLSE","1","m","rechts","23","","","object","f","120","false"
"null","<div style=""font-size:60px;"">+</div>","null","html-keyboard-response","300","225927","0.0-6.0-0.147","FLSE","1","m","rechts","23","","fixation","","","",""
"684","img/120_30.png","74","image-keyboard-response","301","226624","0.0-6.0-1.147","FLSE","1","m","rechts","23","","","object","f","120","false"
"null","<div style=""font-size:60px;"">+</div>","null","html-keyboard-response","302","227149","0.0-6.0-0.148","FLSE","1","m","rechts","23","","fixation","","","",""
"631","img/0_330.png","70","image-keyboard-response","303","227793","0.0-6.0-1.148","FLSE","1","m","rechts","23","","","object","f","0","true"
"null","<div style=""font-size:60px;"">+</div>","null","html-keyboard-response","304","228212","0.0-6.0-0.149","FLSE","1","m","rechts","23","","fixation","","","",""
"686","img/L30_180.png","70","image-keyboard-response","305","228908","0.0-6.0-1.149","FLSE","1","m","rechts","23","","","object","j","30","false"
"null","<div style=""font-size:60px;"">+</div>","null","html-keyboard-response","306","229383","0.0-6.0-0.150","FLSE","1","m","rechts","23","","fixation","","","",""
"610","img/60_330.png","70","image-keyboard-response","307","229997","0.0-6.0-1.150","FLSE","1","m","rechts","23","","","object","j","60","false"
"null","<div style=""font-size:60px;"">+</div>","null","html-keyboard-response","308","230521","0.0-6.0-0.151","FLSE","1","m","rechts","23","","fixation","","","",""
"749","img/L90_180.png","70","image-keyboard-response","309","231282","0.0-6.0-1.151","FLSE","1","m","rechts","23","","","object","j","90","false"
"null","<div style=""font-size:60px;"">+</div>","null","html-keyboard-response","310","231599","0.0-6.0-0.152","FLSE","1","m","rechts","23","","fixation","","","",""
"750","img/120_180.png","74","image-keyboard-response","311","232360","0.0-6.0-1.152","FLSE","1","m","rechts","23","","","object","f","120","false"
"null","<div style=""font-size:60px;"">+</div>","null","html-keyboard-response","312","232676","0.0-6.0-0.153","FLSE","1","m","rechts","23","","fixation","","","",""
"830","img/90_150.png","70","image-keyboard-response","313","233520","0.0-6.0-1.153","FLSE","1","m","rechts","23","","","object","j","90","false"
"null","<div style=""font-size:60px;"">+</div>","null","html-keyboard-response","314","233927","0.0-6.0-0.154","FLSE","1","m","rechts","23","","fixation","","","",""
"681","img/90_330.png","70","image-keyboard-response","315","234621","0.0-6.0-1.154","FLSE","1","m","rechts","23","","","object","j","90","false"
"null","<div style=""font-size:60px;"">+</div>","null","html-keyboard-response","316","235084","0.0-6.0-0.155","FLSE","1","m","rechts","23","","fixation","","","",""
"514","img/30_300.png","70","image-keyboard-response","317","235611","0.0-6.0-1.155","FLSE","1","m","rechts","23","","","object","f","30","true"
"null","<div style=""font-size:60px;"">+</div>","null","html-keyboard-response","318","236116","0.0-6.0-0.156","FLSE","1","m","rechts","23","","fixation","","","",""
"486","img/L90_180.png","70","image-keyboard-response","319","236614","0.0-6.0-1.156","FLSE","1","m","rechts","23","","","object","j","90","false"
"null","<div style=""font-size:60px;"">+</div>","null","html-keyboard-response","320","236944","0.0-6.0-0.157","FLSE","1","m","rechts","23","","fixation","","","",""
"606","img/150_240.png","74","image-keyboard-response","321","237559","0.0-6.0-1.157","FLSE","1","m","rechts","23","","","object","j","150","true"
"null","<div style=""font-size:60px;"">+</div>","null","html-keyboard-response","322","237928","0.0-6.0-0.158","FLSE","1","m","rechts","23","","fixation","","","",""
"531","img/0_210.png","70","image-keyboard-response","323","238468","0.0-6.0-1.158","FLSE","1","m","rechts","23","","","object","f","0","true"
"null","<div style=""font-size:60px;"">+</div>","null","html-keyboard-response","324","238771","0.0-6.0-0.159","FLSE","1","m","rechts","23","","fixation","","","",""
"599","img/L60_180.png","70","image-keyboard-response","325","239381","0.0-6.0-1.159","FLSE","1","m","rechts","23","","","object","j","60","false"
"null","<div style=""font-size:60px;"">+</div>","null","html-keyboard-response","326","239757","0.0-6.0-0.160","FLSE","1","m","rechts","23","","fixation","","","",""
"588","img/60_180.png","74","image-keyboard-response","327","240359","0.0-6.0-1.160","FLSE","1","m","rechts","23","","","object","f","60","false"
"null","<div style=""font-size:60px;"">+</div>","null","html-keyboard-response","328","240771","0.0-6.0-0.161","FLSE","1","m","rechts","23","","fixation","","","",""
"689","img/120_30.png","74","image-keyboard-response","329","241469","0.0-6.0-1.161","FLSE","1","m","rechts","23","","","object","f","120","false"
"null","<div style=""font-size:60px;"">+</div>","null","html-keyboard-response","330","241927","0.0-6.0-0.162","FLSE","1","m","rechts","23","","fixation","","","",""
"853","img/30_120.png","74","image-keyboard-response","331","242790","0.0-6.0-1.162","FLSE","1","m","rechts","23","","","object","j","30","true"
"null","<div style=""font-size:60px;"">+</div>","null","html-keyboard-response","332","243256","0.0-6.0-0.163","FLSE","1","m","rechts","23","","fixation","","","",""
"601","img/150_270.png","74","image-keyboard-response","333","243870","0.0-6.0-1.163","FLSE","1","m","rechts","23","","","object","j","150","true"
"null","<div style=""font-size:60px;"">+</div>","null","html-keyboard-response","334","244192","0.0-6.0-0.164","FLSE","1","m","rechts","23","","fixation","","","",""
"561","img/0_30.png","74","image-keyboard-response","335","244770","0.0-6.0-1.164","FLSE","1","m","rechts","23","","","object","j","0","true"
"null","<div style=""font-size:60px;"">+</div>","null","html-keyboard-response","336","245273","0.0-6.0-0.165","FLSE","1","m","rechts","23","","fixation","","","",""
"558","img/30_300.png","70","image-keyboard-response","337","245840","0.0-6.0-1.165","FLSE","1","m","rechts","23","","","object","f","30","true"
"null","<div style=""font-size:60px;"">+</div>","null","html-keyboard-response","338","246211","0.0-6.0-0.166","FLSE","1","m","rechts","23","","fixation","","","",""
"528","img/L120_180.png","70","image-keyboard-response","339","246749","0.0-6.0-1.166","FLSE","1","m","rechts","23","","","object","j","120","false"
"null","<div style=""font-size:60px;"">+</div>","null","html-keyboard-response","340","247211","0.0-6.0-0.167","FLSE","1","m","rechts","23","","fixation","","","",""
"538","img/120_330.png","74","image-keyboard-response","341","247763","0.0-6.0-1.167","FLSE","1","m","rechts","23","","","object","j","120","true"
"null","<div style=""font-size:60px;"">+</div>","null","html-keyboard-response","342","248243","0.0-6.0-0.168","FLSE","1","m","rechts","23","","fixation","","","",""
"950","img/150_300.png","74","image-keyboard-response","343","249203","0.0-6.0-1.168","FLSE","1","m","rechts","23","","","object","j","150","true"
"null","<div style=""font-size:60px;"">+</div>","null","html-keyboard-response","344","249710","0.0-6.0-0.169","FLSE","1","m","rechts","23","","fixation","","","",""
"1125","img/150_60.png","70","image-keyboard-response","345","250845","0.0-6.0-1.169","FLSE","1","m","rechts","23","","","object","f","150","true"
"null","<div style=""font-size:60px;"">+</div>","null","html-keyboard-response","346","251148","0.0-6.0-0.170","FLSE","1","m","rechts","23","","fixation","","","",""
"632","img/120_180.png","74","image-keyboard-response","347","251790","0.0-6.0-1.170","FLSE","1","m","rechts","23","","","object","f","120","false"
"null","<div style=""font-size:60px;"">+</div>","null","html-keyboard-response","348","252148","0.0-6.0-0.171","FLSE","1","m","rechts","23","","fixation","","","",""
"620","img/120_210.png","74","image-keyboard-response","349","252781","0.0-6.0-1.171","FLSE","1","m","rechts","23","","","object","f","120","false"
"null","<div style=""font-size:60px;"">+</div>","null","html-keyboard-response","350","253086","0.0-6.0-0.172","FLSE","1","m","rechts","23","","fixation","","","",""
"641","img/90_30.png","74","image-keyboard-response","351","253736","0.0-6.0-1.172","FLSE","1","m","rechts","23","","","object","f","90","false"
"null","<div style=""font-size:60px;"">+</div>","null","html-keyboard-response","352","254100","0.0-6.0-0.173","FLSE","1","m","rechts","23","","fixation","","","",""
"565","img/90_210.png","74","image-keyboard-response","353","254680","0.0-6.0-1.173","FLSE","1","m","rechts","23","","","object","f","90","false"
"null","<div style=""font-size:60px;"">+</div>","null","html-keyboard-response","354","255104","0.0-6.0-0.174","FLSE","1","m","rechts","23","","fixation","","","",""
"693","img/90_330.png","70","image-keyboard-response","355","255807","0.0-6.0-1.174","FLSE","1","m","rechts","23","","","object","j","90","false"
"null","<div style=""font-size:60px;"">+</div>","null","html-keyboard-response","356","256212","0.0-6.0-0.175","FLSE","1","m","rechts","23","","fixation","","","",""
"1335","img/150_120.png","74","image-keyboard-response","357","257562","0.0-6.0-1.175","FLSE","1","m","rechts","23","","","object","f","150","false"
"null","<div style=""font-size:60px;"">+</div>","null","html-keyboard-response","358","258041","0.0-6.0-0.176","FLSE","1","m","rechts","23","","fixation","","","",""
"680","img/60_150.png","70","image-keyboard-response","359","258732","0.0-6.0-1.176","FLSE","1","m","rechts","23","","","object","j","60","false"
"null","<div style=""font-size:60px;"">+</div>","null","html-keyboard-response","360","259087","0.0-6.0-0.177","FLSE","1","m","rechts","23","","fixation","","","",""
"580","img/90_150.png","70","image-keyboard-response","361","259679","0.0-6.0-1.177","FLSE","1","m","rechts","23","","","object","j","90","false"
"null","<div style=""font-size:60px;"">+</div>","null","html-keyboard-response","362","260134","0.0-6.0-0.178","FLSE","1","m","rechts","23","","fixation","","","",""
"736","img/30_90.png","70","image-keyboard-response","363","260879","0.0-6.0-1.178","FLSE","1","m","rechts","23","","","object","j","30","false"
"null","<div style=""font-size:60px;"">+</div>","null","html-keyboard-response","364","261260","0.0-6.0-0.179","FLSE","1","m","rechts","23","","fixation","","","",""
"688","img/30_270.png","70","image-keyboard-response","365","261961","0.0-6.0-1.179","FLSE","1","m","rechts","23","","","object","f","30","true"
"null","<div style=""font-size:60px;"">+</div>","null","html-keyboard-response","366","262290","0.0-6.0-0.180","FLSE","1","m","rechts","23","","fixation","","","",""
"554","img/0_120.png","74","image-keyboard-response","367","262858","0.0-6.0-1.180","FLSE","1","m","rechts","23","","","object","j","0","true"
"null","<div style=""font-size:60px;"">+</div>","null","html-keyboard-response","368","263276","0.0-6.0-0.181","FLSE","1","m","rechts","23","","fixation","","","",""
"492","img/0_60.png","74","image-keyboard-response","369","263783","0.0-6.0-1.181","FLSE","1","m","rechts","23","","","object","j","0","true"
"null","<div style=""font-size:60px;"">+</div>","null","html-keyboard-response","370","264244","0.0-6.0-0.182","FLSE","1","m","rechts","23","","fixation","","","",""
"528","img/0_90.png","74","image-keyboard-response","371","264784","0.0-6.0-1.182","FLSE","1","m","rechts","23","","","object","j","0","true"
"null","<div style=""font-size:60px;"">+</div>","null","html-keyboard-response","372","265213","0.0-6.0-0.183","FLSE","1","m","rechts","23","","fixation","","","",""
"796","img/120_270.png","74","image-keyboard-response","373","266022","0.0-6.0-1.183","FLSE","1","m","rechts","23","","","object","j","120","true"
"null","<div style=""font-size:60px;"">+</div>","null","html-keyboard-response","374","266430","0.0-6.0-0.184","FLSE","1","m","rechts","23","","fixation","","","",""
"744","img/30_180.png","74","image-keyboard-response","375","267179","0.0-6.0-1.184","FLSE","1","m","rechts","23","","","object","f","30","false"
"null","<div style=""font-size:60px;"">+</div>","null","html-keyboard-response","376","267697","0.0-6.0-0.185","FLSE","1","m","rechts","23","","fixation","","","",""
"843","img/L150_180.png","70","image-keyboard-response","377","268554","0.0-6.0-1.185","FLSE","1","m","rechts","23","","","object","j","150","false"
"null","<div style=""font-size:60px;"">+</div>","null","html-keyboard-response","378","268869","0.0-6.0-0.186","FLSE","1","m","rechts","23","","fixation","","","",""
"1013","img/90_60.png","74","image-keyboard-response","379","269891","0.0-6.0-1.186","FLSE","1","m","rechts","23","","","object","f","90","false"
"null","<div style=""font-size:60px;"">+</div>","null","html-keyboard-response","380","270247","0.0-6.0-0.187","FLSE","1","m","rechts","23","","fixation","","","",""
"757","img/30_240.png","70","image-keyboard-response","381","271017","0.0-6.0-1.187","FLSE","1","m","rechts","23","","","object","f","30","true"
"null","<div style=""font-size:60px;"">+</div>","null","html-keyboard-response","382","271527","0.0-6.0-0.188","FLSE","1","m","rechts","23","","fixation","","","",""
"548","img/0_300.png","70","image-keyboard-response","383","272087","0.0-6.0-1.188","FLSE","1","m","rechts","23","","","object","f","0","true"
"null","<div style=""font-size:60px;"">+</div>","null","html-keyboard-response","384","272558","0.0-6.0-0.189","FLSE","1","m","rechts","23","","fixation","","","",""
"551","img/0_270.png","70","image-keyboard-response","385","273119","0.0-6.0-1.189","FLSE","1","m","rechts","23","","","object","f","0","true"
"null","<div style=""font-size:60px;"">+</div>","null","html-keyboard-response","386","273542","0.0-6.0-0.190","FLSE","1","m","rechts","23","","fixation","","","",""
"675","img/90_120.png","70","image-keyboard-response","387","274222","0.0-6.0-1.190","FLSE","1","m","rechts","23","","","object","j","90","false"
"null","<div style=""font-size:60px;"">+</div>","null","html-keyboard-response","388","274683","0.0-6.0-0.191","FLSE","1","m","rechts","23","","fixation","","","",""
"641","img/120_150.png","70","image-keyboard-response","389","275337","0.0-6.0-1.191","FLSE","1","m","rechts","23","","","object","j","120","false"
"null","<div style=""font-size:60px;"">+</div>","null","html-keyboard-response","390","275651","0.0-6.0-0.192","FLSE","1","m","rechts","23","","fixation","","","",""
"735","img/150_180.png","74","image-keyboard-response","391","276403","0.0-6.0-1.192","FLSE","1","m","rechts","23","","","object","f","150","false"
"null","<div style=""font-size:60px;"">+</div>","null","html-keyboard-response","392","276856","0.0-6.0-0.193","FLSE","1","m","rechts","23","","fixation","","","",""
"1482","img/0_150.png","74","image-keyboard-response","393","278351","0.0-6.0-1.193","FLSE","1","m","rechts","23","","","object","j","0","true"
"null","<div style=""font-size:60px;"">+</div>","null","html-keyboard-response","394","278856","0.0-6.0-0.194","FLSE","1","m","rechts","23","","fixation","","","",""
"644","img/60_330.png","70","image-keyboard-response","395","279511","0.0-6.0-1.194","FLSE","1","m","rechts","23","","","object","j","60","false"
"null","<div style=""font-size:60px;"">+</div>","null","html-keyboard-response","396","279919","0.0-6.0-0.195","FLSE","1","m","rechts","23","","fixation","","","",""
"758","img/90_240.png","74","image-keyboard-response","397","280690","0.0-6.0-1.195","FLSE","1","m","rechts","23","","","object","f","90","false"
"null","<div style=""font-size:60px;"">+</div>","null","html-keyboard-response","398","281169","0.0-6.0-0.196","FLSE","1","m","rechts","23","","fixation","","","",""
"632","img/90_300.png","70","image-keyboard-response","399","281814","0.0-6.0-1.196","FLSE","1","m","rechts","23","","","object","j","90","false"
"null","<div style=""font-size:60px;"">+</div>","null","html-keyboard-response","400","282342","0.0-6.0-0.197","FLSE","1","m","rechts","23","","fixation","","","",""
"573","img/60_270.png","70","image-keyboard-response","401","282928","0.0-6.0-1.197","FLSE","1","m","rechts","23","","","object","f","60","true"
"null","<div style=""font-size:60px;"">+</div>","null","html-keyboard-response","402","283434","0.0-6.0-0.198","FLSE","1","m","rechts","23","","fixation","","","",""
"702","img/30_60.png","74","image-keyboard-response","403","284145","0.0-6.0-1.198","FLSE","1","m","rechts","23","","","object","j","30","true"
"null","<div style=""font-size:60px;"">+</div>","null","html-keyboard-response","404","284559","0.0-6.0-0.199","FLSE","1","m","rechts","23","","fixation","","","",""
"981","img/60_210.png","74","image-keyboard-response","405","285553","0.0-6.0-1.199","FLSE","1","m","rechts","23","","","object","f","60","false"
"null","<div style=""font-size:60px;"">+</div>","null","html-keyboard-response","406","285919","0.0-6.0-0.200","FLSE","1","m","rechts","23","","fixation","","","",""
"670","img/60_30.png","74","image-keyboard-response","407","286598","0.0-6.0-1.200","FLSE","1","m","rechts","23","","","object","f","60","false"
"null","<div style=""font-size:60px;"">+</div>","null","html-keyboard-response","408","286966","0.0-6.0-0.201","FLSE","1","m","rechts","23","","fixation","","","",""
"676","img/150_90.png","70","image-keyboard-response","409","287655","0.0-6.0-1.201","FLSE","1","m","rechts","23","","","object","f","150","true"
"null","<div style=""font-size:60px;"">+</div>","null","html-keyboard-response","410","288060","0.0-6.0-0.202","FLSE","1","m","rechts","23","","fixation","","","",""
"775","img/90_180.png","74","image-keyboard-response","411","288848","0.0-6.0-1.202","FLSE","1","m","rechts","23","","","object","f","90","false"
"null","<div style=""font-size:60px;"">+</div>","null","html-keyboard-response","412","289278","0.0-6.0-0.203","FLSE","1","m","rechts","23","","fixation","","","",""
"793","img/120_90.png","70","image-keyboard-response","413","290086","0.0-6.0-1.203","FLSE","1","m","rechts","23","","","object","f","120","true"
"null","<div style=""font-size:60px;"">+</div>","null","html-keyboard-response","414","290498","0.0-6.0-0.204","FLSE","1","m","rechts","23","","fixation","","","",""
"890","img/0_240.png","70","image-keyboard-response","415","291403","0.0-6.0-1.204","FLSE","1","m","rechts","23","","","object","f","0","true"
"null","<div style=""font-size:60px;"">+</div>","null","html-keyboard-response","416","291827","0.0-6.0-0.205","FLSE","1","m","rechts","23","","fixation","","","",""
"801","img/60_90.png","74","image-keyboard-response","417","292641","0.0-6.0-1.205","FLSE","1","m","rechts","23","","","object","j","60","true"
"null","<div style=""font-size:60px;"">+</div>","null","html-keyboard-response","418","293045","0.0-6.0-0.206","FLSE","1","m","rechts","23","","fixation","","","",""
"727","img/L30_180.png","70","image-keyboard-response","419","293788","0.0-6.0-1.206","FLSE","1","m","rechts","23","","","object","j","30","false"
"null","<div style=""font-size:60px;"">+</div>","null","html-keyboard-response","420","294312","0.0-6.0-0.207","FLSE","1","m","rechts","23","","fixation","","","",""
"563","img/0_330.png","70","image-keyboard-response","421","294888","0.0-6.0-1.207","FLSE","1","m","rechts","23","","","object","f","0","true"
"13794","<p>Du hast in 46% der Versuche korrekt entschieden.</p><p>Deine durchschnittliche Reaktionszeit war  716ms.</p><p>Dr&uuml;cke eine beliebige Taste, um die Session zu beenden. Vielen Dank!</p>","32","html-keyboard-response","422","308686","0.0-7.0","FLSE","1","m","rechts","23","","","","","",""
