"rt","stimulus","key_press","trial_type","trial_index","time_elapsed","internal_node_id","subject","session","sex","handedness","age","responses","test_part","condition","correct_response","angle","correct"
"13240","<p>Mental Rotation Experiment.</p> <p>Dr&uuml;cke eine beliebige Taste, um anzufangen.</p>","13","html-keyboard-response","0","13266","0.0-0.0","FLSE","4","m","rechts","23","","","","","",""
"7415","","","survey-text","1","20684","0.0-1.0","FLSE","4","m","rechts","23","{""Q0"":""FLSE""}","","","","",""
"2759","","","survey-text","2","23443","0.0-2.0","FLSE","4","m","rechts","23","{""Q0"":""4""}","","","","",""
"21204","","","survey-multi-choice","3","44651","0.0-3.0","FLSE","4","m","rechts","23","{""Q0"":""m"",""Q1"":""rechts""}","","","","",""
"2946","","","survey-text","4","47599","0.0-4.0","FLSE","4","m","rechts","23","{""Q0"":""23""}","","","","",""
"33671","<p> Stell dir vor, dass du vor einem runden Tisch stehst, auf dem sich ein blauer Ball am Tischrand befindet. Entlang des Tischrands ist jeweils ein verschieden langer Pfeil. Nun bewegst du dich entlang dieses Pfeils bis an seine Spitze. Wenn du am Ende des Pfeils angekommen bist, schau zur Tischmitte. </p> <img src='img/90_180.png'></img> <br> <p>Entscheide dann, ob der Ball von deiner neuen (vorgestellten) Position links oder rechts von dir liegt.</p> <p>Dr&uuml;cke die <strong>'f'</strong>-Taste f&uuml;r links, die <strong>'j'</strong>-Taste f&uuml;r rechts.</p> <br><p> Das Bild wird jeweils 1 Sekunde lang pr&auml;sentiert. Du hast 3 Sekunden Zeit eine Entscheidung zu treffen.</p>","74","html-keyboard-response","5","81278","0.0-5.0","FLSE","4","m","rechts","23","","","","","",""
"null","<div style=""font-size:60px;"">+</div>","null","html-keyboard-response","6","82619","0.0-6.0-0.0","FLSE","4","m","rechts","23","","fixation","","","",""
"1159","img/150_300.png","74","image-keyboard-response","7","83797","0.0-6.0-1.0","FLSE","4","m","rechts","23","","","self","j","150","true"
"null","<div style=""font-size:60px;"">+</div>","null","html-keyboard-response","8","84230","0.0-6.0-0.1","FLSE","4","m","rechts","23","","fixation","","","",""
"648","img/L30_180.png","70","image-keyboard-response","9","84895","0.0-6.0-1.1","FLSE","4","m","rechts","23","","","self","f","30","true"
"null","<div style=""font-size:60px;"">+</div>","null","html-keyboard-response","10","85308","0.0-6.0-0.2","FLSE","4","m","rechts","23","","fixation","","","",""
"918","img/30_120.png","74","image-keyboard-response","11","86247","0.0-6.0-1.2","FLSE","4","m","rechts","23","","","self","j","30","true"
"null","<div style=""font-size:60px;"">+</div>","null","html-keyboard-response","12","86761","0.0-6.0-0.3","FLSE","4","m","rechts","23","","fixation","","","",""
"727","img/120_90.png","70","image-keyboard-response","13","87506","0.0-6.0-1.3","FLSE","4","m","rechts","23","","","self","f","120","true"
"null","<div style=""font-size:60px;"">+</div>","null","html-keyboard-response","14","88010","0.0-6.0-0.4","FLSE","4","m","rechts","23","","fixation","","","",""
"804","img/30_240.png","70","image-keyboard-response","15","88832","0.0-6.0-1.4","FLSE","4","m","rechts","23","","","self","f","30","true"
"null","<div style=""font-size:60px;"">+</div>","null","html-keyboard-response","16","89138","0.0-6.0-0.5","FLSE","4","m","rechts","23","","fixation","","","",""
"732","img/60_330.png","70","image-keyboard-response","17","89889","0.0-6.0-1.5","FLSE","4","m","rechts","23","","","self","f","60","true"
"null","<div style=""font-size:60px;"">+</div>","null","html-keyboard-response","18","90294","0.0-6.0-0.6","FLSE","4","m","rechts","23","","fixation","","","",""
"700","img/60_90.png","74","image-keyboard-response","19","91004","0.0-6.0-1.6","FLSE","4","m","rechts","23","","","self","j","60","true"
"null","<div style=""font-size:60px;"">+</div>","null","html-keyboard-response","20","91467","0.0-6.0-0.7","FLSE","4","m","rechts","23","","fixation","","","",""
"855","img/60_30.png","74","image-keyboard-response","21","92341","0.0-6.0-1.7","FLSE","4","m","rechts","23","","","self","j","60","true"
"null","<div style=""font-size:60px;"">+</div>","null","html-keyboard-response","22","92701","0.0-6.0-0.8","FLSE","4","m","rechts","23","","fixation","","","",""
"772","img/150_90.png","70","image-keyboard-response","23","93491","0.0-6.0-1.8","FLSE","4","m","rechts","23","","","self","f","150","true"
"null","<div style=""font-size:60px;"">+</div>","null","html-keyboard-response","24","93793","0.0-6.0-0.9","FLSE","4","m","rechts","23","","fixation","","","",""
"723","img/90_120.png","70","image-keyboard-response","25","94534","0.0-6.0-1.9","FLSE","4","m","rechts","23","","","self","f","90","true"
"null","<div style=""font-size:60px;"">+</div>","null","html-keyboard-response","26","94841","0.0-6.0-0.10","FLSE","4","m","rechts","23","","fixation","","","",""
"805","img/30_60.png","74","image-keyboard-response","27","95663","0.0-6.0-1.10","FLSE","4","m","rechts","23","","","self","j","30","true"
"null","<div style=""font-size:60px;"">+</div>","null","html-keyboard-response","28","95966","0.0-6.0-0.11","FLSE","4","m","rechts","23","","fixation","","","",""
"746","img/L90_180.png","70","image-keyboard-response","29","96731","0.0-6.0-1.11","FLSE","4","m","rechts","23","","","self","f","90","true"
"null","<div style=""font-size:60px;"">+</div>","null","html-keyboard-response","30","97060","0.0-6.0-0.12","FLSE","4","m","rechts","23","","fixation","","","",""
"832","img/30_90.png","74","image-keyboard-response","31","97913","0.0-6.0-1.12","FLSE","4","m","rechts","23","","","self","j","30","true"
"null","<div style=""font-size:60px;"">+</div>","null","html-keyboard-response","32","98339","0.0-6.0-0.13","FLSE","4","m","rechts","23","","fixation","","","",""
"700","img/30_180.png","74","image-keyboard-response","33","99048","0.0-6.0-1.13","FLSE","4","m","rechts","23","","","self","j","30","true"
"null","<div style=""font-size:60px;"">+</div>","null","html-keyboard-response","34","99468","0.0-6.0-0.14","FLSE","4","m","rechts","23","","fixation","","","",""
"663","img/90_30.png","74","image-keyboard-response","35","100151","0.0-6.0-1.14","FLSE","4","m","rechts","23","","","self","j","90","true"
"null","<div style=""font-size:60px;"">+</div>","null","html-keyboard-response","36","100467","0.0-6.0-0.15","FLSE","4","m","rechts","23","","fixation","","","",""
"767","img/120_270.png","74","image-keyboard-response","37","101252","0.0-6.0-1.15","FLSE","4","m","rechts","23","","","self","j","120","true"
"null","<div style=""font-size:60px;"">+</div>","null","html-keyboard-response","38","101764","0.0-6.0-0.16","FLSE","4","m","rechts","23","","fixation","","","",""
"637","img/60_210.png","74","image-keyboard-response","39","102421","0.0-6.0-1.16","FLSE","4","m","rechts","23","","","self","j","60","true"
"null","<div style=""font-size:60px;"">+</div>","null","html-keyboard-response","40","102874","0.0-6.0-0.17","FLSE","4","m","rechts","23","","fixation","","","",""
"564","img/0_330.png","70","image-keyboard-response","41","103459","0.0-6.0-1.17","FLSE","4","m","rechts","23","","","self","f","0","true"
"null","<div style=""font-size:60px;"">+</div>","null","html-keyboard-response","42","103874","0.0-6.0-0.18","FLSE","4","m","rechts","23","","fixation","","","",""
"623","img/150_240.png","74","image-keyboard-response","43","104516","0.0-6.0-1.18","FLSE","4","m","rechts","23","","","self","j","150","true"
"null","<div style=""font-size:60px;"">+</div>","null","html-keyboard-response","44","105018","0.0-6.0-0.19","FLSE","4","m","rechts","23","","fixation","","","",""
"627","img/0_210.png","70","image-keyboard-response","45","105663","0.0-6.0-1.19","FLSE","4","m","rechts","23","","","self","f","0","true"
"null","<div style=""font-size:60px;"">+</div>","null","html-keyboard-response","46","106188","0.0-6.0-0.20","FLSE","4","m","rechts","23","","fixation","","","",""
"764","img/150_180.png","74","image-keyboard-response","47","106969","0.0-6.0-1.20","FLSE","4","m","rechts","23","","","self","j","150","true"
"null","<div style=""font-size:60px;"">+</div>","null","html-keyboard-response","48","107424","0.0-6.0-0.21","FLSE","4","m","rechts","23","","fixation","","","",""
"519","img/90_180.png","74","image-keyboard-response","49","107945","0.0-6.0-1.21","FLSE","4","m","rechts","23","","","self","j","90","true"
"null","<div style=""font-size:60px;"">+</div>","null","html-keyboard-response","50","108424","0.0-6.0-0.22","FLSE","4","m","rechts","23","","fixation","","","",""
"518","img/120_180.png","74","image-keyboard-response","51","108948","0.0-6.0-1.22","FLSE","4","m","rechts","23","","","self","j","120","true"
"null","<div style=""font-size:60px;"">+</div>","null","html-keyboard-response","52","109452","0.0-6.0-0.23","FLSE","4","m","rechts","23","","fixation","","","",""
"524","img/L120_180.png","70","image-keyboard-response","53","109993","0.0-6.0-1.23","FLSE","4","m","rechts","23","","","self","f","120","true"
"null","<div style=""font-size:60px;"">+</div>","null","html-keyboard-response","54","110452","0.0-6.0-0.24","FLSE","4","m","rechts","23","","fixation","","","",""
"536","img/90_210.png","74","image-keyboard-response","55","111005","0.0-6.0-1.24","FLSE","4","m","rechts","23","","","self","j","90","true"
"null","<div style=""font-size:60px;"">+</div>","null","html-keyboard-response","56","111437","0.0-6.0-0.25","FLSE","4","m","rechts","23","","fixation","","","",""
"519","img/120_30.png","70","image-keyboard-response","57","111962","0.0-6.0-1.25","FLSE","4","m","rechts","23","","","self","j","120","false"
"null","<div style=""font-size:60px;"">+</div>","null","html-keyboard-response","58","112469","0.0-6.0-0.26","FLSE","4","m","rechts","23","","fixation","","","",""
"827","img/60_150.png","70","image-keyboard-response","59","113315","0.0-6.0-1.26","FLSE","4","m","rechts","23","","","self","f","60","true"
"null","<div style=""font-size:60px;"">+</div>","null","html-keyboard-response","60","113828","0.0-6.0-0.27","FLSE","4","m","rechts","23","","fixation","","","",""
"524","img/0_90.png","74","image-keyboard-response","61","114369","0.0-6.0-1.27","FLSE","4","m","rechts","23","","","self","j","0","true"
"null","<div style=""font-size:60px;"">+</div>","null","html-keyboard-response","62","114780","0.0-6.0-0.28","FLSE","4","m","rechts","23","","fixation","","","",""
"719","img/0_300.png","70","image-keyboard-response","63","115519","0.0-6.0-1.28","FLSE","4","m","rechts","23","","","self","f","0","true"
"null","<div style=""font-size:60px;"">+</div>","null","html-keyboard-response","64","115828","0.0-6.0-0.29","FLSE","4","m","rechts","23","","fixation","","","",""
"719","img/60_270.png","70","image-keyboard-response","65","116564","0.0-6.0-1.29","FLSE","4","m","rechts","23","","","self","f","60","true"
"null","<div style=""font-size:60px;"">+</div>","null","html-keyboard-response","66","116967","0.0-6.0-0.30","FLSE","4","m","rechts","23","","fixation","","","",""
"633","img/90_330.png","70","image-keyboard-response","67","117623","0.0-6.0-1.30","FLSE","4","m","rechts","23","","","self","f","90","true"
"null","<div style=""font-size:60px;"">+</div>","null","html-keyboard-response","68","117937","0.0-6.0-0.31","FLSE","4","m","rechts","23","","fixation","","","",""
"655","img/150_270.png","74","image-keyboard-response","69","118611","0.0-6.0-1.31","FLSE","4","m","rechts","23","","","self","j","150","true"
"null","<div style=""font-size:60px;"">+</div>","null","html-keyboard-response","70","118969","0.0-6.0-0.32","FLSE","4","m","rechts","23","","fixation","","","",""
"737","img/0_150.png","74","image-keyboard-response","71","119725","0.0-6.0-1.32","FLSE","4","m","rechts","23","","","self","j","0","true"
"null","<div style=""font-size:60px;"">+</div>","null","html-keyboard-response","72","120187","0.0-6.0-0.33","FLSE","4","m","rechts","23","","fixation","","","",""
"600","img/0_270.png","70","image-keyboard-response","73","120806","0.0-6.0-1.33","FLSE","4","m","rechts","23","","","self","f","0","true"
"null","<div style=""font-size:60px;"">+</div>","null","html-keyboard-response","74","121328","0.0-6.0-0.34","FLSE","4","m","rechts","23","","fixation","","","",""
"472","img/90_300.png","74","image-keyboard-response","75","121819","0.0-6.0-1.34","FLSE","4","m","rechts","23","","","self","f","90","false"
"null","<div style=""font-size:60px;"">+</div>","null","html-keyboard-response","76","122233","0.0-6.0-0.35","FLSE","4","m","rechts","23","","fixation","","","",""
"614","img/120_210.png","74","image-keyboard-response","77","122854","0.0-6.0-1.35","FLSE","4","m","rechts","23","","","self","j","120","true"
"null","<div style=""font-size:60px;"">+</div>","null","html-keyboard-response","78","123373","0.0-6.0-0.36","FLSE","4","m","rechts","23","","fixation","","","",""
"684","img/90_150.png","70","image-keyboard-response","79","124067","0.0-6.0-1.36","FLSE","4","m","rechts","23","","","self","f","90","true"
"null","<div style=""font-size:60px;"">+</div>","null","html-keyboard-response","80","124579","0.0-6.0-0.37","FLSE","4","m","rechts","23","","fixation","","","",""
"549","img/0_240.png","70","image-keyboard-response","81","125148","0.0-6.0-1.37","FLSE","4","m","rechts","23","","","self","f","0","true"
"null","<div style=""font-size:60px;"">+</div>","null","html-keyboard-response","82","125658","0.0-6.0-0.38","FLSE","4","m","rechts","23","","fixation","","","",""
"498","img/30_300.png","70","image-keyboard-response","83","126173","0.0-6.0-1.38","FLSE","4","m","rechts","23","","","self","f","30","true"
"null","<div style=""font-size:60px;"">+</div>","null","html-keyboard-response","84","126641","0.0-6.0-0.39","FLSE","4","m","rechts","23","","fixation","","","",""
"648","img/150_120.png","70","image-keyboard-response","85","127309","0.0-6.0-1.39","FLSE","4","m","rechts","23","","","self","f","150","true"
"null","<div style=""font-size:60px;"">+</div>","null","html-keyboard-response","86","127767","0.0-6.0-0.40","FLSE","4","m","rechts","23","","fixation","","","",""
"738","img/60_180.png","74","image-keyboard-response","87","128524","0.0-6.0-1.40","FLSE","4","m","rechts","23","","","self","j","60","true"
"null","<div style=""font-size:60px;"">+</div>","null","html-keyboard-response","88","128923","0.0-6.0-0.41","FLSE","4","m","rechts","23","","fixation","","","",""
"910","img/150_60.png","70","image-keyboard-response","89","129850","0.0-6.0-1.41","FLSE","4","m","rechts","23","","","self","f","150","true"
"null","<div style=""font-size:60px;"">+</div>","null","html-keyboard-response","90","130171","0.0-6.0-0.42","FLSE","4","m","rechts","23","","fixation","","","",""
"976","img/90_60.png","74","image-keyboard-response","91","131168","0.0-6.0-1.42","FLSE","4","m","rechts","23","","","self","j","90","true"
"null","<div style=""font-size:60px;"">+</div>","null","html-keyboard-response","92","131485","0.0-6.0-0.43","FLSE","4","m","rechts","23","","fixation","","","",""
"800","img/90_240.png","74","image-keyboard-response","93","132304","0.0-6.0-1.43","FLSE","4","m","rechts","23","","","self","j","90","true"
"null","<div style=""font-size:60px;"">+</div>","null","html-keyboard-response","94","132814","0.0-6.0-0.44","FLSE","4","m","rechts","23","","fixation","","","",""
"537","img/0_30.png","74","image-keyboard-response","95","133369","0.0-6.0-1.44","FLSE","4","m","rechts","23","","","self","j","0","true"
"null","<div style=""font-size:60px;"">+</div>","null","html-keyboard-response","96","133750","0.0-6.0-0.45","FLSE","4","m","rechts","23","","fixation","","","",""
"560","img/0_120.png","74","image-keyboard-response","97","134328","0.0-6.0-1.45","FLSE","4","m","rechts","23","","","self","j","0","true"
"null","<div style=""font-size:60px;"">+</div>","null","html-keyboard-response","98","134845","0.0-6.0-0.46","FLSE","4","m","rechts","23","","fixation","","","",""
"541","img/0_60.png","74","image-keyboard-response","99","135406","0.0-6.0-1.46","FLSE","4","m","rechts","23","","","self","j","0","true"
"null","<div style=""font-size:60px;"">+</div>","null","html-keyboard-response","100","135722","0.0-6.0-0.47","FLSE","4","m","rechts","23","","fixation","","","",""
"670","img/120_330.png","70","image-keyboard-response","101","136408","0.0-6.0-1.47","FLSE","4","m","rechts","23","","","self","f","120","true"
"null","<div style=""font-size:60px;"">+</div>","null","html-keyboard-response","102","136815","0.0-6.0-0.48","FLSE","4","m","rechts","23","","fixation","","","",""
"662","img/120_150.png","70","image-keyboard-response","103","137498","0.0-6.0-1.48","FLSE","4","m","rechts","23","","","self","f","120","true"
"null","<div style=""font-size:60px;"">+</div>","null","html-keyboard-response","104","137954","0.0-6.0-0.49","FLSE","4","m","rechts","23","","fixation","","","",""
"469","img/L150_180.png","70","image-keyboard-response","105","138443","0.0-6.0-1.49","FLSE","4","m","rechts","23","","","self","f","150","true"
"null","<div style=""font-size:60px;"">+</div>","null","html-keyboard-response","106","138845","0.0-6.0-0.50","FLSE","4","m","rechts","23","","fixation","","","",""
"514","img/L60_180.png","70","image-keyboard-response","107","139377","0.0-6.0-1.50","FLSE","4","m","rechts","23","","","self","f","60","true"
"null","<div style=""font-size:60px;"">+</div>","null","html-keyboard-response","108","139879","0.0-6.0-0.51","FLSE","4","m","rechts","23","","fixation","","","",""
"450","img/30_270.png","70","image-keyboard-response","109","140347","0.0-6.0-1.51","FLSE","4","m","rechts","23","","","self","f","30","true"
"null","<div style=""font-size:60px;"">+</div>","null","html-keyboard-response","110","140675","0.0-6.0-0.52","FLSE","4","m","rechts","23","","fixation","","","",""
"551","img/90_210.png","74","image-keyboard-response","111","141235","0.0-6.0-1.52","FLSE","4","m","rechts","23","","","self","j","90","true"
"null","<div style=""font-size:60px;"">+</div>","null","html-keyboard-response","112","141589","0.0-6.0-0.53","FLSE","4","m","rechts","23","","fixation","","","",""
"1055","img/150_60.png","70","image-keyboard-response","113","142655","0.0-6.0-1.53","FLSE","4","m","rechts","23","","","self","f","150","true"
"null","<div style=""font-size:60px;"">+</div>","null","html-keyboard-response","114","143057","0.0-6.0-0.54","FLSE","4","m","rechts","23","","fixation","","","",""
"778","img/90_330.png","70","image-keyboard-response","115","143846","0.0-6.0-1.54","FLSE","4","m","rechts","23","","","self","f","90","true"
"null","<div style=""font-size:60px;"">+</div>","null","html-keyboard-response","116","144261","0.0-6.0-0.55","FLSE","4","m","rechts","23","","fixation","","","",""
"597","img/120_270.png","74","image-keyboard-response","117","144871","0.0-6.0-1.55","FLSE","4","m","rechts","23","","","self","j","120","true"
"null","<div style=""font-size:60px;"">+</div>","null","html-keyboard-response","118","145324","0.0-6.0-0.56","FLSE","4","m","rechts","23","","fixation","","","",""
"704","img/30_90.png","74","image-keyboard-response","119","146040","0.0-6.0-1.56","FLSE","4","m","rechts","23","","","self","j","30","true"
"null","<div style=""font-size:60px;"">+</div>","null","html-keyboard-response","120","146494","0.0-6.0-0.57","FLSE","4","m","rechts","23","","fixation","","","",""
"565","img/0_330.png","70","image-keyboard-response","121","147065","0.0-6.0-1.57","FLSE","4","m","rechts","23","","","self","f","0","true"
"null","<div style=""font-size:60px;"">+</div>","null","html-keyboard-response","122","147432","0.0-6.0-0.58","FLSE","4","m","rechts","23","","fixation","","","",""
"518","img/0_120.png","74","image-keyboard-response","123","147953","0.0-6.0-1.58","FLSE","4","m","rechts","23","","","self","j","0","true"
"null","<div style=""font-size:60px;"">+</div>","null","html-keyboard-response","124","148416","0.0-6.0-0.59","FLSE","4","m","rechts","23","","fixation","","","",""
"510","img/120_150.png","70","image-keyboard-response","125","148931","0.0-6.0-1.59","FLSE","4","m","rechts","23","","","self","f","120","true"
"null","<div style=""font-size:60px;"">+</div>","null","html-keyboard-response","126","149356","0.0-6.0-0.60","FLSE","4","m","rechts","23","","fixation","","","",""
"632","img/30_180.png","74","image-keyboard-response","127","150001","0.0-6.0-1.60","FLSE","4","m","rechts","23","","","self","j","30","true"
"null","<div style=""font-size:60px;"">+</div>","null","html-keyboard-response","128","150512","0.0-6.0-0.61","FLSE","4","m","rechts","23","","fixation","","","",""
"580","img/60_150.png","70","image-keyboard-response","129","151103","0.0-6.0-1.61","FLSE","4","m","rechts","23","","","self","f","60","true"
"null","<div style=""font-size:60px;"">+</div>","null","html-keyboard-response","130","151417","0.0-6.0-0.62","FLSE","4","m","rechts","23","","fixation","","","",""
"536","img/L90_180.png","70","image-keyboard-response","131","151957","0.0-6.0-1.62","FLSE","4","m","rechts","23","","","self","f","90","true"
"null","<div style=""font-size:60px;"">+</div>","null","html-keyboard-response","132","152325","0.0-6.0-0.63","FLSE","4","m","rechts","23","","fixation","","","",""
"501","img/0_90.png","74","image-keyboard-response","133","152835","0.0-6.0-1.63","FLSE","4","m","rechts","23","","","self","j","0","true"
"null","<div style=""font-size:60px;"">+</div>","null","html-keyboard-response","134","153200","0.0-6.0-0.64","FLSE","4","m","rechts","23","","fixation","","","",""
"458","img/90_150.png","70","image-keyboard-response","135","153667","0.0-6.0-1.64","FLSE","4","m","rechts","23","","","self","f","90","true"
"null","<div style=""font-size:60px;"">+</div>","null","html-keyboard-response","136","153996","0.0-6.0-0.65","FLSE","4","m","rechts","23","","fixation","","","",""
"524","img/150_240.png","74","image-keyboard-response","137","154534","0.0-6.0-1.65","FLSE","4","m","rechts","23","","","self","j","150","true"
"null","<div style=""font-size:60px;"">+</div>","null","html-keyboard-response","138","155058","0.0-6.0-0.66","FLSE","4","m","rechts","23","","fixation","","","",""
"530","img/60_210.png","74","image-keyboard-response","139","155601","0.0-6.0-1.66","FLSE","4","m","rechts","23","","","self","j","60","true"
"null","<div style=""font-size:60px;"">+</div>","null","html-keyboard-response","140","155932","0.0-6.0-0.67","FLSE","4","m","rechts","23","","fixation","","","",""
"512","img/90_240.png","74","image-keyboard-response","141","156455","0.0-6.0-1.67","FLSE","4","m","rechts","23","","","self","j","90","true"
"null","<div style=""font-size:60px;"">+</div>","null","html-keyboard-response","142","156965","0.0-6.0-0.68","FLSE","4","m","rechts","23","","fixation","","","",""
"469","img/L60_180.png","70","image-keyboard-response","143","157443","0.0-6.0-1.68","FLSE","4","m","rechts","23","","","self","f","60","true"
"null","<div style=""font-size:60px;"">+</div>","null","html-keyboard-response","144","157762","0.0-6.0-0.69","FLSE","4","m","rechts","23","","fixation","","","",""
"887","img/150_300.png","74","image-keyboard-response","145","158663","0.0-6.0-1.69","FLSE","4","m","rechts","23","","","self","j","150","true"
"null","<div style=""font-size:60px;"">+</div>","null","html-keyboard-response","146","159030","0.0-6.0-0.70","FLSE","4","m","rechts","23","","fixation","","","",""
"826","img/120_210.png","74","image-keyboard-response","147","159866","0.0-6.0-1.70","FLSE","4","m","rechts","23","","","self","j","120","true"
"null","<div style=""font-size:60px;"">+</div>","null","html-keyboard-response","148","160217","0.0-6.0-0.71","FLSE","4","m","rechts","23","","fixation","","","",""
"788","img/30_270.png","70","image-keyboard-response","149","161014","0.0-6.0-1.71","FLSE","4","m","rechts","23","","","self","f","30","true"
"null","<div style=""font-size:60px;"">+</div>","null","html-keyboard-response","150","161342","0.0-6.0-0.72","FLSE","4","m","rechts","23","","fixation","","","",""
"666","img/60_270.png","70","image-keyboard-response","151","162017","0.0-6.0-1.72","FLSE","4","m","rechts","23","","","self","f","60","true"
"null","<div style=""font-size:60px;"">+</div>","null","html-keyboard-response","152","162497","0.0-6.0-0.73","FLSE","4","m","rechts","23","","fixation","","","",""
"549","img/0_150.png","74","image-keyboard-response","153","163051","0.0-6.0-1.73","FLSE","4","m","rechts","23","","","self","j","0","true"
"null","<div style=""font-size:60px;"">+</div>","null","html-keyboard-response","154","163419","0.0-6.0-0.74","FLSE","4","m","rechts","23","","fixation","","","",""
"718","img/90_300.png","70","image-keyboard-response","155","164140","0.0-6.0-1.74","FLSE","4","m","rechts","23","","","self","f","90","true"
"null","<div style=""font-size:60px;"">+</div>","null","html-keyboard-response","156","164607","0.0-6.0-0.75","FLSE","4","m","rechts","23","","fixation","","","",""
"464","img/L120_180.png","70","image-keyboard-response","157","165086","0.0-6.0-1.75","FLSE","4","m","rechts","23","","","self","f","120","true"
"null","<div style=""font-size:60px;"">+</div>","null","html-keyboard-response","158","165403","0.0-6.0-0.76","FLSE","4","m","rechts","23","","fixation","","","",""
"791","img/90_60.png","74","image-keyboard-response","159","166200","0.0-6.0-1.76","FLSE","4","m","rechts","23","","","self","j","90","true"
"null","<div style=""font-size:60px;"">+</div>","null","html-keyboard-response","160","166607","0.0-6.0-0.77","FLSE","4","m","rechts","23","","fixation","","","",""
"515","img/120_180.png","74","image-keyboard-response","161","167134","0.0-6.0-1.77","FLSE","4","m","rechts","23","","","self","j","120","true"
"null","<div style=""font-size:60px;"">+</div>","null","html-keyboard-response","162","167543","0.0-6.0-0.78","FLSE","4","m","rechts","23","","fixation","","","",""
"860","img/120_30.png","74","image-keyboard-response","163","168415","0.0-6.0-1.78","FLSE","4","m","rechts","23","","","self","j","120","true"
"null","<div style=""font-size:60px;"">+</div>","null","html-keyboard-response","164","168841","0.0-6.0-0.79","FLSE","4","m","rechts","23","","fixation","","","",""
"572","img/0_210.png","70","image-keyboard-response","165","169426","0.0-6.0-1.79","FLSE","4","m","rechts","23","","","self","f","0","true"
"null","<div style=""font-size:60px;"">+</div>","null","html-keyboard-response","166","169749","0.0-6.0-0.80","FLSE","4","m","rechts","23","","fixation","","","",""
"566","img/60_90.png","74","image-keyboard-response","167","170329","0.0-6.0-1.80","FLSE","4","m","rechts","23","","","self","j","60","true"
"null","<div style=""font-size:60px;"">+</div>","null","html-keyboard-response","168","170641","0.0-6.0-0.81","FLSE","4","m","rechts","23","","fixation","","","",""
"833","img/150_90.png","70","image-keyboard-response","169","171486","0.0-6.0-1.81","FLSE","4","m","rechts","23","","","self","f","150","true"
"null","<div style=""font-size:60px;"">+</div>","null","html-keyboard-response","170","171999","0.0-6.0-0.82","FLSE","4","m","rechts","23","","fixation","","","",""
"567","img/90_180.png","74","image-keyboard-response","171","172579","0.0-6.0-1.82","FLSE","4","m","rechts","23","","","self","j","90","true"
"null","<div style=""font-size:60px;"">+</div>","null","html-keyboard-response","172","172983","0.0-6.0-0.83","FLSE","4","m","rechts","23","","fixation","","","",""
"565","img/0_240.png","70","image-keyboard-response","173","173558","0.0-6.0-1.83","FLSE","4","m","rechts","23","","","self","f","0","true"
"null","<div style=""font-size:60px;"">+</div>","null","html-keyboard-response","174","174078","0.0-6.0-0.84","FLSE","4","m","rechts","23","","fixation","","","",""
"463","img/30_300.png","70","image-keyboard-response","175","174545","0.0-6.0-1.84","FLSE","4","m","rechts","23","","","self","f","30","true"
"null","<div style=""font-size:60px;"">+</div>","null","html-keyboard-response","176","174859","0.0-6.0-0.85","FLSE","4","m","rechts","23","","fixation","","","",""
"568","img/L150_180.png","70","image-keyboard-response","177","175434","0.0-6.0-1.85","FLSE","4","m","rechts","23","","","self","f","150","true"
"null","<div style=""font-size:60px;"">+</div>","null","html-keyboard-response","178","175937","0.0-6.0-0.86","FLSE","4","m","rechts","23","","fixation","","","",""
"524","img/0_30.png","74","image-keyboard-response","179","176469","0.0-6.0-1.86","FLSE","4","m","rechts","23","","","self","j","0","true"
"null","<div style=""font-size:60px;"">+</div>","null","html-keyboard-response","180","176984","0.0-6.0-0.87","FLSE","4","m","rechts","23","","fixation","","","",""
"662","img/60_30.png","74","image-keyboard-response","181","177663","0.0-6.0-1.87","FLSE","4","m","rechts","23","","","self","j","60","true"
"null","<div style=""font-size:60px;"">+</div>","null","html-keyboard-response","182","178075","0.0-6.0-0.88","FLSE","4","m","rechts","23","","fixation","","","",""
"639","img/150_180.png","74","image-keyboard-response","183","178718","0.0-6.0-1.88","FLSE","4","m","rechts","23","","","self","j","150","true"
"null","<div style=""font-size:60px;"">+</div>","null","html-keyboard-response","184","179074","0.0-6.0-0.89","FLSE","4","m","rechts","23","","fixation","","","",""
"609","img/120_330.png","70","image-keyboard-response","185","179686","0.0-6.0-1.89","FLSE","4","m","rechts","23","","","self","f","120","true"
"null","<div style=""font-size:60px;"">+</div>","null","html-keyboard-response","186","180136","0.0-6.0-0.90","FLSE","4","m","rechts","23","","fixation","","","",""
"483","img/0_270.png","70","image-keyboard-response","187","180623","0.0-6.0-1.90","FLSE","4","m","rechts","23","","","self","f","0","true"
"null","<div style=""font-size:60px;"">+</div>","null","html-keyboard-response","188","181044","0.0-6.0-0.91","FLSE","4","m","rechts","23","","fixation","","","",""
"497","img/60_180.png","74","image-keyboard-response","189","181553","0.0-6.0-1.91","FLSE","4","m","rechts","23","","","self","j","60","true"
"null","<div style=""font-size:60px;"">+</div>","null","html-keyboard-response","190","181918","0.0-6.0-0.92","FLSE","4","m","rechts","23","","fixation","","","",""
"555","img/150_120.png","70","image-keyboard-response","191","182477","0.0-6.0-1.92","FLSE","4","m","rechts","23","","","self","f","150","true"
"null","<div style=""font-size:60px;"">+</div>","null","html-keyboard-response","192","182839","0.0-6.0-0.93","FLSE","4","m","rechts","23","","fixation","","","",""
"589","img/90_120.png","70","image-keyboard-response","193","183433","0.0-6.0-1.93","FLSE","4","m","rechts","23","","","self","f","90","true"
"null","<div style=""font-size:60px;"">+</div>","null","html-keyboard-response","194","183949","0.0-6.0-0.94","FLSE","4","m","rechts","23","","fixation","","","",""
"468","img/0_300.png","70","image-keyboard-response","195","184422","0.0-6.0-1.94","FLSE","4","m","rechts","23","","","self","f","0","true"
"null","<div style=""font-size:60px;"">+</div>","null","html-keyboard-response","196","184824","0.0-6.0-0.95","FLSE","4","m","rechts","23","","fixation","","","",""
"471","img/L30_180.png","70","image-keyboard-response","197","185300","0.0-6.0-1.95","FLSE","4","m","rechts","23","","","self","f","30","true"
"null","<div style=""font-size:60px;"">+</div>","null","html-keyboard-response","198","185653","0.0-6.0-0.96","FLSE","4","m","rechts","23","","fixation","","","",""
"554","img/60_330.png","70","image-keyboard-response","199","186213","0.0-6.0-1.96","FLSE","4","m","rechts","23","","","self","f","60","true"
"null","<div style=""font-size:60px;"">+</div>","null","html-keyboard-response","200","186528","0.0-6.0-0.97","FLSE","4","m","rechts","23","","fixation","","","",""
"442","img/30_240.png","70","image-keyboard-response","201","186976","0.0-6.0-1.97","FLSE","4","m","rechts","23","","","self","f","30","true"
"null","<div style=""font-size:60px;"">+</div>","null","html-keyboard-response","202","187278","0.0-6.0-0.98","FLSE","4","m","rechts","23","","fixation","","","",""
"627","img/30_60.png","74","image-keyboard-response","203","187910","0.0-6.0-1.98","FLSE","4","m","rechts","23","","","self","j","30","true"
"null","<div style=""font-size:60px;"">+</div>","null","html-keyboard-response","204","188263","0.0-6.0-0.99","FLSE","4","m","rechts","23","","fixation","","","",""
"760","img/150_270.png","74","image-keyboard-response","205","189036","0.0-6.0-1.99","FLSE","4","m","rechts","23","","","self","j","150","true"
"null","<div style=""font-size:60px;"">+</div>","null","html-keyboard-response","206","189342","0.0-6.0-0.100","FLSE","4","m","rechts","23","","fixation","","","",""
"645","img/120_90.png","70","image-keyboard-response","207","189992","0.0-6.0-1.100","FLSE","4","m","rechts","23","","","self","f","120","true"
"null","<div style=""font-size:60px;"">+</div>","null","html-keyboard-response","208","190295","0.0-6.0-0.101","FLSE","4","m","rechts","23","","fixation","","","",""
"501","img/0_60.png","74","image-keyboard-response","209","190814","0.0-6.0-1.101","FLSE","4","m","rechts","23","","","self","j","0","true"
"null","<div style=""font-size:60px;"">+</div>","null","html-keyboard-response","210","191318","0.0-6.0-0.102","FLSE","4","m","rechts","23","","fixation","","","",""
"570","img/30_120.png","70","image-keyboard-response","211","191896","0.0-6.0-1.102","FLSE","4","m","rechts","23","","","self","j","30","false"
"null","<div style=""font-size:60px;"">+</div>","null","html-keyboard-response","212","192351","0.0-6.0-0.103","FLSE","4","m","rechts","23","","fixation","","","",""
"831","img/90_30.png","74","image-keyboard-response","213","193187","0.0-6.0-1.103","FLSE","4","m","rechts","23","","","self","j","90","true"
"null","<div style=""font-size:60px;"">+</div>","null","html-keyboard-response","214","193538","0.0-6.0-0.104","FLSE","4","m","rechts","23","","fixation","","","",""
"520","img/0_120.png","74","image-keyboard-response","215","194062","0.0-6.0-1.104","FLSE","4","m","rechts","23","","","self","j","0","true"
"null","<div style=""font-size:60px;"">+</div>","null","html-keyboard-response","216","194421","0.0-6.0-0.105","FLSE","4","m","rechts","23","","fixation","","","",""
"516","img/0_330.png","70","image-keyboard-response","217","194941","0.0-6.0-1.105","FLSE","4","m","rechts","23","","","self","f","0","true"
"null","<div style=""font-size:60px;"">+</div>","null","html-keyboard-response","218","195451","0.0-6.0-0.106","FLSE","4","m","rechts","23","","fixation","","","",""
"509","img/0_150.png","74","image-keyboard-response","219","195966","0.0-6.0-1.106","FLSE","4","m","rechts","23","","","self","j","0","true"
"null","<div style=""font-size:60px;"">+</div>","null","html-keyboard-response","220","196468","0.0-6.0-0.107","FLSE","4","m","rechts","23","","fixation","","","",""
"539","img/L30_180.png","70","image-keyboard-response","221","197012","0.0-6.0-1.107","FLSE","4","m","rechts","23","","","self","f","30","true"
"null","<div style=""font-size:60px;"">+</div>","null","html-keyboard-response","222","197468","0.0-6.0-0.108","FLSE","4","m","rechts","23","","fixation","","","",""
"474","img/0_270.png","70","image-keyboard-response","223","197945","0.0-6.0-1.108","FLSE","4","m","rechts","23","","","self","f","0","true"
"null","<div style=""font-size:60px;"">+</div>","null","html-keyboard-response","224","198451","0.0-6.0-0.109","FLSE","4","m","rechts","23","","fixation","","","",""
"614","img/90_330.png","70","image-keyboard-response","225","199071","0.0-6.0-1.109","FLSE","4","m","rechts","23","","","self","f","90","true"
"null","<div style=""font-size:60px;"">+</div>","null","html-keyboard-response","226","199532","0.0-6.0-0.110","FLSE","4","m","rechts","23","","fixation","","","",""
"913","img/30_180.png","74","image-keyboard-response","227","200455","0.0-6.0-1.110","FLSE","4","m","rechts","23","","","self","j","30","true"
"null","<div style=""font-size:60px;"">+</div>","null","html-keyboard-response","228","200906","0.0-6.0-0.111","FLSE","4","m","rechts","23","","fixation","","","",""
"762","img/60_270.png","70","image-keyboard-response","229","201672","0.0-6.0-1.111","FLSE","4","m","rechts","23","","","self","f","60","true"
"null","<div style=""font-size:60px;"">+</div>","null","html-keyboard-response","230","202204","0.0-6.0-0.112","FLSE","4","m","rechts","23","","fixation","","","",""
"577","img/L120_180.png","70","image-keyboard-response","231","202794","0.0-6.0-1.112","FLSE","4","m","rechts","23","","","self","f","120","true"
"null","<div style=""font-size:60px;"">+</div>","null","html-keyboard-response","232","203296","0.0-6.0-0.113","FLSE","4","m","rechts","23","","fixation","","","",""
"463","img/120_150.png","70","image-keyboard-response","233","203764","0.0-6.0-1.113","FLSE","4","m","rechts","23","","","self","f","120","true"
"null","<div style=""font-size:60px;"">+</div>","null","html-keyboard-response","234","204218","0.0-6.0-0.114","FLSE","4","m","rechts","23","","fixation","","","",""
"658","img/60_30.png","74","image-keyboard-response","235","204889","0.0-6.0-1.114","FLSE","4","m","rechts","23","","","self","j","60","true"
"null","<div style=""font-size:60px;"">+</div>","null","html-keyboard-response","236","205344","0.0-6.0-0.115","FLSE","4","m","rechts","23","","fixation","","","",""
"597","img/90_210.png","74","image-keyboard-response","237","205957","0.0-6.0-1.115","FLSE","4","m","rechts","23","","","self","j","90","true"
"null","<div style=""font-size:60px;"">+</div>","null","html-keyboard-response","238","206421","0.0-6.0-0.116","FLSE","4","m","rechts","23","","fixation","","","",""
"568","img/0_300.png","70","image-keyboard-response","239","206993","0.0-6.0-1.116","FLSE","4","m","rechts","23","","","self","f","0","true"
"null","<div style=""font-size:60px;"">+</div>","null","html-keyboard-response","240","207313","0.0-6.0-0.117","FLSE","4","m","rechts","23","","fixation","","","",""
"589","img/L60_180.png","70","image-keyboard-response","241","207915","0.0-6.0-1.117","FLSE","4","m","rechts","23","","","self","f","60","true"
"null","<div style=""font-size:60px;"">+</div>","null","html-keyboard-response","242","208421","0.0-6.0-0.118","FLSE","4","m","rechts","23","","fixation","","","",""
"649","img/90_240.png","74","image-keyboard-response","243","209074","0.0-6.0-1.118","FLSE","4","m","rechts","23","","","self","j","90","true"
"null","<div style=""font-size:60px;"">+</div>","null","html-keyboard-response","244","209534","0.0-6.0-0.119","FLSE","4","m","rechts","23","","fixation","","","",""
"720","img/150_90.png","70","image-keyboard-response","245","210269","0.0-6.0-1.119","FLSE","4","m","rechts","23","","","self","f","150","true"
"null","<div style=""font-size:60px;"">+</div>","null","html-keyboard-response","246","210595","0.0-6.0-0.120","FLSE","4","m","rechts","23","","fixation","","","",""
"739","img/30_90.png","74","image-keyboard-response","247","211347","0.0-6.0-1.120","FLSE","4","m","rechts","23","","","self","j","30","true"
"null","<div style=""font-size:60px;"">+</div>","null","html-keyboard-response","248","211767","0.0-6.0-0.121","FLSE","4","m","rechts","23","","fixation","","","",""
"488","img/0_30.png","74","image-keyboard-response","249","212269","0.0-6.0-1.121","FLSE","4","m","rechts","23","","","self","j","0","true"
"null","<div style=""font-size:60px;"">+</div>","null","html-keyboard-response","250","212720","0.0-6.0-0.122","FLSE","4","m","rechts","23","","fixation","","","",""
"571","img/150_120.png","70","image-keyboard-response","251","213304","0.0-6.0-1.122","FLSE","4","m","rechts","23","","","self","f","150","true"
"null","<div style=""font-size:60px;"">+</div>","null","html-keyboard-response","252","213814","0.0-6.0-0.123","FLSE","4","m","rechts","23","","fixation","","","",""
"715","img/60_90.png","74","image-keyboard-response","253","214542","0.0-6.0-1.123","FLSE","4","m","rechts","23","","","self","j","60","true"
"null","<div style=""font-size:60px;"">+</div>","null","html-keyboard-response","254","215009","0.0-6.0-0.124","FLSE","4","m","rechts","23","","fixation","","","",""
"485","img/120_330.png","74","image-keyboard-response","255","215507","0.0-6.0-1.124","FLSE","4","m","rechts","23","","","self","f","120","false"
"null","<div style=""font-size:60px;"">+</div>","null","html-keyboard-response","256","216039","0.0-6.0-0.125","FLSE","4","m","rechts","23","","fixation","","","",""
"819","img/120_90.png","70","image-keyboard-response","257","216871","0.0-6.0-1.125","FLSE","4","m","rechts","23","","","self","f","120","true"
"null","<div style=""font-size:60px;"">+</div>","null","html-keyboard-response","258","217195","0.0-6.0-0.126","FLSE","4","m","rechts","23","","fixation","","","",""
"1556","img/150_60.png","74","image-keyboard-response","259","218761","0.0-6.0-1.126","FLSE","4","m","rechts","23","","","self","f","150","false"
"null","<div style=""font-size:60px;"">+</div>","null","html-keyboard-response","260","219290","0.0-6.0-0.127","FLSE","4","m","rechts","23","","fixation","","","",""
"786","img/30_240.png","70","image-keyboard-response","261","220088","0.0-6.0-1.127","FLSE","4","m","rechts","23","","","self","f","30","true"
"null","<div style=""font-size:60px;"">+</div>","null","html-keyboard-response","262","220508","0.0-6.0-0.128","FLSE","4","m","rechts","23","","fixation","","","",""
"669","img/90_30.png","74","image-keyboard-response","263","221191","0.0-6.0-1.128","FLSE","4","m","rechts","23","","","self","j","90","true"
"null","<div style=""font-size:60px;"">+</div>","null","html-keyboard-response","264","221696","0.0-6.0-0.129","FLSE","4","m","rechts","23","","fixation","","","",""
"531","img/0_240.png","70","image-keyboard-response","265","222238","0.0-6.0-1.129","FLSE","4","m","rechts","23","","","self","f","0","true"
"null","<div style=""font-size:60px;"">+</div>","null","html-keyboard-response","266","222741","0.0-6.0-0.130","FLSE","4","m","rechts","23","","fixation","","","",""
"506","img/120_180.png","74","image-keyboard-response","267","223261","0.0-6.0-1.130","FLSE","4","m","rechts","23","","","self","j","120","true"
"null","<div style=""font-size:60px;"">+</div>","null","html-keyboard-response","268","223710","0.0-6.0-0.131","FLSE","4","m","rechts","23","","fixation","","","",""
"650","img/90_150.png","70","image-keyboard-response","269","224374","0.0-6.0-1.131","FLSE","4","m","rechts","23","","","self","f","90","true"
"null","<div style=""font-size:60px;"">+</div>","null","html-keyboard-response","270","224883","0.0-6.0-0.132","FLSE","4","m","rechts","23","","fixation","","","",""
"625","img/60_210.png","74","image-keyboard-response","271","225521","0.0-6.0-1.132","FLSE","4","m","rechts","23","","","self","j","60","true"
"null","<div style=""font-size:60px;"">+</div>","null","html-keyboard-response","272","225928","0.0-6.0-0.133","FLSE","4","m","rechts","23","","fixation","","","",""
"477","img/0_90.png","74","image-keyboard-response","273","226420","0.0-6.0-1.133","FLSE","4","m","rechts","23","","","self","j","0","true"
"null","<div style=""font-size:60px;"">+</div>","null","html-keyboard-response","274","226835","0.0-6.0-0.134","FLSE","4","m","rechts","23","","fixation","","","",""
"494","img/0_60.png","74","image-keyboard-response","275","227344","0.0-6.0-1.134","FLSE","4","m","rechts","23","","","self","j","0","true"
"null","<div style=""font-size:60px;"">+</div>","null","html-keyboard-response","276","227710","0.0-6.0-0.135","FLSE","4","m","rechts","23","","fixation","","","",""
"510","img/60_180.png","74","image-keyboard-response","277","228234","0.0-6.0-1.135","FLSE","4","m","rechts","23","","","self","j","60","true"
"null","<div style=""font-size:60px;"">+</div>","null","html-keyboard-response","278","228758","0.0-6.0-0.136","FLSE","4","m","rechts","23","","fixation","","","",""
"768","img/60_150.png","70","image-keyboard-response","279","229538","0.0-6.0-1.136","FLSE","4","m","rechts","23","","","self","f","60","true"
"null","<div style=""font-size:60px;"">+</div>","null","html-keyboard-response","280","229993","0.0-6.0-0.137","FLSE","4","m","rechts","23","","fixation","","","",""
"510","img/L150_180.png","70","image-keyboard-response","281","230516","0.0-6.0-1.137","FLSE","4","m","rechts","23","","","self","f","150","true"
"null","<div style=""font-size:60px;"">+</div>","null","html-keyboard-response","282","230979","0.0-6.0-0.138","FLSE","4","m","rechts","23","","fixation","","","",""
"640","img/90_120.png","70","image-keyboard-response","283","231631","0.0-6.0-1.138","FLSE","4","m","rechts","23","","","self","f","90","true"
"null","<div style=""font-size:60px;"">+</div>","null","html-keyboard-response","284","232087","0.0-6.0-0.139","FLSE","4","m","rechts","23","","fixation","","","",""
"723","img/90_60.png","74","image-keyboard-response","285","232824","0.0-6.0-1.139","FLSE","4","m","rechts","23","","","self","j","90","true"
"null","<div style=""font-size:60px;"">+</div>","null","html-keyboard-response","286","233148","0.0-6.0-0.140","FLSE","4","m","rechts","23","","fixation","","","",""
"562","img/30_60.png","74","image-keyboard-response","287","233724","0.0-6.0-1.140","FLSE","4","m","rechts","23","","","self","j","30","true"
"null","<div style=""font-size:60px;"">+</div>","null","html-keyboard-response","288","234104","0.0-6.0-0.141","FLSE","4","m","rechts","23","","fixation","","","",""
"675","img/120_30.png","74","image-keyboard-response","289","234793","0.0-6.0-1.141","FLSE","4","m","rechts","23","","","self","j","120","true"
"null","<div style=""font-size:60px;"">+</div>","null","html-keyboard-response","290","235304","0.0-6.0-0.142","FLSE","4","m","rechts","23","","fixation","","","",""
"577","img/120_270.png","74","image-keyboard-response","291","235896","0.0-6.0-1.142","FLSE","4","m","rechts","23","","","self","j","120","true"
"null","<div style=""font-size:60px;"">+</div>","null","html-keyboard-response","292","236321","0.0-6.0-0.143","FLSE","4","m","rechts","23","","fixation","","","",""
"853","img/30_300.png","70","image-keyboard-response","293","237188","0.0-6.0-1.143","FLSE","4","m","rechts","23","","","self","f","30","true"
"null","<div style=""font-size:60px;"">+</div>","null","html-keyboard-response","294","237572","0.0-6.0-0.144","FLSE","4","m","rechts","23","","fixation","","","",""
"550","img/150_240.png","74","image-keyboard-response","295","238135","0.0-6.0-1.144","FLSE","4","m","rechts","23","","","self","j","150","true"
"null","<div style=""font-size:60px;"">+</div>","null","html-keyboard-response","296","238586","0.0-6.0-0.145","FLSE","4","m","rechts","23","","fixation","","","",""
"601","img/60_330.png","70","image-keyboard-response","297","239201","0.0-6.0-1.145","FLSE","4","m","rechts","23","","","self","f","60","true"
"null","<div style=""font-size:60px;"">+</div>","null","html-keyboard-response","298","239668","0.0-6.0-0.146","FLSE","4","m","rechts","23","","fixation","","","",""
"524","img/L90_180.png","70","image-keyboard-response","299","240204","0.0-6.0-1.146","FLSE","4","m","rechts","23","","","self","f","90","true"
"null","<div style=""font-size:60px;"">+</div>","null","html-keyboard-response","300","240636","0.0-6.0-0.147","FLSE","4","m","rechts","23","","fixation","","","",""
"489","img/90_180.png","70","image-keyboard-response","301","241138","0.0-6.0-1.147","FLSE","4","m","rechts","23","","","self","j","90","false"
"null","<div style=""font-size:60px;"">+</div>","null","html-keyboard-response","302","241651","0.0-6.0-0.148","FLSE","4","m","rechts","23","","fixation","","","",""
"767","img/90_300.png","70","image-keyboard-response","303","242430","0.0-6.0-1.148","FLSE","4","m","rechts","23","","","self","f","90","true"
"null","<div style=""font-size:60px;"">+</div>","null","html-keyboard-response","304","242839","0.0-6.0-0.149","FLSE","4","m","rechts","23","","fixation","","","",""
"544","img/120_210.png","74","image-keyboard-response","305","243396","0.0-6.0-1.149","FLSE","4","m","rechts","23","","","self","j","120","true"
"null","<div style=""font-size:60px;"">+</div>","null","html-keyboard-response","306","243761","0.0-6.0-0.150","FLSE","4","m","rechts","23","","fixation","","","",""
"875","img/150_300.png","74","image-keyboard-response","307","244649","0.0-6.0-1.150","FLSE","4","m","rechts","23","","","self","j","150","true"
"null","<div style=""font-size:60px;"">+</div>","null","html-keyboard-response","308","245057","0.0-6.0-0.151","FLSE","4","m","rechts","23","","fixation","","","",""
"836","img/30_270.png","70","image-keyboard-response","309","245906","0.0-6.0-1.151","FLSE","4","m","rechts","23","","","self","f","30","true"
"null","<div style=""font-size:60px;"">+</div>","null","html-keyboard-response","310","246261","0.0-6.0-0.152","FLSE","4","m","rechts","23","","fixation","","","",""
"602","img/150_270.png","74","image-keyboard-response","311","246876","0.0-6.0-1.152","FLSE","4","m","rechts","23","","","self","j","150","true"
"null","<div style=""font-size:60px;"">+</div>","null","html-keyboard-response","312","247291","0.0-6.0-0.153","FLSE","4","m","rechts","23","","fixation","","","",""
"708","img/30_120.png","70","image-keyboard-response","313","248012","0.0-6.0-1.153","FLSE","4","m","rechts","23","","","self","j","30","false"
"null","<div style=""font-size:60px;"">+</div>","null","html-keyboard-response","314","248369","0.0-6.0-0.154","FLSE","4","m","rechts","23","","fixation","","","",""
"830","img/0_210.png","70","image-keyboard-response","315","249213","0.0-6.0-1.154","FLSE","4","m","rechts","23","","","self","f","0","true"
"null","<div style=""font-size:60px;"">+</div>","null","html-keyboard-response","316","249668","0.0-6.0-0.155","FLSE","4","m","rechts","23","","fixation","","","",""
"520","img/150_180.png","74","image-keyboard-response","317","250203","0.0-6.0-1.155","FLSE","4","m","rechts","23","","","self","j","150","true"
"null","<div style=""font-size:60px;"">+</div>","null","html-keyboard-response","318","250735","0.0-6.0-0.156","FLSE","4","m","rechts","23","","fixation","","","",""
"563","img/30_240.png","70","image-keyboard-response","319","251308","0.0-6.0-1.156","FLSE","4","m","rechts","23","","","self","f","30","true"
"null","<div style=""font-size:60px;"">+</div>","null","html-keyboard-response","320","251672","0.0-6.0-0.157","FLSE","4","m","rechts","23","","fixation","","","",""
"840","img/90_60.png","74","image-keyboard-response","321","252523","0.0-6.0-1.157","FLSE","4","m","rechts","23","","","self","j","90","true"
"null","<div style=""font-size:60px;"">+</div>","null","html-keyboard-response","322","253031","0.0-6.0-0.158","FLSE","4","m","rechts","23","","fixation","","","",""
"637","img/L120_180.png","70","image-keyboard-response","323","253681","0.0-6.0-1.158","FLSE","4","m","rechts","23","","","self","f","120","true"
"null","<div style=""font-size:60px;"">+</div>","null","html-keyboard-response","324","254090","0.0-6.0-0.159","FLSE","4","m","rechts","23","","fixation","","","",""
"781","img/150_90.png","70","image-keyboard-response","325","254884","0.0-6.0-1.159","FLSE","4","m","rechts","23","","","self","f","150","true"
"null","<div style=""font-size:60px;"">+</div>","null","html-keyboard-response","326","255247","0.0-6.0-0.160","FLSE","4","m","rechts","23","","fixation","","","",""
"864","img/60_90.png","74","image-keyboard-response","327","256123","0.0-6.0-1.160","FLSE","4","m","rechts","23","","","self","j","60","true"
"null","<div style=""font-size:60px;"">+</div>","null","html-keyboard-response","328","256543","0.0-6.0-0.161","FLSE","4","m","rechts","23","","fixation","","","",""
"757","img/L30_180.png","70","image-keyboard-response","329","257313","0.0-6.0-1.161","FLSE","4","m","rechts","23","","","self","f","30","true"
"null","<div style=""font-size:60px;"">+</div>","null","html-keyboard-response","330","257668","0.0-6.0-0.162","FLSE","4","m","rechts","23","","fixation","","","",""
"534","img/0_240.png","70","image-keyboard-response","331","258213","0.0-6.0-1.162","FLSE","4","m","rechts","23","","","self","f","0","true"
"null","<div style=""font-size:60px;"">+</div>","null","html-keyboard-response","332","258668","0.0-6.0-0.163","FLSE","4","m","rechts","23","","fixation","","","",""
"758","img/90_30.png","74","image-keyboard-response","333","259441","0.0-6.0-1.163","FLSE","4","m","rechts","23","","","self","j","90","true"
"null","<div style=""font-size:60px;"">+</div>","null","html-keyboard-response","334","259949","0.0-6.0-0.164","FLSE","4","m","rechts","23","","fixation","","","",""
"800","img/30_120.png","74","image-keyboard-response","335","260758","0.0-6.0-1.164","FLSE","4","m","rechts","23","","","self","j","30","true"
"null","<div style=""font-size:60px;"">+</div>","null","html-keyboard-response","336","261075","0.0-6.0-0.165","FLSE","4","m","rechts","23","","fixation","","","",""
"1031","img/30_180.png","74","image-keyboard-response","337","262118","0.0-6.0-1.165","FLSE","4","m","rechts","23","","","self","j","30","true"
"null","<div style=""font-size:60px;"">+</div>","null","html-keyboard-response","338","262480","0.0-6.0-0.166","FLSE","4","m","rechts","23","","fixation","","","",""
"646","img/0_30.png","74","image-keyboard-response","339","263132","0.0-6.0-1.166","FLSE","4","m","rechts","23","","","self","j","0","true"
"null","<div style=""font-size:60px;"">+</div>","null","html-keyboard-response","340","263447","0.0-6.0-0.167","FLSE","4","m","rechts","23","","fixation","","","",""
"512","img/150_180.png","74","image-keyboard-response","341","263963","0.0-6.0-1.167","FLSE","4","m","rechts","23","","","self","j","150","true"
"null","<div style=""font-size:60px;"">+</div>","null","html-keyboard-response","342","264373","0.0-6.0-0.168","FLSE","4","m","rechts","23","","fixation","","","",""
"489","img/150_240.png","74","image-keyboard-response","343","264875","0.0-6.0-1.168","FLSE","4","m","rechts","23","","","self","j","150","true"
"null","<div style=""font-size:60px;"">+</div>","null","html-keyboard-response","344","265247","0.0-6.0-0.169","FLSE","4","m","rechts","23","","fixation","","","",""
"484","img/0_90.png","74","image-keyboard-response","345","265741","0.0-6.0-1.169","FLSE","4","m","rechts","23","","","self","j","0","true"
"null","<div style=""font-size:60px;"">+</div>","null","html-keyboard-response","346","266044","0.0-6.0-0.170","FLSE","4","m","rechts","23","","fixation","","","",""
"505","img/120_180.png","74","image-keyboard-response","347","266563","0.0-6.0-1.170","FLSE","4","m","rechts","23","","","self","j","120","true"
"null","<div style=""font-size:60px;"">+</div>","null","html-keyboard-response","348","266983","0.0-6.0-0.171","FLSE","4","m","rechts","23","","fixation","","","",""
"775","img/30_60.png","74","image-keyboard-response","349","267767","0.0-6.0-1.171","FLSE","4","m","rechts","23","","","self","j","30","true"
"null","<div style=""font-size:60px;"">+</div>","null","html-keyboard-response","350","268233","0.0-6.0-0.172","FLSE","4","m","rechts","23","","fixation","","","",""
"535","img/90_180.png","74","image-keyboard-response","351","268779","0.0-6.0-1.172","FLSE","4","m","rechts","23","","","self","j","90","true"
"null","<div style=""font-size:60px;"">+</div>","null","html-keyboard-response","352","269091","0.0-6.0-0.173","FLSE","4","m","rechts","23","","fixation","","","",""
"629","img/150_120.png","70","image-keyboard-response","353","269733","0.0-6.0-1.173","FLSE","4","m","rechts","23","","","self","f","150","true"
"null","<div style=""font-size:60px;"">+</div>","null","html-keyboard-response","354","270091","0.0-6.0-0.174","FLSE","4","m","rechts","23","","fixation","","","",""
"744","img/150_60.png","70","image-keyboard-response","355","270849","0.0-6.0-1.174","FLSE","4","m","rechts","23","","","self","f","150","true"
"null","<div style=""font-size:60px;"">+</div>","null","html-keyboard-response","356","271309","0.0-6.0-0.175","FLSE","4","m","rechts","23","","fixation","","","",""
"640","img/90_210.png","74","image-keyboard-response","357","271962","0.0-6.0-1.175","FLSE","4","m","rechts","23","","","self","j","90","true"
"null","<div style=""font-size:60px;"">+</div>","null","html-keyboard-response","358","272373","0.0-6.0-0.176","FLSE","4","m","rechts","23","","fixation","","","",""
"601","img/60_210.png","74","image-keyboard-response","359","272988","0.0-6.0-1.176","FLSE","4","m","rechts","23","","","self","j","60","true"
"null","<div style=""font-size:60px;"">+</div>","null","html-keyboard-response","360","273497","0.0-6.0-0.177","FLSE","4","m","rechts","23","","fixation","","","",""
"555","img/120_210.png","74","image-keyboard-response","361","274054","0.0-6.0-1.177","FLSE","4","m","rechts","23","","","self","j","120","true"
"null","<div style=""font-size:60px;"">+</div>","null","html-keyboard-response","362","274468","0.0-6.0-0.178","FLSE","4","m","rechts","23","","fixation","","","",""
"697","img/120_90.png","70","image-keyboard-response","363","275170","0.0-6.0-1.178","FLSE","4","m","rechts","23","","","self","f","120","true"
"null","<div style=""font-size:60px;"">+</div>","null","html-keyboard-response","364","275702","0.0-6.0-0.179","FLSE","4","m","rechts","23","","fixation","","","",""
"746","img/0_210.png","70","image-keyboard-response","365","276461","0.0-6.0-1.179","FLSE","4","m","rechts","23","","","self","f","0","true"
"null","<div style=""font-size:60px;"">+</div>","null","html-keyboard-response","366","276936","0.0-6.0-0.180","FLSE","4","m","rechts","23","","fixation","","","",""
"490","img/60_150.png","70","image-keyboard-response","367","277439","0.0-6.0-1.180","FLSE","4","m","rechts","23","","","self","f","60","true"
"null","<div style=""font-size:60px;"">+</div>","null","html-keyboard-response","368","277858","0.0-6.0-0.181","FLSE","4","m","rechts","23","","fixation","","","",""
"568","img/0_120.png","74","image-keyboard-response","369","278441","0.0-6.0-1.181","FLSE","4","m","rechts","23","","","self","j","0","true"
"null","<div style=""font-size:60px;"">+</div>","null","html-keyboard-response","370","278906","0.0-6.0-0.182","FLSE","4","m","rechts","23","","fixation","","","",""
"473","img/0_60.png","74","image-keyboard-response","371","279391","0.0-6.0-1.182","FLSE","4","m","rechts","23","","","self","j","0","true"
"null","<div style=""font-size:60px;"">+</div>","null","html-keyboard-response","372","279718","0.0-6.0-0.183","FLSE","4","m","rechts","23","","fixation","","","",""
"583","img/120_270.png","74","image-keyboard-response","373","280311","0.0-6.0-1.183","FLSE","4","m","rechts","23","","","self","j","120","true"
"null","<div style=""font-size:60px;"">+</div>","null","html-keyboard-response","374","280780","0.0-6.0-0.184","FLSE","4","m","rechts","23","","fixation","","","",""
"528","img/L150_180.png","70","image-keyboard-response","375","281312","0.0-6.0-1.184","FLSE","4","m","rechts","23","","","self","f","150","true"
"null","<div style=""font-size:60px;"">+</div>","null","html-keyboard-response","376","281780","0.0-6.0-0.185","FLSE","4","m","rechts","23","","fixation","","","",""
"603","img/60_330.png","70","image-keyboard-response","377","282394","0.0-6.0-1.185","FLSE","4","m","rechts","23","","","self","f","60","true"
"null","<div style=""font-size:60px;"">+</div>","null","html-keyboard-response","378","282764","0.0-6.0-0.186","FLSE","4","m","rechts","23","","fixation","","","",""
"581","img/90_300.png","70","image-keyboard-response","379","283356","0.0-6.0-1.186","FLSE","4","m","rechts","23","","","self","f","90","true"
"null","<div style=""font-size:60px;"">+</div>","null","html-keyboard-response","380","283672","0.0-6.0-0.187","FLSE","4","m","rechts","23","","fixation","","","",""
"819","img/30_90.png","74","image-keyboard-response","381","284504","0.0-6.0-1.187","FLSE","4","m","rechts","23","","","self","j","30","true"
"null","<div style=""font-size:60px;"">+</div>","null","html-keyboard-response","382","284906","0.0-6.0-0.188","FLSE","4","m","rechts","23","","fixation","","","",""
"996","img/120_30.png","70","image-keyboard-response","383","285913","0.0-6.0-1.188","FLSE","4","m","rechts","23","","","self","j","120","false"
"null","<div style=""font-size:60px;"">+</div>","null","html-keyboard-response","384","286374","0.0-6.0-0.189","FLSE","4","m","rechts","23","","fixation","","","",""
"1183","img/120_150.png","70","image-keyboard-response","385","287566","0.0-6.0-1.189","FLSE","4","m","rechts","23","","","self","f","120","true"
"null","<div style=""font-size:60px;"">+</div>","null","html-keyboard-response","386","288096","0.0-6.0-0.190","FLSE","4","m","rechts","23","","fixation","","","",""
"625","img/0_150.png","74","image-keyboard-response","387","288737","0.0-6.0-1.190","FLSE","4","m","rechts","23","","","self","j","0","true"
"null","<div style=""font-size:60px;"">+</div>","null","html-keyboard-response","388","289251","0.0-6.0-0.191","FLSE","4","m","rechts","23","","fixation","","","",""
"653","img/0_270.png","70","image-keyboard-response","389","289918","0.0-6.0-1.191","FLSE","4","m","rechts","23","","","self","f","0","true"
"null","<div style=""font-size:60px;"">+</div>","null","html-keyboard-response","390","290299","0.0-6.0-0.192","FLSE","4","m","rechts","23","","fixation","","","",""
"459","img/0_300.png","70","image-keyboard-response","391","290772","0.0-6.0-1.192","FLSE","4","m","rechts","23","","","self","f","0","true"
"null","<div style=""font-size:60px;"">+</div>","null","html-keyboard-response","392","291252","0.0-6.0-0.193","FLSE","4","m","rechts","23","","fixation","","","",""
"497","img/90_240.png","74","image-keyboard-response","393","291763","0.0-6.0-1.193","FLSE","4","m","rechts","23","","","self","j","90","true"
"null","<div style=""font-size:60px;"">+</div>","null","html-keyboard-response","394","292221","0.0-6.0-0.194","FLSE","4","m","rechts","23","","fixation","","","",""
"564","img/90_120.png","70","image-keyboard-response","395","292798","0.0-6.0-1.194","FLSE","4","m","rechts","23","","","self","f","90","true"
"null","<div style=""font-size:60px;"">+</div>","null","html-keyboard-response","396","293329","0.0-6.0-0.195","FLSE","4","m","rechts","23","","fixation","","","",""
"670","img/90_330.png","70","image-keyboard-response","397","294013","0.0-6.0-1.195","FLSE","4","m","rechts","23","","","self","f","90","true"
"null","<div style=""font-size:60px;"">+</div>","null","html-keyboard-response","398","294534","0.0-6.0-0.196","FLSE","4","m","rechts","23","","fixation","","","",""
"465","img/0_330.png","70","image-keyboard-response","399","295014","0.0-6.0-1.196","FLSE","4","m","rechts","23","","","self","f","0","true"
"null","<div style=""font-size:60px;"">+</div>","null","html-keyboard-response","400","295330","0.0-6.0-0.197","FLSE","4","m","rechts","23","","fixation","","","",""
"514","img/30_270.png","70","image-keyboard-response","401","295858","0.0-6.0-1.197","FLSE","4","m","rechts","23","","","self","f","30","true"
"null","<div style=""font-size:60px;"">+</div>","null","html-keyboard-response","402","296238","0.0-6.0-0.198","FLSE","4","m","rechts","23","","fixation","","","",""
"485","img/30_300.png","70","image-keyboard-response","403","296736","0.0-6.0-1.198","FLSE","4","m","rechts","23","","","self","f","30","true"
"null","<div style=""font-size:60px;"">+</div>","null","html-keyboard-response","404","297207","0.0-6.0-0.199","FLSE","4","m","rechts","23","","fixation","","","",""
"855","img/120_330.png","70","image-keyboard-response","405","298075","0.0-6.0-1.199","FLSE","4","m","rechts","23","","","self","f","120","true"
"null","<div style=""font-size:60px;"">+</div>","null","html-keyboard-response","406","298534","0.0-6.0-0.200","FLSE","4","m","rechts","23","","fixation","","","",""
"483","img/L90_180.png","70","image-keyboard-response","407","299031","0.0-6.0-1.200","FLSE","4","m","rechts","23","","","self","f","90","true"
"null","<div style=""font-size:60px;"">+</div>","null","html-keyboard-response","408","299394","0.0-6.0-0.201","FLSE","4","m","rechts","23","","fixation","","","",""
"859","img/60_30.png","74","image-keyboard-response","409","300269","0.0-6.0-1.201","FLSE","4","m","rechts","23","","","self","j","60","true"
"null","<div style=""font-size:60px;"">+</div>","null","html-keyboard-response","410","300737","0.0-6.0-0.202","FLSE","4","m","rechts","23","","fixation","","","",""
"563","img/60_180.png","74","image-keyboard-response","411","301315","0.0-6.0-1.202","FLSE","4","m","rechts","23","","","self","j","60","true"
"null","<div style=""font-size:60px;"">+</div>","null","html-keyboard-response","412","301628","0.0-6.0-0.203","FLSE","4","m","rechts","23","","fixation","","","",""
"629","img/90_150.png","70","image-keyboard-response","413","302273","0.0-6.0-1.203","FLSE","4","m","rechts","23","","","self","f","90","true"
"null","<div style=""font-size:60px;"">+</div>","null","html-keyboard-response","414","302673","0.0-6.0-0.204","FLSE","4","m","rechts","23","","fixation","","","",""
"559","img/60_270.png","70","image-keyboard-response","415","303248","0.0-6.0-1.204","FLSE","4","m","rechts","23","","","self","f","60","true"
"null","<div style=""font-size:60px;"">+</div>","null","html-keyboard-response","416","303659","0.0-6.0-0.205","FLSE","4","m","rechts","23","","fixation","","","",""
"835","img/150_270.png","74","image-keyboard-response","417","304508","0.0-6.0-1.205","FLSE","4","m","rechts","23","","","self","j","150","true"
"null","<div style=""font-size:60px;"">+</div>","null","html-keyboard-response","418","304832","0.0-6.0-0.206","FLSE","4","m","rechts","23","","fixation","","","",""
"563","img/L60_180.png","70","image-keyboard-response","419","305408","0.0-6.0-1.206","FLSE","4","m","rechts","23","","","self","f","60","true"
"null","<div style=""font-size:60px;"">+</div>","null","html-keyboard-response","420","305941","0.0-6.0-0.207","FLSE","4","m","rechts","23","","fixation","","","",""
"578","img/150_300.png","70","image-keyboard-response","421","306534","0.0-6.0-1.207","FLSE","4","m","rechts","23","","","self","j","150","false"
"13780","<p>Du hast in 93% der Versuche korrekt entschieden.</p><p>Deine durchschnittliche Reaktionszeit war  641ms.</p><p>Dr&uuml;cke eine beliebige Taste, um die Session zu beenden. Vielen Dank!</p>","32","html-keyboard-response","422","320321","0.0-7.0","FLSE","4","m","rechts","23","","","","","",""
