"rt","stimulus","key_press","trial_type","trial_index","time_elapsed","internal_node_id","subject","session","sex","handedness","age","responses","test_part","condition","correct_response","angle","correct"
"904","<p>Mental Rotation Experiment.</p> <p>Dr&uuml;cke eine beliebige Taste, um anzufangen.</p>","13","html-keyboard-response","0","926","0.0-0.0","FLSE","3","m","rechts","23","","","","","",""
"11225","","","survey-text","1","12151","0.0-1.0","FLSE","3","m","rechts","23","{""Q0"":""FLSE""}","","","","",""
"2448","","","survey-text","2","14601","0.0-2.0","FLSE","3","m","rechts","23","{""Q0"":""3""}","","","","",""
"22578","","","survey-multi-choice","3","37184","0.0-3.0","FLSE","3","m","rechts","23","{""Q0"":""m"",""Q1"":""rechts""}","","","","",""
"8128","","","survey-text","4","45313","0.0-4.0","FLSE","3","m","rechts","23","{""Q0"":""23""}","","","","",""
"32083","<p> Stell dir vor, dass du vor einem runden Tisch stehst, auf dem sich ein blauer Ball am Tischrand befindet. Entlang des Tischrands ist jeweils ein verschieden langer Pfeil. Nun bewegst du dich entlang dieses Pfeils bis an seine Spitze. Wenn du am Ende des Pfeils angekommen bist, schau zur Tischmitte. </p> <img src='img/90_180.png'></img> <br> <p>Entscheide dann, ob der Ball von deiner neuen (vorgestellten) Position links oder rechts von dir liegt.</p> <p>Dr&uuml;cke die <strong>'f'</strong>-Taste f&uuml;r links, die <strong>'j'</strong>-Taste f&uuml;r rechts.</p> <br><p> Das Bild wird jeweils 1 Sekunde lang pr&auml;sentiert. Du hast 3 Sekunden Zeit eine Entscheidung zu treffen.</p>","74","html-keyboard-response","5","77405","0.0-5.0","FLSE","3","m","rechts","23","","","","","",""
"null","<div style=""font-size:60px;"">+</div>","null","html-keyboard-response","6","78729","0.0-6.0-0.0","FLSE","3","m","rechts","23","","fixation","","","",""
"599","img/0_60.png","74","image-keyboard-response","7","79348","0.0-6.0-1.0","FLSE","3","m","rechts","23","","","self","j","0","true"
"null","<div style=""font-size:60px;"">+</div>","null","html-keyboard-response","8","79853","0.0-6.0-0.1","FLSE","3","m","rechts","23","","fixation","","","",""
"580","img/0_30.png","74","image-keyboard-response","9","80451","0.0-6.0-1.1","FLSE","3","m","rechts","23","","","self","j","0","true"
"null","<div style=""font-size:60px;"">+</div>","null","html-keyboard-response","10","80765","0.0-6.0-0.2","FLSE","3","m","rechts","23","","fixation","","","",""
"689","img/30_120.png","70","image-keyboard-response","11","81474","0.0-6.0-1.2","FLSE","3","m","rechts","23","","","self","j","30","false"
"null","<div style=""font-size:60px;"">+</div>","null","html-keyboard-response","12","81985","0.0-6.0-0.3","FLSE","3","m","rechts","23","","fixation","","","",""
"629","img/30_300.png","70","image-keyboard-response","13","82632","0.0-6.0-1.3","FLSE","3","m","rechts","23","","","self","f","30","true"
"null","<div style=""font-size:60px;"">+</div>","null","html-keyboard-response","14","82985","0.0-6.0-0.4","FLSE","3","m","rechts","23","","fixation","","","",""
"677","img/150_90.png","70","image-keyboard-response","15","83679","0.0-6.0-1.4","FLSE","3","m","rechts","23","","","self","f","150","true"
"null","<div style=""font-size:60px;"">+</div>","null","html-keyboard-response","16","84203","0.0-6.0-0.5","FLSE","3","m","rechts","23","","fixation","","","",""
"527","img/90_210.png","74","image-keyboard-response","17","84748","0.0-6.0-1.5","FLSE","3","m","rechts","23","","","self","j","90","true"
"null","<div style=""font-size:60px;"">+</div>","null","html-keyboard-response","18","85265","0.0-6.0-0.6","FLSE","3","m","rechts","23","","fixation","","","",""
"488","img/60_270.png","70","image-keyboard-response","19","85760","0.0-6.0-1.6","FLSE","3","m","rechts","23","","","self","f","60","true"
"null","<div style=""font-size:60px;"">+</div>","null","html-keyboard-response","20","86265","0.0-6.0-0.7","FLSE","3","m","rechts","23","","fixation","","","",""
"467","img/0_270.png","70","image-keyboard-response","21","86739","0.0-6.0-1.7","FLSE","3","m","rechts","23","","","self","f","0","true"
"null","<div style=""font-size:60px;"">+</div>","null","html-keyboard-response","22","87265","0.0-6.0-0.8","FLSE","3","m","rechts","23","","fixation","","","",""
"580","img/L30_180.png","70","image-keyboard-response","23","87853","0.0-6.0-1.8","FLSE","3","m","rechts","23","","","self","f","30","true"
"null","<div style=""font-size:60px;"">+</div>","null","html-keyboard-response","24","88218","0.0-6.0-0.9","FLSE","3","m","rechts","23","","fixation","","","",""
"555","img/60_180.png","74","image-keyboard-response","25","88787","0.0-6.0-1.9","FLSE","3","m","rechts","23","","","self","j","60","true"
"null","<div style=""font-size:60px;"">+</div>","null","html-keyboard-response","26","89203","0.0-6.0-0.10","FLSE","3","m","rechts","23","","fixation","","","",""
"530","img/60_210.png","74","image-keyboard-response","27","89755","0.0-6.0-1.10","FLSE","3","m","rechts","23","","","self","j","60","true"
"null","<div style=""font-size:60px;"">+</div>","null","html-keyboard-response","28","90112","0.0-6.0-0.11","FLSE","3","m","rechts","23","","fixation","","","",""
"849","img/30_90.png","74","image-keyboard-response","29","90981","0.0-6.0-1.11","FLSE","3","m","rechts","23","","","self","j","30","true"
"null","<div style=""font-size:60px;"">+</div>","null","html-keyboard-response","30","91502","0.0-6.0-0.12","FLSE","3","m","rechts","23","","fixation","","","",""
"741","img/30_270.png","70","image-keyboard-response","31","92262","0.0-6.0-1.12","FLSE","3","m","rechts","23","","","self","f","30","true"
"null","<div style=""font-size:60px;"">+</div>","null","html-keyboard-response","32","92784","0.0-6.0-0.13","FLSE","3","m","rechts","23","","fixation","","","",""
"551","img/0_210.png","70","image-keyboard-response","33","93353","0.0-6.0-1.13","FLSE","3","m","rechts","23","","","self","f","0","true"
"null","<div style=""font-size:60px;"">+</div>","null","html-keyboard-response","34","93815","0.0-6.0-0.14","FLSE","3","m","rechts","23","","fixation","","","",""
"597","img/150_120.png","70","image-keyboard-response","35","94434","0.0-6.0-1.14","FLSE","3","m","rechts","23","","","self","f","150","true"
"null","<div style=""font-size:60px;"">+</div>","null","html-keyboard-response","36","94800","0.0-6.0-0.15","FLSE","3","m","rechts","23","","fixation","","","",""
"661","img/150_60.png","70","image-keyboard-response","37","95480","0.0-6.0-1.15","FLSE","3","m","rechts","23","","","self","f","150","true"
"null","<div style=""font-size:60px;"">+</div>","null","html-keyboard-response","38","95988","0.0-6.0-0.16","FLSE","3","m","rechts","23","","fixation","","","",""
"808","img/120_270.png","74","image-keyboard-response","39","96820","0.0-6.0-1.16","FLSE","3","m","rechts","23","","","self","j","120","true"
"null","<div style=""font-size:60px;"">+</div>","null","html-keyboard-response","40","97143","0.0-6.0-0.17","FLSE","3","m","rechts","23","","fixation","","","",""
"672","img/30_180.png","74","image-keyboard-response","41","97832","0.0-6.0-1.17","FLSE","3","m","rechts","23","","","self","j","30","true"
"null","<div style=""font-size:60px;"">+</div>","null","html-keyboard-response","42","98206","0.0-6.0-0.18","FLSE","3","m","rechts","23","","fixation","","","",""
"512","img/L150_180.png","70","image-keyboard-response","43","98743","0.0-6.0-1.18","FLSE","3","m","rechts","23","","","self","f","150","true"
"null","<div style=""font-size:60px;"">+</div>","null","html-keyboard-response","44","99050","0.0-6.0-0.19","FLSE","3","m","rechts","23","","fixation","","","",""
"778","img/90_60.png","74","image-keyboard-response","45","99845","0.0-6.0-1.19","FLSE","3","m","rechts","23","","","self","j","90","true"
"null","<div style=""font-size:60px;"">+</div>","null","html-keyboard-response","46","100223","0.0-6.0-0.20","FLSE","3","m","rechts","23","","fixation","","","",""
"598","img/120_90.png","70","image-keyboard-response","47","100835","0.0-6.0-1.20","FLSE","3","m","rechts","23","","","self","f","120","true"
"null","<div style=""font-size:60px;"">+</div>","null","html-keyboard-response","48","101300","0.0-6.0-0.21","FLSE","3","m","rechts","23","","fixation","","","",""
"617","img/30_60.png","74","image-keyboard-response","49","101925","0.0-6.0-1.21","FLSE","3","m","rechts","23","","","self","j","30","true"
"null","<div style=""font-size:60px;"">+</div>","null","html-keyboard-response","50","102442","0.0-6.0-0.22","FLSE","3","m","rechts","23","","fixation","","","",""
"965","img/60_90.png","74","image-keyboard-response","51","103423","0.0-6.0-1.22","FLSE","3","m","rechts","23","","","self","j","60","true"
"null","<div style=""font-size:60px;"">+</div>","null","html-keyboard-response","52","103848","0.0-6.0-0.23","FLSE","3","m","rechts","23","","fixation","","","",""
"681","img/60_330.png","70","image-keyboard-response","53","104549","0.0-6.0-1.23","FLSE","3","m","rechts","23","","","self","f","60","true"
"null","<div style=""font-size:60px;"">+</div>","null","html-keyboard-response","54","104973","0.0-6.0-0.24","FLSE","3","m","rechts","23","","fixation","","","",""
"512","img/L90_180.png","70","image-keyboard-response","55","105505","0.0-6.0-1.24","FLSE","3","m","rechts","23","","","self","f","90","true"
"null","<div style=""font-size:60px;"">+</div>","null","html-keyboard-response","56","106035","0.0-6.0-0.25","FLSE","3","m","rechts","23","","fixation","","","",""
"552","img/0_330.png","70","image-keyboard-response","57","106607","0.0-6.0-1.25","FLSE","3","m","rechts","23","","","self","f","0","true"
"null","<div style=""font-size:60px;"">+</div>","null","html-keyboard-response","58","107036","0.0-6.0-0.26","FLSE","3","m","rechts","23","","fixation","","","",""
"789","img/120_330.png","70","image-keyboard-response","59","107845","0.0-6.0-1.26","FLSE","3","m","rechts","23","","","self","f","120","true"
"null","<div style=""font-size:60px;"">+</div>","null","html-keyboard-response","60","108223","0.0-6.0-0.27","FLSE","3","m","rechts","23","","fixation","","","",""
"660","img/90_240.png","74","image-keyboard-response","61","108902","0.0-6.0-1.27","FLSE","3","m","rechts","23","","","self","j","90","true"
"null","<div style=""font-size:60px;"">+</div>","null","html-keyboard-response","62","109269","0.0-6.0-0.28","FLSE","3","m","rechts","23","","fixation","","","",""
"615","img/120_180.png","74","image-keyboard-response","63","109892","0.0-6.0-1.28","FLSE","3","m","rechts","23","","","self","j","120","true"
"null","<div style=""font-size:60px;"">+</div>","null","html-keyboard-response","64","110271","0.0-6.0-0.29","FLSE","3","m","rechts","23","","fixation","","","",""
"829","img/90_330.png","70","image-keyboard-response","65","111107","0.0-6.0-1.29","FLSE","3","m","rechts","23","","","self","f","90","true"
"null","<div style=""font-size:60px;"">+</div>","null","html-keyboard-response","66","111459","0.0-6.0-0.30","FLSE","3","m","rechts","23","","fixation","","","",""
"586","img/90_30.png","70","image-keyboard-response","67","112064","0.0-6.0-1.30","FLSE","3","m","rechts","23","","","self","j","90","false"
"null","<div style=""font-size:60px;"">+</div>","null","html-keyboard-response","68","112522","0.0-6.0-0.31","FLSE","3","m","rechts","23","","fixation","","","",""
"593","img/0_300.png","70","image-keyboard-response","69","113133","0.0-6.0-1.31","FLSE","3","m","rechts","23","","","self","f","0","true"
"null","<div style=""font-size:60px;"">+</div>","null","html-keyboard-response","70","113662","0.0-6.0-0.32","FLSE","3","m","rechts","23","","fixation","","","",""
"541","img/0_150.png","74","image-keyboard-response","71","114223","0.0-6.0-1.32","FLSE","3","m","rechts","23","","","self","j","0","true"
"null","<div style=""font-size:60px;"">+</div>","null","html-keyboard-response","72","114537","0.0-6.0-0.33","FLSE","3","m","rechts","23","","fixation","","","",""
"532","img/120_150.png","70","image-keyboard-response","73","115087","0.0-6.0-1.33","FLSE","3","m","rechts","23","","","self","f","120","true"
"null","<div style=""font-size:60px;"">+</div>","null","html-keyboard-response","74","115443","0.0-6.0-0.34","FLSE","3","m","rechts","23","","fixation","","","",""
"552","img/150_270.png","74","image-keyboard-response","75","116013","0.0-6.0-1.34","FLSE","3","m","rechts","23","","","self","j","150","true"
"null","<div style=""font-size:60px;"">+</div>","null","html-keyboard-response","76","116428","0.0-6.0-0.35","FLSE","3","m","rechts","23","","fixation","","","",""
"583","img/90_180.png","74","image-keyboard-response","77","117024","0.0-6.0-1.35","FLSE","3","m","rechts","23","","","self","j","90","true"
"null","<div style=""font-size:60px;"">+</div>","null","html-keyboard-response","78","117491","0.0-6.0-0.36","FLSE","3","m","rechts","23","","fixation","","","",""
"484","img/150_240.png","74","image-keyboard-response","79","117993","0.0-6.0-1.36","FLSE","3","m","rechts","23","","","self","j","150","true"
"null","<div style=""font-size:60px;"">+</div>","null","html-keyboard-response","80","118458","0.0-6.0-0.37","FLSE","3","m","rechts","23","","fixation","","","",""
"705","img/L60_180.png","70","image-keyboard-response","81","119185","0.0-6.0-1.37","FLSE","3","m","rechts","23","","","self","f","60","true"
"null","<div style=""font-size:60px;"">+</div>","null","html-keyboard-response","82","119553","0.0-6.0-0.38","FLSE","3","m","rechts","23","","fixation","","","",""
"537","img/150_180.png","74","image-keyboard-response","83","120107","0.0-6.0-1.38","FLSE","3","m","rechts","23","","","self","j","150","true"
"null","<div style=""font-size:60px;"">+</div>","null","html-keyboard-response","84","120415","0.0-6.0-0.39","FLSE","3","m","rechts","23","","fixation","","","",""
"597","img/0_240.png","70","image-keyboard-response","85","121030","0.0-6.0-1.39","FLSE","3","m","rechts","23","","","self","f","0","true"
"null","<div style=""font-size:60px;"">+</div>","null","html-keyboard-response","86","121352","0.0-6.0-0.40","FLSE","3","m","rechts","23","","fixation","","","",""
"614","img/90_120.png","70","image-keyboard-response","87","121986","0.0-6.0-1.40","FLSE","3","m","rechts","23","","","self","f","90","true"
"null","<div style=""font-size:60px;"">+</div>","null","html-keyboard-response","88","122445","0.0-6.0-0.41","FLSE","3","m","rechts","23","","fixation","","","",""
"514","img/120_210.png","74","image-keyboard-response","89","122978","0.0-6.0-1.41","FLSE","3","m","rechts","23","","","self","j","120","true"
"null","<div style=""font-size:60px;"">+</div>","null","html-keyboard-response","90","123335","0.0-6.0-0.42","FLSE","3","m","rechts","23","","fixation","","","",""
"510","img/0_120.png","74","image-keyboard-response","91","123865","0.0-6.0-1.42","FLSE","3","m","rechts","23","","","self","j","0","true"
"null","<div style=""font-size:60px;"">+</div>","null","html-keyboard-response","92","124335","0.0-6.0-0.43","FLSE","3","m","rechts","23","","fixation","","","",""
"772","img/30_240.png","70","image-keyboard-response","93","125114","0.0-6.0-1.43","FLSE","3","m","rechts","23","","","self","f","30","true"
"null","<div style=""font-size:60px;"">+</div>","null","html-keyboard-response","94","125539","0.0-6.0-0.44","FLSE","3","m","rechts","23","","fixation","","","",""
"512","img/120_30.png","70","image-keyboard-response","95","126069","0.0-6.0-1.44","FLSE","3","m","rechts","23","","","self","j","120","false"
"null","<div style=""font-size:60px;"">+</div>","null","html-keyboard-response","96","126477","0.0-6.0-0.45","FLSE","3","m","rechts","23","","fixation","","","",""
"688","img/60_30.png","74","image-keyboard-response","97","127185","0.0-6.0-1.45","FLSE","3","m","rechts","23","","","self","j","60","true"
"null","<div style=""font-size:60px;"">+</div>","null","html-keyboard-response","98","127540","0.0-6.0-0.46","FLSE","3","m","rechts","23","","fixation","","","",""
"571","img/90_150.png","70","image-keyboard-response","99","128128","0.0-6.0-1.46","FLSE","3","m","rechts","23","","","self","f","90","true"
"null","<div style=""font-size:60px;"">+</div>","null","html-keyboard-response","100","128491","0.0-6.0-0.47","FLSE","3","m","rechts","23","","fixation","","","",""
"735","img/90_300.png","70","image-keyboard-response","101","129244","0.0-6.0-1.47","FLSE","3","m","rechts","23","","","self","f","90","true"
"null","<div style=""font-size:60px;"">+</div>","null","html-keyboard-response","102","129768","0.0-6.0-0.48","FLSE","3","m","rechts","23","","fixation","","","",""
"489","img/L120_180.png","70","image-keyboard-response","103","130276","0.0-6.0-1.48","FLSE","3","m","rechts","23","","","self","f","120","true"
"null","<div style=""font-size:60px;"">+</div>","null","html-keyboard-response","104","130579","0.0-6.0-0.49","FLSE","3","m","rechts","23","","fixation","","","",""
"612","img/60_150.png","70","image-keyboard-response","105","131210","0.0-6.0-1.49","FLSE","3","m","rechts","23","","","self","f","60","true"
"null","<div style=""font-size:60px;"">+</div>","null","html-keyboard-response","106","131517","0.0-6.0-0.50","FLSE","3","m","rechts","23","","fixation","","","",""
"1093","img/150_300.png","74","image-keyboard-response","107","132628","0.0-6.0-1.50","FLSE","3","m","rechts","23","","","self","j","150","true"
"null","<div style=""font-size:60px;"">+</div>","null","html-keyboard-response","108","133000","0.0-6.0-0.51","FLSE","3","m","rechts","23","","fixation","","","",""
"668","img/0_90.png","74","image-keyboard-response","109","133685","0.0-6.0-1.51","FLSE","3","m","rechts","23","","","self","j","0","true"
"null","<div style=""font-size:60px;"">+</div>","null","html-keyboard-response","110","134047","0.0-6.0-0.52","FLSE","3","m","rechts","23","","fixation","","","",""
"731","img/60_30.png","74","image-keyboard-response","111","134788","0.0-6.0-1.52","FLSE","3","m","rechts","23","","","self","j","60","true"
"null","<div style=""font-size:60px;"">+</div>","null","html-keyboard-response","112","135097","0.0-6.0-0.53","FLSE","3","m","rechts","23","","fixation","","","",""
"672","img/30_240.png","70","image-keyboard-response","113","135779","0.0-6.0-1.53","FLSE","3","m","rechts","23","","","self","f","30","true"
"null","<div style=""font-size:60px;"">+</div>","null","html-keyboard-response","114","136206","0.0-6.0-0.54","FLSE","3","m","rechts","23","","fixation","","","",""
"619","img/120_30.png","74","image-keyboard-response","115","136836","0.0-6.0-1.54","FLSE","3","m","rechts","23","","","self","j","120","true"
"null","<div style=""font-size:60px;"">+</div>","null","html-keyboard-response","116","137144","0.0-6.0-0.55","FLSE","3","m","rechts","23","","fixation","","","",""
"672","img/120_330.png","70","image-keyboard-response","117","137827","0.0-6.0-1.55","FLSE","3","m","rechts","23","","","self","f","120","true"
"null","<div style=""font-size:60px;"">+</div>","null","html-keyboard-response","118","138330","0.0-6.0-0.56","FLSE","3","m","rechts","23","","fixation","","","",""
"595","img/150_300.png","74","image-keyboard-response","119","138929","0.0-6.0-1.56","FLSE","3","m","rechts","23","","","self","j","150","true"
"null","<div style=""font-size:60px;"">+</div>","null","html-keyboard-response","120","139330","0.0-6.0-0.57","FLSE","3","m","rechts","23","","fixation","","","",""
"686","img/90_60.png","74","image-keyboard-response","121","140021","0.0-6.0-1.57","FLSE","3","m","rechts","23","","","self","j","90","true"
"null","<div style=""font-size:60px;"">+</div>","null","html-keyboard-response","122","140329","0.0-6.0-0.58","FLSE","3","m","rechts","23","","fixation","","","",""
"563","img/0_240.png","70","image-keyboard-response","123","140897","0.0-6.0-1.58","FLSE","3","m","rechts","23","","","self","f","0","true"
"null","<div style=""font-size:60px;"">+</div>","null","html-keyboard-response","124","141252","0.0-6.0-0.59","FLSE","3","m","rechts","23","","fixation","","","",""
"498","img/0_30.png","74","image-keyboard-response","125","141764","0.0-6.0-1.59","FLSE","3","m","rechts","23","","","self","j","0","true"
"null","<div style=""font-size:60px;"">+</div>","null","html-keyboard-response","126","142283","0.0-6.0-0.60","FLSE","3","m","rechts","23","","fixation","","","",""
"511","img/60_180.png","74","image-keyboard-response","127","142800","0.0-6.0-1.60","FLSE","3","m","rechts","23","","","self","j","60","true"
"null","<div style=""font-size:60px;"">+</div>","null","html-keyboard-response","128","143314","0.0-6.0-0.61","FLSE","3","m","rechts","23","","fixation","","","",""
"468","img/0_210.png","70","image-keyboard-response","129","143787","0.0-6.0-1.61","FLSE","3","m","rechts","23","","","self","f","0","true"
"null","<div style=""font-size:60px;"">+</div>","null","html-keyboard-response","130","144267","0.0-6.0-0.62","FLSE","3","m","rechts","23","","fixation","","","",""
"472","img/0_150.png","74","image-keyboard-response","131","144744","0.0-6.0-1.62","FLSE","3","m","rechts","23","","","self","j","0","true"
"null","<div style=""font-size:60px;"">+</div>","null","html-keyboard-response","132","145208","0.0-6.0-0.63","FLSE","3","m","rechts","23","","fixation","","","",""
"473","img/0_330.png","70","image-keyboard-response","133","145690","0.0-6.0-1.63","FLSE","3","m","rechts","23","","","self","f","0","true"
"null","<div style=""font-size:60px;"">+</div>","null","html-keyboard-response","134","146051","0.0-6.0-0.64","FLSE","3","m","rechts","23","","fixation","","","",""
"639","img/30_90.png","74","image-keyboard-response","135","146703","0.0-6.0-1.64","FLSE","3","m","rechts","23","","","self","j","30","true"
"null","<div style=""font-size:60px;"">+</div>","null","html-keyboard-response","136","147067","0.0-6.0-0.65","FLSE","3","m","rechts","23","","fixation","","","",""
"616","img/150_270.png","74","image-keyboard-response","137","147693","0.0-6.0-1.65","FLSE","3","m","rechts","23","","","self","j","150","true"
"null","<div style=""font-size:60px;"">+</div>","null","html-keyboard-response","138","148020","0.0-6.0-0.66","FLSE","3","m","rechts","23","","fixation","","","",""
"641","img/120_210.png","74","image-keyboard-response","139","148671","0.0-6.0-1.66","FLSE","3","m","rechts","23","","","self","j","120","true"
"null","<div style=""font-size:60px;"">+</div>","null","html-keyboard-response","140","149083","0.0-6.0-0.67","FLSE","3","m","rechts","23","","fixation","","","",""
"772","img/90_300.png","70","image-keyboard-response","141","149864","0.0-6.0-1.67","FLSE","3","m","rechts","23","","","self","f","90","true"
"null","<div style=""font-size:60px;"">+</div>","null","html-keyboard-response","142","150315","0.0-6.0-0.68","FLSE","3","m","rechts","23","","fixation","","","",""
"747","img/60_270.png","70","image-keyboard-response","143","151067","0.0-6.0-1.68","FLSE","3","m","rechts","23","","","self","f","60","true"
"null","<div style=""font-size:60px;"">+</div>","null","html-keyboard-response","144","151597","0.0-6.0-0.69","FLSE","3","m","rechts","23","","fixation","","","",""
"920","img/30_120.png","70","image-keyboard-response","145","152530","0.0-6.0-1.69","FLSE","3","m","rechts","23","","","self","j","30","false"
"null","<div style=""font-size:60px;"">+</div>","null","html-keyboard-response","146","153051","0.0-6.0-0.70","FLSE","3","m","rechts","23","","fixation","","","",""
"681","img/60_330.png","70","image-keyboard-response","147","153745","0.0-6.0-1.70","FLSE","3","m","rechts","23","","","self","f","60","true"
"null","<div style=""font-size:60px;"">+</div>","null","html-keyboard-response","148","154269","0.0-6.0-0.71","FLSE","3","m","rechts","23","","fixation","","","",""
"808","img/150_60.png","74","image-keyboard-response","149","155085","0.0-6.0-1.71","FLSE","3","m","rechts","23","","","self","f","150","false"
"null","<div style=""font-size:60px;"">+</div>","null","html-keyboard-response","150","155490","0.0-6.0-0.72","FLSE","3","m","rechts","23","","fixation","","","",""
"1020","img/120_270.png","74","image-keyboard-response","151","156523","0.0-6.0-1.72","FLSE","3","m","rechts","23","","","self","j","120","true"
"null","<div style=""font-size:60px;"">+</div>","null","html-keyboard-response","152","156927","0.0-6.0-0.73","FLSE","3","m","rechts","23","","fixation","","","",""
"575","img/L60_180.png","70","image-keyboard-response","153","157512","0.0-6.0-1.73","FLSE","3","m","rechts","23","","","self","f","60","true"
"null","<div style=""font-size:60px;"">+</div>","null","html-keyboard-response","154","158021","0.0-6.0-0.74","FLSE","3","m","rechts","23","","fixation","","","",""
"536","img/60_210.png","74","image-keyboard-response","155","158571","0.0-6.0-1.74","FLSE","3","m","rechts","23","","","self","j","60","true"
"null","<div style=""font-size:60px;"">+</div>","null","html-keyboard-response","156","158928","0.0-6.0-0.75","FLSE","3","m","rechts","23","","fixation","","","",""
"553","img/L90_180.png","70","image-keyboard-response","157","159494","0.0-6.0-1.75","FLSE","3","m","rechts","23","","","self","f","90","true"
"null","<div style=""font-size:60px;"">+</div>","null","html-keyboard-response","158","159865","0.0-6.0-0.76","FLSE","3","m","rechts","23","","fixation","","","",""
"503","img/30_300.png","70","image-keyboard-response","159","160381","0.0-6.0-1.76","FLSE","3","m","rechts","23","","","self","f","30","true"
"null","<div style=""font-size:60px;"">+</div>","null","html-keyboard-response","160","160755","0.0-6.0-0.77","FLSE","3","m","rechts","23","","fixation","","","",""
"524","img/120_150.png","70","image-keyboard-response","161","161292","0.0-6.0-1.77","FLSE","3","m","rechts","23","","","self","f","120","true"
"null","<div style=""font-size:60px;"">+</div>","null","html-keyboard-response","162","161756","0.0-6.0-0.78","FLSE","3","m","rechts","23","","fixation","","","",""
"514","img/0_270.png","70","image-keyboard-response","163","162283","0.0-6.0-1.78","FLSE","3","m","rechts","23","","","self","f","0","true"
"null","<div style=""font-size:60px;"">+</div>","null","html-keyboard-response","164","162786","0.0-6.0-0.79","FLSE","3","m","rechts","23","","fixation","","","",""
"744","img/120_90.png","70","image-keyboard-response","165","163544","0.0-6.0-1.79","FLSE","3","m","rechts","23","","","self","f","120","true"
"null","<div style=""font-size:60px;"">+</div>","null","html-keyboard-response","166","163959","0.0-6.0-0.80","FLSE","3","m","rechts","23","","fixation","","","",""
"529","img/90_210.png","74","image-keyboard-response","167","164500","0.0-6.0-1.80","FLSE","3","m","rechts","23","","","self","j","90","true"
"null","<div style=""font-size:60px;"">+</div>","null","html-keyboard-response","168","164864","0.0-6.0-0.81","FLSE","3","m","rechts","23","","fixation","","","",""
"555","img/30_180.png","74","image-keyboard-response","169","165432","0.0-6.0-1.81","FLSE","3","m","rechts","23","","","self","j","30","true"
"null","<div style=""font-size:60px;"">+</div>","null","html-keyboard-response","170","165836","0.0-6.0-0.82","FLSE","3","m","rechts","23","","fixation","","","",""
"723","img/150_90.png","70","image-keyboard-response","171","166571","0.0-6.0-1.82","FLSE","3","m","rechts","23","","","self","f","150","true"
"null","<div style=""font-size:60px;"">+</div>","null","html-keyboard-response","172","166992","0.0-6.0-0.83","FLSE","3","m","rechts","23","","fixation","","","",""
"502","img/L120_180.png","70","image-keyboard-response","173","167504","0.0-6.0-1.83","FLSE","3","m","rechts","23","","","self","f","120","true"
"null","<div style=""font-size:60px;"">+</div>","null","html-keyboard-response","174","167883","0.0-6.0-0.84","FLSE","3","m","rechts","23","","fixation","","","",""
"508","img/L150_180.png","70","image-keyboard-response","175","168404","0.0-6.0-1.84","FLSE","3","m","rechts","23","","","self","f","150","true"
"null","<div style=""font-size:60px;"">+</div>","null","html-keyboard-response","176","168867","0.0-6.0-0.85","FLSE","3","m","rechts","23","","fixation","","","",""
"808","img/60_90.png","74","image-keyboard-response","177","169687","0.0-6.0-1.85","FLSE","3","m","rechts","23","","","self","j","60","true"
"null","<div style=""font-size:60px;"">+</div>","null","html-keyboard-response","178","170164","0.0-6.0-0.86","FLSE","3","m","rechts","23","","fixation","","","",""
"783","img/90_150.png","70","image-keyboard-response","179","170957","0.0-6.0-1.86","FLSE","3","m","rechts","23","","","self","f","90","true"
"null","<div style=""font-size:60px;"">+</div>","null","html-keyboard-response","180","171288","0.0-6.0-0.87","FLSE","3","m","rechts","23","","fixation","","","",""
"641","img/150_180.png","74","image-keyboard-response","181","171937","0.0-6.0-1.87","FLSE","3","m","rechts","23","","","self","j","150","true"
"null","<div style=""font-size:60px;"">+</div>","null","html-keyboard-response","182","172366","0.0-6.0-0.88","FLSE","3","m","rechts","23","","fixation","","","",""
"759","img/90_30.png","74","image-keyboard-response","183","173129","0.0-6.0-1.88","FLSE","3","m","rechts","23","","","self","j","90","true"
"null","<div style=""font-size:60px;"">+</div>","null","html-keyboard-response","184","173647","0.0-6.0-0.89","FLSE","3","m","rechts","23","","fixation","","","",""
"603","img/0_90.png","74","image-keyboard-response","185","174255","0.0-6.0-1.89","FLSE","3","m","rechts","23","","","self","j","0","true"
"null","<div style=""font-size:60px;"">+</div>","null","html-keyboard-response","186","174616","0.0-6.0-0.90","FLSE","3","m","rechts","23","","fixation","","","",""
"682","img/90_120.png","70","image-keyboard-response","187","175310","0.0-6.0-1.90","FLSE","3","m","rechts","23","","","self","f","90","true"
"null","<div style=""font-size:60px;"">+</div>","null","html-keyboard-response","188","175819","0.0-6.0-0.91","FLSE","3","m","rechts","23","","fixation","","","",""
"511","img/150_120.png","70","image-keyboard-response","189","176343","0.0-6.0-1.91","FLSE","3","m","rechts","23","","","self","f","150","true"
"null","<div style=""font-size:60px;"">+</div>","null","html-keyboard-response","190","176695","0.0-6.0-0.92","FLSE","3","m","rechts","23","","fixation","","","",""
"650","img/30_270.png","70","image-keyboard-response","191","177357","0.0-6.0-1.92","FLSE","3","m","rechts","23","","","self","f","30","true"
"null","<div style=""font-size:60px;"">+</div>","null","html-keyboard-response","192","177820","0.0-6.0-0.93","FLSE","3","m","rechts","23","","fixation","","","",""
"676","img/30_60.png","74","image-keyboard-response","193","178508","0.0-6.0-1.93","FLSE","3","m","rechts","23","","","self","j","30","true"
"null","<div style=""font-size:60px;"">+</div>","null","html-keyboard-response","194","179038","0.0-6.0-0.94","FLSE","3","m","rechts","23","","fixation","","","",""
"490","img/L30_180.png","70","image-keyboard-response","195","179542","0.0-6.0-1.94","FLSE","3","m","rechts","23","","","self","f","30","true"
"null","<div style=""font-size:60px;"">+</div>","null","html-keyboard-response","196","179897","0.0-6.0-0.95","FLSE","3","m","rechts","23","","fixation","","","",""
"576","img/150_240.png","74","image-keyboard-response","197","180486","0.0-6.0-1.95","FLSE","3","m","rechts","23","","","self","j","150","true"
"null","<div style=""font-size:60px;"">+</div>","null","html-keyboard-response","198","181007","0.0-6.0-0.96","FLSE","3","m","rechts","23","","fixation","","","",""
"615","img/0_300.png","70","image-keyboard-response","199","181634","0.0-6.0-1.96","FLSE","3","m","rechts","23","","","self","f","0","true"
"null","<div style=""font-size:60px;"">+</div>","null","html-keyboard-response","200","182116","0.0-6.0-0.97","FLSE","3","m","rechts","23","","fixation","","","",""
"462","img/60_150.png","70","image-keyboard-response","201","182591","0.0-6.0-1.97","FLSE","3","m","rechts","23","","","self","f","60","true"
"null","<div style=""font-size:60px;"">+</div>","null","html-keyboard-response","202","183053","0.0-6.0-0.98","FLSE","3","m","rechts","23","","fixation","","","",""
"491","img/90_330.png","74","image-keyboard-response","203","183558","0.0-6.0-1.98","FLSE","3","m","rechts","23","","","self","f","90","false"
"null","<div style=""font-size:60px;"">+</div>","null","html-keyboard-response","204","184085","0.0-6.0-0.99","FLSE","3","m","rechts","23","","fixation","","","",""
"608","img/0_60.png","74","image-keyboard-response","205","184705","0.0-6.0-1.99","FLSE","3","m","rechts","23","","","self","j","0","true"
"null","<div style=""font-size:60px;"">+</div>","null","html-keyboard-response","206","185118","0.0-6.0-0.100","FLSE","3","m","rechts","23","","fixation","","","",""
"598","img/90_180.png","74","image-keyboard-response","207","185729","0.0-6.0-1.100","FLSE","3","m","rechts","23","","","self","j","90","true"
"null","<div style=""font-size:60px;"">+</div>","null","html-keyboard-response","208","186181","0.0-6.0-0.101","FLSE","3","m","rechts","23","","fixation","","","",""
"502","img/120_180.png","74","image-keyboard-response","209","186696","0.0-6.0-1.101","FLSE","3","m","rechts","23","","","self","j","120","true"
"null","<div style=""font-size:60px;"">+</div>","null","html-keyboard-response","210","187150","0.0-6.0-0.102","FLSE","3","m","rechts","23","","fixation","","","",""
"593","img/0_120.png","74","image-keyboard-response","211","187755","0.0-6.0-1.102","FLSE","3","m","rechts","23","","","self","j","0","true"
"null","<div style=""font-size:60px;"">+</div>","null","html-keyboard-response","212","188118","0.0-6.0-0.103","FLSE","3","m","rechts","23","","fixation","","","",""
"681","img/90_240.png","74","image-keyboard-response","213","188811","0.0-6.0-1.103","FLSE","3","m","rechts","23","","","self","j","90","true"
"null","<div style=""font-size:60px;"">+</div>","null","html-keyboard-response","214","189289","0.0-6.0-0.104","FLSE","3","m","rechts","23","","fixation","","","",""
"608","img/150_240.png","74","image-keyboard-response","215","189904","0.0-6.0-1.104","FLSE","3","m","rechts","23","","","self","j","150","true"
"null","<div style=""font-size:60px;"">+</div>","null","html-keyboard-response","216","190415","0.0-6.0-0.105","FLSE","3","m","rechts","23","","fixation","","","",""
"623","img/L150_180.png","70","image-keyboard-response","217","191050","0.0-6.0-1.105","FLSE","3","m","rechts","23","","","self","f","150","true"
"null","<div style=""font-size:60px;"">+</div>","null","html-keyboard-response","218","191570","0.0-6.0-0.106","FLSE","3","m","rechts","23","","fixation","","","",""
"494","img/90_120.png","70","image-keyboard-response","219","192075","0.0-6.0-1.106","FLSE","3","m","rechts","23","","","self","f","90","true"
"null","<div style=""font-size:60px;"">+</div>","null","html-keyboard-response","220","192539","0.0-6.0-0.107","FLSE","3","m","rechts","23","","fixation","","","",""
"497","img/0_330.png","70","image-keyboard-response","221","193049","0.0-6.0-1.107","FLSE","3","m","rechts","23","","","self","f","0","true"
"null","<div style=""font-size:60px;"">+</div>","null","html-keyboard-response","222","193476","0.0-6.0-0.108","FLSE","3","m","rechts","23","","fixation","","","",""
"628","img/60_270.png","70","image-keyboard-response","223","194109","0.0-6.0-1.108","FLSE","3","m","rechts","23","","","self","f","60","true"
"null","<div style=""font-size:60px;"">+</div>","null","html-keyboard-response","224","194617","0.0-6.0-0.109","FLSE","3","m","rechts","23","","fixation","","","",""
"481","img/60_210.png","74","image-keyboard-response","225","195111","0.0-6.0-1.109","FLSE","3","m","rechts","23","","","self","j","60","true"
"null","<div style=""font-size:60px;"">+</div>","null","html-keyboard-response","226","195478","0.0-6.0-0.110","FLSE","3","m","rechts","23","","fixation","","","",""
"959","img/150_90.png","70","image-keyboard-response","227","196451","0.0-6.0-1.110","FLSE","3","m","rechts","23","","","self","f","150","true"
"null","<div style=""font-size:60px;"">+</div>","null","html-keyboard-response","228","196979","0.0-6.0-0.111","FLSE","3","m","rechts","23","","fixation","","","",""
"796","img/30_300.png","70","image-keyboard-response","229","197788","0.0-6.0-1.111","FLSE","3","m","rechts","23","","","self","f","30","true"
"null","<div style=""font-size:60px;"">+</div>","null","html-keyboard-response","230","198103","0.0-6.0-0.112","FLSE","3","m","rechts","23","","fixation","","","",""
"899","img/120_30.png","74","image-keyboard-response","231","199016","0.0-6.0-1.112","FLSE","3","m","rechts","23","","","self","j","120","true"
"null","<div style=""font-size:60px;"">+</div>","null","html-keyboard-response","232","199321","0.0-6.0-0.113","FLSE","3","m","rechts","23","","fixation","","","",""
"656","img/L120_180.png","70","image-keyboard-response","233","199983","0.0-6.0-1.113","FLSE","3","m","rechts","23","","","self","f","120","true"
"null","<div style=""font-size:60px;"">+</div>","null","html-keyboard-response","234","200352","0.0-6.0-0.114","FLSE","3","m","rechts","23","","fixation","","","",""
"502","img/120_210.png","74","image-keyboard-response","235","200859","0.0-6.0-1.114","FLSE","3","m","rechts","23","","","self","j","120","true"
"null","<div style=""font-size:60px;"">+</div>","null","html-keyboard-response","236","201182","0.0-6.0-0.115","FLSE","3","m","rechts","23","","fixation","","","",""
"502","img/0_300.png","70","image-keyboard-response","237","201695","0.0-6.0-1.115","FLSE","3","m","rechts","23","","","self","f","0","true"
"null","<div style=""font-size:60px;"">+</div>","null","html-keyboard-response","238","202058","0.0-6.0-0.116","FLSE","3","m","rechts","23","","fixation","","","",""
"1163","img/150_60.png","74","image-keyboard-response","239","203235","0.0-6.0-1.116","FLSE","3","m","rechts","23","","","self","f","150","false"
"null","<div style=""font-size:60px;"">+</div>","null","html-keyboard-response","240","203542","0.0-6.0-0.117","FLSE","3","m","rechts","23","","fixation","","","",""
"694","img/30_240.png","70","image-keyboard-response","241","204249","0.0-6.0-1.117","FLSE","3","m","rechts","23","","","self","f","30","true"
"null","<div style=""font-size:60px;"">+</div>","null","html-keyboard-response","242","204604","0.0-6.0-0.118","FLSE","3","m","rechts","23","","fixation","","","",""
"665","img/90_210.png","74","image-keyboard-response","243","205282","0.0-6.0-1.118","FLSE","3","m","rechts","23","","","self","j","90","true"
"null","<div style=""font-size:60px;"">+</div>","null","html-keyboard-response","244","205635","0.0-6.0-0.119","FLSE","3","m","rechts","23","","fixation","","","",""
"564","img/90_150.png","70","image-keyboard-response","245","206204","0.0-6.0-1.119","FLSE","3","m","rechts","23","","","self","f","90","true"
"null","<div style=""font-size:60px;"">+</div>","null","html-keyboard-response","246","206511","0.0-6.0-0.120","FLSE","3","m","rechts","23","","fixation","","","",""
"673","img/90_330.png","70","image-keyboard-response","247","207194","0.0-6.0-1.120","FLSE","3","m","rechts","23","","","self","f","90","true"
"null","<div style=""font-size:60px;"">+</div>","null","html-keyboard-response","248","207557","0.0-6.0-0.121","FLSE","3","m","rechts","23","","fixation","","","",""
"579","img/150_270.png","74","image-keyboard-response","249","208149","0.0-6.0-1.121","FLSE","3","m","rechts","23","","","self","j","150","true"
"null","<div style=""font-size:60px;"">+</div>","null","html-keyboard-response","250","208620","0.0-6.0-0.122","FLSE","3","m","rechts","23","","fixation","","","",""
"620","img/90_300.png","70","image-keyboard-response","251","209254","0.0-6.0-1.122","FLSE","3","m","rechts","23","","","self","f","90","true"
"null","<div style=""font-size:60px;"">+</div>","null","html-keyboard-response","252","209573","0.0-6.0-0.123","FLSE","3","m","rechts","23","","fixation","","","",""
"983","img/120_270.png","74","image-keyboard-response","253","210569","0.0-6.0-1.123","FLSE","3","m","rechts","23","","","self","j","120","true"
"null","<div style=""font-size:60px;"">+</div>","null","html-keyboard-response","254","211074","0.0-6.0-0.124","FLSE","3","m","rechts","23","","fixation","","","",""
"711","img/0_120.png","74","image-keyboard-response","255","211796","0.0-6.0-1.124","FLSE","3","m","rechts","23","","","self","j","0","true"
"null","<div style=""font-size:60px;"">+</div>","null","html-keyboard-response","256","212309","0.0-6.0-0.125","FLSE","3","m","rechts","23","","fixation","","","",""
"450","img/0_90.png","74","image-keyboard-response","257","212763","0.0-6.0-1.125","FLSE","3","m","rechts","23","","","self","j","0","true"
"null","<div style=""font-size:60px;"">+</div>","null","html-keyboard-response","258","213122","0.0-6.0-0.126","FLSE","3","m","rechts","23","","fixation","","","",""
"622","img/150_120.png","70","image-keyboard-response","259","213753","0.0-6.0-1.126","FLSE","3","m","rechts","23","","","self","f","150","true"
"null","<div style=""font-size:60px;"">+</div>","null","html-keyboard-response","260","214262","0.0-6.0-0.127","FLSE","3","m","rechts","23","","fixation","","","",""
"455","img/0_240.png","70","image-keyboard-response","261","214733","0.0-6.0-1.127","FLSE","3","m","rechts","23","","","self","f","0","true"
"null","<div style=""font-size:60px;"">+</div>","null","html-keyboard-response","262","215246","0.0-6.0-0.128","FLSE","3","m","rechts","23","","fixation","","","",""
"574","img/60_180.png","74","image-keyboard-response","263","215834","0.0-6.0-1.128","FLSE","3","m","rechts","23","","","self","j","60","true"
"null","<div style=""font-size:60px;"">+</div>","null","html-keyboard-response","264","216292","0.0-6.0-0.129","FLSE","3","m","rechts","23","","fixation","","","",""
"505","img/90_60.png","70","image-keyboard-response","265","216803","0.0-6.0-1.129","FLSE","3","m","rechts","23","","","self","j","90","false"
"null","<div style=""font-size:60px;"">+</div>","null","html-keyboard-response","266","217168","0.0-6.0-0.130","FLSE","3","m","rechts","23","","fixation","","","",""
"589","img/0_270.png","70","image-keyboard-response","267","217770","0.0-6.0-1.130","FLSE","3","m","rechts","23","","","self","f","0","true"
"null","<div style=""font-size:60px;"">+</div>","null","html-keyboard-response","268","218247","0.0-6.0-0.131","FLSE","3","m","rechts","23","","fixation","","","",""
"507","img/120_90.png","70","image-keyboard-response","269","218771","0.0-6.0-1.131","FLSE","3","m","rechts","23","","","self","f","120","true"
"null","<div style=""font-size:60px;"">+</div>","null","html-keyboard-response","270","219230","0.0-6.0-0.132","FLSE","3","m","rechts","23","","fixation","","","",""
"724","img/90_240.png","74","image-keyboard-response","271","219963","0.0-6.0-1.132","FLSE","3","m","rechts","23","","","self","j","90","true"
"null","<div style=""font-size:60px;"">+</div>","null","html-keyboard-response","272","220279","0.0-6.0-0.133","FLSE","3","m","rechts","23","","fixation","","","",""
"997","img/0_210.png","70","image-keyboard-response","273","221290","0.0-6.0-1.133","FLSE","3","m","rechts","23","","","self","f","0","true"
"null","<div style=""font-size:60px;"">+</div>","null","html-keyboard-response","274","221718","0.0-6.0-0.134","FLSE","3","m","rechts","23","","fixation","","","",""
"494","img/150_180.png","74","image-keyboard-response","275","222224","0.0-6.0-1.134","FLSE","3","m","rechts","23","","","self","j","150","true"
"null","<div style=""font-size:60px;"">+</div>","null","html-keyboard-response","276","222529","0.0-6.0-0.135","FLSE","3","m","rechts","23","","fixation","","","",""
"529","img/120_180.png","74","image-keyboard-response","277","223068","0.0-6.0-1.135","FLSE","3","m","rechts","23","","","self","j","120","true"
"null","<div style=""font-size:60px;"">+</div>","null","html-keyboard-response","278","223435","0.0-6.0-0.136","FLSE","3","m","rechts","23","","fixation","","","",""
"497","img/L90_180.png","70","image-keyboard-response","279","223945","0.0-6.0-1.136","FLSE","3","m","rechts","23","","","self","f","90","true"
"null","<div style=""font-size:60px;"">+</div>","null","html-keyboard-response","280","224309","0.0-6.0-0.137","FLSE","3","m","rechts","23","","fixation","","","",""
"474","img/0_60.png","74","image-keyboard-response","281","224788","0.0-6.0-1.137","FLSE","3","m","rechts","23","","","self","j","0","true"
"null","<div style=""font-size:60px;"">+</div>","null","html-keyboard-response","282","225092","0.0-6.0-0.138","FLSE","3","m","rechts","23","","fixation","","","",""
"528","img/0_150.png","74","image-keyboard-response","283","225633","0.0-6.0-1.138","FLSE","3","m","rechts","23","","","self","j","0","true"
"null","<div style=""font-size:60px;"">+</div>","null","html-keyboard-response","284","225951","0.0-6.0-0.139","FLSE","3","m","rechts","23","","fixation","","","",""
"963","img/150_300.png","74","image-keyboard-response","285","226928","0.0-6.0-1.139","FLSE","3","m","rechts","23","","","self","j","150","true"
"null","<div style=""font-size:60px;"">+</div>","null","html-keyboard-response","286","227451","0.0-6.0-0.140","FLSE","3","m","rechts","23","","fixation","","","",""
"812","img/60_330.png","70","image-keyboard-response","287","228276","0.0-6.0-1.140","FLSE","3","m","rechts","23","","","self","f","60","true"
"null","<div style=""font-size:60px;"">+</div>","null","html-keyboard-response","288","228732","0.0-6.0-0.141","FLSE","3","m","rechts","23","","fixation","","","",""
"692","img/30_270.png","70","image-keyboard-response","289","229437","0.0-6.0-1.141","FLSE","3","m","rechts","23","","","self","f","30","true"
"null","<div style=""font-size:60px;"">+</div>","null","html-keyboard-response","290","229953","0.0-6.0-0.142","FLSE","3","m","rechts","23","","fixation","","","",""
"651","img/0_30.png","74","image-keyboard-response","291","230616","0.0-6.0-1.142","FLSE","3","m","rechts","23","","","self","j","0","true"
"null","<div style=""font-size:60px;"">+</div>","null","html-keyboard-response","292","231125","0.0-6.0-0.143","FLSE","3","m","rechts","23","","fixation","","","",""
"808","img/60_150.png","70","image-keyboard-response","293","231945","0.0-6.0-1.143","FLSE","3","m","rechts","23","","","self","f","60","true"
"null","<div style=""font-size:60px;"">+</div>","null","html-keyboard-response","294","232250","0.0-6.0-0.144","FLSE","3","m","rechts","23","","fixation","","","",""
"850","img/60_30.png","74","image-keyboard-response","295","233115","0.0-6.0-1.144","FLSE","3","m","rechts","23","","","self","j","60","true"
"null","<div style=""font-size:60px;"">+</div>","null","html-keyboard-response","296","233624","0.0-6.0-0.145","FLSE","3","m","rechts","23","","fixation","","","",""
"592","img/L60_180.png","70","image-keyboard-response","297","234230","0.0-6.0-1.145","FLSE","3","m","rechts","23","","","self","f","60","true"
"null","<div style=""font-size:60px;"">+</div>","null","html-keyboard-response","298","234687","0.0-6.0-0.146","FLSE","3","m","rechts","23","","fixation","","","",""
"641","img/90_30.png","74","image-keyboard-response","299","235340","0.0-6.0-1.146","FLSE","3","m","rechts","23","","","self","j","90","true"
"null","<div style=""font-size:60px;"">+</div>","null","html-keyboard-response","300","235656","0.0-6.0-0.147","FLSE","3","m","rechts","23","","fixation","","","",""
"754","img/60_90.png","74","image-keyboard-response","301","236424","0.0-6.0-1.147","FLSE","3","m","rechts","23","","","self","j","60","true"
"null","<div style=""font-size:60px;"">+</div>","null","html-keyboard-response","302","236936","0.0-6.0-0.148","FLSE","3","m","rechts","23","","fixation","","","",""
"777","img/30_90.png","74","image-keyboard-response","303","237728","0.0-6.0-1.148","FLSE","3","m","rechts","23","","","self","j","30","true"
"null","<div style=""font-size:60px;"">+</div>","null","html-keyboard-response","304","238182","0.0-6.0-0.149","FLSE","3","m","rechts","23","","fixation","","","",""
"634","img/L30_180.png","70","image-keyboard-response","305","238830","0.0-6.0-1.149","FLSE","3","m","rechts","23","","","self","f","30","true"
"null","<div style=""font-size:60px;"">+</div>","null","html-keyboard-response","306","239307","0.0-6.0-0.150","FLSE","3","m","rechts","23","","fixation","","","",""
"689","img/120_330.png","70","image-keyboard-response","307","240000","0.0-6.0-1.150","FLSE","3","m","rechts","23","","","self","f","120","true"
"null","<div style=""font-size:60px;"">+</div>","null","html-keyboard-response","308","240453","0.0-6.0-0.151","FLSE","3","m","rechts","23","","fixation","","","",""
"785","img/120_150.png","70","image-keyboard-response","309","241251","0.0-6.0-1.151","FLSE","3","m","rechts","23","","","self","f","120","true"
"null","<div style=""font-size:60px;"">+</div>","null","html-keyboard-response","310","241704","0.0-6.0-0.152","FLSE","3","m","rechts","23","","fixation","","","",""
"1062","img/30_120.png","74","image-keyboard-response","311","242778","0.0-6.0-1.152","FLSE","3","m","rechts","23","","","self","j","30","true"
"null","<div style=""font-size:60px;"">+</div>","null","html-keyboard-response","312","243095","0.0-6.0-0.153","FLSE","3","m","rechts","23","","fixation","","","",""
"660","img/90_180.png","74","image-keyboard-response","313","243768","0.0-6.0-1.153","FLSE","3","m","rechts","23","","","self","j","90","true"
"null","<div style=""font-size:60px;"">+</div>","null","html-keyboard-response","314","244172","0.0-6.0-0.154","FLSE","3","m","rechts","23","","fixation","","","",""
"584","img/30_60.png","74","image-keyboard-response","315","244770","0.0-6.0-1.154","FLSE","3","m","rechts","23","","","self","j","30","true"
"null","<div style=""font-size:60px;"">+</div>","null","html-keyboard-response","316","245235","0.0-6.0-0.155","FLSE","3","m","rechts","23","","fixation","","","",""
"535","img/30_180.png","74","image-keyboard-response","317","245784","0.0-6.0-1.155","FLSE","3","m","rechts","23","","","self","j","30","true"
"null","<div style=""font-size:60px;"">+</div>","null","html-keyboard-response","318","246296","0.0-6.0-0.156","FLSE","3","m","rechts","23","","fixation","","","",""
"627","img/150_60.png","70","image-keyboard-response","319","246930","0.0-6.0-1.156","FLSE","3","m","rechts","23","","","self","f","150","true"
"null","<div style=""font-size:60px;"">+</div>","null","html-keyboard-response","320","247313","0.0-6.0-0.157","FLSE","3","m","rechts","23","","fixation","","","",""
"803","img/90_150.png","70","image-keyboard-response","321","248123","0.0-6.0-1.157","FLSE","3","m","rechts","23","","","self","f","90","true"
"null","<div style=""font-size:60px;"">+</div>","null","html-keyboard-response","322","248438","0.0-6.0-0.158","FLSE","3","m","rechts","23","","fixation","","","",""
"726","img/30_240.png","74","image-keyboard-response","323","249178","0.0-6.0-1.158","FLSE","3","m","rechts","23","","","self","f","30","false"
"null","<div style=""font-size:60px;"">+</div>","null","html-keyboard-response","324","249484","0.0-6.0-0.159","FLSE","3","m","rechts","23","","fixation","","","",""
"710","img/L30_180.png","70","image-keyboard-response","325","250204","0.0-6.0-1.159","FLSE","3","m","rechts","23","","","self","f","30","true"
"null","<div style=""font-size:60px;"">+</div>","null","html-keyboard-response","326","250518","0.0-6.0-0.160","FLSE","3","m","rechts","23","","fixation","","","",""
"756","img/30_180.png","74","image-keyboard-response","327","251283","0.0-6.0-1.160","FLSE","3","m","rechts","23","","","self","j","30","true"
"null","<div style=""font-size:60px;"">+</div>","null","html-keyboard-response","328","251689","0.0-6.0-0.161","FLSE","3","m","rechts","23","","fixation","","","",""
"992","img/120_270.png","74","image-keyboard-response","329","252691","0.0-6.0-1.161","FLSE","3","m","rechts","23","","","self","j","120","true"
"null","<div style=""font-size:60px;"">+</div>","null","html-keyboard-response","330","253174","0.0-6.0-0.162","FLSE","3","m","rechts","23","","fixation","","","",""
"557","img/60_210.png","74","image-keyboard-response","331","253748","0.0-6.0-1.162","FLSE","3","m","rechts","23","","","self","j","60","true"
"null","<div style=""font-size:60px;"">+</div>","null","html-keyboard-response","332","254221","0.0-6.0-0.163","FLSE","3","m","rechts","23","","fixation","","","",""
"685","img/120_330.png","70","image-keyboard-response","333","254917","0.0-6.0-1.163","FLSE","3","m","rechts","23","","","self","f","120","true"
"null","<div style=""font-size:60px;"">+</div>","null","html-keyboard-response","334","255392","0.0-6.0-0.164","FLSE","3","m","rechts","23","","fixation","","","",""
"938","img/90_30.png","74","image-keyboard-response","335","256333","0.0-6.0-1.164","FLSE","3","m","rechts","23","","","self","j","90","true"
"null","<div style=""font-size:60px;"">+</div>","null","html-keyboard-response","336","256860","0.0-6.0-0.165","FLSE","3","m","rechts","23","","fixation","","","",""
"522","img/60_180.png","74","image-keyboard-response","337","257392","0.0-6.0-1.165","FLSE","3","m","rechts","23","","","self","j","60","true"
"null","<div style=""font-size:60px;"">+</div>","null","html-keyboard-response","338","257704","0.0-6.0-0.166","FLSE","3","m","rechts","23","","fixation","","","",""
"610","img/0_270.png","70","image-keyboard-response","339","258325","0.0-6.0-1.166","FLSE","3","m","rechts","23","","","self","f","0","true"
"null","<div style=""font-size:60px;"">+</div>","null","html-keyboard-response","340","258829","0.0-6.0-0.167","FLSE","3","m","rechts","23","","fixation","","","",""
"686","img/150_90.png","70","image-keyboard-response","341","259531","0.0-6.0-1.167","FLSE","3","m","rechts","23","","","self","f","150","true"
"null","<div style=""font-size:60px;"">+</div>","null","html-keyboard-response","342","259941","0.0-6.0-0.168","FLSE","3","m","rechts","23","","fixation","","","",""
"669","img/90_60.png","74","image-keyboard-response","343","260619","0.0-6.0-1.168","FLSE","3","m","rechts","23","","","self","j","90","true"
"null","<div style=""font-size:60px;"">+</div>","null","html-keyboard-response","344","261097","0.0-6.0-0.169","FLSE","3","m","rechts","23","","fixation","","","",""
"544","img/90_240.png","74","image-keyboard-response","345","261657","0.0-6.0-1.169","FLSE","3","m","rechts","23","","","self","j","90","true"
"null","<div style=""font-size:60px;"">+</div>","null","html-keyboard-response","346","262018","0.0-6.0-0.170","FLSE","3","m","rechts","23","","fixation","","","",""
"618","img/120_150.png","70","image-keyboard-response","347","262646","0.0-6.0-1.170","FLSE","3","m","rechts","23","","","self","f","120","true"
"null","<div style=""font-size:60px;"">+</div>","null","html-keyboard-response","348","263112","0.0-6.0-0.171","FLSE","3","m","rechts","23","","fixation","","","",""
"636","img/90_120.png","70","image-keyboard-response","349","263761","0.0-6.0-1.171","FLSE","3","m","rechts","23","","","self","f","90","true"
"null","<div style=""font-size:60px;"">+</div>","null","html-keyboard-response","350","264174","0.0-6.0-0.172","FLSE","3","m","rechts","23","","fixation","","","",""
"543","img/60_150.png","70","image-keyboard-response","351","264727","0.0-6.0-1.172","FLSE","3","m","rechts","23","","","self","f","60","true"
"null","<div style=""font-size:60px;"">+</div>","null","html-keyboard-response","352","265050","0.0-6.0-0.173","FLSE","3","m","rechts","23","","fixation","","","",""
"624","img/150_300.png","74","image-keyboard-response","353","265684","0.0-6.0-1.173","FLSE","3","m","rechts","23","","","self","j","150","true"
"null","<div style=""font-size:60px;"">+</div>","null","html-keyboard-response","354","266050","0.0-6.0-0.174","FLSE","3","m","rechts","23","","fixation","","","",""
"852","img/60_30.png","74","image-keyboard-response","355","266911","0.0-6.0-1.174","FLSE","3","m","rechts","23","","","self","j","60","true"
"null","<div style=""font-size:60px;"">+</div>","null","html-keyboard-response","356","267424","0.0-6.0-0.175","FLSE","3","m","rechts","23","","fixation","","","",""
"518","img/0_120.png","74","image-keyboard-response","357","267957","0.0-6.0-1.175","FLSE","3","m","rechts","23","","","self","j","0","true"
"null","<div style=""font-size:60px;"">+</div>","null","html-keyboard-response","358","268330","0.0-6.0-0.176","FLSE","3","m","rechts","23","","fixation","","","",""
"546","img/30_60.png","74","image-keyboard-response","359","268879","0.0-6.0-1.176","FLSE","3","m","rechts","23","","","self","j","30","true"
"null","<div style=""font-size:60px;"">+</div>","null","html-keyboard-response","360","269205","0.0-6.0-0.177","FLSE","3","m","rechts","23","","fixation","","","",""
"598","img/0_150.png","74","image-keyboard-response","361","269814","0.0-6.0-1.177","FLSE","3","m","rechts","23","","","self","j","0","true"
"null","<div style=""font-size:60px;"">+</div>","null","html-keyboard-response","362","270183","0.0-6.0-0.178","FLSE","3","m","rechts","23","","fixation","","","",""
"900","img/90_210.png","74","image-keyboard-response","363","271096","0.0-6.0-1.178","FLSE","3","m","rechts","23","","","self","j","90","true"
"null","<div style=""font-size:60px;"">+</div>","null","html-keyboard-response","364","271427","0.0-6.0-0.179","FLSE","3","m","rechts","23","","fixation","","","",""
"869","img/0_300.png","70","image-keyboard-response","365","272309","0.0-6.0-1.179","FLSE","3","m","rechts","23","","","self","f","0","true"
"null","<div style=""font-size:60px;"">+</div>","null","html-keyboard-response","366","272738","0.0-6.0-0.180","FLSE","3","m","rechts","23","","fixation","","","",""
"721","img/60_330.png","70","image-keyboard-response","367","273470","0.0-6.0-1.180","FLSE","3","m","rechts","23","","","self","f","60","true"
"null","<div style=""font-size:60px;"">+</div>","null","html-keyboard-response","368","273786","0.0-6.0-0.181","FLSE","3","m","rechts","23","","fixation","","","",""
"604","img/0_30.png","74","image-keyboard-response","369","274399","0.0-6.0-1.181","FLSE","3","m","rechts","23","","","self","j","0","true"
"null","<div style=""font-size:60px;"">+</div>","null","html-keyboard-response","370","274704","0.0-6.0-0.182","FLSE","3","m","rechts","23","","fixation","","","",""
"597","img/30_270.png","70","image-keyboard-response","371","275311","0.0-6.0-1.182","FLSE","3","m","rechts","23","","","self","f","30","true"
"null","<div style=""font-size:60px;"">+</div>","null","html-keyboard-response","372","275771","0.0-6.0-0.183","FLSE","3","m","rechts","23","","fixation","","","",""
"555","img/0_210.png","70","image-keyboard-response","373","276336","0.0-6.0-1.183","FLSE","3","m","rechts","23","","","self","f","0","true"
"null","<div style=""font-size:60px;"">+</div>","null","html-keyboard-response","374","276662","0.0-6.0-0.184","FLSE","3","m","rechts","23","","fixation","","","",""
"629","img/60_270.png","70","image-keyboard-response","375","277304","0.0-6.0-1.184","FLSE","3","m","rechts","23","","","self","f","60","true"
"null","<div style=""font-size:60px;"">+</div>","null","html-keyboard-response","376","277818","0.0-6.0-0.185","FLSE","3","m","rechts","23","","fixation","","","",""
"474","img/0_330.png","70","image-keyboard-response","377","278305","0.0-6.0-1.185","FLSE","3","m","rechts","23","","","self","f","0","true"
"null","<div style=""font-size:60px;"">+</div>","null","html-keyboard-response","378","278834","0.0-6.0-0.186","FLSE","3","m","rechts","23","","fixation","","","",""
"779","img/30_120.png","74","image-keyboard-response","379","279622","0.0-6.0-1.186","FLSE","3","m","rechts","23","","","self","j","30","true"
"null","<div style=""font-size:60px;"">+</div>","null","html-keyboard-response","380","279927","0.0-6.0-0.187","FLSE","3","m","rechts","23","","fixation","","","",""
"729","img/L150_180.png","70","image-keyboard-response","381","280669","0.0-6.0-1.187","FLSE","3","m","rechts","23","","","self","f","150","true"
"null","<div style=""font-size:60px;"">+</div>","null","html-keyboard-response","382","281036","0.0-6.0-0.188","FLSE","3","m","rechts","23","","fixation","","","",""
"621","img/30_300.png","70","image-keyboard-response","383","281671","0.0-6.0-1.188","FLSE","3","m","rechts","23","","","self","f","30","true"
"null","<div style=""font-size:60px;"">+</div>","null","html-keyboard-response","384","282037","0.0-6.0-0.189","FLSE","3","m","rechts","23","","fixation","","","",""
"521","img/150_240.png","74","image-keyboard-response","385","282570","0.0-6.0-1.189","FLSE","3","m","rechts","23","","","self","j","150","true"
"null","<div style=""font-size:60px;"">+</div>","null","html-keyboard-response","386","282989","0.0-6.0-0.190","FLSE","3","m","rechts","23","","fixation","","","",""
"501","img/120_210.png","74","image-keyboard-response","387","283505","0.0-6.0-1.190","FLSE","3","m","rechts","23","","","self","j","120","true"
"null","<div style=""font-size:60px;"">+</div>","null","html-keyboard-response","388","283880","0.0-6.0-0.191","FLSE","3","m","rechts","23","","fixation","","","",""
"636","img/90_330.png","70","image-keyboard-response","389","284529","0.0-6.0-1.191","FLSE","3","m","rechts","23","","","self","f","90","true"
"null","<div style=""font-size:60px;"">+</div>","null","html-keyboard-response","390","284945","0.0-6.0-0.192","FLSE","3","m","rechts","23","","fixation","","","",""
"550","img/30_90.png","70","image-keyboard-response","391","285505","0.0-6.0-1.192","FLSE","3","m","rechts","23","","","self","j","30","false"
"null","<div style=""font-size:60px;"">+</div>","null","html-keyboard-response","392","285819","0.0-6.0-0.193","FLSE","3","m","rechts","23","","fixation","","","",""
"608","img/0_90.png","74","image-keyboard-response","393","286441","0.0-6.0-1.193","FLSE","3","m","rechts","23","","","self","j","0","true"
"null","<div style=""font-size:60px;"">+</div>","null","html-keyboard-response","394","286819","0.0-6.0-0.194","FLSE","3","m","rechts","23","","fixation","","","",""
"597","img/L120_180.png","70","image-keyboard-response","395","287431","0.0-6.0-1.194","FLSE","3","m","rechts","23","","","self","f","120","true"
"null","<div style=""font-size:60px;"">+</div>","null","html-keyboard-response","396","287803","0.0-6.0-0.195","FLSE","3","m","rechts","23","","fixation","","","",""
"683","img/150_180.png","74","image-keyboard-response","397","288500","0.0-6.0-1.195","FLSE","3","m","rechts","23","","","self","j","150","true"
"null","<div style=""font-size:60px;"">+</div>","null","html-keyboard-response","398","288803","0.0-6.0-0.196","FLSE","3","m","rechts","23","","fixation","","","",""
"754","img/60_90.png","74","image-keyboard-response","399","289568","0.0-6.0-1.196","FLSE","3","m","rechts","23","","","self","j","60","true"
"null","<div style=""font-size:60px;"">+</div>","null","html-keyboard-response","400","289976","0.0-6.0-0.197","FLSE","3","m","rechts","23","","fixation","","","",""
"773","img/90_300.png","70","image-keyboard-response","401","290761","0.0-6.0-1.197","FLSE","3","m","rechts","23","","","self","f","90","true"
"null","<div style=""font-size:60px;"">+</div>","null","html-keyboard-response","402","291163","0.0-6.0-0.198","FLSE","3","m","rechts","23","","fixation","","","",""
"911","img/150_120.png","70","image-keyboard-response","403","292088","0.0-6.0-1.198","FLSE","3","m","rechts","23","","","self","f","150","true"
"null","<div style=""font-size:60px;"">+</div>","null","html-keyboard-response","404","292506","0.0-6.0-0.199","FLSE","3","m","rechts","23","","fixation","","","",""
"953","img/120_30.png","74","image-keyboard-response","405","293472","0.0-6.0-1.199","FLSE","3","m","rechts","23","","","self","j","120","true"
"null","<div style=""font-size:60px;"">+</div>","null","html-keyboard-response","406","293897","0.0-6.0-0.200","FLSE","3","m","rechts","23","","fixation","","","",""
"697","img/L60_180.png","70","image-keyboard-response","407","294608","0.0-6.0-1.200","FLSE","3","m","rechts","23","","","self","f","60","true"
"null","<div style=""font-size:60px;"">+</div>","null","html-keyboard-response","408","294912","0.0-6.0-0.201","FLSE","3","m","rechts","23","","fixation","","","",""
"525","img/0_240.png","70","image-keyboard-response","409","295452","0.0-6.0-1.201","FLSE","3","m","rechts","23","","","self","f","0","true"
"null","<div style=""font-size:60px;"">+</div>","null","html-keyboard-response","410","295962","0.0-6.0-0.202","FLSE","3","m","rechts","23","","fixation","","","",""
"613","img/120_180.png","74","image-keyboard-response","411","296589","0.0-6.0-1.202","FLSE","3","m","rechts","23","","","self","j","120","true"
"null","<div style=""font-size:60px;"">+</div>","null","html-keyboard-response","412","297008","0.0-6.0-0.203","FLSE","3","m","rechts","23","","fixation","","","",""
"795","img/150_270.png","74","image-keyboard-response","413","297815","0.0-6.0-1.203","FLSE","3","m","rechts","23","","","self","j","150","true"
"null","<div style=""font-size:60px;"">+</div>","null","html-keyboard-response","414","298289","0.0-6.0-0.204","FLSE","3","m","rechts","23","","fixation","","","",""
"553","img/90_180.png","74","image-keyboard-response","415","298849","0.0-6.0-1.204","FLSE","3","m","rechts","23","","","self","j","90","true"
"null","<div style=""font-size:60px;"">+</div>","null","html-keyboard-response","416","299164","0.0-6.0-0.205","FLSE","3","m","rechts","23","","fixation","","","",""
"604","img/0_60.png","74","image-keyboard-response","417","299781","0.0-6.0-1.205","FLSE","3","m","rechts","23","","","self","j","0","true"
"null","<div style=""font-size:60px;"">+</div>","null","html-keyboard-response","418","300304","0.0-6.0-0.206","FLSE","3","m","rechts","23","","fixation","","","",""
"565","img/L90_180.png","70","image-keyboard-response","419","300874","0.0-6.0-1.206","FLSE","3","m","rechts","23","","","self","f","90","true"
"null","<div style=""font-size:60px;"">+</div>","null","html-keyboard-response","420","301242","0.0-6.0-0.207","FLSE","3","m","rechts","23","","fixation","","","",""
"934","img/120_90.png","70","image-keyboard-response","421","302192","0.0-6.0-1.207","FLSE","3","m","rechts","23","","","self","f","120","true"
"12304","<p>Du hast in 93% der Versuche korrekt entschieden.</p><p>Deine durchschnittliche Reaktionszeit war  646ms.</p><p>Dr&uuml;cke eine beliebige Taste, um die Session zu beenden. Vielen Dank!</p>","32","html-keyboard-response","422","314502","0.0-7.0","FLSE","3","m","rechts","23","","","","","",""
