"rt","stimulus","key_press","trial_type","trial_index","time_elapsed","internal_node_id","subject","session","sex","handedness","age","responses","test_part","condition","correct_response","angle","correct"
"1339","<p>Mental Rotation Experiment.</p> <p>Dr&uuml;cke eine beliebige Taste, um anzufangen.</p>","13","html-keyboard-response","0","1382","0.0-0.0","FLSE","1","m","rechts","23","","","","","",""
"6257","","","survey-text","1","7641","0.0-1.0","FLSE","1","m","rechts","23","{""Q0"":""FLSE""}","","","","",""
"2626","","","survey-text","2","10269","0.0-2.0","FLSE","1","m","rechts","23","{""Q0"":""1""}","","","","",""
"9853","","","survey-multi-choice","3","20125","0.0-3.0","FLSE","1","m","rechts","23","{""Q0"":""m"",""Q1"":""rechts""}","","","","",""
"2754","","","survey-text","4","22881","0.0-4.0","FLSE","1","m","rechts","23","{""Q0"":""23""}","","","","",""
"18981","<p> Stell dir vor, dass du vor einem runden Tisch stehst, auf dem sich ein blauer Ball am Tischrand befindet. Entlang des Tischrands ist jeweils ein verschieden langer Pfeil. Nun bewegst du dich entlang dieses Pfeils bis an seine Spitze. Wenn du am Ende des Pfeils angekommen bist, schau zur Tischmitte. </p> <img src='img/90_180.png'></img> <br> <p>Entscheide dann, ob der Ball von deiner neuen (vorgestellten) Position links oder rechts von dir liegt.</p> <p>Dr&uuml;cke die <strong>'f'</strong>-Taste f&uuml;r links, die <strong>'j'</strong>-Taste f&uuml;r rechts.</p> <br><p> Das Bild wird jeweils 1 Sekunde lang pr&auml;sentiert. Du hast 3 Sekunden Zeit eine Entscheidung zu treffen.</p>","74","html-keyboard-response","5","41868","0.0-5.0","FLSE","1","m","rechts","23","","","","","",""
"null","<div style=""font-size:60px;"">+</div>","null","html-keyboard-response","6","43212","0.0-6.0-0.0","FLSE","1","m","rechts","23","","fixation","","","",""
"798","img/0_150.png","74","image-keyboard-response","7","44028","0.0-6.0-1.0","FLSE","1","m","rechts","23","","","self","j","0","true"
"null","<div style=""font-size:60px;"">+</div>","null","html-keyboard-response","8","44385","0.0-6.0-0.1","FLSE","1","m","rechts","23","","fixation","","","",""
"787","img/L60_180.png","70","image-keyboard-response","9","45193","0.0-6.0-1.1","FLSE","1","m","rechts","23","","","self","f","60","true"
"null","<div style=""font-size:60px;"">+</div>","null","html-keyboard-response","10","45571","0.0-6.0-0.2","FLSE","1","m","rechts","23","","fixation","","","",""
"941","img/150_60.png","74","image-keyboard-response","11","46520","0.0-6.0-1.2","FLSE","1","m","rechts","23","","","self","f","150","false"
"null","<div style=""font-size:60px;"">+</div>","null","html-keyboard-response","12","46946","0.0-6.0-0.3","FLSE","1","m","rechts","23","","fixation","","","",""
"794","img/30_240.png","74","image-keyboard-response","13","47757","0.0-6.0-1.3","FLSE","1","m","rechts","23","","","self","f","30","false"
"null","<div style=""font-size:60px;"">+</div>","null","html-keyboard-response","14","48167","0.0-6.0-0.4","FLSE","1","m","rechts","23","","fixation","","","",""
"789","img/60_180.png","74","image-keyboard-response","15","48974","0.0-6.0-1.4","FLSE","1","m","rechts","23","","","self","j","60","true"
"null","<div style=""font-size:60px;"">+</div>","null","html-keyboard-response","16","49400","0.0-6.0-0.5","FLSE","1","m","rechts","23","","fixation","","","",""
"1086","img/90_330.png","70","image-keyboard-response","17","50502","0.0-6.0-1.5","FLSE","1","m","rechts","23","","","self","f","90","true"
"null","<div style=""font-size:60px;"">+</div>","null","html-keyboard-response","18","51008","0.0-6.0-0.6","FLSE","1","m","rechts","23","","fixation","","","",""
"767","img/90_150.png","70","image-keyboard-response","19","51783","0.0-6.0-1.6","FLSE","1","m","rechts","23","","","self","f","90","true"
"null","<div style=""font-size:60px;"">+</div>","null","html-keyboard-response","20","52208","0.0-6.0-0.7","FLSE","1","m","rechts","23","","fixation","","","",""
"873","img/150_270.png","74","image-keyboard-response","21","53102","0.0-6.0-1.7","FLSE","1","m","rechts","23","","","self","j","150","true"
"null","<div style=""font-size:60px;"">+</div>","null","html-keyboard-response","22","53522","0.0-6.0-0.8","FLSE","1","m","rechts","23","","fixation","","","",""
"762","img/L90_180.png","70","image-keyboard-response","23","54306","0.0-6.0-1.8","FLSE","1","m","rechts","23","","","self","f","90","true"
"null","<div style=""font-size:60px;"">+</div>","null","html-keyboard-response","24","54834","0.0-6.0-0.9","FLSE","1","m","rechts","23","","fixation","","","",""
"1017","img/30_300.png","70","image-keyboard-response","25","55869","0.0-6.0-1.9","FLSE","1","m","rechts","23","","","self","f","30","true"
"null","<div style=""font-size:60px;"">+</div>","null","html-keyboard-response","26","56350","0.0-6.0-0.10","FLSE","1","m","rechts","23","","fixation","","","",""
"1221","img/30_90.png","74","image-keyboard-response","27","57588","0.0-6.0-1.10","FLSE","1","m","rechts","23","","","self","j","30","true"
"null","<div style=""font-size:60px;"">+</div>","null","html-keyboard-response","28","58102","0.0-6.0-0.11","FLSE","1","m","rechts","23","","fixation","","","",""
"967","img/150_240.png","74","image-keyboard-response","29","59086","0.0-6.0-1.11","FLSE","1","m","rechts","23","","","self","j","150","true"
"null","<div style=""font-size:60px;"">+</div>","null","html-keyboard-response","30","59446","0.0-6.0-0.12","FLSE","1","m","rechts","23","","fixation","","","",""
"622","img/0_30.png","74","image-keyboard-response","31","60089","0.0-6.0-1.12","FLSE","1","m","rechts","23","","","self","j","0","true"
"null","<div style=""font-size:60px;"">+</div>","null","html-keyboard-response","32","60615","0.0-6.0-0.13","FLSE","1","m","rechts","23","","fixation","","","",""
"836","img/60_330.png","70","image-keyboard-response","33","61461","0.0-6.0-1.13","FLSE","1","m","rechts","23","","","self","f","60","true"
"null","<div style=""font-size:60px;"">+</div>","null","html-keyboard-response","34","61929","0.0-6.0-0.14","FLSE","1","m","rechts","23","","fixation","","","",""
"1139","img/60_210.png","74","image-keyboard-response","35","63091","0.0-6.0-1.14","FLSE","1","m","rechts","23","","","self","j","60","true"
"null","<div style=""font-size:60px;"">+</div>","null","html-keyboard-response","36","63506","0.0-6.0-0.15","FLSE","1","m","rechts","23","","fixation","","","",""
"1008","img/60_90.png","74","image-keyboard-response","37","64543","0.0-6.0-1.15","FLSE","1","m","rechts","23","","","self","j","60","true"
"null","<div style=""font-size:60px;"">+</div>","null","html-keyboard-response","38","64852","0.0-6.0-0.16","FLSE","1","m","rechts","23","","fixation","","","",""
"989","img/120_180.png","74","image-keyboard-response","39","65860","0.0-6.0-1.16","FLSE","1","m","rechts","23","","","self","j","120","true"
"null","<div style=""font-size:60px;"">+</div>","null","html-keyboard-response","40","66384","0.0-6.0-0.17","FLSE","1","m","rechts","23","","fixation","","","",""
"1022","img/150_300.png","74","image-keyboard-response","41","67423","0.0-6.0-1.17","FLSE","1","m","rechts","23","","","self","j","150","true"
"null","<div style=""font-size:60px;"">+</div>","null","html-keyboard-response","42","67885","0.0-6.0-0.18","FLSE","1","m","rechts","23","","fixation","","","",""
"1129","img/60_30.png","74","image-keyboard-response","43","69032","0.0-6.0-1.18","FLSE","1","m","rechts","23","","","self","j","60","true"
"null","<div style=""font-size:60px;"">+</div>","null","html-keyboard-response","44","69493","0.0-6.0-0.19","FLSE","1","m","rechts","23","","fixation","","","",""
"849","img/90_210.png","74","image-keyboard-response","45","70359","0.0-6.0-1.19","FLSE","1","m","rechts","23","","","self","j","90","true"
"null","<div style=""font-size:60px;"">+</div>","null","html-keyboard-response","46","70775","0.0-6.0-0.20","FLSE","1","m","rechts","23","","fixation","","","",""
"1277","img/90_240.png","74","image-keyboard-response","47","72069","0.0-6.0-1.20","FLSE","1","m","rechts","23","","","self","j","90","true"
"null","<div style=""font-size:60px;"">+</div>","null","html-keyboard-response","48","72478","0.0-6.0-0.21","FLSE","1","m","rechts","23","","fixation","","","",""
"765","img/L30_180.png","70","image-keyboard-response","49","73262","0.0-6.0-1.21","FLSE","1","m","rechts","23","","","self","f","30","true"
"null","<div style=""font-size:60px;"">+</div>","null","html-keyboard-response","50","73679","0.0-6.0-0.22","FLSE","1","m","rechts","23","","fixation","","","",""
"1013","img/60_150.png","70","image-keyboard-response","51","74700","0.0-6.0-1.22","FLSE","1","m","rechts","23","","","self","f","60","true"
"null","<div style=""font-size:60px;"">+</div>","null","html-keyboard-response","52","75008","0.0-6.0-0.23","FLSE","1","m","rechts","23","","fixation","","","",""
"1115","img/30_180.png","74","image-keyboard-response","53","76141","0.0-6.0-1.23","FLSE","1","m","rechts","23","","","self","j","30","true"
"null","<div style=""font-size:60px;"">+</div>","null","html-keyboard-response","54","76601","0.0-6.0-0.24","FLSE","1","m","rechts","23","","fixation","","","",""
"836","img/120_150.png","70","image-keyboard-response","55","77458","0.0-6.0-1.24","FLSE","1","m","rechts","23","","","self","f","120","true"
"null","<div style=""font-size:60px;"">+</div>","null","html-keyboard-response","56","77886","0.0-6.0-0.25","FLSE","1","m","rechts","23","","fixation","","","",""
"735","img/0_210.png","70","image-keyboard-response","57","78639","0.0-6.0-1.25","FLSE","1","m","rechts","23","","","self","f","0","true"
"null","<div style=""font-size:60px;"">+</div>","null","html-keyboard-response","58","79104","0.0-6.0-0.26","FLSE","1","m","rechts","23","","fixation","","","",""
"1251","img/30_120.png","74","image-keyboard-response","59","80372","0.0-6.0-1.26","FLSE","1","m","rechts","23","","","self","j","30","true"
"null","<div style=""font-size:60px;"">+</div>","null","html-keyboard-response","60","80792","0.0-6.0-0.27","FLSE","1","m","rechts","23","","fixation","","","",""
"1316","img/120_210.png","74","image-keyboard-response","61","82125","0.0-6.0-1.27","FLSE","1","m","rechts","23","","","self","j","120","true"
"null","<div style=""font-size:60px;"">+</div>","null","html-keyboard-response","62","82588","0.0-6.0-0.28","FLSE","1","m","rechts","23","","fixation","","","",""
"792","img/120_90.png","70","image-keyboard-response","63","83398","0.0-6.0-1.28","FLSE","1","m","rechts","23","","","self","f","120","true"
"null","<div style=""font-size:60px;"">+</div>","null","html-keyboard-response","64","83870","0.0-6.0-0.29","FLSE","1","m","rechts","23","","fixation","","","",""
"658","img/150_180.png","74","image-keyboard-response","65","84545","0.0-6.0-1.29","FLSE","1","m","rechts","23","","","self","j","150","true"
"null","<div style=""font-size:60px;"">+</div>","null","html-keyboard-response","66","84900","0.0-6.0-0.30","FLSE","1","m","rechts","23","","fixation","","","",""
"906","img/150_90.png","70","image-keyboard-response","67","85829","0.0-6.0-1.30","FLSE","1","m","rechts","23","","","self","f","150","true"
"null","<div style=""font-size:60px;"">+</div>","null","html-keyboard-response","68","86354","0.0-6.0-0.31","FLSE","1","m","rechts","23","","fixation","","","",""
"1233","img/120_330.png","70","image-keyboard-response","69","87606","0.0-6.0-1.31","FLSE","1","m","rechts","23","","","self","f","120","true"
"null","<div style=""font-size:60px;"">+</div>","null","html-keyboard-response","70","88084","0.0-6.0-0.32","FLSE","1","m","rechts","23","","fixation","","","",""
"804","img/90_180.png","74","image-keyboard-response","71","88900","0.0-6.0-1.32","FLSE","1","m","rechts","23","","","self","j","90","true"
"null","<div style=""font-size:60px;"">+</div>","null","html-keyboard-response","72","89224","0.0-6.0-0.33","FLSE","1","m","rechts","23","","fixation","","","",""
"1198","img/120_270.png","74","image-keyboard-response","73","90441","0.0-6.0-1.33","FLSE","1","m","rechts","23","","","self","j","120","true"
"null","<div style=""font-size:60px;"">+</div>","null","html-keyboard-response","74","90756","0.0-6.0-0.34","FLSE","1","m","rechts","23","","fixation","","","",""
"815","img/0_240.png","70","image-keyboard-response","75","91588","0.0-6.0-1.34","FLSE","1","m","rechts","23","","","self","f","0","true"
"null","<div style=""font-size:60px;"">+</div>","null","html-keyboard-response","76","91957","0.0-6.0-0.35","FLSE","1","m","rechts","23","","fixation","","","",""
"633","img/0_60.png","74","image-keyboard-response","77","92610","0.0-6.0-1.35","FLSE","1","m","rechts","23","","","self","j","0","true"
"null","<div style=""font-size:60px;"">+</div>","null","html-keyboard-response","78","92977","0.0-6.0-0.36","FLSE","1","m","rechts","23","","fixation","","","",""
"551","img/L150_180.png","70","image-keyboard-response","79","93545","0.0-6.0-1.36","FLSE","1","m","rechts","23","","","self","f","150","true"
"null","<div style=""font-size:60px;"">+</div>","null","html-keyboard-response","80","93899","0.0-6.0-0.37","FLSE","1","m","rechts","23","","fixation","","","",""
"750","img/0_330.png","70","image-keyboard-response","81","94669","0.0-6.0-1.37","FLSE","1","m","rechts","23","","","self","f","0","true"
"null","<div style=""font-size:60px;"">+</div>","null","html-keyboard-response","82","95194","0.0-6.0-0.38","FLSE","1","m","rechts","23","","fixation","","","",""
"921","img/150_120.png","70","image-keyboard-response","83","96134","0.0-6.0-1.38","FLSE","1","m","rechts","23","","","self","f","150","true"
"null","<div style=""font-size:60px;"">+</div>","null","html-keyboard-response","84","96537","0.0-6.0-0.39","FLSE","1","m","rechts","23","","fixation","","","",""
"1455","img/0_120.png","74","image-keyboard-response","85","98012","0.0-6.0-1.39","FLSE","1","m","rechts","23","","","self","j","0","true"
"null","<div style=""font-size:60px;"">+</div>","null","html-keyboard-response","86","98381","0.0-6.0-0.40","FLSE","1","m","rechts","23","","fixation","","","",""
"680","img/90_120.png","70","image-keyboard-response","87","99082","0.0-6.0-1.40","FLSE","1","m","rechts","23","","","self","f","90","true"
"null","<div style=""font-size:60px;"">+</div>","null","html-keyboard-response","88","99601","0.0-6.0-0.41","FLSE","1","m","rechts","23","","fixation","","","",""
"711","img/0_90.png","74","image-keyboard-response","89","100329","0.0-6.0-1.41","FLSE","1","m","rechts","23","","","self","j","0","true"
"null","<div style=""font-size:60px;"">+</div>","null","html-keyboard-response","90","100692","0.0-6.0-0.42","FLSE","1","m","rechts","23","","fixation","","","",""
"631","img/0_300.png","70","image-keyboard-response","91","101331","0.0-6.0-1.42","FLSE","1","m","rechts","23","","","self","f","0","true"
"null","<div style=""font-size:60px;"">+</div>","null","html-keyboard-response","92","101787","0.0-6.0-0.43","FLSE","1","m","rechts","23","","fixation","","","",""
"595","img/0_270.png","70","image-keyboard-response","93","102400","0.0-6.0-1.43","FLSE","1","m","rechts","23","","","self","f","0","true"
"null","<div style=""font-size:60px;"">+</div>","null","html-keyboard-response","94","102758","0.0-6.0-0.44","FLSE","1","m","rechts","23","","fixation","","","",""
"1143","img/30_60.png","74","image-keyboard-response","95","103920","0.0-6.0-1.44","FLSE","1","m","rechts","23","","","self","j","30","true"
"null","<div style=""font-size:60px;"">+</div>","null","html-keyboard-response","96","104431","0.0-6.0-0.45","FLSE","1","m","rechts","23","","fixation","","","",""
"909","img/60_270.png","70","image-keyboard-response","97","105358","0.0-6.0-1.45","FLSE","1","m","rechts","23","","","self","f","60","true"
"null","<div style=""font-size:60px;"">+</div>","null","html-keyboard-response","98","105790","0.0-6.0-0.46","FLSE","1","m","rechts","23","","fixation","","","",""
"1036","img/90_30.png","74","image-keyboard-response","99","106844","0.0-6.0-1.46","FLSE","1","m","rechts","23","","","self","j","90","true"
"null","<div style=""font-size:60px;"">+</div>","null","html-keyboard-response","100","107305","0.0-6.0-0.47","FLSE","1","m","rechts","23","","fixation","","","",""
"905","img/30_270.png","70","image-keyboard-response","101","108228","0.0-6.0-1.47","FLSE","1","m","rechts","23","","","self","f","30","true"
"null","<div style=""font-size:60px;"">+</div>","null","html-keyboard-response","102","108588","0.0-6.0-0.48","FLSE","1","m","rechts","23","","fixation","","","",""
"794","img/90_60.png","74","image-keyboard-response","103","109409","0.0-6.0-1.48","FLSE","1","m","rechts","23","","","self","j","90","true"
"null","<div style=""font-size:60px;"">+</div>","null","html-keyboard-response","104","109742","0.0-6.0-0.49","FLSE","1","m","rechts","23","","fixation","","","",""
"1438","img/120_30.png","70","image-keyboard-response","105","111186","0.0-6.0-1.49","FLSE","1","m","rechts","23","","","self","j","120","false"
"null","<div style=""font-size:60px;"">+</div>","null","html-keyboard-response","106","111554","0.0-6.0-0.50","FLSE","1","m","rechts","23","","fixation","","","",""
"706","img/L120_180.png","70","image-keyboard-response","107","112267","0.0-6.0-1.50","FLSE","1","m","rechts","23","","","self","f","120","true"
"null","<div style=""font-size:60px;"">+</div>","null","html-keyboard-response","108","112572","0.0-6.0-0.51","FLSE","1","m","rechts","23","","fixation","","","",""
"1203","img/90_300.png","70","image-keyboard-response","109","113796","0.0-6.0-1.51","FLSE","1","m","rechts","23","","","self","f","90","true"
"null","<div style=""font-size:60px;"">+</div>","null","html-keyboard-response","110","114104","0.0-6.0-0.52","FLSE","1","m","rechts","23","","fixation","","","",""
"684","img/0_300.png","70","image-keyboard-response","111","114796","0.0-6.0-1.52","FLSE","1","m","rechts","23","","","self","f","0","true"
"null","<div style=""font-size:60px;"">+</div>","null","html-keyboard-response","112","115307","0.0-6.0-0.53","FLSE","1","m","rechts","23","","fixation","","","",""
"546","img/30_180.png","74","image-keyboard-response","113","115865","0.0-6.0-1.53","FLSE","1","m","rechts","23","","","self","j","30","true"
"null","<div style=""font-size:60px;"">+</div>","null","html-keyboard-response","114","116181","0.0-6.0-0.54","FLSE","1","m","rechts","23","","fixation","","","",""
"640","img/0_30.png","74","image-keyboard-response","115","116835","0.0-6.0-1.54","FLSE","1","m","rechts","23","","","self","j","0","true"
"null","<div style=""font-size:60px;"">+</div>","null","html-keyboard-response","116","117150","0.0-6.0-0.55","FLSE","1","m","rechts","23","","fixation","","","",""
"856","img/90_300.png","70","image-keyboard-response","117","118019","0.0-6.0-1.55","FLSE","1","m","rechts","23","","","self","f","90","true"
"null","<div style=""font-size:60px;"">+</div>","null","html-keyboard-response","118","118432","0.0-6.0-0.56","FLSE","1","m","rechts","23","","fixation","","","",""
"733","img/60_270.png","70","image-keyboard-response","119","119173","0.0-6.0-1.56","FLSE","1","m","rechts","23","","","self","f","60","true"
"null","<div style=""font-size:60px;"">+</div>","null","html-keyboard-response","120","119588","0.0-6.0-0.57","FLSE","1","m","rechts","23","","fixation","","","",""
"559","img/0_150.png","74","image-keyboard-response","121","120162","0.0-6.0-1.57","FLSE","1","m","rechts","23","","","self","j","0","true"
"null","<div style=""font-size:60px;"">+</div>","null","html-keyboard-response","122","120478","0.0-6.0-0.58","FLSE","1","m","rechts","23","","fixation","","","",""
"823","img/120_150.png","70","image-keyboard-response","123","121311","0.0-6.0-1.58","FLSE","1","m","rechts","23","","","self","f","120","true"
"null","<div style=""font-size:60px;"">+</div>","null","html-keyboard-response","124","121775","0.0-6.0-0.59","FLSE","1","m","rechts","23","","fixation","","","",""
"671","img/90_330.png","70","image-keyboard-response","125","122459","0.0-6.0-1.59","FLSE","1","m","rechts","23","","","self","f","90","true"
"null","<div style=""font-size:60px;"">+</div>","null","html-keyboard-response","126","122762","0.0-6.0-0.60","FLSE","1","m","rechts","23","","fixation","","","",""
"741","img/60_210.png","74","image-keyboard-response","127","123515","0.0-6.0-1.60","FLSE","1","m","rechts","23","","","self","j","60","true"
"null","<div style=""font-size:60px;"">+</div>","null","html-keyboard-response","128","123921","0.0-6.0-0.61","FLSE","1","m","rechts","23","","fixation","","","",""
"540","img/0_60.png","74","image-keyboard-response","129","124471","0.0-6.0-1.61","FLSE","1","m","rechts","23","","","self","j","0","true"
"null","<div style=""font-size:60px;"">+</div>","null","html-keyboard-response","130","124998","0.0-6.0-0.62","FLSE","1","m","rechts","23","","fixation","","","",""
"553","img/60_150.png","70","image-keyboard-response","131","125567","0.0-6.0-1.62","FLSE","1","m","rechts","23","","","self","f","60","true"
"null","<div style=""font-size:60px;"">+</div>","null","html-keyboard-response","132","125921","0.0-6.0-0.63","FLSE","1","m","rechts","23","","fixation","","","",""
"779","img/30_60.png","74","image-keyboard-response","133","126709","0.0-6.0-1.63","FLSE","1","m","rechts","23","","","self","j","30","true"
"null","<div style=""font-size:60px;"">+</div>","null","html-keyboard-response","134","127124","0.0-6.0-0.64","FLSE","1","m","rechts","23","","fixation","","","",""
"500","img/150_180.png","74","image-keyboard-response","135","127632","0.0-6.0-1.64","FLSE","1","m","rechts","23","","","self","j","150","true"
"null","<div style=""font-size:60px;"">+</div>","null","html-keyboard-response","136","128091","0.0-6.0-0.65","FLSE","1","m","rechts","23","","fixation","","","",""
"664","img/L60_180.png","70","image-keyboard-response","137","128768","0.0-6.0-1.65","FLSE","1","m","rechts","23","","","self","f","60","true"
"null","<div style=""font-size:60px;"">+</div>","null","html-keyboard-response","138","129093","0.0-6.0-0.66","FLSE","1","m","rechts","23","","fixation","","","",""
"553","img/120_180.png","74","image-keyboard-response","139","129657","0.0-6.0-1.66","FLSE","1","m","rechts","23","","","self","j","120","true"
"null","<div style=""font-size:60px;"">+</div>","null","html-keyboard-response","140","130060","0.0-6.0-0.67","FLSE","1","m","rechts","23","","fixation","","","",""
"890","img/150_240.png","74","image-keyboard-response","141","130964","0.0-6.0-1.67","FLSE","1","m","rechts","23","","","self","j","150","true"
"null","<div style=""font-size:60px;"">+</div>","null","html-keyboard-response","142","131372","0.0-6.0-0.68","FLSE","1","m","rechts","23","","fixation","","","",""
"562","img/0_270.png","70","image-keyboard-response","143","131943","0.0-6.0-1.68","FLSE","1","m","rechts","23","","","self","f","0","true"
"null","<div style=""font-size:60px;"">+</div>","null","html-keyboard-response","144","132310","0.0-6.0-0.69","FLSE","1","m","rechts","23","","fixation","","","",""
"585","img/60_180.png","74","image-keyboard-response","145","132909","0.0-6.0-1.69","FLSE","1","m","rechts","23","","","self","j","60","true"
"null","<div style=""font-size:60px;"">+</div>","null","html-keyboard-response","146","133437","0.0-6.0-0.70","FLSE","1","m","rechts","23","","fixation","","","",""
"532","img/30_270.png","70","image-keyboard-response","147","133980","0.0-6.0-1.70","FLSE","1","m","rechts","23","","","self","f","30","true"
"null","<div style=""font-size:60px;"">+</div>","null","html-keyboard-response","148","134437","0.0-6.0-0.71","FLSE","1","m","rechts","23","","fixation","","","",""
"1388","img/120_270.png","74","image-keyboard-response","149","135835","0.0-6.0-1.71","FLSE","1","m","rechts","23","","","self","j","120","true"
"null","<div style=""font-size:60px;"">+</div>","null","html-keyboard-response","150","136359","0.0-6.0-0.72","FLSE","1","m","rechts","23","","fixation","","","",""
"1251","img/60_330.png","70","image-keyboard-response","151","137625","0.0-6.0-1.72","FLSE","1","m","rechts","23","","","self","f","60","true"
"null","<div style=""font-size:60px;"">+</div>","null","html-keyboard-response","152","137937","0.0-6.0-0.73","FLSE","1","m","rechts","23","","fixation","","","",""
"788","img/30_90.png","74","image-keyboard-response","153","138736","0.0-6.0-1.73","FLSE","1","m","rechts","23","","","self","j","30","true"
"null","<div style=""font-size:60px;"">+</div>","null","html-keyboard-response","154","139250","0.0-6.0-0.74","FLSE","1","m","rechts","23","","fixation","","","",""
"893","img/90_150.png","70","image-keyboard-response","155","140155","0.0-6.0-1.74","FLSE","1","m","rechts","23","","","self","f","90","true"
"null","<div style=""font-size:60px;"">+</div>","null","html-keyboard-response","156","140578","0.0-6.0-0.75","FLSE","1","m","rechts","23","","fixation","","","",""
"1076","img/150_270.png","74","image-keyboard-response","157","141671","0.0-6.0-1.75","FLSE","1","m","rechts","23","","","self","j","150","true"
"null","<div style=""font-size:60px;"">+</div>","null","html-keyboard-response","158","142093","0.0-6.0-0.76","FLSE","1","m","rechts","23","","fixation","","","",""
"945","img/90_30.png","74","image-keyboard-response","159","143047","0.0-6.0-1.76","FLSE","1","m","rechts","23","","","self","j","90","true"
"null","<div style=""font-size:60px;"">+</div>","null","html-keyboard-response","160","143423","0.0-6.0-0.77","FLSE","1","m","rechts","23","","fixation","","","",""
"1027","img/60_90.png","74","image-keyboard-response","161","144463","0.0-6.0-1.77","FLSE","1","m","rechts","23","","","self","j","60","true"
"null","<div style=""font-size:60px;"">+</div>","null","html-keyboard-response","162","144969","0.0-6.0-0.78","FLSE","1","m","rechts","23","","fixation","","","",""
"856","img/L150_180.png","70","image-keyboard-response","163","145836","0.0-6.0-1.78","FLSE","1","m","rechts","23","","","self","f","150","true"
"null","<div style=""font-size:60px;"">+</div>","null","html-keyboard-response","164","146312","0.0-6.0-0.79","FLSE","1","m","rechts","23","","fixation","","","",""
"745","img/90_240.png","74","image-keyboard-response","165","147072","0.0-6.0-1.79","FLSE","1","m","rechts","23","","","self","j","90","true"
"null","<div style=""font-size:60px;"">+</div>","null","html-keyboard-response","166","147532","0.0-6.0-0.80","FLSE","1","m","rechts","23","","fixation","","","",""
"812","img/90_180.png","74","image-keyboard-response","167","148357","0.0-6.0-1.80","FLSE","1","m","rechts","23","","","self","j","90","true"
"null","<div style=""font-size:60px;"">+</div>","null","html-keyboard-response","168","148769","0.0-6.0-0.81","FLSE","1","m","rechts","23","","fixation","","","",""
"949","img/150_120.png","70","image-keyboard-response","169","149727","0.0-6.0-1.81","FLSE","1","m","rechts","23","","","self","f","150","true"
"null","<div style=""font-size:60px;"">+</div>","null","html-keyboard-response","170","150206","0.0-6.0-0.82","FLSE","1","m","rechts","23","","fixation","","","",""
"939","img/60_30.png","74","image-keyboard-response","171","151159","0.0-6.0-1.82","FLSE","1","m","rechts","23","","","self","j","60","true"
"null","<div style=""font-size:60px;"">+</div>","null","html-keyboard-response","172","151673","0.0-6.0-0.83","FLSE","1","m","rechts","23","","fixation","","","",""
"883","img/90_60.png","74","image-keyboard-response","173","152562","0.0-6.0-1.83","FLSE","1","m","rechts","23","","","self","j","90","true"
"null","<div style=""font-size:60px;"">+</div>","null","html-keyboard-response","174","152970","0.0-6.0-0.84","FLSE","1","m","rechts","23","","fixation","","","",""
"1011","img/30_300.png","70","image-keyboard-response","175","153993","0.0-6.0-1.84","FLSE","1","m","rechts","23","","","self","f","30","true"
"null","<div style=""font-size:60px;"">+</div>","null","html-keyboard-response","176","154519","0.0-6.0-0.85","FLSE","1","m","rechts","23","","fixation","","","",""
"632","img/0_330.png","70","image-keyboard-response","177","155163","0.0-6.0-1.85","FLSE","1","m","rechts","23","","","self","f","0","true"
"null","<div style=""font-size:60px;"">+</div>","null","html-keyboard-response","178","155518","0.0-6.0-0.86","FLSE","1","m","rechts","23","","fixation","","","",""
"862","img/120_90.png","70","image-keyboard-response","179","156394","0.0-6.0-1.86","FLSE","1","m","rechts","23","","","self","f","120","true"
"null","<div style=""font-size:60px;"">+</div>","null","html-keyboard-response","180","156753","0.0-6.0-0.87","FLSE","1","m","rechts","23","","fixation","","","",""
"645","img/120_210.png","74","image-keyboard-response","181","157413","0.0-6.0-1.87","FLSE","1","m","rechts","23","","","self","j","120","true"
"null","<div style=""font-size:60px;"">+</div>","null","html-keyboard-response","182","157895","0.0-6.0-0.88","FLSE","1","m","rechts","23","","fixation","","","",""
"1182","img/30_240.png","70","image-keyboard-response","183","159090","0.0-6.0-1.88","FLSE","1","m","rechts","23","","","self","f","30","true"
"null","<div style=""font-size:60px;"">+</div>","null","html-keyboard-response","184","159501","0.0-6.0-0.89","FLSE","1","m","rechts","23","","fixation","","","",""
"610","img/0_90.png","74","image-keyboard-response","185","160125","0.0-6.0-1.89","FLSE","1","m","rechts","23","","","self","j","0","true"
"null","<div style=""font-size:60px;"">+</div>","null","html-keyboard-response","186","160580","0.0-6.0-0.90","FLSE","1","m","rechts","23","","fixation","","","",""
"1172","img/150_60.png","74","image-keyboard-response","187","161765","0.0-6.0-1.90","FLSE","1","m","rechts","23","","","self","f","150","false"
"null","<div style=""font-size:60px;"">+</div>","null","html-keyboard-response","188","162125","0.0-6.0-0.91","FLSE","1","m","rechts","23","","fixation","","","",""
"628","img/90_210.png","74","image-keyboard-response","189","162768","0.0-6.0-1.91","FLSE","1","m","rechts","23","","","self","j","90","true"
"null","<div style=""font-size:60px;"">+</div>","null","html-keyboard-response","190","163223","0.0-6.0-0.92","FLSE","1","m","rechts","23","","fixation","","","",""
"740","img/L120_180.png","70","image-keyboard-response","191","163973","0.0-6.0-1.92","FLSE","1","m","rechts","23","","","self","f","120","true"
"null","<div style=""font-size:60px;"">+</div>","null","html-keyboard-response","192","164504","0.0-6.0-0.93","FLSE","1","m","rechts","23","","fixation","","","",""
"658","img/0_210.png","70","image-keyboard-response","193","165176","0.0-6.0-1.93","FLSE","1","m","rechts","23","","","self","f","0","true"
"null","<div style=""font-size:60px;"">+</div>","null","html-keyboard-response","194","165691","0.0-6.0-0.94","FLSE","1","m","rechts","23","","fixation","","","",""
"898","img/150_90.png","70","image-keyboard-response","195","166593","0.0-6.0-1.94","FLSE","1","m","rechts","23","","","self","f","150","true"
"null","<div style=""font-size:60px;"">+</div>","null","html-keyboard-response","196","166926","0.0-6.0-0.95","FLSE","1","m","rechts","23","","fixation","","","",""
"1251","img/150_300.png","74","image-keyboard-response","197","168190","0.0-6.0-1.95","FLSE","1","m","rechts","23","","","self","j","150","true"
"null","<div style=""font-size:60px;"">+</div>","null","html-keyboard-response","198","168660","0.0-6.0-0.96","FLSE","1","m","rechts","23","","fixation","","","",""
"608","img/90_120.png","70","image-keyboard-response","199","169272","0.0-6.0-1.96","FLSE","1","m","rechts","23","","","self","f","90","true"
"null","<div style=""font-size:60px;"">+</div>","null","html-keyboard-response","200","169644","0.0-6.0-0.97","FLSE","1","m","rechts","23","","fixation","","","",""
"847","img/L30_180.png","70","image-keyboard-response","201","170497","0.0-6.0-1.97","FLSE","1","m","rechts","23","","","self","f","30","true"
"null","<div style=""font-size:60px;"">+</div>","null","html-keyboard-response","202","171003","0.0-6.0-0.98","FLSE","1","m","rechts","23","","fixation","","","",""
"613","img/0_240.png","70","image-keyboard-response","203","171621","0.0-6.0-1.98","FLSE","1","m","rechts","23","","","self","f","0","true"
"null","<div style=""font-size:60px;"">+</div>","null","html-keyboard-response","204","172034","0.0-6.0-0.99","FLSE","1","m","rechts","23","","fixation","","","",""
"572","img/30_120.png","70","image-keyboard-response","205","172619","0.0-6.0-1.99","FLSE","1","m","rechts","23","","","self","j","30","false"
"null","<div style=""font-size:60px;"">+</div>","null","html-keyboard-response","206","172974","0.0-6.0-0.100","FLSE","1","m","rechts","23","","fixation","","","",""
"747","img/0_120.png","74","image-keyboard-response","207","173734","0.0-6.0-1.100","FLSE","1","m","rechts","23","","","self","j","0","true"
"null","<div style=""font-size:60px;"">+</div>","null","html-keyboard-response","208","174162","0.0-6.0-0.101","FLSE","1","m","rechts","23","","fixation","","","",""
"504","img/L90_180.png","70","image-keyboard-response","209","174679","0.0-6.0-1.101","FLSE","1","m","rechts","23","","","self","f","90","true"
"null","<div style=""font-size:60px;"">+</div>","null","html-keyboard-response","210","175147","0.0-6.0-0.102","FLSE","1","m","rechts","23","","fixation","","","",""
"905","img/120_30.png","74","image-keyboard-response","211","176065","0.0-6.0-1.102","FLSE","1","m","rechts","23","","","self","j","120","true"
"null","<div style=""font-size:60px;"">+</div>","null","html-keyboard-response","212","176584","0.0-6.0-0.103","FLSE","1","m","rechts","23","","fixation","","","",""
"905","img/120_330.png","70","image-keyboard-response","213","177494","0.0-6.0-1.103","FLSE","1","m","rechts","23","","","self","f","120","true"
"null","<div style=""font-size:60px;"">+</div>","null","html-keyboard-response","214","178021","0.0-6.0-0.104","FLSE","1","m","rechts","23","","fixation","","","",""
"938","img/60_90.png","74","image-keyboard-response","215","178969","0.0-6.0-1.104","FLSE","1","m","rechts","23","","","self","j","60","true"
"null","<div style=""font-size:60px;"">+</div>","null","html-keyboard-response","216","179349","0.0-6.0-0.105","FLSE","1","m","rechts","23","","fixation","","","",""
"813","img/150_120.png","70","image-keyboard-response","217","180172","0.0-6.0-1.105","FLSE","1","m","rechts","23","","","self","f","150","true"
"null","<div style=""font-size:60px;"">+</div>","null","html-keyboard-response","218","180645","0.0-6.0-0.106","FLSE","1","m","rechts","23","","fixation","","","",""
"983","img/L150_180.png","70","image-keyboard-response","219","181632","0.0-6.0-1.106","FLSE","1","m","rechts","23","","","self","f","150","true"
"null","<div style=""font-size:60px;"">+</div>","null","html-keyboard-response","220","182147","0.0-6.0-0.107","FLSE","1","m","rechts","23","","fixation","","","",""
"960","img/30_180.png","74","image-keyboard-response","221","183119","0.0-6.0-1.107","FLSE","1","m","rechts","23","","","self","j","30","true"
"null","<div style=""font-size:60px;"">+</div>","null","html-keyboard-response","222","183428","0.0-6.0-0.108","FLSE","1","m","rechts","23","","fixation","","","",""
"1018","img/30_270.png","70","image-keyboard-response","223","184459","0.0-6.0-1.108","FLSE","1","m","rechts","23","","","self","f","30","true"
"null","<div style=""font-size:60px;"">+</div>","null","html-keyboard-response","224","184866","0.0-6.0-0.109","FLSE","1","m","rechts","23","","fixation","","","",""
"841","img/30_300.png","70","image-keyboard-response","225","185717","0.0-6.0-1.109","FLSE","1","m","rechts","23","","","self","f","30","true"
"null","<div style=""font-size:60px;"">+</div>","null","html-keyboard-response","226","186242","0.0-6.0-0.110","FLSE","1","m","rechts","23","","fixation","","","",""
"987","img/120_330.png","74","image-keyboard-response","227","187238","0.0-6.0-1.110","FLSE","1","m","rechts","23","","","self","f","120","false"
"null","<div style=""font-size:60px;"">+</div>","null","html-keyboard-response","228","187569","0.0-6.0-0.111","FLSE","1","m","rechts","23","","fixation","","","",""
"1243","img/90_150.png","70","image-keyboard-response","229","188822","0.0-6.0-1.111","FLSE","1","m","rechts","23","","","self","f","90","true"
"null","<div style=""font-size:60px;"">+</div>","null","html-keyboard-response","230","189336","0.0-6.0-0.112","FLSE","1","m","rechts","23","","fixation","","","",""
"1054","img/120_30.png","74","image-keyboard-response","231","190398","0.0-6.0-1.112","FLSE","1","m","rechts","23","","","self","j","120","true"
"null","<div style=""font-size:60px;"">+</div>","null","html-keyboard-response","232","190818","0.0-6.0-0.113","FLSE","1","m","rechts","23","","fixation","","","",""
"863","img/90_60.png","74","image-keyboard-response","233","191691","0.0-6.0-1.113","FLSE","1","m","rechts","23","","","self","j","90","true"
"null","<div style=""font-size:60px;"">+</div>","null","html-keyboard-response","234","192147","0.0-6.0-0.114","FLSE","1","m","rechts","23","","fixation","","","",""
"683","img/90_180.png","74","image-keyboard-response","235","192839","0.0-6.0-1.114","FLSE","1","m","rechts","23","","","self","j","90","true"
"null","<div style=""font-size:60px;"">+</div>","null","html-keyboard-response","236","193320","0.0-6.0-0.115","FLSE","1","m","rechts","23","","fixation","","","",""
"557","img/0_240.png","70","image-keyboard-response","237","193886","0.0-6.0-1.115","FLSE","1","m","rechts","23","","","self","f","0","true"
"null","<div style=""font-size:60px;"">+</div>","null","html-keyboard-response","238","194342","0.0-6.0-0.116","FLSE","1","m","rechts","23","","fixation","","","",""
"547","img/L30_180.png","70","image-keyboard-response","239","194901","0.0-6.0-1.116","FLSE","1","m","rechts","23","","","self","f","30","true"
"null","<div style=""font-size:60px;"">+</div>","null","html-keyboard-response","240","195216","0.0-6.0-0.117","FLSE","1","m","rechts","23","","fixation","","","",""
"640","img/30_240.png","70","image-keyboard-response","241","195865","0.0-6.0-1.117","FLSE","1","m","rechts","23","","","self","f","30","true"
"null","<div style=""font-size:60px;"">+</div>","null","html-keyboard-response","242","196327","0.0-6.0-0.118","FLSE","1","m","rechts","23","","fixation","","","",""
"960","img/150_270.png","74","image-keyboard-response","243","197296","0.0-6.0-1.118","FLSE","1","m","rechts","23","","","self","j","150","true"
"null","<div style=""font-size:60px;"">+</div>","null","html-keyboard-response","244","197665","0.0-6.0-0.119","FLSE","1","m","rechts","23","","fixation","","","",""
"750","img/30_60.png","70","image-keyboard-response","245","198420","0.0-6.0-1.119","FLSE","1","m","rechts","23","","","self","j","30","false"
"null","<div style=""font-size:60px;"">+</div>","null","html-keyboard-response","246","198744","0.0-6.0-0.120","FLSE","1","m","rechts","23","","fixation","","","",""
"1767","img/90_30.png","70","image-keyboard-response","247","200524","0.0-6.0-1.120","FLSE","1","m","rechts","23","","","self","j","90","false"
"null","<div style=""font-size:60px;"">+</div>","null","html-keyboard-response","248","201039","0.0-6.0-0.121","FLSE","1","m","rechts","23","","fixation","","","",""
"848","img/120_210.png","74","image-keyboard-response","249","201896","0.0-6.0-1.121","FLSE","1","m","rechts","23","","","self","j","120","true"
"null","<div style=""font-size:60px;"">+</div>","null","html-keyboard-response","250","202212","0.0-6.0-0.122","FLSE","1","m","rechts","23","","fixation","","","",""
"791","img/90_120.png","70","image-keyboard-response","251","203011","0.0-6.0-1.122","FLSE","1","m","rechts","23","","","self","f","90","true"
"null","<div style=""font-size:60px;"">+</div>","null","html-keyboard-response","252","203368","0.0-6.0-0.123","FLSE","1","m","rechts","23","","fixation","","","",""
"675","img/0_270.png","70","image-keyboard-response","253","204056","0.0-6.0-1.123","FLSE","1","m","rechts","23","","","self","f","0","true"
"null","<div style=""font-size:60px;"">+</div>","null","html-keyboard-response","254","204462","0.0-6.0-0.124","FLSE","1","m","rechts","23","","fixation","","","",""
"1148","img/150_300.png","74","image-keyboard-response","255","205619","0.0-6.0-1.124","FLSE","1","m","rechts","23","","","self","j","150","true"
"null","<div style=""font-size:60px;"">+</div>","null","html-keyboard-response","256","206102","0.0-6.0-0.125","FLSE","1","m","rechts","23","","fixation","","","",""
"893","img/L90_180.png","70","image-keyboard-response","257","207004","0.0-6.0-1.125","FLSE","1","m","rechts","23","","","self","f","90","true"
"null","<div style=""font-size:60px;"">+</div>","null","html-keyboard-response","258","207383","0.0-6.0-0.126","FLSE","1","m","rechts","23","","fixation","","","",""
"927","img/90_240.png","74","image-keyboard-response","259","208320","0.0-6.0-1.126","FLSE","1","m","rechts","23","","","self","j","90","true"
"null","<div style=""font-size:60px;"">+</div>","null","html-keyboard-response","260","208775","0.0-6.0-0.127","FLSE","1","m","rechts","23","","fixation","","","",""
"907","img/150_90.png","70","image-keyboard-response","261","209691","0.0-6.0-1.127","FLSE","1","m","rechts","23","","","self","f","150","true"
"null","<div style=""font-size:60px;"">+</div>","null","html-keyboard-response","262","210198","0.0-6.0-0.128","FLSE","1","m","rechts","23","","fixation","","","",""
"640","img/0_60.png","74","image-keyboard-response","263","210852","0.0-6.0-1.128","FLSE","1","m","rechts","23","","","self","j","0","true"
"null","<div style=""font-size:60px;"">+</div>","null","html-keyboard-response","264","211370","0.0-6.0-0.129","FLSE","1","m","rechts","23","","fixation","","","",""
"808","img/90_300.png","70","image-keyboard-response","265","212190","0.0-6.0-1.129","FLSE","1","m","rechts","23","","","self","f","90","true"
"null","<div style=""font-size:60px;"">+</div>","null","html-keyboard-response","266","212619","0.0-6.0-0.130","FLSE","1","m","rechts","23","","fixation","","","",""
"666","img/60_330.png","70","image-keyboard-response","267","213293","0.0-6.0-1.130","FLSE","1","m","rechts","23","","","self","f","60","true"
"null","<div style=""font-size:60px;"">+</div>","null","html-keyboard-response","268","213649","0.0-6.0-0.131","FLSE","1","m","rechts","23","","fixation","","","",""
"627","img/0_30.png","74","image-keyboard-response","269","214281","0.0-6.0-1.131","FLSE","1","m","rechts","23","","","self","j","0","true"
"null","<div style=""font-size:60px;"">+</div>","null","html-keyboard-response","270","214744","0.0-6.0-0.132","FLSE","1","m","rechts","23","","fixation","","","",""
"1234","img/30_120.png","74","image-keyboard-response","271","215982","0.0-6.0-1.132","FLSE","1","m","rechts","23","","","self","j","30","true"
"null","<div style=""font-size:60px;"">+</div>","null","html-keyboard-response","272","216307","0.0-6.0-0.133","FLSE","1","m","rechts","23","","fixation","","","",""
"672","img/0_150.png","74","image-keyboard-response","273","216991","0.0-6.0-1.133","FLSE","1","m","rechts","23","","","self","j","0","true"
"null","<div style=""font-size:60px;"">+</div>","null","html-keyboard-response","274","217493","0.0-6.0-0.134","FLSE","1","m","rechts","23","","fixation","","","",""
"702","img/150_240.png","74","image-keyboard-response","275","218208","0.0-6.0-1.134","FLSE","1","m","rechts","23","","","self","j","150","true"
"null","<div style=""font-size:60px;"">+</div>","null","html-keyboard-response","276","218680","0.0-6.0-0.135","FLSE","1","m","rechts","23","","fixation","","","",""
"941","img/120_270.png","74","image-keyboard-response","277","219625","0.0-6.0-1.135","FLSE","1","m","rechts","23","","","self","j","120","true"
"null","<div style=""font-size:60px;"">+</div>","null","html-keyboard-response","278","220056","0.0-6.0-0.136","FLSE","1","m","rechts","23","","fixation","","","",""
"930","img/120_180.png","74","image-keyboard-response","279","220999","0.0-6.0-1.136","FLSE","1","m","rechts","23","","","self","j","120","true"
"null","<div style=""font-size:60px;"">+</div>","null","html-keyboard-response","280","221354","0.0-6.0-0.137","FLSE","1","m","rechts","23","","fixation","","","",""
"705","img/0_120.png","74","image-keyboard-response","281","222068","0.0-6.0-1.137","FLSE","1","m","rechts","23","","","self","j","0","true"
"null","<div style=""font-size:60px;"">+</div>","null","html-keyboard-response","282","222527","0.0-6.0-0.138","FLSE","1","m","rechts","23","","fixation","","","",""
"848","img/L120_180.png","70","image-keyboard-response","283","223384","0.0-6.0-1.138","FLSE","1","m","rechts","23","","","self","f","120","true"
"null","<div style=""font-size:60px;"">+</div>","null","html-keyboard-response","284","223762","0.0-6.0-0.139","FLSE","1","m","rechts","23","","fixation","","","",""
"626","img/0_210.png","70","image-keyboard-response","285","224396","0.0-6.0-1.139","FLSE","1","m","rechts","23","","","self","f","0","true"
"null","<div style=""font-size:60px;"">+</div>","null","html-keyboard-response","286","224901","0.0-6.0-0.140","FLSE","1","m","rechts","23","","fixation","","","",""
"878","img/60_150.png","70","image-keyboard-response","287","225792","0.0-6.0-1.140","FLSE","1","m","rechts","23","","","self","f","60","true"
"null","<div style=""font-size:60px;"">+</div>","null","html-keyboard-response","288","226307","0.0-6.0-0.141","FLSE","1","m","rechts","23","","fixation","","","",""
"1056","img/60_210.png","74","image-keyboard-response","289","227377","0.0-6.0-1.141","FLSE","1","m","rechts","23","","","self","j","60","true"
"null","<div style=""font-size:60px;"">+</div>","null","html-keyboard-response","290","227699","0.0-6.0-0.142","FLSE","1","m","rechts","23","","fixation","","","",""
"1115","img/150_180.png","74","image-keyboard-response","291","228818","0.0-6.0-1.142","FLSE","1","m","rechts","23","","","self","j","150","true"
"null","<div style=""font-size:60px;"">+</div>","null","html-keyboard-response","292","229199","0.0-6.0-0.143","FLSE","1","m","rechts","23","","fixation","","","",""
"911","img/60_270.png","70","image-keyboard-response","293","230123","0.0-6.0-1.143","FLSE","1","m","rechts","23","","","self","f","60","true"
"null","<div style=""font-size:60px;"">+</div>","null","html-keyboard-response","294","230585","0.0-6.0-0.144","FLSE","1","m","rechts","23","","fixation","","","",""
"1542","img/150_60.png","70","image-keyboard-response","295","232137","0.0-6.0-1.144","FLSE","1","m","rechts","23","","","self","f","150","true"
"null","<div style=""font-size:60px;"">+</div>","null","html-keyboard-response","296","232491","0.0-6.0-0.145","FLSE","1","m","rechts","23","","fixation","","","",""
"861","img/90_210.png","74","image-keyboard-response","297","233363","0.0-6.0-1.145","FLSE","1","m","rechts","23","","","self","j","90","true"
"null","<div style=""font-size:60px;"">+</div>","null","html-keyboard-response","298","233820","0.0-6.0-0.146","FLSE","1","m","rechts","23","","fixation","","","",""
"992","img/120_90.png","70","image-keyboard-response","299","234826","0.0-6.0-1.146","FLSE","1","m","rechts","23","","","self","f","120","true"
"null","<div style=""font-size:60px;"">+</div>","null","html-keyboard-response","300","235256","0.0-6.0-0.147","FLSE","1","m","rechts","23","","fixation","","","",""
"794","img/60_180.png","74","image-keyboard-response","301","236064","0.0-6.0-1.147","FLSE","1","m","rechts","23","","","self","j","60","true"
"null","<div style=""font-size:60px;"">+</div>","null","html-keyboard-response","302","236476","0.0-6.0-0.148","FLSE","1","m","rechts","23","","fixation","","","",""
"890","img/30_90.png","74","image-keyboard-response","303","237380","0.0-6.0-1.148","FLSE","1","m","rechts","23","","","self","j","30","true"
"null","<div style=""font-size:60px;"">+</div>","null","html-keyboard-response","304","237883","0.0-6.0-0.149","FLSE","1","m","rechts","23","","fixation","","","",""
"663","img/L60_180.png","70","image-keyboard-response","305","238559","0.0-6.0-1.149","FLSE","1","m","rechts","23","","","self","f","60","true"
"null","<div style=""font-size:60px;"">+</div>","null","html-keyboard-response","306","238868","0.0-6.0-0.150","FLSE","1","m","rechts","23","","fixation","","","",""
"881","img/90_330.png","70","image-keyboard-response","307","239762","0.0-6.0-1.150","FLSE","1","m","rechts","23","","","self","f","90","true"
"null","<div style=""font-size:60px;"">+</div>","null","html-keyboard-response","308","240086","0.0-6.0-0.151","FLSE","1","m","rechts","23","","fixation","","","",""
"631","img/0_300.png","70","image-keyboard-response","309","240730","0.0-6.0-1.151","FLSE","1","m","rechts","23","","","self","f","0","true"
"null","<div style=""font-size:60px;"">+</div>","null","html-keyboard-response","310","241086","0.0-6.0-0.152","FLSE","1","m","rechts","23","","fixation","","","",""
"575","img/0_90.png","74","image-keyboard-response","311","241674","0.0-6.0-1.152","FLSE","1","m","rechts","23","","","self","j","0","true"
"null","<div style=""font-size:60px;"">+</div>","null","html-keyboard-response","312","242039","0.0-6.0-0.153","FLSE","1","m","rechts","23","","fixation","","","",""
"566","img/120_150.png","70","image-keyboard-response","313","242622","0.0-6.0-1.153","FLSE","1","m","rechts","23","","","self","f","120","true"
"null","<div style=""font-size:60px;"">+</div>","null","html-keyboard-response","314","242930","0.0-6.0-0.154","FLSE","1","m","rechts","23","","fixation","","","",""
"1299","img/60_30.png","74","image-keyboard-response","315","244242","0.0-6.0-1.154","FLSE","1","m","rechts","23","","","self","j","60","true"
"null","<div style=""font-size:60px;"">+</div>","null","html-keyboard-response","316","244757","0.0-6.0-0.155","FLSE","1","m","rechts","23","","fixation","","","",""
"641","img/0_330.png","70","image-keyboard-response","317","245411","0.0-6.0-1.155","FLSE","1","m","rechts","23","","","self","f","0","true"
"null","<div style=""font-size:60px;"">+</div>","null","html-keyboard-response","318","245866","0.0-6.0-0.156","FLSE","1","m","rechts","23","","fixation","","","",""
"1109","img/30_270.png","70","image-keyboard-response","319","246986","0.0-6.0-1.156","FLSE","1","m","rechts","23","","","self","f","30","true"
"null","<div style=""font-size:60px;"">+</div>","null","html-keyboard-response","320","247350","0.0-6.0-0.157","FLSE","1","m","rechts","23","","fixation","","","",""
"572","img/60_270.png","70","image-keyboard-response","321","247931","0.0-6.0-1.157","FLSE","1","m","rechts","23","","","self","f","60","true"
"null","<div style=""font-size:60px;"">+</div>","null","html-keyboard-response","322","248306","0.0-6.0-0.158","FLSE","1","m","rechts","23","","fixation","","","",""
"680","img/30_300.png","70","image-keyboard-response","323","249000","0.0-6.0-1.158","FLSE","1","m","rechts","23","","","self","f","30","true"
"null","<div style=""font-size:60px;"">+</div>","null","html-keyboard-response","324","249432","0.0-6.0-0.159","FLSE","1","m","rechts","23","","fixation","","","",""
"1100","img/120_330.png","70","image-keyboard-response","325","250541","0.0-6.0-1.159","FLSE","1","m","rechts","23","","","self","f","120","true"
"null","<div style=""font-size:60px;"">+</div>","null","html-keyboard-response","326","250852","0.0-6.0-0.160","FLSE","1","m","rechts","23","","fixation","","","",""
"1052","img/150_240.png","74","image-keyboard-response","327","251914","0.0-6.0-1.160","FLSE","1","m","rechts","23","","","self","j","150","true"
"null","<div style=""font-size:60px;"">+</div>","null","html-keyboard-response","328","252337","0.0-6.0-0.161","FLSE","1","m","rechts","23","","fixation","","","",""
"1013","img/90_60.png","74","image-keyboard-response","329","253363","0.0-6.0-1.161","FLSE","1","m","rechts","23","","","self","j","90","true"
"null","<div style=""font-size:60px;"">+</div>","null","html-keyboard-response","330","253775","0.0-6.0-0.162","FLSE","1","m","rechts","23","","fixation","","","",""
"1087","img/90_30.png","70","image-keyboard-response","331","254870","0.0-6.0-1.162","FLSE","1","m","rechts","23","","","self","j","90","false"
"null","<div style=""font-size:60px;"">+</div>","null","html-keyboard-response","332","255384","0.0-6.0-0.163","FLSE","1","m","rechts","23","","fixation","","","",""
"862","img/60_150.png","70","image-keyboard-response","333","256256","0.0-6.0-1.163","FLSE","1","m","rechts","23","","","self","f","60","true"
"null","<div style=""font-size:60px;"">+</div>","null","html-keyboard-response","334","256618","0.0-6.0-0.164","FLSE","1","m","rechts","23","","fixation","","","",""
"732","img/120_180.png","74","image-keyboard-response","335","257359","0.0-6.0-1.164","FLSE","1","m","rechts","23","","","self","j","120","true"
"null","<div style=""font-size:60px;"">+</div>","null","html-keyboard-response","336","257665","0.0-6.0-0.165","FLSE","1","m","rechts","23","","fixation","","","",""
"779","img/L90_180.png","70","image-keyboard-response","337","258450","0.0-6.0-1.165","FLSE","1","m","rechts","23","","","self","f","90","true"
"null","<div style=""font-size:60px;"">+</div>","null","html-keyboard-response","338","258916","0.0-6.0-0.166","FLSE","1","m","rechts","23","","fixation","","","",""
"1042","img/90_120.png","70","image-keyboard-response","339","259969","0.0-6.0-1.166","FLSE","1","m","rechts","23","","","self","f","90","true"
"null","<div style=""font-size:60px;"">+</div>","null","html-keyboard-response","340","260320","0.0-6.0-0.167","FLSE","1","m","rechts","23","","fixation","","","",""
"886","img/0_60.png","74","image-keyboard-response","341","261219","0.0-6.0-1.167","FLSE","1","m","rechts","23","","","self","j","0","true"
"null","<div style=""font-size:60px;"">+</div>","null","html-keyboard-response","342","261696","0.0-6.0-0.168","FLSE","1","m","rechts","23","","fixation","","","",""
"659","img/0_240.png","70","image-keyboard-response","343","262364","0.0-6.0-1.168","FLSE","1","m","rechts","23","","","self","f","0","true"
"null","<div style=""font-size:60px;"">+</div>","null","html-keyboard-response","344","262775","0.0-6.0-0.169","FLSE","1","m","rechts","23","","fixation","","","",""
"798","img/90_150.png","70","image-keyboard-response","345","263580","0.0-6.0-1.169","FLSE","1","m","rechts","23","","","self","f","90","true"
"null","<div style=""font-size:60px;"">+</div>","null","html-keyboard-response","346","264009","0.0-6.0-0.170","FLSE","1","m","rechts","23","","fixation","","","",""
"1167","img/150_300.png","74","image-keyboard-response","347","265189","0.0-6.0-1.170","FLSE","1","m","rechts","23","","","self","j","150","true"
"null","<div style=""font-size:60px;"">+</div>","null","html-keyboard-response","348","265653","0.0-6.0-0.171","FLSE","1","m","rechts","23","","fixation","","","",""
"985","img/30_60.png","74","image-keyboard-response","349","266651","0.0-6.0-1.171","FLSE","1","m","rechts","23","","","self","j","30","true"
"null","<div style=""font-size:60px;"">+</div>","null","html-keyboard-response","350","267106","0.0-6.0-0.172","FLSE","1","m","rechts","23","","fixation","","","",""
"728","img/0_270.png","70","image-keyboard-response","351","267844","0.0-6.0-1.172","FLSE","1","m","rechts","23","","","self","f","0","true"
"null","<div style=""font-size:60px;"">+</div>","null","html-keyboard-response","352","268151","0.0-6.0-0.173","FLSE","1","m","rechts","23","","fixation","","","",""
"1513","img/90_180.png","74","image-keyboard-response","353","269678","0.0-6.0-1.173","FLSE","1","m","rechts","23","","","self","j","90","true"
"null","<div style=""font-size:60px;"">+</div>","null","html-keyboard-response","354","270090","0.0-6.0-0.174","FLSE","1","m","rechts","23","","fixation","","","",""
"935","img/150_90.png","70","image-keyboard-response","355","271039","0.0-6.0-1.174","FLSE","1","m","rechts","23","","","self","f","150","true"
"null","<div style=""font-size:60px;"">+</div>","null","html-keyboard-response","356","271416","0.0-6.0-0.175","FLSE","1","m","rechts","23","","fixation","","","",""
"671","img/0_30.png","74","image-keyboard-response","357","272098","0.0-6.0-1.175","FLSE","1","m","rechts","23","","","self","j","0","true"
"null","<div style=""font-size:60px;"">+</div>","null","html-keyboard-response","358","272513","0.0-6.0-0.176","FLSE","1","m","rechts","23","","fixation","","","",""
"817","img/120_30.png","74","image-keyboard-response","359","273345","0.0-6.0-1.176","FLSE","1","m","rechts","23","","","self","j","120","true"
"null","<div style=""font-size:60px;"">+</div>","null","html-keyboard-response","360","273762","0.0-6.0-0.177","FLSE","1","m","rechts","23","","fixation","","","",""
"723","img/L30_180.png","70","image-keyboard-response","361","274493","0.0-6.0-1.177","FLSE","1","m","rechts","23","","","self","f","30","true"
"null","<div style=""font-size:60px;"">+</div>","null","html-keyboard-response","362","274826","0.0-6.0-0.178","FLSE","1","m","rechts","23","","fixation","","","",""
"613","img/0_300.png","70","image-keyboard-response","363","275450","0.0-6.0-1.178","FLSE","1","m","rechts","23","","","self","f","0","true"
"null","<div style=""font-size:60px;"">+</div>","null","html-keyboard-response","364","275779","0.0-6.0-0.179","FLSE","1","m","rechts","23","","fixation","","","",""
"692","img/120_210.png","74","image-keyboard-response","365","276484","0.0-6.0-1.179","FLSE","1","m","rechts","23","","","self","j","120","true"
"null","<div style=""font-size:60px;"">+</div>","null","html-keyboard-response","366","276996","0.0-6.0-0.180","FLSE","1","m","rechts","23","","fixation","","","",""
"724","img/90_300.png","70","image-keyboard-response","367","277731","0.0-6.0-1.180","FLSE","1","m","rechts","23","","","self","f","90","true"
"null","<div style=""font-size:60px;"">+</div>","null","html-keyboard-response","368","278043","0.0-6.0-0.181","FLSE","1","m","rechts","23","","fixation","","","",""
"1336","img/90_330.png","70","image-keyboard-response","369","279388","0.0-6.0-1.181","FLSE","1","m","rechts","23","","","self","f","90","true"
"null","<div style=""font-size:60px;"">+</div>","null","html-keyboard-response","370","279792","0.0-6.0-0.182","FLSE","1","m","rechts","23","","fixation","","","",""
"893","img/L120_180.png","70","image-keyboard-response","371","280701","0.0-6.0-1.182","FLSE","1","m","rechts","23","","","self","f","120","true"
"null","<div style=""font-size:60px;"">+</div>","null","html-keyboard-response","372","281168","0.0-6.0-0.183","FLSE","1","m","rechts","23","","fixation","","","",""
"726","img/30_180.png","74","image-keyboard-response","373","281907","0.0-6.0-1.183","FLSE","1","m","rechts","23","","","self","j","30","true"
"null","<div style=""font-size:60px;"">+</div>","null","html-keyboard-response","374","282216","0.0-6.0-0.184","FLSE","1","m","rechts","23","","fixation","","","",""
"862","img/30_90.png","74","image-keyboard-response","375","283087","0.0-6.0-1.184","FLSE","1","m","rechts","23","","","self","j","30","true"
"null","<div style=""font-size:60px;"">+</div>","null","html-keyboard-response","376","283453","0.0-6.0-0.185","FLSE","1","m","rechts","23","","fixation","","","",""
"673","img/0_330.png","70","image-keyboard-response","377","284136","0.0-6.0-1.185","FLSE","1","m","rechts","23","","","self","f","0","true"
"null","<div style=""font-size:60px;"">+</div>","null","html-keyboard-response","378","284515","0.0-6.0-0.186","FLSE","1","m","rechts","23","","fixation","","","",""
"586","img/60_180.png","74","image-keyboard-response","379","285112","0.0-6.0-1.186","FLSE","1","m","rechts","23","","","self","j","60","true"
"null","<div style=""font-size:60px;"">+</div>","null","html-keyboard-response","380","285514","0.0-6.0-0.187","FLSE","1","m","rechts","23","","fixation","","","",""
"574","img/0_210.png","70","image-keyboard-response","381","286103","0.0-6.0-1.187","FLSE","1","m","rechts","23","","","self","f","0","true"
"null","<div style=""font-size:60px;"">+</div>","null","html-keyboard-response","382","286562","0.0-6.0-0.188","FLSE","1","m","rechts","23","","fixation","","","",""
"905","img/60_30.png","74","image-keyboard-response","383","287476","0.0-6.0-1.188","FLSE","1","m","rechts","23","","","self","j","60","true"
"null","<div style=""font-size:60px;"">+</div>","null","html-keyboard-response","384","287982","0.0-6.0-0.189","FLSE","1","m","rechts","23","","fixation","","","",""
"944","img/60_90.png","74","image-keyboard-response","385","288939","0.0-6.0-1.189","FLSE","1","m","rechts","23","","","self","j","60","true"
"null","<div style=""font-size:60px;"">+</div>","null","html-keyboard-response","386","289249","0.0-6.0-0.190","FLSE","1","m","rechts","23","","fixation","","","",""
"664","img/0_150.png","74","image-keyboard-response","387","289926","0.0-6.0-1.190","FLSE","1","m","rechts","23","","","self","j","0","true"
"null","<div style=""font-size:60px;"">+</div>","null","html-keyboard-response","388","290294","0.0-6.0-0.191","FLSE","1","m","rechts","23","","fixation","","","",""
"881","img/60_330.png","70","image-keyboard-response","389","291188","0.0-6.0-1.191","FLSE","1","m","rechts","23","","","self","f","60","true"
"null","<div style=""font-size:60px;"">+</div>","null","html-keyboard-response","390","291545","0.0-6.0-0.192","FLSE","1","m","rechts","23","","fixation","","","",""
"874","img/120_270.png","74","image-keyboard-response","391","292424","0.0-6.0-1.192","FLSE","1","m","rechts","23","","","self","j","120","true"
"null","<div style=""font-size:60px;"">+</div>","null","html-keyboard-response","392","292734","0.0-6.0-0.193","FLSE","1","m","rechts","23","","fixation","","","",""
"1013","img/150_270.png","74","image-keyboard-response","393","293752","0.0-6.0-1.193","FLSE","1","m","rechts","23","","","self","j","150","true"
"null","<div style=""font-size:60px;"">+</div>","null","html-keyboard-response","394","294078","0.0-6.0-0.194","FLSE","1","m","rechts","23","","fixation","","","",""
"1102","img/150_60.png","70","image-keyboard-response","395","295194","0.0-6.0-1.194","FLSE","1","m","rechts","23","","","self","f","150","true"
"null","<div style=""font-size:60px;"">+</div>","null","html-keyboard-response","396","295595","0.0-6.0-0.195","FLSE","1","m","rechts","23","","fixation","","","",""
"718","img/L60_180.png","70","image-keyboard-response","397","296324","0.0-6.0-1.195","FLSE","1","m","rechts","23","","","self","f","60","true"
"null","<div style=""font-size:60px;"">+</div>","null","html-keyboard-response","398","296626","0.0-6.0-0.196","FLSE","1","m","rechts","23","","fixation","","","",""
"602","img/0_120.png","74","image-keyboard-response","399","297241","0.0-6.0-1.196","FLSE","1","m","rechts","23","","","self","j","0","true"
"null","<div style=""font-size:60px;"">+</div>","null","html-keyboard-response","400","297749","0.0-6.0-0.197","FLSE","1","m","rechts","23","","fixation","","","",""
"972","img/150_180.png","74","image-keyboard-response","401","298726","0.0-6.0-1.197","FLSE","1","m","rechts","23","","","self","j","150","true"
"null","<div style=""font-size:60px;"">+</div>","null","html-keyboard-response","402","299156","0.0-6.0-0.198","FLSE","1","m","rechts","23","","fixation","","","",""
"716","img/60_210.png","74","image-keyboard-response","403","299885","0.0-6.0-1.198","FLSE","1","m","rechts","23","","","self","j","60","true"
"null","<div style=""font-size:60px;"">+</div>","null","html-keyboard-response","404","300407","0.0-6.0-0.199","FLSE","1","m","rechts","23","","fixation","","","",""
"1152","img/150_120.png","70","image-keyboard-response","405","301572","0.0-6.0-1.199","FLSE","1","m","rechts","23","","","self","f","150","true"
"null","<div style=""font-size:60px;"">+</div>","null","html-keyboard-response","406","301933","0.0-6.0-0.200","FLSE","1","m","rechts","23","","fixation","","","",""
"1156","img/120_90.png","70","image-keyboard-response","407","303102","0.0-6.0-1.200","FLSE","1","m","rechts","23","","","self","f","120","true"
"null","<div style=""font-size:60px;"">+</div>","null","html-keyboard-response","408","303563","0.0-6.0-0.201","FLSE","1","m","rechts","23","","fixation","","","",""
"965","img/90_240.png","74","image-keyboard-response","409","304532","0.0-6.0-1.201","FLSE","1","m","rechts","23","","","self","j","90","true"
"null","<div style=""font-size:60px;"">+</div>","null","html-keyboard-response","410","305063","0.0-6.0-0.202","FLSE","1","m","rechts","23","","fixation","","","",""
"918","img/L150_180.png","70","image-keyboard-response","411","305994","0.0-6.0-1.202","FLSE","1","m","rechts","23","","","self","f","150","true"
"null","<div style=""font-size:60px;"">+</div>","null","html-keyboard-response","412","306517","0.0-6.0-0.203","FLSE","1","m","rechts","23","","fixation","","","",""
"836","img/90_210.png","74","image-keyboard-response","413","307367","0.0-6.0-1.203","FLSE","1","m","rechts","23","","","self","j","90","true"
"null","<div style=""font-size:60px;"">+</div>","null","html-keyboard-response","414","307875","0.0-6.0-0.204","FLSE","1","m","rechts","23","","fixation","","","",""
"569","img/0_90.png","74","image-keyboard-response","415","308458","0.0-6.0-1.204","FLSE","1","m","rechts","23","","","self","j","0","true"
"null","<div style=""font-size:60px;"">+</div>","null","html-keyboard-response","416","308782","0.0-6.0-0.205","FLSE","1","m","rechts","23","","fixation","","","",""
"863","img/120_150.png","70","image-keyboard-response","417","309651","0.0-6.0-1.205","FLSE","1","m","rechts","23","","","self","f","120","true"
"null","<div style=""font-size:60px;"">+</div>","null","html-keyboard-response","418","310173","0.0-6.0-0.206","FLSE","1","m","rechts","23","","fixation","","","",""
"936","img/30_240.png","70","image-keyboard-response","419","311124","0.0-6.0-1.206","FLSE","1","m","rechts","23","","","self","f","30","true"
"null","<div style=""font-size:60px;"">+</div>","null","html-keyboard-response","420","311437","0.0-6.0-0.207","FLSE","1","m","rechts","23","","fixation","","","",""
"989","img/30_120.png","70","image-keyboard-response","421","312441","0.0-6.0-1.207","FLSE","1","m","rechts","23","","","self","j","30","false"
"16120","<p>Du hast in 93% der Versuche korrekt entschieden.</p><p>Deine durchschnittliche Reaktionszeit war  856ms.</p><p>Dr&uuml;cke eine beliebige Taste, um die Session zu beenden. Vielen Dank!</p>","32","html-keyboard-response","422","328566","0.0-7.0","FLSE","1","m","rechts","23","","","","","",""
