"rt","stimulus","key_press","trial_type","trial_index","time_elapsed","internal_node_id","subject","session","sex","handedness","age","responses","test_part","condition","correct_response","angle","correct"
"1571","<p>Mental Rotation Experiment.</p> <p>Dr&uuml;cke eine beliebige Taste, um anzufangen.</p>","13","html-keyboard-response","0","1609","0.0-0.0","FLSE","2","m","rechts","23","","","","","",""
"7776","","","survey-text","1","9387","0.0-1.0","FLSE","2","m","rechts","23","{""Q0"":""FLSE""}","","","","",""
"5419","","","survey-text","2","14808","0.0-2.0","FLSE","2","m","rechts","23","{""Q0"":""2""}","","","","",""
"3856","","","survey-multi-choice","3","18668","0.0-3.0","FLSE","2","m","rechts","23","{""Q0"":""m"",""Q1"":""rechts""}","","","","",""
"15152","","","survey-text","4","33821","0.0-4.0","FLSE","2","m","rechts","23","{""Q0"":""23""}","","","","",""
"18518","<p> Stell dir vor, dass du vor einem runden Tisch stehst, auf dem sich ein blauer Ball am Tischrand befindet. Entlang des Tischrands ist jeweils ein verschieden langer Pfeil. Nun bewegst du dich entlang dieses Pfeils bis an seine Spitze. Wenn du am Ende des Pfeils angekommen bist, schau zur Tischmitte. </p> <img src='img/90_180.png'></img> <br> <p>Entscheide dann, ob der Ball von deiner neuen (vorgestellten) Position links oder rechts von dir liegt.</p> <p>Dr&uuml;cke die <strong>'f'</strong>-Taste f&uuml;r links, die <strong>'j'</strong>-Taste f&uuml;r rechts.</p> <br><p> Das Bild wird jeweils 1 Sekunde lang pr&auml;sentiert. Du hast 3 Sekunden Zeit eine Entscheidung zu treffen.</p>","74","html-keyboard-response","5","52347","0.0-5.0","FLSE","2","m","rechts","23","","","","","",""
"null","<div style=""font-size:60px;"">+</div>","null","html-keyboard-response","6","53688","0.0-6.0-0.0","FLSE","2","m","rechts","23","","fixation","","","",""
"648","img/60_150.png","70","image-keyboard-response","7","54357","0.0-6.0-1.0","FLSE","2","m","rechts","23","","","self","f","60","true"
"null","<div style=""font-size:60px;"">+</div>","null","html-keyboard-response","8","54836","0.0-6.0-0.1","FLSE","2","m","rechts","23","","fixation","","","",""
"740","img/90_30.png","74","image-keyboard-response","9","55583","0.0-6.0-1.1","FLSE","2","m","rechts","23","","","self","j","90","true"
"null","<div style=""font-size:60px;"">+</div>","null","html-keyboard-response","10","55945","0.0-6.0-0.2","FLSE","2","m","rechts","23","","fixation","","","",""
"798","img/30_270.png","70","image-keyboard-response","11","56763","0.0-6.0-1.2","FLSE","2","m","rechts","23","","","self","f","30","true"
"null","<div style=""font-size:60px;"">+</div>","null","html-keyboard-response","12","57227","0.0-6.0-0.3","FLSE","2","m","rechts","23","","fixation","","","",""
"584","img/150_120.png","70","image-keyboard-response","13","57828","0.0-6.0-1.3","FLSE","2","m","rechts","23","","","self","f","150","true"
"null","<div style=""font-size:60px;"">+</div>","null","html-keyboard-response","14","58133","0.0-6.0-0.4","FLSE","2","m","rechts","23","","fixation","","","",""
"841","img/120_30.png","74","image-keyboard-response","15","58992","0.0-6.0-1.4","FLSE","2","m","rechts","23","","","self","j","120","true"
"null","<div style=""font-size:60px;"">+</div>","null","html-keyboard-response","16","59352","0.0-6.0-0.5","FLSE","2","m","rechts","23","","fixation","","","",""
"588","img/0_210.png","70","image-keyboard-response","17","59958","0.0-6.0-1.5","FLSE","2","m","rechts","23","","","self","f","0","true"
"null","<div style=""font-size:60px;"">+</div>","null","html-keyboard-response","18","60461","0.0-6.0-0.6","FLSE","2","m","rechts","23","","fixation","","","",""
"650","img/150_90.png","70","image-keyboard-response","19","61128","0.0-6.0-1.6","FLSE","2","m","rechts","23","","","self","f","150","true"
"null","<div style=""font-size:60px;"">+</div>","null","html-keyboard-response","20","61440","0.0-6.0-0.7","FLSE","2","m","rechts","23","","fixation","","","",""
"593","img/0_150.png","74","image-keyboard-response","21","62052","0.0-6.0-1.7","FLSE","2","m","rechts","23","","","self","j","0","true"
"null","<div style=""font-size:60px;"">+</div>","null","html-keyboard-response","22","62565","0.0-6.0-0.8","FLSE","2","m","rechts","23","","fixation","","","",""
"534","img/120_180.png","74","image-keyboard-response","23","63119","0.0-6.0-1.8","FLSE","2","m","rechts","23","","","self","j","120","true"
"null","<div style=""font-size:60px;"">+</div>","null","html-keyboard-response","24","63582","0.0-6.0-0.9","FLSE","2","m","rechts","23","","fixation","","","",""
"747","img/30_90.png","70","image-keyboard-response","25","64346","0.0-6.0-1.9","FLSE","2","m","rechts","23","","","self","j","30","false"
"null","<div style=""font-size:60px;"">+</div>","null","html-keyboard-response","26","64759","0.0-6.0-0.10","FLSE","2","m","rechts","23","","fixation","","","",""
"628","img/60_180.png","74","image-keyboard-response","27","65404","0.0-6.0-1.10","FLSE","2","m","rechts","23","","","self","j","60","true"
"null","<div style=""font-size:60px;"">+</div>","null","html-keyboard-response","28","65821","0.0-6.0-0.11","FLSE","2","m","rechts","23","","fixation","","","",""
"541","img/L150_180.png","70","image-keyboard-response","29","66371","0.0-6.0-1.11","FLSE","2","m","rechts","23","","","self","f","150","true"
"null","<div style=""font-size:60px;"">+</div>","null","html-keyboard-response","30","66790","0.0-6.0-0.12","FLSE","2","m","rechts","23","","fixation","","","",""
"1043","img/30_240.png","70","image-keyboard-response","31","67842","0.0-6.0-1.12","FLSE","2","m","rechts","23","","","self","f","30","true"
"null","<div style=""font-size:60px;"">+</div>","null","html-keyboard-response","32","68212","0.0-6.0-0.13","FLSE","2","m","rechts","23","","fixation","","","",""
"684","img/150_180.png","74","image-keyboard-response","33","68912","0.0-6.0-1.13","FLSE","2","m","rechts","23","","","self","j","150","true"
"null","<div style=""font-size:60px;"">+</div>","null","html-keyboard-response","34","69383","0.0-6.0-0.14","FLSE","2","m","rechts","23","","fixation","","","",""
"827","img/90_60.png","74","image-keyboard-response","35","70230","0.0-6.0-1.14","FLSE","2","m","rechts","23","","","self","j","90","true"
"null","<div style=""font-size:60px;"">+</div>","null","html-keyboard-response","36","70633","0.0-6.0-0.15","FLSE","2","m","rechts","23","","fixation","","","",""
"613","img/0_330.png","70","image-keyboard-response","37","71264","0.0-6.0-1.15","FLSE","2","m","rechts","23","","","self","f","0","true"
"null","<div style=""font-size:60px;"">+</div>","null","html-keyboard-response","38","71617","0.0-6.0-0.16","FLSE","2","m","rechts","23","","fixation","","","",""
"752","img/60_270.png","70","image-keyboard-response","39","72391","0.0-6.0-1.16","FLSE","2","m","rechts","23","","","self","f","60","true"
"null","<div style=""font-size:60px;"">+</div>","null","html-keyboard-response","40","72899","0.0-6.0-0.17","FLSE","2","m","rechts","23","","fixation","","","",""
"550","img/0_240.png","70","image-keyboard-response","41","73468","0.0-6.0-1.17","FLSE","2","m","rechts","23","","","self","f","0","true"
"null","<div style=""font-size:60px;"">+</div>","null","html-keyboard-response","42","73929","0.0-6.0-0.18","FLSE","2","m","rechts","23","","fixation","","","",""
"568","img/L30_180.png","70","image-keyboard-response","43","74516","0.0-6.0-1.18","FLSE","2","m","rechts","23","","","self","f","30","true"
"null","<div style=""font-size:60px;"">+</div>","null","html-keyboard-response","44","74837","0.0-6.0-0.19","FLSE","2","m","rechts","23","","fixation","","","",""
"550","img/0_30.png","74","image-keyboard-response","45","75392","0.0-6.0-1.19","FLSE","2","m","rechts","23","","","self","j","0","true"
"null","<div style=""font-size:60px;"">+</div>","null","html-keyboard-response","46","75821","0.0-6.0-0.20","FLSE","2","m","rechts","23","","fixation","","","",""
"837","img/90_330.png","70","image-keyboard-response","47","76665","0.0-6.0-1.20","FLSE","2","m","rechts","23","","","self","f","90","true"
"null","<div style=""font-size:60px;"">+</div>","null","html-keyboard-response","48","76979","0.0-6.0-0.21","FLSE","2","m","rechts","23","","fixation","","","",""
"566","img/L60_180.png","70","image-keyboard-response","49","77563","0.0-6.0-1.21","FLSE","2","m","rechts","23","","","self","f","60","true"
"null","<div style=""font-size:60px;"">+</div>","null","html-keyboard-response","50","77979","0.0-6.0-0.22","FLSE","2","m","rechts","23","","fixation","","","",""
"883","img/60_90.png","74","image-keyboard-response","51","78879","0.0-6.0-1.22","FLSE","2","m","rechts","23","","","self","j","60","true"
"null","<div style=""font-size:60px;"">+</div>","null","html-keyboard-response","52","79260","0.0-6.0-0.23","FLSE","2","m","rechts","23","","fixation","","","",""
"874","img/60_30.png","74","image-keyboard-response","53","80152","0.0-6.0-1.23","FLSE","2","m","rechts","23","","","self","j","60","true"
"null","<div style=""font-size:60px;"">+</div>","null","html-keyboard-response","54","80619","0.0-6.0-0.24","FLSE","2","m","rechts","23","","fixation","","","",""
"877","img/90_120.png","70","image-keyboard-response","55","81513","0.0-6.0-1.24","FLSE","2","m","rechts","23","","","self","f","90","true"
"null","<div style=""font-size:60px;"">+</div>","null","html-keyboard-response","56","81883","0.0-6.0-0.25","FLSE","2","m","rechts","23","","fixation","","","",""
"1176","img/30_120.png","74","image-keyboard-response","57","83066","0.0-6.0-1.25","FLSE","2","m","rechts","23","","","self","j","30","true"
"null","<div style=""font-size:60px;"">+</div>","null","html-keyboard-response","58","83368","0.0-6.0-0.26","FLSE","2","m","rechts","23","","fixation","","","",""
"886","img/150_270.png","74","image-keyboard-response","59","84271","0.0-6.0-1.26","FLSE","2","m","rechts","23","","","self","j","150","true"
"null","<div style=""font-size:60px;"">+</div>","null","html-keyboard-response","60","84727","0.0-6.0-0.27","FLSE","2","m","rechts","23","","fixation","","","",""
"740","img/120_150.png","70","image-keyboard-response","61","85483","0.0-6.0-1.27","FLSE","2","m","rechts","23","","","self","f","120","true"
"null","<div style=""font-size:60px;"">+</div>","null","html-keyboard-response","62","85946","0.0-6.0-0.28","FLSE","2","m","rechts","23","","fixation","","","",""
"1523","img/150_60.png","70","image-keyboard-response","63","87488","0.0-6.0-1.28","FLSE","2","m","rechts","23","","","self","f","150","true"
"null","<div style=""font-size:60px;"">+</div>","null","html-keyboard-response","64","87899","0.0-6.0-0.29","FLSE","2","m","rechts","23","","fixation","","","",""
"997","img/90_300.png","70","image-keyboard-response","65","88903","0.0-6.0-1.29","FLSE","2","m","rechts","23","","","self","f","90","true"
"null","<div style=""font-size:60px;"">+</div>","null","html-keyboard-response","66","89305","0.0-6.0-0.30","FLSE","2","m","rechts","23","","fixation","","","",""
"617","img/0_120.png","74","image-keyboard-response","67","89941","0.0-6.0-1.30","FLSE","2","m","rechts","23","","","self","j","0","true"
"null","<div style=""font-size:60px;"">+</div>","null","html-keyboard-response","68","90353","0.0-6.0-0.31","FLSE","2","m","rechts","23","","fixation","","","",""
"884","img/90_240.png","74","image-keyboard-response","69","91257","0.0-6.0-1.31","FLSE","2","m","rechts","23","","","self","j","90","true"
"null","<div style=""font-size:60px;"">+</div>","null","html-keyboard-response","70","91714","0.0-6.0-0.32","FLSE","2","m","rechts","23","","fixation","","","",""
"696","img/60_330.png","70","image-keyboard-response","71","92427","0.0-6.0-1.32","FLSE","2","m","rechts","23","","","self","f","60","true"
"null","<div style=""font-size:60px;"">+</div>","null","html-keyboard-response","72","92932","0.0-6.0-0.33","FLSE","2","m","rechts","23","","fixation","","","",""
"657","img/30_180.png","74","image-keyboard-response","73","93608","0.0-6.0-1.33","FLSE","2","m","rechts","23","","","self","j","30","true"
"null","<div style=""font-size:60px;"">+</div>","null","html-keyboard-response","74","94010","0.0-6.0-0.34","FLSE","2","m","rechts","23","","fixation","","","",""
"602","img/L90_180.png","70","image-keyboard-response","75","94630","0.0-6.0-1.34","FLSE","2","m","rechts","23","","","self","f","90","true"
"null","<div style=""font-size:60px;"">+</div>","null","html-keyboard-response","76","94994","0.0-6.0-0.35","FLSE","2","m","rechts","23","","fixation","","","",""
"561","img/0_90.png","74","image-keyboard-response","77","95577","0.0-6.0-1.35","FLSE","2","m","rechts","23","","","self","j","0","true"
"null","<div style=""font-size:60px;"">+</div>","null","html-keyboard-response","78","96089","0.0-6.0-0.36","FLSE","2","m","rechts","23","","fixation","","","",""
"495","img/30_300.png","70","image-keyboard-response","79","96600","0.0-6.0-1.36","FLSE","2","m","rechts","23","","","self","f","30","true"
"null","<div style=""font-size:60px;"">+</div>","null","html-keyboard-response","80","97101","0.0-6.0-0.37","FLSE","2","m","rechts","23","","fixation","","","",""
"502","img/0_270.png","70","image-keyboard-response","81","97624","0.0-6.0-1.37","FLSE","2","m","rechts","23","","","self","f","0","true"
"null","<div style=""font-size:60px;"">+</div>","null","html-keyboard-response","82","98132","0.0-6.0-0.38","FLSE","2","m","rechts","23","","fixation","","","",""
"508","img/150_240.png","74","image-keyboard-response","83","98659","0.0-6.0-1.38","FLSE","2","m","rechts","23","","","self","j","150","true"
"null","<div style=""font-size:60px;"">+</div>","null","html-keyboard-response","84","98975","0.0-6.0-0.39","FLSE","2","m","rechts","23","","fixation","","","",""
"688","img/90_210.png","74","image-keyboard-response","85","99682","0.0-6.0-1.39","FLSE","2","m","rechts","23","","","self","j","90","true"
"null","<div style=""font-size:60px;"">+</div>","null","html-keyboard-response","86","100085","0.0-6.0-0.40","FLSE","2","m","rechts","23","","fixation","","","",""
"782","img/30_60.png","74","image-keyboard-response","87","100885","0.0-6.0-1.40","FLSE","2","m","rechts","23","","","self","j","30","true"
"null","<div style=""font-size:60px;"">+</div>","null","html-keyboard-response","88","101288","0.0-6.0-0.41","FLSE","2","m","rechts","23","","fixation","","","",""
"929","img/150_300.png","74","image-keyboard-response","89","102234","0.0-6.0-1.41","FLSE","2","m","rechts","23","","","self","j","150","true"
"null","<div style=""font-size:60px;"">+</div>","null","html-keyboard-response","90","102741","0.0-6.0-0.42","FLSE","2","m","rechts","23","","fixation","","","",""
"953","img/120_210.png","74","image-keyboard-response","91","103712","0.0-6.0-1.42","FLSE","2","m","rechts","23","","","self","j","120","true"
"null","<div style=""font-size:60px;"">+</div>","null","html-keyboard-response","92","104023","0.0-6.0-0.43","FLSE","2","m","rechts","23","","fixation","","","",""
"705","img/90_150.png","70","image-keyboard-response","93","104746","0.0-6.0-1.43","FLSE","2","m","rechts","23","","","self","f","90","true"
"null","<div style=""font-size:60px;"">+</div>","null","html-keyboard-response","94","105228","0.0-6.0-0.44","FLSE","2","m","rechts","23","","fixation","","","",""
"840","img/120_90.png","70","image-keyboard-response","95","106084","0.0-6.0-1.44","FLSE","2","m","rechts","23","","","self","f","120","true"
"null","<div style=""font-size:60px;"">+</div>","null","html-keyboard-response","96","106603","0.0-6.0-0.45","FLSE","2","m","rechts","23","","fixation","","","",""
"619","img/0_300.png","70","image-keyboard-response","97","107241","0.0-6.0-1.45","FLSE","2","m","rechts","23","","","self","f","0","true"
"null","<div style=""font-size:60px;"">+</div>","null","html-keyboard-response","98","107650","0.0-6.0-0.46","FLSE","2","m","rechts","23","","fixation","","","",""
"689","img/60_210.png","74","image-keyboard-response","99","108357","0.0-6.0-1.46","FLSE","2","m","rechts","23","","","self","j","60","true"
"null","<div style=""font-size:60px;"">+</div>","null","html-keyboard-response","100","108821","0.0-6.0-0.47","FLSE","2","m","rechts","23","","fixation","","","",""
"584","img/120_270.png","74","image-keyboard-response","101","109418","0.0-6.0-1.47","FLSE","2","m","rechts","23","","","self","j","120","true"
"null","<div style=""font-size:60px;"">+</div>","null","html-keyboard-response","102","109729","0.0-6.0-0.48","FLSE","2","m","rechts","23","","fixation","","","",""
"554","img/0_60.png","74","image-keyboard-response","103","110303","0.0-6.0-1.48","FLSE","2","m","rechts","23","","","self","j","0","true"
"null","<div style=""font-size:60px;"">+</div>","null","html-keyboard-response","104","110728","0.0-6.0-0.49","FLSE","2","m","rechts","23","","fixation","","","",""
"573","img/90_180.png","74","image-keyboard-response","105","111316","0.0-6.0-1.49","FLSE","2","m","rechts","23","","","self","j","90","true"
"null","<div style=""font-size:60px;"">+</div>","null","html-keyboard-response","106","111821","0.0-6.0-0.50","FLSE","2","m","rechts","23","","fixation","","","",""
"518","img/L120_180.png","70","image-keyboard-response","107","112349","0.0-6.0-1.50","FLSE","2","m","rechts","23","","","self","f","120","true"
"null","<div style=""font-size:60px;"">+</div>","null","html-keyboard-response","108","112776","0.0-6.0-0.51","FLSE","2","m","rechts","23","","fixation","","","",""
"1095","img/120_330.png","70","image-keyboard-response","109","113890","0.0-6.0-1.51","FLSE","2","m","rechts","23","","","self","f","120","true"
"null","<div style=""font-size:60px;"">+</div>","null","html-keyboard-response","110","114197","0.0-6.0-0.52","FLSE","2","m","rechts","23","","fixation","","","",""
"750","img/150_180.png","74","image-keyboard-response","111","114959","0.0-6.0-1.52","FLSE","2","m","rechts","23","","","self","j","150","true"
"null","<div style=""font-size:60px;"">+</div>","null","html-keyboard-response","112","115431","0.0-6.0-0.53","FLSE","2","m","rechts","23","","fixation","","","",""
"563","img/0_330.png","70","image-keyboard-response","113","116007","0.0-6.0-1.53","FLSE","2","m","rechts","23","","","self","f","0","true"
"null","<div style=""font-size:60px;"">+</div>","null","html-keyboard-response","114","116416","0.0-6.0-0.54","FLSE","2","m","rechts","23","","fixation","","","",""
"848","img/L30_180.png","70","image-keyboard-response","115","117278","0.0-6.0-1.54","FLSE","2","m","rechts","23","","","self","f","30","true"
"null","<div style=""font-size:60px;"">+</div>","null","html-keyboard-response","116","117698","0.0-6.0-0.55","FLSE","2","m","rechts","23","","fixation","","","",""
"460","img/0_270.png","70","image-keyboard-response","117","118167","0.0-6.0-1.55","FLSE","2","m","rechts","23","","","self","f","0","true"
"null","<div style=""font-size:60px;"">+</div>","null","html-keyboard-response","118","118617","0.0-6.0-0.56","FLSE","2","m","rechts","23","","fixation","","","",""
"675","img/150_300.png","74","image-keyboard-response","119","119303","0.0-6.0-1.56","FLSE","2","m","rechts","23","","","self","j","150","true"
"null","<div style=""font-size:60px;"">+</div>","null","html-keyboard-response","120","119619","0.0-6.0-0.57","FLSE","2","m","rechts","23","","fixation","","","",""
"942","img/150_90.png","70","image-keyboard-response","121","120574","0.0-6.0-1.57","FLSE","2","m","rechts","23","","","self","f","150","true"
"null","<div style=""font-size:60px;"">+</div>","null","html-keyboard-response","122","120978","0.0-6.0-0.58","FLSE","2","m","rechts","23","","fixation","","","",""
"968","img/60_330.png","70","image-keyboard-response","123","121957","0.0-6.0-1.58","FLSE","2","m","rechts","23","","","self","f","60","true"
"null","<div style=""font-size:60px;"">+</div>","null","html-keyboard-response","124","122384","0.0-6.0-0.59","FLSE","2","m","rechts","23","","fixation","","","",""
"844","img/30_270.png","70","image-keyboard-response","125","123241","0.0-6.0-1.59","FLSE","2","m","rechts","23","","","self","f","30","true"
"null","<div style=""font-size:60px;"">+</div>","null","html-keyboard-response","126","123743","0.0-6.0-0.60","FLSE","2","m","rechts","23","","fixation","","","",""
"804","img/30_300.png","70","image-keyboard-response","127","124557","0.0-6.0-1.60","FLSE","2","m","rechts","23","","","self","f","30","true"
"null","<div style=""font-size:60px;"">+</div>","null","html-keyboard-response","128","124916","0.0-6.0-0.61","FLSE","2","m","rechts","23","","fixation","","","",""
"637","img/0_120.png","74","image-keyboard-response","129","125559","0.0-6.0-1.61","FLSE","2","m","rechts","23","","","self","j","0","true"
"null","<div style=""font-size:60px;"">+</div>","null","html-keyboard-response","130","126026","0.0-6.0-0.62","FLSE","2","m","rechts","23","","fixation","","","",""
"509","img/30_120.png","70","image-keyboard-response","131","126548","0.0-6.0-1.62","FLSE","2","m","rechts","23","","","self","j","30","false"
"null","<div style=""font-size:60px;"">+</div>","null","html-keyboard-response","132","127074","0.0-6.0-0.63","FLSE","2","m","rechts","23","","fixation","","","",""
"798","img/90_300.png","70","image-keyboard-response","133","127883","0.0-6.0-1.63","FLSE","2","m","rechts","23","","","self","f","90","true"
"null","<div style=""font-size:60px;"">+</div>","null","html-keyboard-response","134","128199","0.0-6.0-0.64","FLSE","2","m","rechts","23","","fixation","","","",""
"588","img/0_150.png","74","image-keyboard-response","135","128798","0.0-6.0-1.64","FLSE","2","m","rechts","23","","","self","j","0","true"
"null","<div style=""font-size:60px;"">+</div>","null","html-keyboard-response","136","129214","0.0-6.0-0.65","FLSE","2","m","rechts","23","","fixation","","","",""
"706","img/30_90.png","74","image-keyboard-response","137","129933","0.0-6.0-1.65","FLSE","2","m","rechts","23","","","self","j","30","true"
"null","<div style=""font-size:60px;"">+</div>","null","html-keyboard-response","138","130293","0.0-6.0-0.66","FLSE","2","m","rechts","23","","fixation","","","",""
"1225","img/120_30.png","74","image-keyboard-response","139","131531","0.0-6.0-1.66","FLSE","2","m","rechts","23","","","self","j","120","true"
"null","<div style=""font-size:60px;"">+</div>","null","html-keyboard-response","140","131981","0.0-6.0-0.67","FLSE","2","m","rechts","23","","fixation","","","",""
"712","img/L120_180.png","70","image-keyboard-response","141","132702","0.0-6.0-1.67","FLSE","2","m","rechts","23","","","self","f","120","true"
"null","<div style=""font-size:60px;"">+</div>","null","html-keyboard-response","142","133006","0.0-6.0-0.68","FLSE","2","m","rechts","23","","fixation","","","",""
"862","img/90_120.png","70","image-keyboard-response","143","133880","0.0-6.0-1.68","FLSE","2","m","rechts","23","","","self","f","90","true"
"null","<div style=""font-size:60px;"">+</div>","null","html-keyboard-response","144","134301","0.0-6.0-0.69","FLSE","2","m","rechts","23","","fixation","","","",""
"900","img/120_330.png","70","image-keyboard-response","145","135212","0.0-6.0-1.69","FLSE","2","m","rechts","23","","","self","f","120","true"
"null","<div style=""font-size:60px;"">+</div>","null","html-keyboard-response","146","135521","0.0-6.0-0.70","FLSE","2","m","rechts","23","","fixation","","","",""
"1063","img/120_270.png","74","image-keyboard-response","147","136594","0.0-6.0-1.70","FLSE","2","m","rechts","23","","","self","j","120","true"
"null","<div style=""font-size:60px;"">+</div>","null","html-keyboard-response","148","136959","0.0-6.0-0.71","FLSE","2","m","rechts","23","","fixation","","","",""
"1041","img/90_330.png","70","image-keyboard-response","149","138013","0.0-6.0-1.71","FLSE","2","m","rechts","23","","","self","f","90","true"
"null","<div style=""font-size:60px;"">+</div>","null","html-keyboard-response","150","138379","0.0-6.0-0.72","FLSE","2","m","rechts","23","","fixation","","","",""
"935","img/90_30.png","74","image-keyboard-response","151","139327","0.0-6.0-1.72","FLSE","2","m","rechts","23","","","self","j","90","true"
"null","<div style=""font-size:60px;"">+</div>","null","html-keyboard-response","152","139632","0.0-6.0-0.73","FLSE","2","m","rechts","23","","fixation","","","",""
"835","img/150_240.png","74","image-keyboard-response","153","140477","0.0-6.0-1.73","FLSE","2","m","rechts","23","","","self","j","150","true"
"null","<div style=""font-size:60px;"">+</div>","null","html-keyboard-response","154","140928","0.0-6.0-0.74","FLSE","2","m","rechts","23","","fixation","","","",""
"835","img/90_60.png","74","image-keyboard-response","155","141768","0.0-6.0-1.74","FLSE","2","m","rechts","23","","","self","j","90","true"
"null","<div style=""font-size:60px;"">+</div>","null","html-keyboard-response","156","142288","0.0-6.0-0.75","FLSE","2","m","rechts","23","","fixation","","","",""
"976","img/150_60.png","70","image-keyboard-response","157","143277","0.0-6.0-1.75","FLSE","2","m","rechts","23","","","self","f","150","true"
"null","<div style=""font-size:60px;"">+</div>","null","html-keyboard-response","158","143632","0.0-6.0-0.76","FLSE","2","m","rechts","23","","fixation","","","",""
"635","img/60_180.png","74","image-keyboard-response","159","144278","0.0-6.0-1.76","FLSE","2","m","rechts","23","","","self","j","60","true"
"null","<div style=""font-size:60px;"">+</div>","null","html-keyboard-response","160","144806","0.0-6.0-0.77","FLSE","2","m","rechts","23","","fixation","","","",""
"640","img/150_120.png","70","image-keyboard-response","161","145460","0.0-6.0-1.77","FLSE","2","m","rechts","23","","","self","f","150","true"
"null","<div style=""font-size:60px;"">+</div>","null","html-keyboard-response","162","145775","0.0-6.0-0.78","FLSE","2","m","rechts","23","","fixation","","","",""
"665","img/90_210.png","74","image-keyboard-response","163","146449","0.0-6.0-1.78","FLSE","2","m","rechts","23","","","self","j","90","true"
"null","<div style=""font-size:60px;"">+</div>","null","html-keyboard-response","164","146851","0.0-6.0-0.79","FLSE","2","m","rechts","23","","fixation","","","",""
"728","img/30_60.png","74","image-keyboard-response","165","147587","0.0-6.0-1.79","FLSE","2","m","rechts","23","","","self","j","30","true"
"null","<div style=""font-size:60px;"">+</div>","null","html-keyboard-response","166","147914","0.0-6.0-0.80","FLSE","2","m","rechts","23","","fixation","","","",""
"744","img/120_180.png","74","image-keyboard-response","167","148664","0.0-6.0-1.80","FLSE","2","m","rechts","23","","","self","j","120","true"
"null","<div style=""font-size:60px;"">+</div>","null","html-keyboard-response","168","149180","0.0-6.0-0.81","FLSE","2","m","rechts","23","","fixation","","","",""
"746","img/120_90.png","70","image-keyboard-response","169","149935","0.0-6.0-1.81","FLSE","2","m","rechts","23","","","self","f","120","true"
"null","<div style=""font-size:60px;"">+</div>","null","html-keyboard-response","170","150258","0.0-6.0-0.82","FLSE","2","m","rechts","23","","fixation","","","",""
"601","img/0_60.png","74","image-keyboard-response","171","150868","0.0-6.0-1.82","FLSE","2","m","rechts","23","","","self","j","0","true"
"null","<div style=""font-size:60px;"">+</div>","null","html-keyboard-response","172","151383","0.0-6.0-0.83","FLSE","2","m","rechts","23","","fixation","","","",""
"489","img/60_210.png","74","image-keyboard-response","173","151881","0.0-6.0-1.83","FLSE","2","m","rechts","23","","","self","j","60","true"
"null","<div style=""font-size:60px;"">+</div>","null","html-keyboard-response","174","152352","0.0-6.0-0.84","FLSE","2","m","rechts","23","","fixation","","","",""
"530","img/0_240.png","70","image-keyboard-response","175","152894","0.0-6.0-1.84","FLSE","2","m","rechts","23","","","self","f","0","true"
"null","<div style=""font-size:60px;"">+</div>","null","html-keyboard-response","176","153320","0.0-6.0-0.85","FLSE","2","m","rechts","23","","fixation","","","",""
"630","img/0_30.png","74","image-keyboard-response","177","153963","0.0-6.0-1.85","FLSE","2","m","rechts","23","","","self","j","0","true"
"null","<div style=""font-size:60px;"">+</div>","null","html-keyboard-response","178","154492","0.0-6.0-0.86","FLSE","2","m","rechts","23","","fixation","","","",""
"809","img/60_30.png","74","image-keyboard-response","179","155316","0.0-6.0-1.86","FLSE","2","m","rechts","23","","","self","j","60","true"
"null","<div style=""font-size:60px;"">+</div>","null","html-keyboard-response","180","155729","0.0-6.0-0.87","FLSE","2","m","rechts","23","","fixation","","","",""
"573","img/0_210.png","70","image-keyboard-response","181","156314","0.0-6.0-1.87","FLSE","2","m","rechts","23","","","self","f","0","true"
"null","<div style=""font-size:60px;"">+</div>","null","html-keyboard-response","182","156635","0.0-6.0-0.88","FLSE","2","m","rechts","23","","fixation","","","",""
"692","img/60_90.png","74","image-keyboard-response","183","157342","0.0-6.0-1.88","FLSE","2","m","rechts","23","","","self","j","60","true"
"null","<div style=""font-size:60px;"">+</div>","null","html-keyboard-response","184","157853","0.0-6.0-0.89","FLSE","2","m","rechts","23","","fixation","","","",""
"673","img/90_240.png","74","image-keyboard-response","185","158531","0.0-6.0-1.89","FLSE","2","m","rechts","23","","","self","j","90","true"
"null","<div style=""font-size:60px;"">+</div>","null","html-keyboard-response","186","159041","0.0-6.0-0.90","FLSE","2","m","rechts","23","","fixation","","","",""
"606","img/90_180.png","74","image-keyboard-response","187","159656","0.0-6.0-1.90","FLSE","2","m","rechts","23","","","self","j","90","true"
"null","<div style=""font-size:60px;"">+</div>","null","html-keyboard-response","188","159978","0.0-6.0-0.91","FLSE","2","m","rechts","23","","fixation","","","",""
"619","img/L90_180.png","70","image-keyboard-response","189","160600","0.0-6.0-1.91","FLSE","2","m","rechts","23","","","self","f","90","true"
"null","<div style=""font-size:60px;"">+</div>","null","html-keyboard-response","190","160916","0.0-6.0-0.92","FLSE","2","m","rechts","23","","fixation","","","",""
"589","img/120_150.png","70","image-keyboard-response","191","161513","0.0-6.0-1.92","FLSE","2","m","rechts","23","","","self","f","120","true"
"null","<div style=""font-size:60px;"">+</div>","null","html-keyboard-response","192","161915","0.0-6.0-0.93","FLSE","2","m","rechts","23","","fixation","","","",""
"501","img/L60_180.png","70","image-keyboard-response","193","162425","0.0-6.0-1.93","FLSE","2","m","rechts","23","","","self","f","60","true"
"null","<div style=""font-size:60px;"">+</div>","null","html-keyboard-response","194","162946","0.0-6.0-0.94","FLSE","2","m","rechts","23","","fixation","","","",""
"653","img/0_300.png","70","image-keyboard-response","195","163607","0.0-6.0-1.94","FLSE","2","m","rechts","23","","","self","f","0","true"
"null","<div style=""font-size:60px;"">+</div>","null","html-keyboard-response","196","164072","0.0-6.0-0.95","FLSE","2","m","rechts","23","","fixation","","","",""
"477","img/30_180.png","74","image-keyboard-response","197","164563","0.0-6.0-1.95","FLSE","2","m","rechts","23","","","self","j","30","true"
"null","<div style=""font-size:60px;"">+</div>","null","html-keyboard-response","198","165024","0.0-6.0-0.96","FLSE","2","m","rechts","23","","fixation","","","",""
"484","img/60_150.png","70","image-keyboard-response","199","165518","0.0-6.0-1.96","FLSE","2","m","rechts","23","","","self","f","60","true"
"null","<div style=""font-size:60px;"">+</div>","null","html-keyboard-response","200","165993","0.0-6.0-0.97","FLSE","2","m","rechts","23","","fixation","","","",""
"509","img/120_210.png","74","image-keyboard-response","201","166509","0.0-6.0-1.97","FLSE","2","m","rechts","23","","","self","j","120","true"
"null","<div style=""font-size:60px;"">+</div>","null","html-keyboard-response","202","167024","0.0-6.0-0.98","FLSE","2","m","rechts","23","","fixation","","","",""
"844","img/30_240.png","70","image-keyboard-response","203","167881","0.0-6.0-1.98","FLSE","2","m","rechts","23","","","self","f","30","true"
"null","<div style=""font-size:60px;"">+</div>","null","html-keyboard-response","204","168197","0.0-6.0-0.99","FLSE","2","m","rechts","23","","fixation","","","",""
"615","img/60_270.png","70","image-keyboard-response","205","168825","0.0-6.0-1.99","FLSE","2","m","rechts","23","","","self","f","60","true"
"null","<div style=""font-size:60px;"">+</div>","null","html-keyboard-response","206","169189","0.0-6.0-0.100","FLSE","2","m","rechts","23","","fixation","","","",""
"544","img/0_90.png","74","image-keyboard-response","207","169747","0.0-6.0-1.100","FLSE","2","m","rechts","23","","","self","j","0","true"
"null","<div style=""font-size:60px;"">+</div>","null","html-keyboard-response","208","170261","0.0-6.0-0.101","FLSE","2","m","rechts","23","","fixation","","","",""
"567","img/150_270.png","74","image-keyboard-response","209","170840","0.0-6.0-1.101","FLSE","2","m","rechts","23","","","self","j","150","true"
"null","<div style=""font-size:60px;"">+</div>","null","html-keyboard-response","210","171197","0.0-6.0-0.102","FLSE","2","m","rechts","23","","fixation","","","",""
"687","img/L150_180.png","70","image-keyboard-response","211","171897","0.0-6.0-1.102","FLSE","2","m","rechts","23","","","self","f","150","true"
"null","<div style=""font-size:60px;"">+</div>","null","html-keyboard-response","212","172369","0.0-6.0-0.103","FLSE","2","m","rechts","23","","fixation","","","",""
"538","img/90_150.png","70","image-keyboard-response","213","172922","0.0-6.0-1.103","FLSE","2","m","rechts","23","","","self","f","90","true"
"null","<div style=""font-size:60px;"">+</div>","null","html-keyboard-response","214","173291","0.0-6.0-0.104","FLSE","2","m","rechts","23","","fixation","","","",""
"599","img/0_210.png","70","image-keyboard-response","215","173899","0.0-6.0-1.104","FLSE","2","m","rechts","23","","","self","f","0","true"
"null","<div style=""font-size:60px;"">+</div>","null","html-keyboard-response","216","174322","0.0-6.0-0.105","FLSE","2","m","rechts","23","","fixation","","","",""
"623","img/150_270.png","74","image-keyboard-response","217","174955","0.0-6.0-1.105","FLSE","2","m","rechts","23","","","self","j","150","true"
"null","<div style=""font-size:60px;"">+</div>","null","html-keyboard-response","218","175322","0.0-6.0-0.106","FLSE","2","m","rechts","23","","fixation","","","",""
"749","img/30_120.png","74","image-keyboard-response","219","176082","0.0-6.0-1.106","FLSE","2","m","rechts","23","","","self","j","30","true"
"null","<div style=""font-size:60px;"">+</div>","null","html-keyboard-response","220","176447","0.0-6.0-0.107","FLSE","2","m","rechts","23","","fixation","","","",""
"552","img/0_120.png","74","image-keyboard-response","221","177015","0.0-6.0-1.107","FLSE","2","m","rechts","23","","","self","j","0","true"
"null","<div style=""font-size:60px;"">+</div>","null","html-keyboard-response","222","177431","0.0-6.0-0.108","FLSE","2","m","rechts","23","","fixation","","","",""
"496","img/0_240.png","70","image-keyboard-response","223","177937","0.0-6.0-1.108","FLSE","2","m","rechts","23","","","self","f","0","true"
"null","<div style=""font-size:60px;"">+</div>","null","html-keyboard-response","224","178447","0.0-6.0-0.109","FLSE","2","m","rechts","23","","fixation","","","",""
"489","img/L120_180.png","70","image-keyboard-response","225","178949","0.0-6.0-1.109","FLSE","2","m","rechts","23","","","self","f","120","true"
"null","<div style=""font-size:60px;"">+</div>","null","html-keyboard-response","226","179479","0.0-6.0-0.110","FLSE","2","m","rechts","23","","fixation","","","",""
"419","img/0_60.png","74","image-keyboard-response","227","179907","0.0-6.0-1.110","FLSE","2","m","rechts","23","","","self","j","0","true"
"null","<div style=""font-size:60px;"">+</div>","null","html-keyboard-response","228","180418","0.0-6.0-0.111","FLSE","2","m","rechts","23","","fixation","","","",""
"465","img/120_270.png","74","image-keyboard-response","229","180897","0.0-6.0-1.111","FLSE","2","m","rechts","23","","","self","j","120","true"
"null","<div style=""font-size:60px;"">+</div>","null","html-keyboard-response","230","181199","0.0-6.0-0.112","FLSE","2","m","rechts","23","","fixation","","","",""
"509","img/120_180.png","74","image-keyboard-response","231","181717","0.0-6.0-1.112","FLSE","2","m","rechts","23","","","self","j","120","true"
"null","<div style=""font-size:60px;"">+</div>","null","html-keyboard-response","232","182245","0.0-6.0-0.113","FLSE","2","m","rechts","23","","fixation","","","",""
"734","img/120_90.png","70","image-keyboard-response","233","182988","0.0-6.0-1.113","FLSE","2","m","rechts","23","","","self","f","120","true"
"null","<div style=""font-size:60px;"">+</div>","null","html-keyboard-response","234","183449","0.0-6.0-0.114","FLSE","2","m","rechts","23","","fixation","","","",""
"838","img/90_120.png","70","image-keyboard-response","235","184296","0.0-6.0-1.114","FLSE","2","m","rechts","23","","","self","f","90","true"
"null","<div style=""font-size:60px;"">+</div>","null","html-keyboard-response","236","184808","0.0-6.0-0.115","FLSE","2","m","rechts","23","","fixation","","","",""
"980","img/150_300.png","70","image-keyboard-response","237","185801","0.0-6.0-1.115","FLSE","2","m","rechts","23","","","self","j","150","false"
"null","<div style=""font-size:60px;"">+</div>","null","html-keyboard-response","238","186215","0.0-6.0-0.116","FLSE","2","m","rechts","23","","fixation","","","",""
"837","img/90_150.png","70","image-keyboard-response","239","187063","0.0-6.0-1.116","FLSE","2","m","rechts","23","","","self","f","90","true"
"null","<div style=""font-size:60px;"">+</div>","null","html-keyboard-response","240","187526","0.0-6.0-0.117","FLSE","2","m","rechts","23","","fixation","","","",""
"682","img/150_180.png","74","image-keyboard-response","241","188222","0.0-6.0-1.117","FLSE","2","m","rechts","23","","","self","j","150","true"
"null","<div style=""font-size:60px;"">+</div>","null","html-keyboard-response","242","188745","0.0-6.0-0.118","FLSE","2","m","rechts","23","","fixation","","","",""
"835","img/90_300.png","70","image-keyboard-response","243","189594","0.0-6.0-1.118","FLSE","2","m","rechts","23","","","self","f","90","true"
"null","<div style=""font-size:60px;"">+</div>","null","html-keyboard-response","244","190122","0.0-6.0-0.119","FLSE","2","m","rechts","23","","fixation","","","",""
"451","img/60_150.png","70","image-keyboard-response","245","190585","0.0-6.0-1.119","FLSE","2","m","rechts","23","","","self","f","60","true"
"null","<div style=""font-size:60px;"">+</div>","null","html-keyboard-response","246","191059","0.0-6.0-0.120","FLSE","2","m","rechts","23","","fixation","","","",""
"492","img/L90_180.png","70","image-keyboard-response","247","191563","0.0-6.0-1.120","FLSE","2","m","rechts","23","","","self","f","90","true"
"null","<div style=""font-size:60px;"">+</div>","null","html-keyboard-response","248","191888","0.0-6.0-0.121","FLSE","2","m","rechts","23","","fixation","","","",""
"672","img/30_90.png","74","image-keyboard-response","249","192576","0.0-6.0-1.121","FLSE","2","m","rechts","23","","","self","j","30","true"
"null","<div style=""font-size:60px;"">+</div>","null","html-keyboard-response","250","193091","0.0-6.0-0.122","FLSE","2","m","rechts","23","","fixation","","","",""
"698","img/60_270.png","70","image-keyboard-response","251","193799","0.0-6.0-1.122","FLSE","2","m","rechts","23","","","self","f","60","true"
"null","<div style=""font-size:60px;"">+</div>","null","html-keyboard-response","252","194279","0.0-6.0-0.123","FLSE","2","m","rechts","23","","fixation","","","",""
"593","img/120_210.png","74","image-keyboard-response","253","194881","0.0-6.0-1.123","FLSE","2","m","rechts","23","","","self","j","120","true"
"null","<div style=""font-size:60px;"">+</div>","null","html-keyboard-response","254","195247","0.0-6.0-0.124","FLSE","2","m","rechts","23","","fixation","","","",""
"771","img/90_180.png","74","image-keyboard-response","255","196028","0.0-6.0-1.124","FLSE","2","m","rechts","23","","","self","j","90","true"
"null","<div style=""font-size:60px;"">+</div>","null","html-keyboard-response","256","196435","0.0-6.0-0.125","FLSE","2","m","rechts","23","","fixation","","","",""
"620","img/90_240.png","74","image-keyboard-response","257","197066","0.0-6.0-1.125","FLSE","2","m","rechts","23","","","self","j","90","true"
"null","<div style=""font-size:60px;"">+</div>","null","html-keyboard-response","258","197529","0.0-6.0-0.126","FLSE","2","m","rechts","23","","fixation","","","",""
"964","img/150_60.png","74","image-keyboard-response","259","198503","0.0-6.0-1.126","FLSE","2","m","rechts","23","","","self","f","150","false"
"null","<div style=""font-size:60px;"">+</div>","null","html-keyboard-response","260","198933","0.0-6.0-0.127","FLSE","2","m","rechts","23","","fixation","","","",""
"1025","img/90_60.png","74","image-keyboard-response","261","199965","0.0-6.0-1.127","FLSE","2","m","rechts","23","","","self","j","90","true"
"null","<div style=""font-size:60px;"">+</div>","null","html-keyboard-response","262","200326","0.0-6.0-0.128","FLSE","2","m","rechts","23","","fixation","","","",""
"649","img/L30_180.png","70","image-keyboard-response","263","200989","0.0-6.0-1.128","FLSE","2","m","rechts","23","","","self","f","30","true"
"null","<div style=""font-size:60px;"">+</div>","null","html-keyboard-response","264","201296","0.0-6.0-0.129","FLSE","2","m","rechts","23","","fixation","","","",""
"715","img/30_270.png","70","image-keyboard-response","265","202024","0.0-6.0-1.129","FLSE","2","m","rechts","23","","","self","f","30","true"
"null","<div style=""font-size:60px;"">+</div>","null","html-keyboard-response","266","202544","0.0-6.0-0.130","FLSE","2","m","rechts","23","","fixation","","","",""
"671","img/60_330.png","70","image-keyboard-response","267","203228","0.0-6.0-1.130","FLSE","2","m","rechts","23","","","self","f","60","true"
"null","<div style=""font-size:60px;"">+</div>","null","html-keyboard-response","268","203639","0.0-6.0-0.131","FLSE","2","m","rechts","23","","fixation","","","",""
"904","img/150_90.png","70","image-keyboard-response","269","204557","0.0-6.0-1.131","FLSE","2","m","rechts","23","","","self","f","150","true"
"null","<div style=""font-size:60px;"">+</div>","null","html-keyboard-response","270","205066","0.0-6.0-0.132","FLSE","2","m","rechts","23","","fixation","","","",""
"809","img/60_30.png","74","image-keyboard-response","271","205886","0.0-6.0-1.132","FLSE","2","m","rechts","23","","","self","j","60","true"
"null","<div style=""font-size:60px;"">+</div>","null","html-keyboard-response","272","206192","0.0-6.0-0.133","FLSE","2","m","rechts","23","","fixation","","","",""
"692","img/60_180.png","74","image-keyboard-response","273","206897","0.0-6.0-1.133","FLSE","2","m","rechts","23","","","self","j","60","true"
"null","<div style=""font-size:60px;"">+</div>","null","html-keyboard-response","274","207362","0.0-6.0-0.134","FLSE","2","m","rechts","23","","fixation","","","",""
"622","img/90_330.png","70","image-keyboard-response","275","207997","0.0-6.0-1.134","FLSE","2","m","rechts","23","","","self","f","90","true"
"null","<div style=""font-size:60px;"">+</div>","null","html-keyboard-response","276","208456","0.0-6.0-0.135","FLSE","2","m","rechts","23","","fixation","","","",""
"704","img/30_60.png","74","image-keyboard-response","277","209171","0.0-6.0-1.135","FLSE","2","m","rechts","23","","","self","j","30","true"
"null","<div style=""font-size:60px;"">+</div>","null","html-keyboard-response","278","209677","0.0-6.0-0.136","FLSE","2","m","rechts","23","","fixation","","","",""
"749","img/150_120.png","70","image-keyboard-response","279","210438","0.0-6.0-1.136","FLSE","2","m","rechts","23","","","self","f","150","true"
"null","<div style=""font-size:60px;"">+</div>","null","html-keyboard-response","280","210896","0.0-6.0-0.137","FLSE","2","m","rechts","23","","fixation","","","",""
"746","img/0_270.png","70","image-keyboard-response","281","211656","0.0-6.0-1.137","FLSE","2","m","rechts","23","","","self","f","0","true"
"null","<div style=""font-size:60px;"">+</div>","null","html-keyboard-response","282","212020","0.0-6.0-0.138","FLSE","2","m","rechts","23","","fixation","","","",""
"520","img/30_300.png","70","image-keyboard-response","283","212544","0.0-6.0-1.138","FLSE","2","m","rechts","23","","","self","f","30","true"
"null","<div style=""font-size:60px;"">+</div>","null","html-keyboard-response","284","213052","0.0-6.0-0.139","FLSE","2","m","rechts","23","","fixation","","","",""
"631","img/60_210.png","74","image-keyboard-response","285","213694","0.0-6.0-1.139","FLSE","2","m","rechts","23","","","self","j","60","true"
"null","<div style=""font-size:60px;"">+</div>","null","html-keyboard-response","286","214098","0.0-6.0-0.140","FLSE","2","m","rechts","23","","fixation","","","",""
"570","img/90_210.png","74","image-keyboard-response","287","214682","0.0-6.0-1.140","FLSE","2","m","rechts","23","","","self","j","90","true"
"null","<div style=""font-size:60px;"">+</div>","null","html-keyboard-response","288","215098","0.0-6.0-0.141","FLSE","2","m","rechts","23","","fixation","","","",""
"506","img/L60_180.png","70","image-keyboard-response","289","215616","0.0-6.0-1.141","FLSE","2","m","rechts","23","","","self","f","60","true"
"null","<div style=""font-size:60px;"">+</div>","null","html-keyboard-response","290","215925","0.0-6.0-0.142","FLSE","2","m","rechts","23","","fixation","","","",""
"559","img/0_150.png","74","image-keyboard-response","291","216492","0.0-6.0-1.142","FLSE","2","m","rechts","23","","","self","j","0","true"
"null","<div style=""font-size:60px;"">+</div>","null","html-keyboard-response","292","216802","0.0-6.0-0.143","FLSE","2","m","rechts","23","","fixation","","","",""
"525","img/0_90.png","74","image-keyboard-response","293","217336","0.0-6.0-1.143","FLSE","2","m","rechts","23","","","self","j","0","true"
"null","<div style=""font-size:60px;"">+</div>","null","html-keyboard-response","294","217708","0.0-6.0-0.144","FLSE","2","m","rechts","23","","fixation","","","",""
"463","img/30_180.png","74","image-keyboard-response","295","218180","0.0-6.0-1.144","FLSE","2","m","rechts","23","","","self","j","30","true"
"null","<div style=""font-size:60px;"">+</div>","null","html-keyboard-response","296","218599","0.0-6.0-0.145","FLSE","2","m","rechts","23","","fixation","","","",""
"548","img/120_30.png","70","image-keyboard-response","297","219160","0.0-6.0-1.145","FLSE","2","m","rechts","23","","","self","j","120","false"
"null","<div style=""font-size:60px;"">+</div>","null","html-keyboard-response","298","219678","0.0-6.0-0.146","FLSE","2","m","rechts","23","","fixation","","","",""
"537","img/0_30.png","74","image-keyboard-response","299","220228","0.0-6.0-1.146","FLSE","2","m","rechts","23","","","self","j","0","true"
"null","<div style=""font-size:60px;"">+</div>","null","html-keyboard-response","300","220647","0.0-6.0-0.147","FLSE","2","m","rechts","23","","fixation","","","",""
"546","img/120_150.png","70","image-keyboard-response","301","221206","0.0-6.0-1.147","FLSE","2","m","rechts","23","","","self","f","120","true"
"null","<div style=""font-size:60px;"">+</div>","null","html-keyboard-response","302","221662","0.0-6.0-0.148","FLSE","2","m","rechts","23","","fixation","","","",""
"531","img/150_240.png","74","image-keyboard-response","303","222206","0.0-6.0-1.148","FLSE","2","m","rechts","23","","","self","j","150","true"
"null","<div style=""font-size:60px;"">+</div>","null","html-keyboard-response","304","222662","0.0-6.0-0.149","FLSE","2","m","rechts","23","","fixation","","","",""
"703","img/90_30.png","74","image-keyboard-response","305","223378","0.0-6.0-1.149","FLSE","2","m","rechts","23","","","self","j","90","true"
"null","<div style=""font-size:60px;"">+</div>","null","html-keyboard-response","306","223694","0.0-6.0-0.150","FLSE","2","m","rechts","23","","fixation","","","",""
"618","img/L150_180.png","70","image-keyboard-response","307","224323","0.0-6.0-1.150","FLSE","2","m","rechts","23","","","self","f","150","true"
"null","<div style=""font-size:60px;"">+</div>","null","html-keyboard-response","308","224740","0.0-6.0-0.151","FLSE","2","m","rechts","23","","fixation","","","",""
"817","img/0_300.png","70","image-keyboard-response","309","225572","0.0-6.0-1.151","FLSE","2","m","rechts","23","","","self","f","0","true"
"null","<div style=""font-size:60px;"">+</div>","null","html-keyboard-response","310","225896","0.0-6.0-0.152","FLSE","2","m","rechts","23","","fixation","","","",""
"514","img/0_330.png","70","image-keyboard-response","311","226425","0.0-6.0-1.152","FLSE","2","m","rechts","23","","","self","f","0","true"
"null","<div style=""font-size:60px;"">+</div>","null","html-keyboard-response","312","226850","0.0-6.0-0.153","FLSE","2","m","rechts","23","","fixation","","","",""
"820","img/30_240.png","70","image-keyboard-response","313","227685","0.0-6.0-1.153","FLSE","2","m","rechts","23","","","self","f","30","true"
"null","<div style=""font-size:60px;"">+</div>","null","html-keyboard-response","314","227990","0.0-6.0-0.154","FLSE","2","m","rechts","23","","fixation","","","",""
"1110","img/120_330.png","70","image-keyboard-response","315","229104","0.0-6.0-1.154","FLSE","2","m","rechts","23","","","self","f","120","true"
"null","<div style=""font-size:60px;"">+</div>","null","html-keyboard-response","316","229521","0.0-6.0-0.155","FLSE","2","m","rechts","23","","fixation","","","",""
"887","img/60_90.png","74","image-keyboard-response","317","230422","0.0-6.0-1.155","FLSE","2","m","rechts","23","","","self","j","60","true"
"null","<div style=""font-size:60px;"">+</div>","null","html-keyboard-response","318","230789","0.0-6.0-0.156","FLSE","2","m","rechts","23","","fixation","","","",""
"598","img/30_270.png","70","image-keyboard-response","319","231398","0.0-6.0-1.156","FLSE","2","m","rechts","23","","","self","f","30","true"
"null","<div style=""font-size:60px;"">+</div>","null","html-keyboard-response","320","231711","0.0-6.0-0.157","FLSE","2","m","rechts","23","","fixation","","","",""
"668","img/60_180.png","74","image-keyboard-response","321","232388","0.0-6.0-1.157","FLSE","2","m","rechts","23","","","self","j","60","true"
"null","<div style=""font-size:60px;"">+</div>","null","html-keyboard-response","322","232912","0.0-6.0-0.158","FLSE","2","m","rechts","23","","fixation","","","",""
"630","img/150_270.png","74","image-keyboard-response","323","233560","0.0-6.0-1.158","FLSE","2","m","rechts","23","","","self","j","150","true"
"null","<div style=""font-size:60px;"">+</div>","null","html-keyboard-response","324","233976","0.0-6.0-0.159","FLSE","2","m","rechts","23","","fixation","","","",""
"784","img/90_180.png","74","image-keyboard-response","325","234764","0.0-6.0-1.159","FLSE","2","m","rechts","23","","","self","j","90","true"
"null","<div style=""font-size:60px;"">+</div>","null","html-keyboard-response","326","235195","0.0-6.0-0.160","FLSE","2","m","rechts","23","","fixation","","","",""
"570","img/30_300.png","70","image-keyboard-response","327","235776","0.0-6.0-1.160","FLSE","2","m","rechts","23","","","self","f","30","true"
"null","<div style=""font-size:60px;"">+</div>","null","html-keyboard-response","328","236179","0.0-6.0-0.161","FLSE","2","m","rechts","23","","fixation","","","",""
"1001","img/90_240.png","74","image-keyboard-response","329","237193","0.0-6.0-1.161","FLSE","2","m","rechts","23","","","self","j","90","true"
"null","<div style=""font-size:60px;"">+</div>","null","html-keyboard-response","330","237505","0.0-6.0-0.162","FLSE","2","m","rechts","23","","fixation","","","",""
"584","img/0_120.png","74","image-keyboard-response","331","238104","0.0-6.0-1.162","FLSE","2","m","rechts","23","","","self","j","0","true"
"null","<div style=""font-size:60px;"">+</div>","null","html-keyboard-response","332","238522","0.0-6.0-0.163","FLSE","2","m","rechts","23","","fixation","","","",""
"501","img/0_60.png","74","image-keyboard-response","333","239036","0.0-6.0-1.163","FLSE","2","m","rechts","23","","","self","j","0","true"
"null","<div style=""font-size:60px;"">+</div>","null","html-keyboard-response","334","239414","0.0-6.0-0.164","FLSE","2","m","rechts","23","","fixation","","","",""
"592","img/L150_180.png","70","image-keyboard-response","335","240015","0.0-6.0-1.164","FLSE","2","m","rechts","23","","","self","f","150","true"
"null","<div style=""font-size:60px;"">+</div>","null","html-keyboard-response","336","240531","0.0-6.0-0.165","FLSE","2","m","rechts","23","","fixation","","","",""
"1206","img/150_60.png","70","image-keyboard-response","337","241750","0.0-6.0-1.165","FLSE","2","m","rechts","23","","","self","f","150","true"
"null","<div style=""font-size:60px;"">+</div>","null","html-keyboard-response","338","242062","0.0-6.0-0.166","FLSE","2","m","rechts","23","","fixation","","","",""
"593","img/0_210.png","70","image-keyboard-response","339","242661","0.0-6.0-1.166","FLSE","2","m","rechts","23","","","self","f","0","true"
"null","<div style=""font-size:60px;"">+</div>","null","html-keyboard-response","340","242984","0.0-6.0-0.167","FLSE","2","m","rechts","23","","fixation","","","",""
"641","img/60_30.png","74","image-keyboard-response","341","243629","0.0-6.0-1.167","FLSE","2","m","rechts","23","","","self","j","60","true"
"null","<div style=""font-size:60px;"">+</div>","null","html-keyboard-response","342","244109","0.0-6.0-0.168","FLSE","2","m","rechts","23","","fixation","","","",""
"555","img/0_150.png","74","image-keyboard-response","343","244675","0.0-6.0-1.168","FLSE","2","m","rechts","23","","","self","j","0","true"
"null","<div style=""font-size:60px;"">+</div>","null","html-keyboard-response","344","245040","0.0-6.0-0.169","FLSE","2","m","rechts","23","","fixation","","","",""
"508","img/0_90.png","74","image-keyboard-response","345","245552","0.0-6.0-1.169","FLSE","2","m","rechts","23","","","self","j","0","true"
"null","<div style=""font-size:60px;"">+</div>","null","html-keyboard-response","346","245868","0.0-6.0-0.170","FLSE","2","m","rechts","23","","fixation","","","",""
"777","img/60_150.png","70","image-keyboard-response","347","246654","0.0-6.0-1.170","FLSE","2","m","rechts","23","","","self","f","60","true"
"null","<div style=""font-size:60px;"">+</div>","null","html-keyboard-response","348","247010","0.0-6.0-0.171","FLSE","2","m","rechts","23","","fixation","","","",""
"535","img/0_270.png","70","image-keyboard-response","349","247556","0.0-6.0-1.171","FLSE","2","m","rechts","23","","","self","f","0","true"
"null","<div style=""font-size:60px;"">+</div>","null","html-keyboard-response","350","247885","0.0-6.0-0.172","FLSE","2","m","rechts","23","","fixation","","","",""
"500","img/120_210.png","74","image-keyboard-response","351","248398","0.0-6.0-1.172","FLSE","2","m","rechts","23","","","self","j","120","true"
"null","<div style=""font-size:60px;"">+</div>","null","html-keyboard-response","352","248821","0.0-6.0-0.173","FLSE","2","m","rechts","23","","fixation","","","",""
"554","img/30_180.png","74","image-keyboard-response","353","249387","0.0-6.0-1.173","FLSE","2","m","rechts","23","","","self","j","30","true"
"null","<div style=""font-size:60px;"">+</div>","null","html-keyboard-response","354","249791","0.0-6.0-0.174","FLSE","2","m","rechts","23","","fixation","","","",""
"610","img/120_150.png","70","image-keyboard-response","355","250412","0.0-6.0-1.174","FLSE","2","m","rechts","23","","","self","f","120","true"
"null","<div style=""font-size:60px;"">+</div>","null","html-keyboard-response","356","250868","0.0-6.0-0.175","FLSE","2","m","rechts","23","","fixation","","","",""
"847","img/30_120.png","74","image-keyboard-response","357","251729","0.0-6.0-1.175","FLSE","2","m","rechts","23","","","self","j","30","true"
"null","<div style=""font-size:60px;"">+</div>","null","html-keyboard-response","358","252102","0.0-6.0-0.176","FLSE","2","m","rechts","23","","fixation","","","",""
"591","img/30_60.png","74","image-keyboard-response","359","252697","0.0-6.0-1.176","FLSE","2","m","rechts","23","","","self","j","30","true"
"null","<div style=""font-size:60px;"">+</div>","null","html-keyboard-response","360","253102","0.0-6.0-0.177","FLSE","2","m","rechts","23","","fixation","","","",""
"693","img/60_330.png","70","image-keyboard-response","361","253799","0.0-6.0-1.177","FLSE","2","m","rechts","23","","","self","f","60","true"
"null","<div style=""font-size:60px;"">+</div>","null","html-keyboard-response","362","254274","0.0-6.0-0.178","FLSE","2","m","rechts","23","","fixation","","","",""
"905","img/30_90.png","74","image-keyboard-response","363","255193","0.0-6.0-1.178","FLSE","2","m","rechts","23","","","self","j","30","true"
"null","<div style=""font-size:60px;"">+</div>","null","html-keyboard-response","364","255557","0.0-6.0-0.179","FLSE","2","m","rechts","23","","fixation","","","",""
"558","img/0_330.png","70","image-keyboard-response","365","256127","0.0-6.0-1.179","FLSE","2","m","rechts","23","","","self","f","0","true"
"null","<div style=""font-size:60px;"">+</div>","null","html-keyboard-response","366","256635","0.0-6.0-0.180","FLSE","2","m","rechts","23","","fixation","","","",""
"651","img/90_330.png","70","image-keyboard-response","367","257297","0.0-6.0-1.180","FLSE","2","m","rechts","23","","","self","f","90","true"
"null","<div style=""font-size:60px;"">+</div>","null","html-keyboard-response","368","257760","0.0-6.0-0.181","FLSE","2","m","rechts","23","","fixation","","","",""
"693","img/90_300.png","70","image-keyboard-response","369","258466","0.0-6.0-1.181","FLSE","2","m","rechts","23","","","self","f","90","true"
"null","<div style=""font-size:60px;"">+</div>","null","html-keyboard-response","370","258994","0.0-6.0-0.182","FLSE","2","m","rechts","23","","fixation","","","",""
"550","img/L60_180.png","70","image-keyboard-response","371","259559","0.0-6.0-1.182","FLSE","2","m","rechts","23","","","self","f","60","true"
"null","<div style=""font-size:60px;"">+</div>","null","html-keyboard-response","372","259870","0.0-6.0-0.183","FLSE","2","m","rechts","23","","fixation","","","",""
"935","img/120_90.png","70","image-keyboard-response","373","260819","0.0-6.0-1.183","FLSE","2","m","rechts","23","","","self","f","120","true"
"null","<div style=""font-size:60px;"">+</div>","null","html-keyboard-response","374","261323","0.0-6.0-0.184","FLSE","2","m","rechts","23","","fixation","","","",""
"488","img/0_300.png","70","image-keyboard-response","375","261820","0.0-6.0-1.184","FLSE","2","m","rechts","23","","","self","f","0","true"
"null","<div style=""font-size:60px;"">+</div>","null","html-keyboard-response","376","262275","0.0-6.0-0.185","FLSE","2","m","rechts","23","","fixation","","","",""
"717","img/90_30.png","74","image-keyboard-response","377","263001","0.0-6.0-1.185","FLSE","2","m","rechts","23","","","self","j","90","true"
"null","<div style=""font-size:60px;"">+</div>","null","html-keyboard-response","378","263463","0.0-6.0-0.186","FLSE","2","m","rechts","23","","fixation","","","",""
"732","img/30_240.png","70","image-keyboard-response","379","264205","0.0-6.0-1.186","FLSE","2","m","rechts","23","","","self","f","30","true"
"null","<div style=""font-size:60px;"">+</div>","null","html-keyboard-response","380","264525","0.0-6.0-0.187","FLSE","2","m","rechts","23","","fixation","","","",""
"782","img/120_30.png","74","image-keyboard-response","381","265317","0.0-6.0-1.187","FLSE","2","m","rechts","23","","","self","j","120","true"
"null","<div style=""font-size:60px;"">+</div>","null","html-keyboard-response","382","265699","0.0-6.0-0.188","FLSE","2","m","rechts","23","","fixation","","","",""
"710","img/90_120.png","70","image-keyboard-response","383","266422","0.0-6.0-1.188","FLSE","2","m","rechts","23","","","self","f","90","true"
"null","<div style=""font-size:60px;"">+</div>","null","html-keyboard-response","384","266886","0.0-6.0-0.189","FLSE","2","m","rechts","23","","fixation","","","",""
"727","img/120_330.png","70","image-keyboard-response","385","267624","0.0-6.0-1.189","FLSE","2","m","rechts","23","","","self","f","120","true"
"null","<div style=""font-size:60px;"">+</div>","null","html-keyboard-response","386","268136","0.0-6.0-0.190","FLSE","2","m","rechts","23","","fixation","","","",""
"550","img/L30_180.png","70","image-keyboard-response","387","268691","0.0-6.0-1.190","FLSE","2","m","rechts","23","","","self","f","30","true"
"null","<div style=""font-size:60px;"">+</div>","null","html-keyboard-response","388","269058","0.0-6.0-0.191","FLSE","2","m","rechts","23","","fixation","","","",""
"461","img/150_240.png","74","image-keyboard-response","389","269525","0.0-6.0-1.191","FLSE","2","m","rechts","23","","","self","j","150","true"
"null","<div style=""font-size:60px;"">+</div>","null","html-keyboard-response","390","269933","0.0-6.0-0.192","FLSE","2","m","rechts","23","","fixation","","","",""
"560","img/0_30.png","74","image-keyboard-response","391","270505","0.0-6.0-1.192","FLSE","2","m","rechts","23","","","self","j","0","true"
"null","<div style=""font-size:60px;"">+</div>","null","html-keyboard-response","392","270808","0.0-6.0-0.193","FLSE","2","m","rechts","23","","fixation","","","",""
"574","img/L120_180.png","70","image-keyboard-response","393","271395","0.0-6.0-1.193","FLSE","2","m","rechts","23","","","self","f","120","true"
"null","<div style=""font-size:60px;"">+</div>","null","html-keyboard-response","394","271699","0.0-6.0-0.194","FLSE","2","m","rechts","23","","fixation","","","",""
"406","img/L90_180.png","70","image-keyboard-response","395","272121","0.0-6.0-1.194","FLSE","2","m","rechts","23","","","self","f","90","true"
"null","<div style=""font-size:60px;"">+</div>","null","html-keyboard-response","396","272481","0.0-6.0-0.195","FLSE","2","m","rechts","23","","fixation","","","",""
"486","img/90_150.png","70","image-keyboard-response","397","272981","0.0-6.0-1.195","FLSE","2","m","rechts","23","","","self","f","90","true"
"null","<div style=""font-size:60px;"">+</div>","null","html-keyboard-response","398","273387","0.0-6.0-0.196","FLSE","2","m","rechts","23","","fixation","","","",""
"460","img/150_180.png","74","image-keyboard-response","399","273860","0.0-6.0-1.196","FLSE","2","m","rechts","23","","","self","j","150","true"
"null","<div style=""font-size:60px;"">+</div>","null","html-keyboard-response","400","274167","0.0-6.0-0.197","FLSE","2","m","rechts","23","","fixation","","","",""
"900","img/120_270.png","74","image-keyboard-response","401","275080","0.0-6.0-1.197","FLSE","2","m","rechts","23","","","self","j","120","true"
"null","<div style=""font-size:60px;"">+</div>","null","html-keyboard-response","402","275498","0.0-6.0-0.198","FLSE","2","m","rechts","23","","fixation","","","",""
"630","img/60_270.png","70","image-keyboard-response","403","276141","0.0-6.0-1.198","FLSE","2","m","rechts","23","","","self","f","60","true"
"null","<div style=""font-size:60px;"">+</div>","null","html-keyboard-response","404","276619","0.0-6.0-0.199","FLSE","2","m","rechts","23","","fixation","","","",""
"485","img/120_180.png","74","image-keyboard-response","405","277118","0.0-6.0-1.199","FLSE","2","m","rechts","23","","","self","j","120","true"
"null","<div style=""font-size:60px;"">+</div>","null","html-keyboard-response","406","277635","0.0-6.0-0.200","FLSE","2","m","rechts","23","","fixation","","","",""
"645","img/60_90.png","74","image-keyboard-response","407","278290","0.0-6.0-1.200","FLSE","2","m","rechts","23","","","self","j","60","true"
"null","<div style=""font-size:60px;"">+</div>","null","html-keyboard-response","408","278745","0.0-6.0-0.201","FLSE","2","m","rechts","23","","fixation","","","",""
"589","img/60_210.png","74","image-keyboard-response","409","279347","0.0-6.0-1.201","FLSE","2","m","rechts","23","","","self","j","60","true"
"null","<div style=""font-size:60px;"">+</div>","null","html-keyboard-response","410","279716","0.0-6.0-0.202","FLSE","2","m","rechts","23","","fixation","","","",""
"765","img/90_210.png","74","image-keyboard-response","411","280496","0.0-6.0-1.202","FLSE","2","m","rechts","23","","","self","j","90","true"
"null","<div style=""font-size:60px;"">+</div>","null","html-keyboard-response","412","280857","0.0-6.0-0.203","FLSE","2","m","rechts","23","","fixation","","","",""
"836","img/150_90.png","70","image-keyboard-response","413","281698","0.0-6.0-1.203","FLSE","2","m","rechts","23","","","self","f","150","true"
"null","<div style=""font-size:60px;"">+</div>","null","html-keyboard-response","414","282013","0.0-6.0-0.204","FLSE","2","m","rechts","23","","fixation","","","",""
"746","img/150_120.png","70","image-keyboard-response","415","282768","0.0-6.0-1.204","FLSE","2","m","rechts","23","","","self","f","150","true"
"null","<div style=""font-size:60px;"">+</div>","null","html-keyboard-response","416","283091","0.0-6.0-0.205","FLSE","2","m","rechts","23","","fixation","","","",""
"987","img/90_60.png","74","image-keyboard-response","417","284082","0.0-6.0-1.205","FLSE","2","m","rechts","23","","","self","j","90","true"
"null","<div style=""font-size:60px;"">+</div>","null","html-keyboard-response","418","284498","0.0-6.0-0.206","FLSE","2","m","rechts","23","","fixation","","","",""
"912","img/150_300.png","74","image-keyboard-response","419","285423","0.0-6.0-1.206","FLSE","2","m","rechts","23","","","self","j","150","true"
"null","<div style=""font-size:60px;"">+</div>","null","html-keyboard-response","420","285825","0.0-6.0-0.207","FLSE","2","m","rechts","23","","fixation","","","",""
"709","img/0_240.png","70","image-keyboard-response","421","286547","0.0-6.0-1.207","FLSE","2","m","rechts","23","","","self","f","0","true"
"30463","<p>Du hast in 95% der Versuche korrekt entschieden.</p><p>Deine durchschnittliche Reaktionszeit war  692ms.</p><p>Dr&uuml;cke eine beliebige Taste, um die Session zu beenden. Vielen Dank!</p>","32","html-keyboard-response","422","317019","0.0-7.0","FLSE","2","m","rechts","23","","","","","",""
