"rt","stimulus","key_press","trial_type","trial_index","time_elapsed","internal_node_id","subject","session","sex","handedness","age","responses","test_part","condition","correct_response","angle","correct"
"7844","<p>Mental Rotation Experiment.</p> <p>Dr&uuml;cke eine beliebige Taste, um anzufangen.</p>","13","html-keyboard-response","0","7863","0.0-0.0","FAMI","4","m","rechts","22","","","","","",""
"19727","","","survey-text","1","27591","0.0-1.0","FAMI","4","m","rechts","22","{""Q0"":""FAMI""}","","","","",""
"12053","","","survey-text","2","39648","0.0-2.0","FAMI","4","m","rechts","22","{""Q0"":""4""}","","","","",""
"1961","","","survey-multi-choice","3","41632","0.0-3.0","FAMI","4","m","rechts","22","{""Q0"":""m"",""Q1"":""rechts""}","","","","",""
"2378","","","survey-text","4","44013","0.0-4.0","FAMI","4","m","rechts","22","{""Q0"":""22""}","","","","",""
"42395","<p>Stell dir vor, dass du vor einem runden Tisch stehst, auf dem sich ein blauer Ball am Tischrand befindet. Entlang des Tischrands ist jeweils ein verschieden langer Pfeil. Nun bleibst du an deinem Platz vor dem Tisch und rotierst den Tisch entlang des Pfeils (gleiche Richtung und Länge). </p> <img src='img/30_180.png'></img> <br><p> Nachdem du diese (vorgestellte) Rotation durchgef&uuml;hrt hast, schau in Richtung der Tischmitte, und entscheide dann, ob der Ball links oder rechts von dir liegt.</p> <p>Dr&uuml;cke die <strong>'f'</strong>-Taste f&uuml;r links, die <strong>'j'</strong>-Taste f&uuml;r rechts.</p><br><p> Das Bild wird jeweils 1 Sekunde lang pr&auml;sentiert. Du hast 3 Sekunden Zeit eine Entscheidung zu treffen.</p>","70","html-keyboard-response","5","86425","0.0-5.0","FAMI","4","m","rechts","22","","","","","",""
"null","<div style=""font-size:60px;"">+</div>","null","html-keyboard-response","6","87905","0.0-6.0-0.0","FAMI","4","m","rechts","22","","fixation","","","",""
"987","img/90_60.png","70","image-keyboard-response","7","88913","0.0-6.0-1.0","FAMI","4","m","rechts","22","","","object","f","90","true"
"null","<div style=""font-size:60px;"">+</div>","null","html-keyboard-response","8","89220","0.0-6.0-0.1","FAMI","4","m","rechts","22","","fixation","","","",""
"761","img/0_330.png","70","image-keyboard-response","9","89986","0.0-6.0-1.1","FAMI","4","m","rechts","22","","","object","f","0","true"
"null","<div style=""font-size:60px;"">+</div>","null","html-keyboard-response","10","90314","0.0-6.0-0.2","FAMI","4","m","rechts","22","","fixation","","","",""
"758","img/120_90.png","70","image-keyboard-response","11","91090","0.0-6.0-1.2","FAMI","4","m","rechts","22","","","object","f","120","true"
"null","<div style=""font-size:60px;"">+</div>","null","html-keyboard-response","12","91494","0.0-6.0-0.3","FAMI","4","m","rechts","22","","fixation","","","",""
"759","img/150_300.png","74","image-keyboard-response","13","92271","0.0-6.0-1.3","FAMI","4","m","rechts","22","","","object","j","150","true"
"null","<div style=""font-size:60px;"">+</div>","null","html-keyboard-response","14","92683","0.0-6.0-0.4","FAMI","4","m","rechts","22","","fixation","","","",""
"1283","img/L90_180.png","74","image-keyboard-response","15","93981","0.0-6.0-1.4","FAMI","4","m","rechts","22","","","object","j","90","true"
"null","<div style=""font-size:60px;"">+</div>","null","html-keyboard-response","16","94464","0.0-6.0-0.5","FAMI","4","m","rechts","22","","fixation","","","",""
"1401","img/120_210.png","70","image-keyboard-response","17","95882","0.0-6.0-1.5","FAMI","4","m","rechts","22","","","object","f","120","true"
"null","<div style=""font-size:60px;"">+</div>","null","html-keyboard-response","18","96246","0.0-6.0-0.6","FAMI","4","m","rechts","22","","fixation","","","",""
"683","img/0_150.png","74","image-keyboard-response","19","96940","0.0-6.0-1.6","FAMI","4","m","rechts","22","","","object","j","0","true"
"null","<div style=""font-size:60px;"">+</div>","null","html-keyboard-response","20","97262","0.0-6.0-0.7","FAMI","4","m","rechts","22","","fixation","","","",""
"591","img/0_60.png","74","image-keyboard-response","21","97874","0.0-6.0-1.7","FAMI","4","m","rechts","22","","","object","j","0","true"
"null","<div style=""font-size:60px;"">+</div>","null","html-keyboard-response","22","98198","0.0-6.0-0.8","FAMI","4","m","rechts","22","","fixation","","","",""
"904","img/30_270.png","70","image-keyboard-response","23","99122","0.0-6.0-1.8","FAMI","4","m","rechts","22","","","object","f","30","true"
"null","<div style=""font-size:60px;"">+</div>","null","html-keyboard-response","24","99498","0.0-6.0-0.9","FAMI","4","m","rechts","22","","fixation","","","",""
"845","img/90_210.png","70","image-keyboard-response","25","100359","0.0-6.0-1.9","FAMI","4","m","rechts","22","","","object","f","90","true"
"null","<div style=""font-size:60px;"">+</div>","null","html-keyboard-response","26","100687","0.0-6.0-0.10","FAMI","4","m","rechts","22","","fixation","","","",""
"838","img/60_210.png","70","image-keyboard-response","27","101540","0.0-6.0-1.10","FAMI","4","m","rechts","22","","","object","f","60","true"
"null","<div style=""font-size:60px;"">+</div>","null","html-keyboard-response","28","101990","0.0-6.0-0.11","FAMI","4","m","rechts","22","","fixation","","","",""
"837","img/90_120.png","70","image-keyboard-response","29","102844","0.0-6.0-1.11","FAMI","4","m","rechts","22","","","object","j","90","false"
"null","<div style=""font-size:60px;"">+</div>","null","html-keyboard-response","30","103302","0.0-6.0-0.12","FAMI","4","m","rechts","22","","fixation","","","",""
"739","img/60_270.png","74","image-keyboard-response","31","104060","0.0-6.0-1.12","FAMI","4","m","rechts","22","","","object","f","60","false"
"null","<div style=""font-size:60px;"">+</div>","null","html-keyboard-response","32","104568","0.0-6.0-0.13","FAMI","4","m","rechts","22","","fixation","","","",""
"622","img/90_30.png","70","image-keyboard-response","33","105208","0.0-6.0-1.13","FAMI","4","m","rechts","22","","","object","f","90","true"
"null","<div style=""font-size:60px;"">+</div>","null","html-keyboard-response","34","105614","0.0-6.0-0.14","FAMI","4","m","rechts","22","","fixation","","","",""
"712","img/0_240.png","70","image-keyboard-response","35","106345","0.0-6.0-1.14","FAMI","4","m","rechts","22","","","object","f","0","true"
"null","<div style=""font-size:60px;"">+</div>","null","html-keyboard-response","36","106766","0.0-6.0-0.15","FAMI","4","m","rechts","22","","fixation","","","",""
"681","img/120_30.png","70","image-keyboard-response","37","107468","0.0-6.0-1.15","FAMI","4","m","rechts","22","","","object","f","120","true"
"null","<div style=""font-size:60px;"">+</div>","null","html-keyboard-response","38","107882","0.0-6.0-0.16","FAMI","4","m","rechts","22","","fixation","","","",""
"771","img/150_240.png","74","image-keyboard-response","39","108674","0.0-6.0-1.16","FAMI","4","m","rechts","22","","","object","j","150","true"
"null","<div style=""font-size:60px;"">+</div>","null","html-keyboard-response","40","108990","0.0-6.0-0.17","FAMI","4","m","rechts","22","","fixation","","","",""
"1104","img/60_180.png","70","image-keyboard-response","41","110112","0.0-6.0-1.17","FAMI","4","m","rechts","22","","","object","f","60","true"
"null","<div style=""font-size:60px;"">+</div>","null","html-keyboard-response","42","110428","0.0-6.0-0.18","FAMI","4","m","rechts","22","","fixation","","","",""
"770","img/30_120.png","74","image-keyboard-response","43","111215","0.0-6.0-1.18","FAMI","4","m","rechts","22","","","object","j","30","true"
"null","<div style=""font-size:60px;"">+</div>","null","html-keyboard-response","44","111522","0.0-6.0-0.19","FAMI","4","m","rechts","22","","fixation","","","",""
"891","img/120_180.png","70","image-keyboard-response","45","112431","0.0-6.0-1.19","FAMI","4","m","rechts","22","","","object","f","120","true"
"null","<div style=""font-size:60px;"">+</div>","null","html-keyboard-response","46","112943","0.0-6.0-0.20","FAMI","4","m","rechts","22","","fixation","","","",""
"1078","img/L150_180.png","74","image-keyboard-response","47","114039","0.0-6.0-1.20","FAMI","4","m","rechts","22","","","object","j","150","true"
"null","<div style=""font-size:60px;"">+</div>","null","html-keyboard-response","48","114397","0.0-6.0-0.21","FAMI","4","m","rechts","22","","fixation","","","",""
"771","img/30_240.png","70","image-keyboard-response","49","115185","0.0-6.0-1.21","FAMI","4","m","rechts","22","","","object","f","30","true"
"null","<div style=""font-size:60px;"">+</div>","null","html-keyboard-response","50","115615","0.0-6.0-0.22","FAMI","4","m","rechts","22","","fixation","","","",""
"703","img/0_300.png","70","image-keyboard-response","51","116334","0.0-6.0-1.22","FAMI","4","m","rechts","22","","","object","f","0","true"
"null","<div style=""font-size:60px;"">+</div>","null","html-keyboard-response","52","116757","0.0-6.0-0.23","FAMI","4","m","rechts","22","","fixation","","","",""
"717","img/90_150.png","74","image-keyboard-response","53","117493","0.0-6.0-1.23","FAMI","4","m","rechts","22","","","object","j","90","true"
"null","<div style=""font-size:60px;"">+</div>","null","html-keyboard-response","54","117852","0.0-6.0-0.24","FAMI","4","m","rechts","22","","fixation","","","",""
"974","img/30_60.png","74","image-keyboard-response","55","118844","0.0-6.0-1.24","FAMI","4","m","rechts","22","","","object","j","30","true"
"null","<div style=""font-size:60px;"">+</div>","null","html-keyboard-response","56","119211","0.0-6.0-0.25","FAMI","4","m","rechts","22","","fixation","","","",""
"759","img/30_300.png","70","image-keyboard-response","57","119988","0.0-6.0-1.25","FAMI","4","m","rechts","22","","","object","f","30","true"
"null","<div style=""font-size:60px;"">+</div>","null","html-keyboard-response","58","120367","0.0-6.0-0.26","FAMI","4","m","rechts","22","","fixation","","","",""
"1030","img/150_180.png","70","image-keyboard-response","59","121419","0.0-6.0-1.26","FAMI","4","m","rechts","22","","","object","f","150","true"
"null","<div style=""font-size:60px;"">+</div>","null","html-keyboard-response","60","121840","0.0-6.0-0.27","FAMI","4","m","rechts","22","","fixation","","","",""
"922","img/90_180.png","70","image-keyboard-response","61","122780","0.0-6.0-1.27","FAMI","4","m","rechts","22","","","object","f","90","true"
"null","<div style=""font-size:60px;"">+</div>","null","html-keyboard-response","62","123293","0.0-6.0-0.28","FAMI","4","m","rechts","22","","fixation","","","",""
"853","img/L60_180.png","74","image-keyboard-response","63","124164","0.0-6.0-1.28","FAMI","4","m","rechts","22","","","object","j","60","true"
"null","<div style=""font-size:60px;"">+</div>","null","html-keyboard-response","64","124527","0.0-6.0-0.29","FAMI","4","m","rechts","22","","fixation","","","",""
"743","img/0_120.png","74","image-keyboard-response","65","125289","0.0-6.0-1.29","FAMI","4","m","rechts","22","","","object","j","0","true"
"null","<div style=""font-size:60px;"">+</div>","null","html-keyboard-response","66","125667","0.0-6.0-0.30","FAMI","4","m","rechts","22","","fixation","","","",""
"1000","img/150_270.png","74","image-keyboard-response","67","126683","0.0-6.0-1.30","FAMI","4","m","rechts","22","","","object","j","150","true"
"null","<div style=""font-size:60px;"">+</div>","null","html-keyboard-response","68","127090","0.0-6.0-0.31","FAMI","4","m","rechts","22","","fixation","","","",""
"927","img/60_150.png","74","image-keyboard-response","69","128034","0.0-6.0-1.31","FAMI","4","m","rechts","22","","","object","j","60","true"
"null","<div style=""font-size:60px;"">+</div>","null","html-keyboard-response","70","128341","0.0-6.0-0.32","FAMI","4","m","rechts","22","","fixation","","","",""
"772","img/30_180.png","70","image-keyboard-response","71","129126","0.0-6.0-1.32","FAMI","4","m","rechts","22","","","object","f","30","true"
"null","<div style=""font-size:60px;"">+</div>","null","html-keyboard-response","72","129591","0.0-6.0-0.33","FAMI","4","m","rechts","22","","fixation","","","",""
"810","img/30_90.png","74","image-keyboard-response","73","130419","0.0-6.0-1.33","FAMI","4","m","rechts","22","","","object","j","30","true"
"null","<div style=""font-size:60px;"">+</div>","null","html-keyboard-response","74","130731","0.0-6.0-0.34","FAMI","4","m","rechts","22","","fixation","","","",""
"729","img/0_270.png","70","image-keyboard-response","75","131477","0.0-6.0-1.34","FAMI","4","m","rechts","22","","","object","f","0","true"
"null","<div style=""font-size:60px;"">+</div>","null","html-keyboard-response","76","131949","0.0-6.0-0.35","FAMI","4","m","rechts","22","","fixation","","","",""
"825","img/150_60.png","70","image-keyboard-response","77","132793","0.0-6.0-1.35","FAMI","4","m","rechts","22","","","object","f","150","true"
"null","<div style=""font-size:60px;"">+</div>","null","html-keyboard-response","78","133107","0.0-6.0-0.36","FAMI","4","m","rechts","22","","fixation","","","",""
"782","img/L30_180.png","74","image-keyboard-response","79","133908","0.0-6.0-1.36","FAMI","4","m","rechts","22","","","object","j","30","true"
"null","<div style=""font-size:60px;"">+</div>","null","html-keyboard-response","80","134217","0.0-6.0-0.37","FAMI","4","m","rechts","22","","fixation","","","",""
"941","img/60_90.png","74","image-keyboard-response","81","135178","0.0-6.0-1.37","FAMI","4","m","rechts","22","","","object","j","60","true"
"null","<div style=""font-size:60px;"">+</div>","null","html-keyboard-response","82","135685","0.0-6.0-0.38","FAMI","4","m","rechts","22","","fixation","","","",""
"814","img/90_330.png","74","image-keyboard-response","83","136519","0.0-6.0-1.38","FAMI","4","m","rechts","22","","","object","j","90","true"
"null","<div style=""font-size:60px;"">+</div>","null","html-keyboard-response","84","137029","0.0-6.0-0.39","FAMI","4","m","rechts","22","","fixation","","","",""
"762","img/120_330.png","74","image-keyboard-response","85","137812","0.0-6.0-1.39","FAMI","4","m","rechts","22","","","object","j","120","true"
"null","<div style=""font-size:60px;"">+</div>","null","html-keyboard-response","86","138138","0.0-6.0-0.40","FAMI","4","m","rechts","22","","fixation","","","",""
"1408","img/120_150.png","70","image-keyboard-response","87","139565","0.0-6.0-1.40","FAMI","4","m","rechts","22","","","object","j","120","false"
"null","<div style=""font-size:60px;"">+</div>","null","html-keyboard-response","88","139874","0.0-6.0-0.41","FAMI","4","m","rechts","22","","fixation","","","",""
"640","img/60_30.png","70","image-keyboard-response","89","140533","0.0-6.0-1.41","FAMI","4","m","rechts","22","","","object","f","60","true"
"null","<div style=""font-size:60px;"">+</div>","null","html-keyboard-response","90","140905","0.0-6.0-0.42","FAMI","4","m","rechts","22","","fixation","","","",""
"747","img/90_300.png","74","image-keyboard-response","91","141670","0.0-6.0-1.42","FAMI","4","m","rechts","22","","","object","j","90","true"
"null","<div style=""font-size:60px;"">+</div>","null","html-keyboard-response","92","142094","0.0-6.0-0.43","FAMI","4","m","rechts","22","","fixation","","","",""
"683","img/0_210.png","70","image-keyboard-response","93","142795","0.0-6.0-1.43","FAMI","4","m","rechts","22","","","object","f","0","true"
"null","<div style=""font-size:60px;"">+</div>","null","html-keyboard-response","94","143156","0.0-6.0-0.44","FAMI","4","m","rechts","22","","fixation","","","",""
"1116","img/90_240.png","74","image-keyboard-response","95","144289","0.0-6.0-1.44","FAMI","4","m","rechts","22","","","object","f","90","false"
"null","<div style=""font-size:60px;"">+</div>","null","html-keyboard-response","96","144593","0.0-6.0-0.45","FAMI","4","m","rechts","22","","fixation","","","",""
"745","img/150_90.png","70","image-keyboard-response","97","145358","0.0-6.0-1.45","FAMI","4","m","rechts","22","","","object","f","150","true"
"null","<div style=""font-size:60px;"">+</div>","null","html-keyboard-response","98","145874","0.0-6.0-0.46","FAMI","4","m","rechts","22","","fixation","","","",""
"650","img/0_30.png","74","image-keyboard-response","99","146541","0.0-6.0-1.46","FAMI","4","m","rechts","22","","","object","j","0","true"
"null","<div style=""font-size:60px;"">+</div>","null","html-keyboard-response","100","146845","0.0-6.0-0.47","FAMI","4","m","rechts","22","","fixation","","","",""
"1039","img/150_120.png","70","image-keyboard-response","101","147903","0.0-6.0-1.47","FAMI","4","m","rechts","22","","","object","f","150","true"
"null","<div style=""font-size:60px;"">+</div>","null","html-keyboard-response","102","148284","0.0-6.0-0.48","FAMI","4","m","rechts","22","","fixation","","","",""
"685","img/120_270.png","74","image-keyboard-response","103","148983","0.0-6.0-1.48","FAMI","4","m","rechts","22","","","object","j","120","true"
"null","<div style=""font-size:60px;"">+</div>","null","html-keyboard-response","104","149455","0.0-6.0-0.49","FAMI","4","m","rechts","22","","fixation","","","",""
"713","img/L120_180.png","74","image-keyboard-response","105","150186","0.0-6.0-1.49","FAMI","4","m","rechts","22","","","object","j","120","true"
"null","<div style=""font-size:60px;"">+</div>","null","html-keyboard-response","106","150721","0.0-6.0-0.50","FAMI","4","m","rechts","22","","fixation","","","",""
"673","img/0_90.png","74","image-keyboard-response","107","151414","0.0-6.0-1.50","FAMI","4","m","rechts","22","","","object","j","0","true"
"null","<div style=""font-size:60px;"">+</div>","null","html-keyboard-response","108","151769","0.0-6.0-0.51","FAMI","4","m","rechts","22","","fixation","","","",""
"806","img/60_330.png","74","image-keyboard-response","109","152593","0.0-6.0-1.51","FAMI","4","m","rechts","22","","","object","j","60","true"
"null","<div style=""font-size:60px;"">+</div>","null","html-keyboard-response","110","153001","0.0-6.0-0.52","FAMI","4","m","rechts","22","","fixation","","","",""
"628","img/150_270.png","74","image-keyboard-response","111","153640","0.0-6.0-1.52","FAMI","4","m","rechts","22","","","object","j","150","true"
"null","<div style=""font-size:60px;"">+</div>","null","html-keyboard-response","112","154001","0.0-6.0-0.53","FAMI","4","m","rechts","22","","fixation","","","",""
"626","img/150_300.png","74","image-keyboard-response","113","154640","0.0-6.0-1.53","FAMI","4","m","rechts","22","","","object","j","150","true"
"null","<div style=""font-size:60px;"">+</div>","null","html-keyboard-response","114","155017","0.0-6.0-0.54","FAMI","4","m","rechts","22","","fixation","","","",""
"617","img/0_270.png","70","image-keyboard-response","115","155644","0.0-6.0-1.54","FAMI","4","m","rechts","22","","","object","f","0","true"
"null","<div style=""font-size:60px;"">+</div>","null","html-keyboard-response","116","155955","0.0-6.0-0.55","FAMI","4","m","rechts","22","","fixation","","","",""
"623","img/90_300.png","74","image-keyboard-response","117","156588","0.0-6.0-1.55","FAMI","4","m","rechts","22","","","object","j","90","true"
"null","<div style=""font-size:60px;"">+</div>","null","html-keyboard-response","118","156939","0.0-6.0-0.56","FAMI","4","m","rechts","22","","fixation","","","",""
"573","img/60_30.png","70","image-keyboard-response","119","157520","0.0-6.0-1.56","FAMI","4","m","rechts","22","","","object","f","60","true"
"null","<div style=""font-size:60px;"">+</div>","null","html-keyboard-response","120","157986","0.0-6.0-0.57","FAMI","4","m","rechts","22","","fixation","","","",""
"607","img/0_300.png","74","image-keyboard-response","121","158602","0.0-6.0-1.57","FAMI","4","m","rechts","22","","","object","f","0","false"
"null","<div style=""font-size:60px;"">+</div>","null","html-keyboard-response","122","159021","0.0-6.0-0.58","FAMI","4","m","rechts","22","","fixation","","","",""
"853","img/150_90.png","70","image-keyboard-response","123","159883","0.0-6.0-1.58","FAMI","4","m","rechts","22","","","object","f","150","true"
"null","<div style=""font-size:60px;"">+</div>","null","html-keyboard-response","124","160393","0.0-6.0-0.59","FAMI","4","m","rechts","22","","fixation","","","",""
"1065","img/L90_180.png","74","image-keyboard-response","125","161471","0.0-6.0-1.59","FAMI","4","m","rechts","22","","","object","j","90","true"
"null","<div style=""font-size:60px;"">+</div>","null","html-keyboard-response","126","161923","0.0-6.0-0.60","FAMI","4","m","rechts","22","","fixation","","","",""
"829","img/30_60.png","74","image-keyboard-response","127","162763","0.0-6.0-1.60","FAMI","4","m","rechts","22","","","object","j","30","true"
"null","<div style=""font-size:60px;"">+</div>","null","html-keyboard-response","128","163126","0.0-6.0-0.61","FAMI","4","m","rechts","22","","fixation","","","",""
"628","img/90_330.png","74","image-keyboard-response","129","163763","0.0-6.0-1.61","FAMI","4","m","rechts","22","","","object","j","90","true"
"null","<div style=""font-size:60px;"">+</div>","null","html-keyboard-response","130","164081","0.0-6.0-0.62","FAMI","4","m","rechts","22","","fixation","","","",""
"745","img/0_150.png","74","image-keyboard-response","131","164842","0.0-6.0-1.62","FAMI","4","m","rechts","22","","","object","j","0","true"
"null","<div style=""font-size:60px;"">+</div>","null","html-keyboard-response","132","165315","0.0-6.0-0.63","FAMI","4","m","rechts","22","","fixation","","","",""
"729","img/30_90.png","74","image-keyboard-response","133","166050","0.0-6.0-1.63","FAMI","4","m","rechts","22","","","object","j","30","true"
"null","<div style=""font-size:60px;"">+</div>","null","html-keyboard-response","134","166566","0.0-6.0-0.64","FAMI","4","m","rechts","22","","fixation","","","",""
"1047","img/90_180.png","70","image-keyboard-response","135","167623","0.0-6.0-1.64","FAMI","4","m","rechts","22","","","object","f","90","true"
"null","<div style=""font-size:60px;"">+</div>","null","html-keyboard-response","136","168143","0.0-6.0-0.65","FAMI","4","m","rechts","22","","fixation","","","",""
"795","img/L150_180.png","74","image-keyboard-response","137","168951","0.0-6.0-1.65","FAMI","4","m","rechts","22","","","object","j","150","true"
"null","<div style=""font-size:60px;"">+</div>","null","html-keyboard-response","138","169457","0.0-6.0-0.66","FAMI","4","m","rechts","22","","fixation","","","",""
"721","img/L120_180.png","74","image-keyboard-response","139","170190","0.0-6.0-1.66","FAMI","4","m","rechts","22","","","object","j","120","true"
"null","<div style=""font-size:60px;"">+</div>","null","html-keyboard-response","140","170615","0.0-6.0-0.67","FAMI","4","m","rechts","22","","fixation","","","",""
"788","img/120_180.png","70","image-keyboard-response","141","171415","0.0-6.0-1.67","FAMI","4","m","rechts","22","","","object","f","120","true"
"null","<div style=""font-size:60px;"">+</div>","null","html-keyboard-response","142","171787","0.0-6.0-0.68","FAMI","4","m","rechts","22","","fixation","","","",""
"1385","img/60_90.png","70","image-keyboard-response","143","173181","0.0-6.0-1.68","FAMI","4","m","rechts","22","","","object","j","60","false"
"null","<div style=""font-size:60px;"">+</div>","null","html-keyboard-response","144","173646","0.0-6.0-0.69","FAMI","4","m","rechts","22","","fixation","","","",""
"803","img/30_240.png","70","image-keyboard-response","145","174464","0.0-6.0-1.69","FAMI","4","m","rechts","22","","","object","f","30","true"
"null","<div style=""font-size:60px;"">+</div>","null","html-keyboard-response","146","174990","0.0-6.0-0.70","FAMI","4","m","rechts","22","","fixation","","","",""
"870","img/150_60.png","70","image-keyboard-response","147","175869","0.0-6.0-1.70","FAMI","4","m","rechts","22","","","object","f","150","true"
"null","<div style=""font-size:60px;"">+</div>","null","html-keyboard-response","148","176289","0.0-6.0-0.71","FAMI","4","m","rechts","22","","fixation","","","",""
"1019","img/150_120.png","70","image-keyboard-response","149","177320","0.0-6.0-1.71","FAMI","4","m","rechts","22","","","object","f","150","true"
"null","<div style=""font-size:60px;"">+</div>","null","html-keyboard-response","150","177774","0.0-6.0-0.72","FAMI","4","m","rechts","22","","fixation","","","",""
"715","img/90_60.png","70","image-keyboard-response","151","178503","0.0-6.0-1.72","FAMI","4","m","rechts","22","","","object","f","90","true"
"null","<div style=""font-size:60px;"">+</div>","null","html-keyboard-response","152","178882","0.0-6.0-0.73","FAMI","4","m","rechts","22","","fixation","","","",""
"837","img/30_180.png","74","image-keyboard-response","153","179730","0.0-6.0-1.73","FAMI","4","m","rechts","22","","","object","f","30","false"
"null","<div style=""font-size:60px;"">+</div>","null","html-keyboard-response","154","180055","0.0-6.0-0.74","FAMI","4","m","rechts","22","","fixation","","","",""
"710","img/0_30.png","74","image-keyboard-response","155","180774","0.0-6.0-1.74","FAMI","4","m","rechts","22","","","object","j","0","true"
"null","<div style=""font-size:60px;"">+</div>","null","html-keyboard-response","156","181290","0.0-6.0-0.75","FAMI","4","m","rechts","22","","fixation","","","",""
"810","img/90_120.png","74","image-keyboard-response","157","182113","0.0-6.0-1.75","FAMI","4","m","rechts","22","","","object","j","90","true"
"null","<div style=""font-size:60px;"">+</div>","null","html-keyboard-response","158","182633","0.0-6.0-0.76","FAMI","4","m","rechts","22","","fixation","","","",""
"839","img/120_210.png","70","image-keyboard-response","159","183487","0.0-6.0-1.76","FAMI","4","m","rechts","22","","","object","f","120","true"
"null","<div style=""font-size:60px;"">+</div>","null","html-keyboard-response","160","183947","0.0-6.0-0.77","FAMI","4","m","rechts","22","","fixation","","","",""
"797","img/60_270.png","70","image-keyboard-response","161","184758","0.0-6.0-1.77","FAMI","4","m","rechts","22","","","object","f","60","true"
"null","<div style=""font-size:60px;"">+</div>","null","html-keyboard-response","162","185117","0.0-6.0-0.78","FAMI","4","m","rechts","22","","fixation","","","",""
"908","img/150_180.png","70","image-keyboard-response","163","186042","0.0-6.0-1.78","FAMI","4","m","rechts","22","","","object","f","150","true"
"null","<div style=""font-size:60px;"">+</div>","null","html-keyboard-response","164","186351","0.0-6.0-0.79","FAMI","4","m","rechts","22","","fixation","","","",""
"997","img/60_210.png","70","image-keyboard-response","165","187356","0.0-6.0-1.79","FAMI","4","m","rechts","22","","","object","f","60","true"
"null","<div style=""font-size:60px;"">+</div>","null","html-keyboard-response","166","187713","0.0-6.0-0.80","FAMI","4","m","rechts","22","","fixation","","","",""
"913","img/150_240.png","74","image-keyboard-response","167","188640","0.0-6.0-1.80","FAMI","4","m","rechts","22","","","object","j","150","true"
"null","<div style=""font-size:60px;"">+</div>","null","html-keyboard-response","168","189008","0.0-6.0-0.81","FAMI","4","m","rechts","22","","fixation","","","",""
"979","img/L60_180.png","74","image-keyboard-response","169","190000","0.0-6.0-1.81","FAMI","4","m","rechts","22","","","object","j","60","true"
"null","<div style=""font-size:60px;"">+</div>","null","html-keyboard-response","170","190367","0.0-6.0-0.82","FAMI","4","m","rechts","22","","fixation","","","",""
"683","img/0_240.png","70","image-keyboard-response","171","191059","0.0-6.0-1.82","FAMI","4","m","rechts","22","","","object","f","0","true"
"null","<div style=""font-size:60px;"">+</div>","null","html-keyboard-response","172","191385","0.0-6.0-0.83","FAMI","4","m","rechts","22","","fixation","","","",""
"841","img/90_150.png","74","image-keyboard-response","173","192239","0.0-6.0-1.83","FAMI","4","m","rechts","22","","","object","j","90","true"
"null","<div style=""font-size:60px;"">+</div>","null","html-keyboard-response","174","192558","0.0-6.0-0.84","FAMI","4","m","rechts","22","","fixation","","","",""
"832","img/90_210.png","70","image-keyboard-response","175","193408","0.0-6.0-1.84","FAMI","4","m","rechts","22","","","object","f","90","true"
"null","<div style=""font-size:60px;"">+</div>","null","html-keyboard-response","176","193713","0.0-6.0-0.85","FAMI","4","m","rechts","22","","fixation","","","",""
"910","img/60_180.png","70","image-keyboard-response","177","194636","0.0-6.0-1.85","FAMI","4","m","rechts","22","","","object","f","60","true"
"null","<div style=""font-size:60px;"">+</div>","null","html-keyboard-response","178","195011","0.0-6.0-0.86","FAMI","4","m","rechts","22","","fixation","","","",""
"738","img/120_30.png","70","image-keyboard-response","179","195761","0.0-6.0-1.86","FAMI","4","m","rechts","22","","","object","f","120","true"
"null","<div style=""font-size:60px;"">+</div>","null","html-keyboard-response","180","196213","0.0-6.0-0.87","FAMI","4","m","rechts","22","","fixation","","","",""
"909","img/90_240.png","70","image-keyboard-response","181","197133","0.0-6.0-1.87","FAMI","4","m","rechts","22","","","object","f","90","true"
"null","<div style=""font-size:60px;"">+</div>","null","html-keyboard-response","182","197607","0.0-6.0-0.88","FAMI","4","m","rechts","22","","fixation","","","",""
"1246","img/30_120.png","74","image-keyboard-response","183","198865","0.0-6.0-1.88","FAMI","4","m","rechts","22","","","object","j","30","true"
"null","<div style=""font-size:60px;"">+</div>","null","html-keyboard-response","184","199293","0.0-6.0-0.89","FAMI","4","m","rechts","22","","fixation","","","",""
"922","img/L30_180.png","74","image-keyboard-response","185","200228","0.0-6.0-1.89","FAMI","4","m","rechts","22","","","object","j","30","true"
"null","<div style=""font-size:60px;"">+</div>","null","html-keyboard-response","186","200637","0.0-6.0-0.90","FAMI","4","m","rechts","22","","fixation","","","",""
"1007","img/120_150.png","74","image-keyboard-response","187","201657","0.0-6.0-1.90","FAMI","4","m","rechts","22","","","object","j","120","true"
"null","<div style=""font-size:60px;"">+</div>","null","html-keyboard-response","188","202164","0.0-6.0-0.91","FAMI","4","m","rechts","22","","fixation","","","",""
"697","img/0_210.png","70","image-keyboard-response","189","202870","0.0-6.0-1.91","FAMI","4","m","rechts","22","","","object","f","0","true"
"null","<div style=""font-size:60px;"">+</div>","null","html-keyboard-response","190","203275","0.0-6.0-0.92","FAMI","4","m","rechts","22","","fixation","","","",""
"753","img/60_150.png","74","image-keyboard-response","191","204040","0.0-6.0-1.92","FAMI","4","m","rechts","22","","","object","j","60","true"
"null","<div style=""font-size:60px;"">+</div>","null","html-keyboard-response","192","204507","0.0-6.0-0.93","FAMI","4","m","rechts","22","","fixation","","","",""
"613","img/0_120.png","74","image-keyboard-response","193","205133","0.0-6.0-1.93","FAMI","4","m","rechts","22","","","object","j","0","true"
"null","<div style=""font-size:60px;"">+</div>","null","html-keyboard-response","194","205540","0.0-6.0-0.94","FAMI","4","m","rechts","22","","fixation","","","",""
"853","img/120_270.png","74","image-keyboard-response","195","206402","0.0-6.0-1.94","FAMI","4","m","rechts","22","","","object","j","120","true"
"null","<div style=""font-size:60px;"">+</div>","null","html-keyboard-response","196","206718","0.0-6.0-0.95","FAMI","4","m","rechts","22","","fixation","","","",""
"628","img/0_330.png","70","image-keyboard-response","197","207359","0.0-6.0-1.95","FAMI","4","m","rechts","22","","","object","f","0","true"
"null","<div style=""font-size:60px;"">+</div>","null","html-keyboard-response","198","207826","0.0-6.0-0.96","FAMI","4","m","rechts","22","","fixation","","","",""
"679","img/120_90.png","70","image-keyboard-response","199","208519","0.0-6.0-1.96","FAMI","4","m","rechts","22","","","object","f","120","true"
"null","<div style=""font-size:60px;"">+</div>","null","html-keyboard-response","200","208874","0.0-6.0-0.97","FAMI","4","m","rechts","22","","fixation","","","",""
"948","img/30_300.png","74","image-keyboard-response","201","209835","0.0-6.0-1.97","FAMI","4","m","rechts","22","","","object","f","30","false"
"null","<div style=""font-size:60px;"">+</div>","null","html-keyboard-response","202","210202","0.0-6.0-0.98","FAMI","4","m","rechts","22","","fixation","","","",""
"631","img/120_330.png","74","image-keyboard-response","203","210848","0.0-6.0-1.98","FAMI","4","m","rechts","22","","","object","j","120","true"
"null","<div style=""font-size:60px;"">+</div>","null","html-keyboard-response","204","211202","0.0-6.0-0.99","FAMI","4","m","rechts","22","","fixation","","","",""
"794","img/0_90.png","74","image-keyboard-response","205","212005","0.0-6.0-1.99","FAMI","4","m","rechts","22","","","object","j","0","true"
"null","<div style=""font-size:60px;"">+</div>","null","html-keyboard-response","206","212529","0.0-6.0-0.100","FAMI","4","m","rechts","22","","fixation","","","",""
"623","img/60_330.png","74","image-keyboard-response","207","213163","0.0-6.0-1.100","FAMI","4","m","rechts","22","","","object","j","60","true"
"null","<div style=""font-size:60px;"">+</div>","null","html-keyboard-response","208","213484","0.0-6.0-0.101","FAMI","4","m","rechts","22","","fixation","","","",""
"772","img/30_270.png","70","image-keyboard-response","209","214268","0.0-6.0-1.101","FAMI","4","m","rechts","22","","","object","f","30","true"
"null","<div style=""font-size:60px;"">+</div>","null","html-keyboard-response","210","214718","0.0-6.0-0.102","FAMI","4","m","rechts","22","","fixation","","","",""
"605","img/90_30.png","70","image-keyboard-response","211","215336","0.0-6.0-1.102","FAMI","4","m","rechts","22","","","object","f","90","true"
"null","<div style=""font-size:60px;"">+</div>","null","html-keyboard-response","212","215718","0.0-6.0-0.103","FAMI","4","m","rechts","22","","fixation","","","",""
"627","img/0_60.png","74","image-keyboard-response","213","216358","0.0-6.0-1.103","FAMI","4","m","rechts","22","","","object","j","0","true"
"null","<div style=""font-size:60px;"">+</div>","null","html-keyboard-response","214","216860","0.0-6.0-0.104","FAMI","4","m","rechts","22","","fixation","","","",""
"637","img/0_150.png","74","image-keyboard-response","215","217506","0.0-6.0-1.104","FAMI","4","m","rechts","22","","","object","j","0","true"
"null","<div style=""font-size:60px;"">+</div>","null","html-keyboard-response","216","217969","0.0-6.0-0.105","FAMI","4","m","rechts","22","","fixation","","","",""
"711","img/0_240.png","70","image-keyboard-response","217","218689","0.0-6.0-1.105","FAMI","4","m","rechts","22","","","object","f","0","true"
"null","<div style=""font-size:60px;"">+</div>","null","html-keyboard-response","218","219047","0.0-6.0-0.106","FAMI","4","m","rechts","22","","fixation","","","",""
"1225","img/150_120.png","70","image-keyboard-response","219","220285","0.0-6.0-1.106","FAMI","4","m","rechts","22","","","object","f","150","true"
"null","<div style=""font-size:60px;"">+</div>","null","html-keyboard-response","220","220602","0.0-6.0-0.107","FAMI","4","m","rechts","22","","fixation","","","",""
"706","img/150_90.png","70","image-keyboard-response","221","221321","0.0-6.0-1.107","FAMI","4","m","rechts","22","","","object","f","150","true"
"null","<div style=""font-size:60px;"">+</div>","null","html-keyboard-response","222","221683","0.0-6.0-0.108","FAMI","4","m","rechts","22","","fixation","","","",""
"1316","img/90_240.png","74","image-keyboard-response","223","223008","0.0-6.0-1.108","FAMI","4","m","rechts","22","","","object","f","90","false"
"null","<div style=""font-size:60px;"">+</div>","null","html-keyboard-response","224","223324","0.0-6.0-0.109","FAMI","4","m","rechts","22","","fixation","","","",""
"903","img/30_270.png","70","image-keyboard-response","225","224236","0.0-6.0-1.109","FAMI","4","m","rechts","22","","","object","f","30","true"
"null","<div style=""font-size:60px;"">+</div>","null","html-keyboard-response","226","224558","0.0-6.0-0.110","FAMI","4","m","rechts","22","","fixation","","","",""
"737","img/150_270.png","74","image-keyboard-response","227","225303","0.0-6.0-1.110","FAMI","4","m","rechts","22","","","object","j","150","true"
"null","<div style=""font-size:60px;"">+</div>","null","html-keyboard-response","228","225825","0.0-6.0-0.111","FAMI","4","m","rechts","22","","fixation","","","",""
"1085","img/L90_180.png","74","image-keyboard-response","229","226923","0.0-6.0-1.111","FAMI","4","m","rechts","22","","","object","j","90","true"
"null","<div style=""font-size:60px;"">+</div>","null","html-keyboard-response","230","227428","0.0-6.0-0.112","FAMI","4","m","rechts","22","","fixation","","","",""
"578","img/0_120.png","74","image-keyboard-response","231","228014","0.0-6.0-1.112","FAMI","4","m","rechts","22","","","object","j","0","true"
"null","<div style=""font-size:60px;"">+</div>","null","html-keyboard-response","232","228444","0.0-6.0-0.113","FAMI","4","m","rechts","22","","fixation","","","",""
"1227","img/60_150.png","74","image-keyboard-response","233","229680","0.0-6.0-1.113","FAMI","4","m","rechts","22","","","object","j","60","true"
"null","<div style=""font-size:60px;"">+</div>","null","html-keyboard-response","234","230037","0.0-6.0-0.114","FAMI","4","m","rechts","22","","fixation","","","",""
"768","img/120_270.png","74","image-keyboard-response","235","230817","0.0-6.0-1.114","FAMI","4","m","rechts","22","","","object","j","120","true"
"null","<div style=""font-size:60px;"">+</div>","null","html-keyboard-response","236","231342","0.0-6.0-0.115","FAMI","4","m","rechts","22","","fixation","","","",""
"652","img/0_270.png","70","image-keyboard-response","237","232008","0.0-6.0-1.115","FAMI","4","m","rechts","22","","","object","f","0","true"
"null","<div style=""font-size:60px;"">+</div>","null","html-keyboard-response","238","232436","0.0-6.0-0.116","FAMI","4","m","rechts","22","","fixation","","","",""
"947","img/120_210.png","70","image-keyboard-response","239","233392","0.0-6.0-1.116","FAMI","4","m","rechts","22","","","object","f","120","true"
"null","<div style=""font-size:60px;"">+</div>","null","html-keyboard-response","240","233852","0.0-6.0-0.117","FAMI","4","m","rechts","22","","fixation","","","",""
"663","img/60_30.png","70","image-keyboard-response","241","234529","0.0-6.0-1.117","FAMI","4","m","rechts","22","","","object","f","60","true"
"null","<div style=""font-size:60px;"">+</div>","null","html-keyboard-response","242","235034","0.0-6.0-0.118","FAMI","4","m","rechts","22","","fixation","","","",""
"1069","img/60_180.png","70","image-keyboard-response","243","236112","0.0-6.0-1.118","FAMI","4","m","rechts","22","","","object","f","60","true"
"null","<div style=""font-size:60px;"">+</div>","null","html-keyboard-response","244","236436","0.0-6.0-0.119","FAMI","4","m","rechts","22","","fixation","","","",""
"1007","img/150_240.png","74","image-keyboard-response","245","237453","0.0-6.0-1.119","FAMI","4","m","rechts","22","","","object","j","150","true"
"null","<div style=""font-size:60px;"">+</div>","null","html-keyboard-response","246","237780","0.0-6.0-0.120","FAMI","4","m","rechts","22","","fixation","","","",""
"806","img/90_180.png","70","image-keyboard-response","247","238601","0.0-6.0-1.120","FAMI","4","m","rechts","22","","","object","f","90","true"
"null","<div style=""font-size:60px;"">+</div>","null","html-keyboard-response","248","239109","0.0-6.0-0.121","FAMI","4","m","rechts","22","","fixation","","","",""
"1502","img/150_60.png","70","image-keyboard-response","249","240624","0.0-6.0-1.121","FAMI","4","m","rechts","22","","","object","f","150","true"
"null","<div style=""font-size:60px;"">+</div>","null","html-keyboard-response","250","241139","0.0-6.0-0.122","FAMI","4","m","rechts","22","","fixation","","","",""
"1164","img/90_210.png","70","image-keyboard-response","251","242314","0.0-6.0-1.122","FAMI","4","m","rechts","22","","","object","f","90","true"
"null","<div style=""font-size:60px;"">+</div>","null","html-keyboard-response","252","242718","0.0-6.0-0.123","FAMI","4","m","rechts","22","","fixation","","","",""
"1387","img/30_120.png","74","image-keyboard-response","253","244115","0.0-6.0-1.123","FAMI","4","m","rechts","22","","","object","j","30","true"
"null","<div style=""font-size:60px;"">+</div>","null","html-keyboard-response","254","244578","0.0-6.0-0.124","FAMI","4","m","rechts","22","","fixation","","","",""
"797","img/0_90.png","74","image-keyboard-response","255","245385","0.0-6.0-1.124","FAMI","4","m","rechts","22","","","object","j","0","true"
"null","<div style=""font-size:60px;"">+</div>","null","html-keyboard-response","256","245812","0.0-6.0-0.125","FAMI","4","m","rechts","22","","fixation","","","",""
"709","img/30_60.png","70","image-keyboard-response","257","246535","0.0-6.0-1.125","FAMI","4","m","rechts","22","","","object","j","30","false"
"null","<div style=""font-size:60px;"">+</div>","null","html-keyboard-response","258","246861","0.0-6.0-0.126","FAMI","4","m","rechts","22","","fixation","","","",""
"921","img/120_150.png","74","image-keyboard-response","259","247791","0.0-6.0-1.126","FAMI","4","m","rechts","22","","","object","j","120","true"
"null","<div style=""font-size:60px;"">+</div>","null","html-keyboard-response","260","248204","0.0-6.0-0.127","FAMI","4","m","rechts","22","","fixation","","","",""
"760","img/120_90.png","70","image-keyboard-response","261","248974","0.0-6.0-1.127","FAMI","4","m","rechts","22","","","object","f","120","true"
"null","<div style=""font-size:60px;"">+</div>","null","html-keyboard-response","262","249453","0.0-6.0-0.128","FAMI","4","m","rechts","22","","fixation","","","",""
"709","img/0_210.png","70","image-keyboard-response","263","250167","0.0-6.0-1.128","FAMI","4","m","rechts","22","","","object","f","0","true"
"null","<div style=""font-size:60px;"">+</div>","null","html-keyboard-response","264","250674","0.0-6.0-0.129","FAMI","4","m","rechts","22","","fixation","","","",""
"1023","img/120_180.png","70","image-keyboard-response","265","251708","0.0-6.0-1.129","FAMI","4","m","rechts","22","","","object","f","120","true"
"null","<div style=""font-size:60px;"">+</div>","null","html-keyboard-response","266","252125","0.0-6.0-0.130","FAMI","4","m","rechts","22","","fixation","","","",""
"947","img/90_30.png","70","image-keyboard-response","267","253081","0.0-6.0-1.130","FAMI","4","m","rechts","22","","","object","f","90","true"
"null","<div style=""font-size:60px;"">+</div>","null","html-keyboard-response","268","253392","0.0-6.0-0.131","FAMI","4","m","rechts","22","","fixation","","","",""
"1281","img/90_120.png","74","image-keyboard-response","269","254689","0.0-6.0-1.131","FAMI","4","m","rechts","22","","","object","j","90","true"
"null","<div style=""font-size:60px;"">+</div>","null","html-keyboard-response","270","255220","0.0-6.0-0.132","FAMI","4","m","rechts","22","","fixation","","","",""
"681","img/0_300.png","70","image-keyboard-response","271","255914","0.0-6.0-1.132","FAMI","4","m","rechts","22","","","object","f","0","true"
"null","<div style=""font-size:60px;"">+</div>","null","html-keyboard-response","272","256393","0.0-6.0-0.133","FAMI","4","m","rechts","22","","fixation","","","",""
"859","img/30_300.png","70","image-keyboard-response","273","257265","0.0-6.0-1.133","FAMI","4","m","rechts","22","","","object","f","30","true"
"null","<div style=""font-size:60px;"">+</div>","null","html-keyboard-response","274","257767","0.0-6.0-0.134","FAMI","4","m","rechts","22","","fixation","","","",""
"1003","img/L150_180.png","74","image-keyboard-response","275","258783","0.0-6.0-1.134","FAMI","4","m","rechts","22","","","object","j","150","true"
"null","<div style=""font-size:60px;"">+</div>","null","html-keyboard-response","276","259206","0.0-6.0-0.135","FAMI","4","m","rechts","22","","fixation","","","",""
"649","img/0_60.png","74","image-keyboard-response","277","259866","0.0-6.0-1.135","FAMI","4","m","rechts","22","","","object","j","0","true"
"null","<div style=""font-size:60px;"">+</div>","null","html-keyboard-response","278","260315","0.0-6.0-0.136","FAMI","4","m","rechts","22","","fixation","","","",""
"1000","img/L30_180.png","74","image-keyboard-response","279","261327","0.0-6.0-1.136","FAMI","4","m","rechts","22","","","object","j","30","true"
"null","<div style=""font-size:60px;"">+</div>","null","html-keyboard-response","280","261737","0.0-6.0-0.137","FAMI","4","m","rechts","22","","fixation","","","",""
"1635","img/60_270.png","70","image-keyboard-response","281","263385","0.0-6.0-1.137","FAMI","4","m","rechts","22","","","object","f","60","true"
"null","<div style=""font-size:60px;"">+</div>","null","html-keyboard-response","282","263800","0.0-6.0-0.138","FAMI","4","m","rechts","22","","fixation","","","",""
"878","img/L60_180.png","74","image-keyboard-response","283","264691","0.0-6.0-1.138","FAMI","4","m","rechts","22","","","object","j","60","true"
"null","<div style=""font-size:60px;"">+</div>","null","html-keyboard-response","284","265005","0.0-6.0-0.139","FAMI","4","m","rechts","22","","fixation","","","",""
"740","img/0_30.png","74","image-keyboard-response","285","265760","0.0-6.0-1.139","FAMI","4","m","rechts","22","","","object","j","0","true"
"null","<div style=""font-size:60px;"">+</div>","null","html-keyboard-response","286","266177","0.0-6.0-0.140","FAMI","4","m","rechts","22","","fixation","","","",""
"896","img/L120_180.png","74","image-keyboard-response","287","267086","0.0-6.0-1.140","FAMI","4","m","rechts","22","","","object","j","120","true"
"null","<div style=""font-size:60px;"">+</div>","null","html-keyboard-response","288","267442","0.0-6.0-0.141","FAMI","4","m","rechts","22","","fixation","","","",""
"851","img/30_180.png","70","image-keyboard-response","289","268302","0.0-6.0-1.141","FAMI","4","m","rechts","22","","","object","f","30","true"
"null","<div style=""font-size:60px;"">+</div>","null","html-keyboard-response","290","268724","0.0-6.0-0.142","FAMI","4","m","rechts","22","","fixation","","","",""
"882","img/90_60.png","70","image-keyboard-response","291","269618","0.0-6.0-1.142","FAMI","4","m","rechts","22","","","object","f","90","true"
"null","<div style=""font-size:60px;"">+</div>","null","html-keyboard-response","292","270083","0.0-6.0-0.143","FAMI","4","m","rechts","22","","fixation","","","",""
"1243","img/60_210.png","70","image-keyboard-response","293","271338","0.0-6.0-1.143","FAMI","4","m","rechts","22","","","object","f","60","true"
"null","<div style=""font-size:60px;"">+</div>","null","html-keyboard-response","294","271741","0.0-6.0-0.144","FAMI","4","m","rechts","22","","fixation","","","",""
"720","img/120_330.png","74","image-keyboard-response","295","272472","0.0-6.0-1.144","FAMI","4","m","rechts","22","","","object","j","120","true"
"null","<div style=""font-size:60px;"">+</div>","null","html-keyboard-response","296","272835","0.0-6.0-0.145","FAMI","4","m","rechts","22","","fixation","","","",""
"616","img/150_300.png","74","image-keyboard-response","297","273464","0.0-6.0-1.145","FAMI","4","m","rechts","22","","","object","j","150","true"
"null","<div style=""font-size:60px;"">+</div>","null","html-keyboard-response","298","273817","0.0-6.0-0.146","FAMI","4","m","rechts","22","","fixation","","","",""
"632","img/90_300.png","74","image-keyboard-response","299","274463","0.0-6.0-1.146","FAMI","4","m","rechts","22","","","object","j","90","true"
"null","<div style=""font-size:60px;"">+</div>","null","html-keyboard-response","300","274926","0.0-6.0-0.147","FAMI","4","m","rechts","22","","fixation","","","",""
"679","img/60_330.png","74","image-keyboard-response","301","275615","0.0-6.0-1.147","FAMI","4","m","rechts","22","","","object","j","60","true"
"null","<div style=""font-size:60px;"">+</div>","null","html-keyboard-response","302","276022","0.0-6.0-0.148","FAMI","4","m","rechts","22","","fixation","","","",""
"947","img/30_90.png","70","image-keyboard-response","303","276987","0.0-6.0-1.148","FAMI","4","m","rechts","22","","","object","j","30","false"
"null","<div style=""font-size:60px;"">+</div>","null","html-keyboard-response","304","277397","0.0-6.0-0.149","FAMI","4","m","rechts","22","","fixation","","","",""
"1226","img/90_150.png","74","image-keyboard-response","305","278641","0.0-6.0-1.149","FAMI","4","m","rechts","22","","","object","j","90","true"
"null","<div style=""font-size:60px;"">+</div>","null","html-keyboard-response","306","279070","0.0-6.0-0.150","FAMI","4","m","rechts","22","","fixation","","","",""
"829","img/150_180.png","70","image-keyboard-response","307","279913","0.0-6.0-1.150","FAMI","4","m","rechts","22","","","object","f","150","true"
"null","<div style=""font-size:60px;"">+</div>","null","html-keyboard-response","308","280226","0.0-6.0-0.151","FAMI","4","m","rechts","22","","fixation","","","",""
"652","img/0_330.png","70","image-keyboard-response","309","280891","0.0-6.0-1.151","FAMI","4","m","rechts","22","","","object","f","0","true"
"null","<div style=""font-size:60px;"">+</div>","null","html-keyboard-response","310","281415","0.0-6.0-0.152","FAMI","4","m","rechts","22","","fixation","","","",""
"1011","img/60_90.png","74","image-keyboard-response","311","282444","0.0-6.0-1.152","FAMI","4","m","rechts","22","","","object","j","60","true"
"null","<div style=""font-size:60px;"">+</div>","null","html-keyboard-response","312","282776","0.0-6.0-0.153","FAMI","4","m","rechts","22","","fixation","","","",""
"958","img/30_240.png","70","image-keyboard-response","313","283749","0.0-6.0-1.153","FAMI","4","m","rechts","22","","","object","f","30","true"
"null","<div style=""font-size:60px;"">+</div>","null","html-keyboard-response","314","284103","0.0-6.0-0.154","FAMI","4","m","rechts","22","","fixation","","","",""
"688","img/90_330.png","74","image-keyboard-response","315","284804","0.0-6.0-1.154","FAMI","4","m","rechts","22","","","object","j","90","true"
"null","<div style=""font-size:60px;"">+</div>","null","html-keyboard-response","316","285259","0.0-6.0-0.155","FAMI","4","m","rechts","22","","fixation","","","",""
"619","img/120_30.png","70","image-keyboard-response","317","285892","0.0-6.0-1.155","FAMI","4","m","rechts","22","","","object","f","120","true"
"null","<div style=""font-size:60px;"">+</div>","null","html-keyboard-response","318","286307","0.0-6.0-0.156","FAMI","4","m","rechts","22","","fixation","","","",""
"604","img/90_330.png","74","image-keyboard-response","319","286921","0.0-6.0-1.156","FAMI","4","m","rechts","22","","","object","j","90","true"
"null","<div style=""font-size:60px;"">+</div>","null","html-keyboard-response","320","287229","0.0-6.0-0.157","FAMI","4","m","rechts","22","","fixation","","","",""
"1065","img/L90_180.png","74","image-keyboard-response","321","288304","0.0-6.0-1.157","FAMI","4","m","rechts","22","","","object","j","90","true"
"null","<div style=""font-size:60px;"">+</div>","null","html-keyboard-response","322","288666","0.0-6.0-0.158","FAMI","4","m","rechts","22","","fixation","","","",""
"945","img/90_180.png","70","image-keyboard-response","323","289622","0.0-6.0-1.158","FAMI","4","m","rechts","22","","","object","f","90","true"
"null","<div style=""font-size:60px;"">+</div>","null","html-keyboard-response","324","290134","0.0-6.0-0.159","FAMI","4","m","rechts","22","","fixation","","","",""
"1095","img/120_270.png","74","image-keyboard-response","325","291242","0.0-6.0-1.159","FAMI","4","m","rechts","22","","","object","j","120","true"
"null","<div style=""font-size:60px;"">+</div>","null","html-keyboard-response","326","291698","0.0-6.0-0.160","FAMI","4","m","rechts","22","","fixation","","","",""
"844","img/30_270.png","70","image-keyboard-response","327","292558","0.0-6.0-1.160","FAMI","4","m","rechts","22","","","object","f","30","true"
"null","<div style=""font-size:60px;"">+</div>","null","html-keyboard-response","328","292979","0.0-6.0-0.161","FAMI","4","m","rechts","22","","fixation","","","",""
"628","img/0_60.png","74","image-keyboard-response","329","293627","0.0-6.0-1.161","FAMI","4","m","rechts","22","","","object","j","0","true"
"null","<div style=""font-size:60px;"">+</div>","null","html-keyboard-response","330","293982","0.0-6.0-0.162","FAMI","4","m","rechts","22","","fixation","","","",""
"1398","img/150_120.png","70","image-keyboard-response","331","295392","0.0-6.0-1.162","FAMI","4","m","rechts","22","","","object","f","150","true"
"null","<div style=""font-size:60px;"">+</div>","null","html-keyboard-response","332","295901","0.0-6.0-0.163","FAMI","4","m","rechts","22","","fixation","","","",""
"972","img/60_150.png","74","image-keyboard-response","333","296888","0.0-6.0-1.163","FAMI","4","m","rechts","22","","","object","j","60","true"
"null","<div style=""font-size:60px;"">+</div>","null","html-keyboard-response","334","297250","0.0-6.0-0.164","FAMI","4","m","rechts","22","","fixation","","","",""
"614","img/0_90.png","74","image-keyboard-response","335","297878","0.0-6.0-1.164","FAMI","4","m","rechts","22","","","object","j","0","true"
"null","<div style=""font-size:60px;"">+</div>","null","html-keyboard-response","336","298250","0.0-6.0-0.165","FAMI","4","m","rechts","22","","fixation","","","",""
"515","img/0_120.png","74","image-keyboard-response","337","298778","0.0-6.0-1.165","FAMI","4","m","rechts","22","","","object","j","0","true"
"null","<div style=""font-size:60px;"">+</div>","null","html-keyboard-response","338","299236","0.0-6.0-0.166","FAMI","4","m","rechts","22","","fixation","","","",""
"685","img/0_270.png","70","image-keyboard-response","339","299935","0.0-6.0-1.166","FAMI","4","m","rechts","22","","","object","f","0","true"
"null","<div style=""font-size:60px;"">+</div>","null","html-keyboard-response","340","300390","0.0-6.0-0.167","FAMI","4","m","rechts","22","","fixation","","","",""
"1184","img/120_90.png","70","image-keyboard-response","341","301579","0.0-6.0-1.167","FAMI","4","m","rechts","22","","","object","f","120","true"
"null","<div style=""font-size:60px;"">+</div>","null","html-keyboard-response","342","301934","0.0-6.0-0.168","FAMI","4","m","rechts","22","","fixation","","","",""
"688","img/60_30.png","70","image-keyboard-response","343","302637","0.0-6.0-1.168","FAMI","4","m","rechts","22","","","object","f","60","true"
"null","<div style=""font-size:60px;"">+</div>","null","html-keyboard-response","344","303059","0.0-6.0-0.169","FAMI","4","m","rechts","22","","fixation","","","",""
"766","img/30_120.png","74","image-keyboard-response","345","303839","0.0-6.0-1.169","FAMI","4","m","rechts","22","","","object","j","30","true"
"null","<div style=""font-size:60px;"">+</div>","null","html-keyboard-response","346","304293","0.0-6.0-0.170","FAMI","4","m","rechts","22","","fixation","","","",""
"866","img/60_270.png","74","image-keyboard-response","347","305168","0.0-6.0-1.170","FAMI","4","m","rechts","22","","","object","f","60","false"
"null","<div style=""font-size:60px;"">+</div>","null","html-keyboard-response","348","305698","0.0-6.0-0.171","FAMI","4","m","rechts","22","","fixation","","","",""
"732","img/90_240.png","74","image-keyboard-response","349","306440","0.0-6.0-1.171","FAMI","4","m","rechts","22","","","object","f","90","false"
"null","<div style=""font-size:60px;"">+</div>","null","html-keyboard-response","350","306917","0.0-6.0-0.172","FAMI","4","m","rechts","22","","fixation","","","",""
"908","img/90_120.png","70","image-keyboard-response","351","307835","0.0-6.0-1.172","FAMI","4","m","rechts","22","","","object","j","90","false"
"null","<div style=""font-size:60px;"">+</div>","null","html-keyboard-response","352","308340","0.0-6.0-0.173","FAMI","4","m","rechts","22","","fixation","","","",""
"639","img/0_210.png","70","image-keyboard-response","353","308994","0.0-6.0-1.173","FAMI","4","m","rechts","22","","","object","f","0","true"
"null","<div style=""font-size:60px;"">+</div>","null","html-keyboard-response","354","309449","0.0-6.0-0.174","FAMI","4","m","rechts","22","","fixation","","","",""
"1082","img/L30_180.png","74","image-keyboard-response","355","310546","0.0-6.0-1.174","FAMI","4","m","rechts","22","","","object","j","30","true"
"null","<div style=""font-size:60px;"">+</div>","null","html-keyboard-response","356","310949","0.0-6.0-0.175","FAMI","4","m","rechts","22","","fixation","","","",""
"927","img/60_90.png","70","image-keyboard-response","357","311884","0.0-6.0-1.175","FAMI","4","m","rechts","22","","","object","j","60","false"
"null","<div style=""font-size:60px;"">+</div>","null","html-keyboard-response","358","312199","0.0-6.0-0.176","FAMI","4","m","rechts","22","","fixation","","","",""
"700","img/90_300.png","74","image-keyboard-response","359","312909","0.0-6.0-1.176","FAMI","4","m","rechts","22","","","object","j","90","true"
"null","<div style=""font-size:60px;"">+</div>","null","html-keyboard-response","360","313419","0.0-6.0-0.177","FAMI","4","m","rechts","22","","fixation","","","",""
"638","img/120_30.png","70","image-keyboard-response","361","314066","0.0-6.0-1.177","FAMI","4","m","rechts","22","","","object","f","120","true"
"null","<div style=""font-size:60px;"">+</div>","null","html-keyboard-response","362","314371","0.0-6.0-0.178","FAMI","4","m","rechts","22","","fixation","","","",""
"900","img/90_150.png","74","image-keyboard-response","363","315282","0.0-6.0-1.178","FAMI","4","m","rechts","22","","","object","j","90","true"
"null","<div style=""font-size:60px;"">+</div>","null","html-keyboard-response","364","315748","0.0-6.0-0.179","FAMI","4","m","rechts","22","","fixation","","","",""
"623","img/90_30.png","70","image-keyboard-response","365","316384","0.0-6.0-1.179","FAMI","4","m","rechts","22","","","object","f","90","true"
"null","<div style=""font-size:60px;"">+</div>","null","html-keyboard-response","366","316765","0.0-6.0-0.180","FAMI","4","m","rechts","22","","fixation","","","",""
"714","img/150_300.png","74","image-keyboard-response","367","317488","0.0-6.0-1.180","FAMI","4","m","rechts","22","","","object","j","150","true"
"null","<div style=""font-size:60px;"">+</div>","null","html-keyboard-response","368","317951","0.0-6.0-0.181","FAMI","4","m","rechts","22","","fixation","","","",""
"920","img/L120_180.png","74","image-keyboard-response","369","318881","0.0-6.0-1.181","FAMI","4","m","rechts","22","","","object","j","120","true"
"null","<div style=""font-size:60px;"">+</div>","null","html-keyboard-response","370","319389","0.0-6.0-0.182","FAMI","4","m","rechts","22","","fixation","","","",""
"732","img/150_180.png","70","image-keyboard-response","371","320132","0.0-6.0-1.182","FAMI","4","m","rechts","22","","","object","f","150","true"
"null","<div style=""font-size:60px;"">+</div>","null","html-keyboard-response","372","320436","0.0-6.0-0.183","FAMI","4","m","rechts","22","","fixation","","","",""
"997","img/150_240.png","74","image-keyboard-response","373","321447","0.0-6.0-1.183","FAMI","4","m","rechts","22","","","object","j","150","true"
"null","<div style=""font-size:60px;"">+</div>","null","html-keyboard-response","374","321904","0.0-6.0-0.184","FAMI","4","m","rechts","22","","fixation","","","",""
"779","img/60_180.png","70","image-keyboard-response","375","322696","0.0-6.0-1.184","FAMI","4","m","rechts","22","","","object","f","60","true"
"null","<div style=""font-size:60px;"">+</div>","null","html-keyboard-response","376","323012","0.0-6.0-0.185","FAMI","4","m","rechts","22","","fixation","","","",""
"935","img/60_210.png","70","image-keyboard-response","377","323956","0.0-6.0-1.185","FAMI","4","m","rechts","22","","","object","f","60","true"
"null","<div style=""font-size:60px;"">+</div>","null","html-keyboard-response","378","324480","0.0-6.0-0.186","FAMI","4","m","rechts","22","","fixation","","","",""
"707","img/0_150.png","74","image-keyboard-response","379","325194","0.0-6.0-1.186","FAMI","4","m","rechts","22","","","object","j","0","true"
"null","<div style=""font-size:60px;"">+</div>","null","html-keyboard-response","380","325510","0.0-6.0-0.187","FAMI","4","m","rechts","22","","fixation","","","",""
"587","img/0_300.png","70","image-keyboard-response","381","326105","0.0-6.0-1.187","FAMI","4","m","rechts","22","","","object","f","0","true"
"null","<div style=""font-size:60px;"">+</div>","null","html-keyboard-response","382","326467","0.0-6.0-0.188","FAMI","4","m","rechts","22","","fixation","","","",""
"942","img/30_240.png","70","image-keyboard-response","383","327423","0.0-6.0-1.188","FAMI","4","m","rechts","22","","","object","f","30","true"
"null","<div style=""font-size:60px;"">+</div>","null","html-keyboard-response","384","327890","0.0-6.0-0.189","FAMI","4","m","rechts","22","","fixation","","","",""
"656","img/90_60.png","70","image-keyboard-response","385","328557","0.0-6.0-1.189","FAMI","4","m","rechts","22","","","object","f","90","true"
"null","<div style=""font-size:60px;"">+</div>","null","html-keyboard-response","386","329060","0.0-6.0-0.190","FAMI","4","m","rechts","22","","fixation","","","",""
"614","img/0_330.png","70","image-keyboard-response","387","329683","0.0-6.0-1.190","FAMI","4","m","rechts","22","","","object","f","0","true"
"null","<div style=""font-size:60px;"">+</div>","null","html-keyboard-response","388","330042","0.0-6.0-0.191","FAMI","4","m","rechts","22","","fixation","","","",""
"1359","img/90_210.png","70","image-keyboard-response","389","331415","0.0-6.0-1.191","FAMI","4","m","rechts","22","","","object","f","90","true"
"null","<div style=""font-size:60px;"">+</div>","null","html-keyboard-response","390","331874","0.0-6.0-0.192","FAMI","4","m","rechts","22","","fixation","","","",""
"596","img/60_330.png","74","image-keyboard-response","391","332485","0.0-6.0-1.192","FAMI","4","m","rechts","22","","","object","j","60","true"
"null","<div style=""font-size:60px;"">+</div>","null","html-keyboard-response","392","332796","0.0-6.0-0.193","FAMI","4","m","rechts","22","","fixation","","","",""
"785","img/30_300.png","70","image-keyboard-response","393","333596","0.0-6.0-1.193","FAMI","4","m","rechts","22","","","object","f","30","true"
"null","<div style=""font-size:60px;"">+</div>","null","html-keyboard-response","394","334125","0.0-6.0-0.194","FAMI","4","m","rechts","22","","fixation","","","",""
"900","img/120_150.png","74","image-keyboard-response","395","335038","0.0-6.0-1.194","FAMI","4","m","rechts","22","","","object","j","120","true"
"null","<div style=""font-size:60px;"">+</div>","null","html-keyboard-response","396","335420","0.0-6.0-0.195","FAMI","4","m","rechts","22","","fixation","","","",""
"986","img/120_180.png","70","image-keyboard-response","397","336420","0.0-6.0-1.195","FAMI","4","m","rechts","22","","","object","f","120","true"
"null","<div style=""font-size:60px;"">+</div>","null","html-keyboard-response","398","336874","0.0-6.0-0.196","FAMI","4","m","rechts","22","","fixation","","","",""
"633","img/0_240.png","70","image-keyboard-response","399","337523","0.0-6.0-1.196","FAMI","4","m","rechts","22","","","object","f","0","true"
"null","<div style=""font-size:60px;"">+</div>","null","html-keyboard-response","400","338029","0.0-6.0-0.197","FAMI","4","m","rechts","22","","fixation","","","",""
"696","img/30_90.png","74","image-keyboard-response","401","338739","0.0-6.0-1.197","FAMI","4","m","rechts","22","","","object","j","30","true"
"null","<div style=""font-size:60px;"">+</div>","null","html-keyboard-response","402","339249","0.0-6.0-0.198","FAMI","4","m","rechts","22","","fixation","","","",""
"680","img/150_60.png","70","image-keyboard-response","403","339943","0.0-6.0-1.198","FAMI","4","m","rechts","22","","","object","f","150","true"
"null","<div style=""font-size:60px;"">+</div>","null","html-keyboard-response","404","340451","0.0-6.0-0.199","FAMI","4","m","rechts","22","","fixation","","","",""
"902","img/150_90.png","70","image-keyboard-response","405","341369","0.0-6.0-1.199","FAMI","4","m","rechts","22","","","object","f","150","true"
"null","<div style=""font-size:60px;"">+</div>","null","html-keyboard-response","406","341678","0.0-6.0-0.200","FAMI","4","m","rechts","22","","fixation","","","",""
"1290","img/30_180.png","70","image-keyboard-response","407","342981","0.0-6.0-1.200","FAMI","4","m","rechts","22","","","object","f","30","true"
"null","<div style=""font-size:60px;"">+</div>","null","html-keyboard-response","408","343501","0.0-6.0-0.201","FAMI","4","m","rechts","22","","fixation","","","",""
"625","img/120_330.png","74","image-keyboard-response","409","344138","0.0-6.0-1.201","FAMI","4","m","rechts","22","","","object","j","120","true"
"null","<div style=""font-size:60px;"">+</div>","null","html-keyboard-response","410","344516","0.0-6.0-0.202","FAMI","4","m","rechts","22","","fixation","","","",""
"1329","img/120_210.png","70","image-keyboard-response","411","345861","0.0-6.0-1.202","FAMI","4","m","rechts","22","","","object","f","120","true"
"null","<div style=""font-size:60px;"">+</div>","null","html-keyboard-response","412","346329","0.0-6.0-0.203","FAMI","4","m","rechts","22","","fixation","","","",""
"687","img/150_270.png","74","image-keyboard-response","413","347029","0.0-6.0-1.203","FAMI","4","m","rechts","22","","","object","j","150","true"
"null","<div style=""font-size:60px;"">+</div>","null","html-keyboard-response","414","347501","0.0-6.0-0.204","FAMI","4","m","rechts","22","","fixation","","","",""
"651","img/0_30.png","74","image-keyboard-response","415","348167","0.0-6.0-1.204","FAMI","4","m","rechts","22","","","object","j","0","true"
"null","<div style=""font-size:60px;"">+</div>","null","html-keyboard-response","416","348672","0.0-6.0-0.205","FAMI","4","m","rechts","22","","fixation","","","",""
"840","img/30_60.png","74","image-keyboard-response","417","349527","0.0-6.0-1.205","FAMI","4","m","rechts","22","","","object","j","30","true"
"null","<div style=""font-size:60px;"">+</div>","null","html-keyboard-response","418","349847","0.0-6.0-0.206","FAMI","4","m","rechts","22","","fixation","","","",""
"892","img/L150_180.png","74","image-keyboard-response","419","350752","0.0-6.0-1.206","FAMI","4","m","rechts","22","","","object","j","150","true"
"null","<div style=""font-size:60px;"">+</div>","null","html-keyboard-response","420","351064","0.0-6.0-0.207","FAMI","4","m","rechts","22","","fixation","","","",""
"1059","img/L60_180.png","70","image-keyboard-response","421","352138","0.0-6.0-1.207","FAMI","4","m","rechts","22","","","object","j","60","false"
"12322","<p>Du hast in 90% der Versuche korrekt entschieden.</p><p>Deine durchschnittliche Reaktionszeit war  838ms.</p><p>Dr&uuml;cke eine beliebige Taste, um die Session zu beenden. Vielen Dank!</p>","32","html-keyboard-response","422","364468","0.0-7.0","FAMI","4","m","rechts","22","","","","","",""
