"rt","stimulus","key_press","trial_type","trial_index","time_elapsed","internal_node_id","subject","session","sex","handedness","age","responses","test_part","condition","correct_response","angle","correct"
"2407","<p>Mental Rotation Experiment.</p> <p>Dr&uuml;cke eine beliebige Taste, um anzufangen.</p>","13","html-keyboard-response","0","2443","0.0-0.0","FAMI","3","m","rechts","22","","","","","",""
"6928","","","survey-text","1","9374","0.0-1.0","FAMI","3","m","rechts","22","{""Q0"":""FAMI""}","","","","",""
"2114","","","survey-text","2","11489","0.0-2.0","FAMI","3","m","rechts","22","{""Q0"":""3""}","","","","",""
"2072","","","survey-multi-choice","3","13568","0.0-3.0","FAMI","3","m","rechts","22","{""Q0"":""m"",""Q1"":""rechts""}","","","","",""
"1980","","","survey-text","4","15550","0.0-4.0","FAMI","3","m","rechts","22","{""Q0"":""22""}","","","","",""
"12587","<p>Stell dir vor, dass du vor einem runden Tisch stehst, auf dem sich ein blauer Ball am Tischrand befindet. Entlang des Tischrands ist jeweils ein verschieden langer Pfeil. Nun bleibst du an deinem Platz vor dem Tisch und rotierst den Tisch entlang des Pfeils (gleiche Richtung und Länge). </p> <img src='img/30_180.png'></img> <br><p> Nachdem du diese (vorgestellte) Rotation durchgef&uuml;hrt hast, schau in Richtung der Tischmitte, und entscheide dann, ob der Ball links oder rechts von dir liegt.</p> <p>Dr&uuml;cke die <strong>'f'</strong>-Taste f&uuml;r links, die <strong>'j'</strong>-Taste f&uuml;r rechts.</p><br><p> Das Bild wird jeweils 1 Sekunde lang pr&auml;sentiert. Du hast 3 Sekunden Zeit eine Entscheidung zu treffen.</p>","70","html-keyboard-response","5","28145","0.0-5.0","FAMI","3","m","rechts","22","","","","","",""
"null","<div style=""font-size:60px;"">+</div>","null","html-keyboard-response","6","29484","0.0-6.0-0.0","FAMI","3","m","rechts","22","","fixation","","","",""
"1151","img/0_30.png","74","image-keyboard-response","7","30656","0.0-6.0-1.0","FAMI","3","m","rechts","22","","","object","j","0","true"
"null","<div style=""font-size:60px;"">+</div>","null","html-keyboard-response","8","31023","0.0-6.0-0.1","FAMI","3","m","rechts","22","","fixation","","","",""
"996","img/60_210.png","70","image-keyboard-response","9","32043","0.0-6.0-1.1","FAMI","3","m","rechts","22","","","object","f","60","true"
"null","<div style=""font-size:60px;"">+</div>","null","html-keyboard-response","10","32501","0.0-6.0-0.2","FAMI","3","m","rechts","22","","fixation","","","",""
"648","img/60_330.png","74","image-keyboard-response","11","33168","0.0-6.0-1.2","FAMI","3","m","rechts","22","","","object","j","60","true"
"null","<div style=""font-size:60px;"">+</div>","null","html-keyboard-response","12","33642","0.0-6.0-0.3","FAMI","3","m","rechts","22","","fixation","","","",""
"824","img/0_120.png","74","image-keyboard-response","13","34484","0.0-6.0-1.3","FAMI","3","m","rechts","22","","","object","j","0","true"
"null","<div style=""font-size:60px;"">+</div>","null","html-keyboard-response","14","34798","0.0-6.0-0.4","FAMI","3","m","rechts","22","","fixation","","","",""
"615","img/0_90.png","74","image-keyboard-response","15","35430","0.0-6.0-1.4","FAMI","3","m","rechts","22","","","object","j","0","true"
"null","<div style=""font-size:60px;"">+</div>","null","html-keyboard-response","16","35735","0.0-6.0-0.5","FAMI","3","m","rechts","22","","fixation","","","",""
"743","img/150_60.png","70","image-keyboard-response","17","36498","0.0-6.0-1.5","FAMI","3","m","rechts","22","","","object","f","150","true"
"null","<div style=""font-size:60px;"">+</div>","null","html-keyboard-response","18","36813","0.0-6.0-0.6","FAMI","3","m","rechts","22","","fixation","","","",""
"770","img/150_300.png","74","image-keyboard-response","19","37601","0.0-6.0-1.6","FAMI","3","m","rechts","22","","","object","j","150","true"
"null","<div style=""font-size:60px;"">+</div>","null","html-keyboard-response","20","37964","0.0-6.0-0.7","FAMI","3","m","rechts","22","","fixation","","","",""
"634","img/120_90.png","70","image-keyboard-response","21","38612","0.0-6.0-1.7","FAMI","3","m","rechts","22","","","object","f","120","true"
"null","<div style=""font-size:60px;"">+</div>","null","html-keyboard-response","22","39143","0.0-6.0-0.8","FAMI","3","m","rechts","22","","fixation","","","",""
"589","img/60_30.png","70","image-keyboard-response","23","39750","0.0-6.0-1.8","FAMI","3","m","rechts","22","","","object","f","60","true"
"null","<div style=""font-size:60px;"">+</div>","null","html-keyboard-response","24","40159","0.0-6.0-0.9","FAMI","3","m","rechts","22","","fixation","","","",""
"1121","img/90_180.png","70","image-keyboard-response","25","41290","0.0-6.0-1.9","FAMI","3","m","rechts","22","","","object","f","90","true"
"null","<div style=""font-size:60px;"">+</div>","null","html-keyboard-response","26","41706","0.0-6.0-0.10","FAMI","3","m","rechts","22","","fixation","","","",""
"737","img/L90_180.png","74","image-keyboard-response","27","42461","0.0-6.0-1.10","FAMI","3","m","rechts","22","","","object","j","90","true"
"null","<div style=""font-size:60px;"">+</div>","null","html-keyboard-response","28","42971","0.0-6.0-0.11","FAMI","3","m","rechts","22","","fixation","","","",""
"899","img/150_270.png","74","image-keyboard-response","29","43889","0.0-6.0-1.11","FAMI","3","m","rechts","22","","","object","j","150","true"
"null","<div style=""font-size:60px;"">+</div>","null","html-keyboard-response","30","44392","0.0-6.0-0.12","FAMI","3","m","rechts","22","","fixation","","","",""
"813","img/90_240.png","74","image-keyboard-response","31","45216","0.0-6.0-1.12","FAMI","3","m","rechts","22","","","object","f","90","false"
"null","<div style=""font-size:60px;"">+</div>","null","html-keyboard-response","32","45642","0.0-6.0-0.13","FAMI","3","m","rechts","22","","fixation","","","",""
"748","img/0_210.png","70","image-keyboard-response","33","46407","0.0-6.0-1.13","FAMI","3","m","rechts","22","","","object","f","0","true"
"null","<div style=""font-size:60px;"">+</div>","null","html-keyboard-response","34","46877","0.0-6.0-0.14","FAMI","3","m","rechts","22","","fixation","","","",""
"772","img/120_270.png","74","image-keyboard-response","35","47670","0.0-6.0-1.14","FAMI","3","m","rechts","22","","","object","j","120","true"
"null","<div style=""font-size:60px;"">+</div>","null","html-keyboard-response","36","47987","0.0-6.0-0.15","FAMI","3","m","rechts","22","","fixation","","","",""
"1094","img/L60_180.png","74","image-keyboard-response","37","49098","0.0-6.0-1.15","FAMI","3","m","rechts","22","","","object","j","60","true"
"null","<div style=""font-size:60px;"">+</div>","null","html-keyboard-response","38","49501","0.0-6.0-0.16","FAMI","3","m","rechts","22","","fixation","","","",""
"837","img/60_270.png","74","image-keyboard-response","39","50359","0.0-6.0-1.16","FAMI","3","m","rechts","22","","","object","f","60","false"
"null","<div style=""font-size:60px;"">+</div>","null","html-keyboard-response","40","50767","0.0-6.0-0.17","FAMI","3","m","rechts","22","","fixation","","","",""
"685","img/120_330.png","74","image-keyboard-response","41","51470","0.0-6.0-1.17","FAMI","3","m","rechts","22","","","object","j","120","true"
"null","<div style=""font-size:60px;"">+</div>","null","html-keyboard-response","42","51829","0.0-6.0-0.18","FAMI","3","m","rechts","22","","fixation","","","",""
"829","img/60_150.png","74","image-keyboard-response","43","52676","0.0-6.0-1.18","FAMI","3","m","rechts","22","","","object","j","60","true"
"null","<div style=""font-size:60px;"">+</div>","null","html-keyboard-response","44","53142","0.0-6.0-0.19","FAMI","3","m","rechts","22","","fixation","","","",""
"955","img/L150_180.png","74","image-keyboard-response","45","54114","0.0-6.0-1.19","FAMI","3","m","rechts","22","","","object","j","150","true"
"null","<div style=""font-size:60px;"">+</div>","null","html-keyboard-response","46","54628","0.0-6.0-0.20","FAMI","3","m","rechts","22","","fixation","","","",""
"856","img/30_270.png","70","image-keyboard-response","47","55500","0.0-6.0-1.20","FAMI","3","m","rechts","22","","","object","f","30","true"
"null","<div style=""font-size:60px;"">+</div>","null","html-keyboard-response","48","55924","0.0-6.0-0.21","FAMI","3","m","rechts","22","","fixation","","","",""
"680","img/90_300.png","74","image-keyboard-response","49","56623","0.0-6.0-1.21","FAMI","3","m","rechts","22","","","object","j","90","true"
"null","<div style=""font-size:60px;"">+</div>","null","html-keyboard-response","50","57127","0.0-6.0-0.22","FAMI","3","m","rechts","22","","fixation","","","",""
"661","img/0_300.png","70","image-keyboard-response","51","57806","0.0-6.0-1.22","FAMI","3","m","rechts","22","","","object","f","0","true"
"null","<div style=""font-size:60px;"">+</div>","null","html-keyboard-response","52","58268","0.0-6.0-0.23","FAMI","3","m","rechts","22","","fixation","","","",""
"1465","img/120_210.png","74","image-keyboard-response","53","59752","0.0-6.0-1.23","FAMI","3","m","rechts","22","","","object","f","120","false"
"null","<div style=""font-size:60px;"">+</div>","null","html-keyboard-response","54","60081","0.0-6.0-0.24","FAMI","3","m","rechts","22","","fixation","","","",""
"902","img/30_90.png","74","image-keyboard-response","55","61001","0.0-6.0-1.24","FAMI","3","m","rechts","22","","","object","j","30","true"
"null","<div style=""font-size:60px;"">+</div>","null","html-keyboard-response","56","61362","0.0-6.0-0.25","FAMI","3","m","rechts","22","","fixation","","","",""
"1340","img/150_240.png","74","image-keyboard-response","57","62723","0.0-6.0-1.25","FAMI","3","m","rechts","22","","","object","j","150","true"
"null","<div style=""font-size:60px;"">+</div>","null","html-keyboard-response","58","63139","0.0-6.0-0.26","FAMI","3","m","rechts","22","","fixation","","","",""
"804","img/90_330.png","74","image-keyboard-response","59","63959","0.0-6.0-1.26","FAMI","3","m","rechts","22","","","object","j","90","true"
"null","<div style=""font-size:60px;"">+</div>","null","html-keyboard-response","60","64466","0.0-6.0-0.27","FAMI","3","m","rechts","22","","fixation","","","",""
"1052","img/150_120.png","70","image-keyboard-response","61","65524","0.0-6.0-1.27","FAMI","3","m","rechts","22","","","object","f","150","true"
"null","<div style=""font-size:60px;"">+</div>","null","html-keyboard-response","62","65983","0.0-6.0-0.28","FAMI","3","m","rechts","22","","fixation","","","",""
"1255","img/150_180.png","70","image-keyboard-response","63","67256","0.0-6.0-1.28","FAMI","3","m","rechts","22","","","object","f","150","true"
"null","<div style=""font-size:60px;"">+</div>","null","html-keyboard-response","64","67608","0.0-6.0-0.29","FAMI","3","m","rechts","22","","fixation","","","",""
"1051","img/90_210.png","70","image-keyboard-response","65","68677","0.0-6.0-1.29","FAMI","3","m","rechts","22","","","object","f","90","true"
"null","<div style=""font-size:60px;"">+</div>","null","html-keyboard-response","66","69088","0.0-6.0-0.30","FAMI","3","m","rechts","22","","fixation","","","",""
"747","img/30_240.png","70","image-keyboard-response","67","69853","0.0-6.0-1.30","FAMI","3","m","rechts","22","","","object","f","30","true"
"null","<div style=""font-size:60px;"">+</div>","null","html-keyboard-response","68","70309","0.0-6.0-0.31","FAMI","3","m","rechts","22","","fixation","","","",""
"867","img/120_30.png","70","image-keyboard-response","69","71194","0.0-6.0-1.31","FAMI","3","m","rechts","22","","","object","f","120","true"
"null","<div style=""font-size:60px;"">+</div>","null","html-keyboard-response","70","71653","0.0-6.0-0.32","FAMI","3","m","rechts","22","","fixation","","","",""
"884","img/30_300.png","74","image-keyboard-response","71","72555","0.0-6.0-1.32","FAMI","3","m","rechts","22","","","object","f","30","false"
"null","<div style=""font-size:60px;"">+</div>","null","html-keyboard-response","72","73058","0.0-6.0-0.33","FAMI","3","m","rechts","22","","fixation","","","",""
"718","img/0_330.png","70","image-keyboard-response","73","73793","0.0-6.0-1.33","FAMI","3","m","rechts","22","","","object","f","0","true"
"null","<div style=""font-size:60px;"">+</div>","null","html-keyboard-response","74","74153","0.0-6.0-0.34","FAMI","3","m","rechts","22","","fixation","","","",""
"959","img/120_180.png","70","image-keyboard-response","75","75129","0.0-6.0-1.34","FAMI","3","m","rechts","22","","","object","f","120","true"
"null","<div style=""font-size:60px;"">+</div>","null","html-keyboard-response","76","75544","0.0-6.0-0.35","FAMI","3","m","rechts","22","","fixation","","","",""
"1169","img/60_90.png","70","image-keyboard-response","77","76729","0.0-6.0-1.35","FAMI","3","m","rechts","22","","","object","j","60","false"
"null","<div style=""font-size:60px;"">+</div>","null","html-keyboard-response","78","77042","0.0-6.0-0.36","FAMI","3","m","rechts","22","","fixation","","","",""
"912","img/60_180.png","70","image-keyboard-response","79","77966","0.0-6.0-1.36","FAMI","3","m","rechts","22","","","object","f","60","true"
"null","<div style=""font-size:60px;"">+</div>","null","html-keyboard-response","80","78481","0.0-6.0-0.37","FAMI","3","m","rechts","22","","fixation","","","",""
"716","img/0_60.png","74","image-keyboard-response","81","79204","0.0-6.0-1.37","FAMI","3","m","rechts","22","","","object","j","0","true"
"null","<div style=""font-size:60px;"">+</div>","null","html-keyboard-response","82","79731","0.0-6.0-0.38","FAMI","3","m","rechts","22","","fixation","","","",""
"596","img/0_270.png","70","image-keyboard-response","83","80349","0.0-6.0-1.38","FAMI","3","m","rechts","22","","","object","f","0","true"
"null","<div style=""font-size:60px;"">+</div>","null","html-keyboard-response","84","80762","0.0-6.0-0.39","FAMI","3","m","rechts","22","","fixation","","","",""
"718","img/30_120.png","74","image-keyboard-response","85","81499","0.0-6.0-1.39","FAMI","3","m","rechts","22","","","object","j","30","true"
"null","<div style=""font-size:60px;"">+</div>","null","html-keyboard-response","86","81919","0.0-6.0-0.40","FAMI","3","m","rechts","22","","fixation","","","",""
"687","img/0_240.png","70","image-keyboard-response","87","82623","0.0-6.0-1.40","FAMI","3","m","rechts","22","","","object","f","0","true"
"null","<div style=""font-size:60px;"">+</div>","null","html-keyboard-response","88","83137","0.0-6.0-0.41","FAMI","3","m","rechts","22","","fixation","","","",""
"706","img/L30_180.png","74","image-keyboard-response","89","83861","0.0-6.0-1.41","FAMI","3","m","rechts","22","","","object","j","30","true"
"null","<div style=""font-size:60px;"">+</div>","null","html-keyboard-response","90","84215","0.0-6.0-0.42","FAMI","3","m","rechts","22","","fixation","","","",""
"830","img/120_150.png","70","image-keyboard-response","91","85064","0.0-6.0-1.42","FAMI","3","m","rechts","22","","","object","j","120","false"
"null","<div style=""font-size:60px;"">+</div>","null","html-keyboard-response","92","85575","0.0-6.0-0.43","FAMI","3","m","rechts","22","","fixation","","","",""
"711","img/90_60.png","70","image-keyboard-response","93","86303","0.0-6.0-1.43","FAMI","3","m","rechts","22","","","object","f","90","true"
"null","<div style=""font-size:60px;"">+</div>","null","html-keyboard-response","94","86716","0.0-6.0-0.44","FAMI","3","m","rechts","22","","fixation","","","",""
"684","img/0_150.png","74","image-keyboard-response","95","87417","0.0-6.0-1.44","FAMI","3","m","rechts","22","","","object","j","0","true"
"null","<div style=""font-size:60px;"">+</div>","null","html-keyboard-response","96","87747","0.0-6.0-0.45","FAMI","3","m","rechts","22","","fixation","","","",""
"810","img/90_150.png","74","image-keyboard-response","97","88575","0.0-6.0-1.45","FAMI","3","m","rechts","22","","","object","j","90","true"
"null","<div style=""font-size:60px;"">+</div>","null","html-keyboard-response","98","88951","0.0-6.0-0.46","FAMI","3","m","rechts","22","","fixation","","","",""
"766","img/150_90.png","70","image-keyboard-response","99","89734","0.0-6.0-1.46","FAMI","3","m","rechts","22","","","object","f","150","true"
"null","<div style=""font-size:60px;"">+</div>","null","html-keyboard-response","100","90201","0.0-6.0-0.47","FAMI","3","m","rechts","22","","fixation","","","",""
"1011","img/90_120.png","70","image-keyboard-response","101","91231","0.0-6.0-1.47","FAMI","3","m","rechts","22","","","object","j","90","false"
"null","<div style=""font-size:60px;"">+</div>","null","html-keyboard-response","102","91733","0.0-6.0-0.48","FAMI","3","m","rechts","22","","fixation","","","",""
"889","img/30_180.png","74","image-keyboard-response","103","92636","0.0-6.0-1.48","FAMI","3","m","rechts","22","","","object","f","30","false"
"null","<div style=""font-size:60px;"">+</div>","null","html-keyboard-response","104","93092","0.0-6.0-0.49","FAMI","3","m","rechts","22","","fixation","","","",""
"695","img/90_30.png","70","image-keyboard-response","105","93806","0.0-6.0-1.49","FAMI","3","m","rechts","22","","","object","f","90","true"
"null","<div style=""font-size:60px;"">+</div>","null","html-keyboard-response","106","94324","0.0-6.0-0.50","FAMI","3","m","rechts","22","","fixation","","","",""
"894","img/L120_180.png","74","image-keyboard-response","107","95235","0.0-6.0-1.50","FAMI","3","m","rechts","22","","","object","j","120","true"
"null","<div style=""font-size:60px;"">+</div>","null","html-keyboard-response","108","95745","0.0-6.0-0.51","FAMI","3","m","rechts","22","","fixation","","","",""
"1184","img/30_60.png","74","image-keyboard-response","109","96945","0.0-6.0-1.51","FAMI","3","m","rechts","22","","","object","j","30","true"
"null","<div style=""font-size:60px;"">+</div>","null","html-keyboard-response","110","97401","0.0-6.0-0.52","FAMI","3","m","rechts","22","","fixation","","","",""
"1288","img/120_150.png","74","image-keyboard-response","111","98700","0.0-6.0-1.52","FAMI","3","m","rechts","22","","","object","j","120","true"
"null","<div style=""font-size:60px;"">+</div>","null","html-keyboard-response","112","99171","0.0-6.0-0.53","FAMI","3","m","rechts","22","","fixation","","","",""
"651","img/0_120.png","74","image-keyboard-response","113","99837","0.0-6.0-1.53","FAMI","3","m","rechts","22","","","object","j","0","true"
"null","<div style=""font-size:60px;"">+</div>","null","html-keyboard-response","114","100301","0.0-6.0-0.54","FAMI","3","m","rechts","22","","fixation","","","",""
"916","img/90_240.png","74","image-keyboard-response","115","101232","0.0-6.0-1.54","FAMI","3","m","rechts","22","","","object","f","90","false"
"null","<div style=""font-size:60px;"">+</div>","null","html-keyboard-response","116","101692","0.0-6.0-0.55","FAMI","3","m","rechts","22","","fixation","","","",""
"709","img/L90_180.png","74","image-keyboard-response","117","102413","0.0-6.0-1.55","FAMI","3","m","rechts","22","","","object","j","90","true"
"null","<div style=""font-size:60px;"">+</div>","null","html-keyboard-response","118","102942","0.0-6.0-0.56","FAMI","3","m","rechts","22","","fixation","","","",""
"788","img/150_120.png","70","image-keyboard-response","119","103739","0.0-6.0-1.56","FAMI","3","m","rechts","22","","","object","f","150","true"
"null","<div style=""font-size:60px;"">+</div>","null","html-keyboard-response","120","104109","0.0-6.0-0.57","FAMI","3","m","rechts","22","","fixation","","","",""
"657","img/0_270.png","70","image-keyboard-response","121","104776","0.0-6.0-1.57","FAMI","3","m","rechts","22","","","object","f","0","true"
"null","<div style=""font-size:60px;"">+</div>","null","html-keyboard-response","122","105203","0.0-6.0-0.58","FAMI","3","m","rechts","22","","fixation","","","",""
"865","img/L150_180.png","74","image-keyboard-response","123","106080","0.0-6.0-1.58","FAMI","3","m","rechts","22","","","object","j","150","true"
"null","<div style=""font-size:60px;"">+</div>","null","html-keyboard-response","124","106390","0.0-6.0-0.59","FAMI","3","m","rechts","22","","fixation","","","",""
"825","img/60_270.png","74","image-keyboard-response","125","107229","0.0-6.0-1.59","FAMI","3","m","rechts","22","","","object","f","60","false"
"null","<div style=""font-size:60px;"">+</div>","null","html-keyboard-response","126","107734","0.0-6.0-0.60","FAMI","3","m","rechts","22","","fixation","","","",""
"620","img/0_60.png","74","image-keyboard-response","127","108364","0.0-6.0-1.60","FAMI","3","m","rechts","22","","","object","j","0","true"
"null","<div style=""font-size:60px;"">+</div>","null","html-keyboard-response","128","108718","0.0-6.0-0.61","FAMI","3","m","rechts","22","","fixation","","","",""
"782","img/60_330.png","74","image-keyboard-response","129","109513","0.0-6.0-1.61","FAMI","3","m","rechts","22","","","object","j","60","true"
"null","<div style=""font-size:60px;"">+</div>","null","html-keyboard-response","130","109828","0.0-6.0-0.62","FAMI","3","m","rechts","22","","fixation","","","",""
"1531","img/30_60.png","74","image-keyboard-response","131","111367","0.0-6.0-1.62","FAMI","3","m","rechts","22","","","object","j","30","true"
"null","<div style=""font-size:60px;"">+</div>","null","html-keyboard-response","132","111796","0.0-6.0-0.63","FAMI","3","m","rechts","22","","fixation","","","",""
"699","img/150_90.png","70","image-keyboard-response","133","112505","0.0-6.0-1.63","FAMI","3","m","rechts","22","","","object","f","150","true"
"null","<div style=""font-size:60px;"">+</div>","null","html-keyboard-response","134","112967","0.0-6.0-0.64","FAMI","3","m","rechts","22","","fixation","","","",""
"739","img/150_270.png","74","image-keyboard-response","135","113719","0.0-6.0-1.64","FAMI","3","m","rechts","22","","","object","j","150","true"
"null","<div style=""font-size:60px;"">+</div>","null","html-keyboard-response","136","114048","0.0-6.0-0.65","FAMI","3","m","rechts","22","","fixation","","","",""
"765","img/30_300.png","74","image-keyboard-response","137","114822","0.0-6.0-1.65","FAMI","3","m","rechts","22","","","object","f","30","false"
"null","<div style=""font-size:60px;"">+</div>","null","html-keyboard-response","138","115235","0.0-6.0-0.66","FAMI","3","m","rechts","22","","fixation","","","",""
"1647","img/L30_180.png","74","image-keyboard-response","139","116892","0.0-6.0-1.66","FAMI","3","m","rechts","22","","","object","j","30","true"
"null","<div style=""font-size:60px;"">+</div>","null","html-keyboard-response","140","117202","0.0-6.0-0.67","FAMI","3","m","rechts","22","","fixation","","","",""
"691","img/90_30.png","70","image-keyboard-response","141","117903","0.0-6.0-1.67","FAMI","3","m","rechts","22","","","object","f","90","true"
"null","<div style=""font-size:60px;"">+</div>","null","html-keyboard-response","142","118267","0.0-6.0-0.68","FAMI","3","m","rechts","22","","fixation","","","",""
"648","img/120_330.png","74","image-keyboard-response","143","118928","0.0-6.0-1.68","FAMI","3","m","rechts","22","","","object","j","120","true"
"null","<div style=""font-size:60px;"">+</div>","null","html-keyboard-response","144","119282","0.0-6.0-0.69","FAMI","3","m","rechts","22","","fixation","","","",""
"915","img/90_180.png","70","image-keyboard-response","145","120210","0.0-6.0-1.69","FAMI","3","m","rechts","22","","","object","f","90","true"
"null","<div style=""font-size:60px;"">+</div>","null","html-keyboard-response","146","120563","0.0-6.0-0.70","FAMI","3","m","rechts","22","","fixation","","","",""
"793","img/30_90.png","74","image-keyboard-response","147","121369","0.0-6.0-1.70","FAMI","3","m","rechts","22","","","object","j","30","true"
"null","<div style=""font-size:60px;"">+</div>","null","html-keyboard-response","148","121736","0.0-6.0-0.71","FAMI","3","m","rechts","22","","fixation","","","",""
"747","img/60_90.png","70","image-keyboard-response","149","122492","0.0-6.0-1.71","FAMI","3","m","rechts","22","","","object","j","60","false"
"null","<div style=""font-size:60px;"">+</div>","null","html-keyboard-response","150","122813","0.0-6.0-0.72","FAMI","3","m","rechts","22","","fixation","","","",""
"838","img/30_270.png","74","image-keyboard-response","151","123664","0.0-6.0-1.72","FAMI","3","m","rechts","22","","","object","f","30","false"
"null","<div style=""font-size:60px;"">+</div>","null","html-keyboard-response","152","124031","0.0-6.0-0.73","FAMI","3","m","rechts","22","","fixation","","","",""
"643","img/0_330.png","70","image-keyboard-response","153","124686","0.0-6.0-1.73","FAMI","3","m","rechts","22","","","object","f","0","true"
"null","<div style=""font-size:60px;"">+</div>","null","html-keyboard-response","154","125048","0.0-6.0-0.74","FAMI","3","m","rechts","22","","fixation","","","",""
"1239","img/30_180.png","70","image-keyboard-response","155","126297","0.0-6.0-1.74","FAMI","3","m","rechts","22","","","object","f","30","true"
"null","<div style=""font-size:60px;"">+</div>","null","html-keyboard-response","156","126771","0.0-6.0-0.75","FAMI","3","m","rechts","22","","fixation","","","",""
"728","img/120_90.png","70","image-keyboard-response","157","127512","0.0-6.0-1.75","FAMI","3","m","rechts","22","","","object","f","120","true"
"null","<div style=""font-size:60px;"">+</div>","null","html-keyboard-response","158","127942","0.0-6.0-0.76","FAMI","3","m","rechts","22","","fixation","","","",""
"783","img/60_150.png","74","image-keyboard-response","159","128739","0.0-6.0-1.76","FAMI","3","m","rechts","22","","","object","j","60","true"
"null","<div style=""font-size:60px;"">+</div>","null","html-keyboard-response","160","129252","0.0-6.0-0.77","FAMI","3","m","rechts","22","","fixation","","","",""
"643","img/30_120.png","74","image-keyboard-response","161","129908","0.0-6.0-1.77","FAMI","3","m","rechts","22","","","object","j","30","true"
"null","<div style=""font-size:60px;"">+</div>","null","html-keyboard-response","162","130268","0.0-6.0-0.78","FAMI","3","m","rechts","22","","fixation","","","",""
"659","img/0_90.png","74","image-keyboard-response","163","130943","0.0-6.0-1.78","FAMI","3","m","rechts","22","","","object","j","0","true"
"null","<div style=""font-size:60px;"">+</div>","null","html-keyboard-response","164","131348","0.0-6.0-0.79","FAMI","3","m","rechts","22","","fixation","","","",""
"1146","img/150_180.png","70","image-keyboard-response","165","132507","0.0-6.0-1.79","FAMI","3","m","rechts","22","","","object","f","150","true"
"null","<div style=""font-size:60px;"">+</div>","null","html-keyboard-response","166","132862","0.0-6.0-0.80","FAMI","3","m","rechts","22","","fixation","","","",""
"901","img/90_210.png","74","image-keyboard-response","167","133778","0.0-6.0-1.80","FAMI","3","m","rechts","22","","","object","f","90","false"
"null","<div style=""font-size:60px;"">+</div>","null","html-keyboard-response","168","134284","0.0-6.0-0.81","FAMI","3","m","rechts","22","","fixation","","","",""
"852","img/120_180.png","70","image-keyboard-response","169","135150","0.0-6.0-1.81","FAMI","3","m","rechts","22","","","object","f","120","true"
"null","<div style=""font-size:60px;"">+</div>","null","html-keyboard-response","170","135628","0.0-6.0-0.82","FAMI","3","m","rechts","22","","fixation","","","",""
"825","img/150_300.png","74","image-keyboard-response","171","136465","0.0-6.0-1.82","FAMI","3","m","rechts","22","","","object","j","150","true"
"null","<div style=""font-size:60px;"">+</div>","null","html-keyboard-response","172","136892","0.0-6.0-0.83","FAMI","3","m","rechts","22","","fixation","","","",""
"698","img/0_300.png","70","image-keyboard-response","173","137603","0.0-6.0-1.83","FAMI","3","m","rechts","22","","","object","f","0","true"
"null","<div style=""font-size:60px;"">+</div>","null","html-keyboard-response","174","138111","0.0-6.0-0.84","FAMI","3","m","rechts","22","","fixation","","","",""
"777","img/L120_180.png","74","image-keyboard-response","175","138898","0.0-6.0-1.84","FAMI","3","m","rechts","22","","","object","j","120","true"
"null","<div style=""font-size:60px;"">+</div>","null","html-keyboard-response","176","139301","0.0-6.0-0.85","FAMI","3","m","rechts","22","","fixation","","","",""
"684","img/0_210.png","70","image-keyboard-response","177","140000","0.0-6.0-1.85","FAMI","3","m","rechts","22","","","object","f","0","true"
"null","<div style=""font-size:60px;"">+</div>","null","html-keyboard-response","178","140505","0.0-6.0-0.86","FAMI","3","m","rechts","22","","fixation","","","",""
"1304","img/120_210.png","70","image-keyboard-response","179","141822","0.0-6.0-1.86","FAMI","3","m","rechts","22","","","object","f","120","true"
"null","<div style=""font-size:60px;"">+</div>","null","html-keyboard-response","180","142332","0.0-6.0-0.87","FAMI","3","m","rechts","22","","fixation","","","",""
"1074","img/60_180.png","70","image-keyboard-response","181","143420","0.0-6.0-1.87","FAMI","3","m","rechts","22","","","object","f","60","true"
"null","<div style=""font-size:60px;"">+</div>","null","html-keyboard-response","182","143926","0.0-6.0-0.88","FAMI","3","m","rechts","22","","fixation","","","",""
"698","img/0_150.png","74","image-keyboard-response","183","144634","0.0-6.0-1.88","FAMI","3","m","rechts","22","","","object","j","0","true"
"null","<div style=""font-size:60px;"">+</div>","null","html-keyboard-response","184","145113","0.0-6.0-0.89","FAMI","3","m","rechts","22","","fixation","","","",""
"1115","img/150_240.png","74","image-keyboard-response","185","146243","0.0-6.0-1.89","FAMI","3","m","rechts","22","","","object","j","150","true"
"null","<div style=""font-size:60px;"">+</div>","null","html-keyboard-response","186","146754","0.0-6.0-0.90","FAMI","3","m","rechts","22","","fixation","","","",""
"871","img/L60_180.png","74","image-keyboard-response","187","147637","0.0-6.0-1.90","FAMI","3","m","rechts","22","","","object","j","60","true"
"null","<div style=""font-size:60px;"">+</div>","null","html-keyboard-response","188","148020","0.0-6.0-0.91","FAMI","3","m","rechts","22","","fixation","","","",""
"1225","img/30_240.png","70","image-keyboard-response","189","149258","0.0-6.0-1.91","FAMI","3","m","rechts","22","","","object","f","30","true"
"null","<div style=""font-size:60px;"">+</div>","null","html-keyboard-response","190","149725","0.0-6.0-0.92","FAMI","3","m","rechts","22","","fixation","","","",""
"756","img/60_30.png","70","image-keyboard-response","191","150495","0.0-6.0-1.92","FAMI","3","m","rechts","22","","","object","f","60","true"
"null","<div style=""font-size:60px;"">+</div>","null","html-keyboard-response","192","150959","0.0-6.0-0.93","FAMI","3","m","rechts","22","","fixation","","","",""
"671","img/90_300.png","74","image-keyboard-response","193","151643","0.0-6.0-1.93","FAMI","3","m","rechts","22","","","object","j","90","true"
"null","<div style=""font-size:60px;"">+</div>","null","html-keyboard-response","194","151975","0.0-6.0-0.94","FAMI","3","m","rechts","22","","fixation","","","",""
"1546","img/90_150.png","74","image-keyboard-response","195","153534","0.0-6.0-1.94","FAMI","3","m","rechts","22","","","object","j","90","true"
"null","<div style=""font-size:60px;"">+</div>","null","html-keyboard-response","196","154003","0.0-6.0-0.95","FAMI","3","m","rechts","22","","fixation","","","",""
"832","img/90_120.png","74","image-keyboard-response","197","154850","0.0-6.0-1.95","FAMI","3","m","rechts","22","","","object","j","90","true"
"null","<div style=""font-size:60px;"">+</div>","null","html-keyboard-response","198","155222","0.0-6.0-0.96","FAMI","3","m","rechts","22","","fixation","","","",""
"650","img/120_30.png","70","image-keyboard-response","199","155885","0.0-6.0-1.96","FAMI","3","m","rechts","22","","","object","f","120","true"
"null","<div style=""font-size:60px;"">+</div>","null","html-keyboard-response","200","156190","0.0-6.0-0.97","FAMI","3","m","rechts","22","","fixation","","","",""
"607","img/150_60.png","70","image-keyboard-response","201","156814","0.0-6.0-1.97","FAMI","3","m","rechts","22","","","object","f","150","true"
"null","<div style=""font-size:60px;"">+</div>","null","html-keyboard-response","202","157274","0.0-6.0-0.98","FAMI","3","m","rechts","22","","fixation","","","",""
"651","img/0_240.png","70","image-keyboard-response","203","157939","0.0-6.0-1.98","FAMI","3","m","rechts","22","","","object","f","0","true"
"null","<div style=""font-size:60px;"">+</div>","null","html-keyboard-response","204","158352","0.0-6.0-0.99","FAMI","3","m","rechts","22","","fixation","","","",""
"788","img/120_270.png","74","image-keyboard-response","205","159146","0.0-6.0-1.99","FAMI","3","m","rechts","22","","","object","j","120","true"
"null","<div style=""font-size:60px;"">+</div>","null","html-keyboard-response","206","159478","0.0-6.0-0.100","FAMI","3","m","rechts","22","","fixation","","","",""
"1058","img/60_210.png","70","image-keyboard-response","207","160543","0.0-6.0-1.100","FAMI","3","m","rechts","22","","","object","f","60","true"
"null","<div style=""font-size:60px;"">+</div>","null","html-keyboard-response","208","160946","0.0-6.0-0.101","FAMI","3","m","rechts","22","","fixation","","","",""
"594","img/90_330.png","74","image-keyboard-response","209","161555","0.0-6.0-1.101","FAMI","3","m","rechts","22","","","object","j","90","true"
"null","<div style=""font-size:60px;"">+</div>","null","html-keyboard-response","210","161978","0.0-6.0-0.102","FAMI","3","m","rechts","22","","fixation","","","",""
"677","img/0_30.png","74","image-keyboard-response","211","162669","0.0-6.0-1.102","FAMI","3","m","rechts","22","","","object","j","0","true"
"null","<div style=""font-size:60px;"">+</div>","null","html-keyboard-response","212","162976","0.0-6.0-0.103","FAMI","3","m","rechts","22","","fixation","","","",""
"601","img/90_60.png","70","image-keyboard-response","213","163590","0.0-6.0-1.103","FAMI","3","m","rechts","22","","","object","f","90","true"
"null","<div style=""font-size:60px;"">+</div>","null","html-keyboard-response","214","163947","0.0-6.0-0.104","FAMI","3","m","rechts","22","","fixation","","","",""
"1030","img/30_240.png","70","image-keyboard-response","215","164987","0.0-6.0-1.104","FAMI","3","m","rechts","22","","","object","f","30","true"
"null","<div style=""font-size:60px;"">+</div>","null","html-keyboard-response","216","165400","0.0-6.0-0.105","FAMI","3","m","rechts","22","","fixation","","","",""
"678","img/150_60.png","70","image-keyboard-response","217","166089","0.0-6.0-1.105","FAMI","3","m","rechts","22","","","object","f","150","true"
"null","<div style=""font-size:60px;"">+</div>","null","html-keyboard-response","218","166604","0.0-6.0-0.106","FAMI","3","m","rechts","22","","fixation","","","",""
"1107","img/150_180.png","70","image-keyboard-response","219","167720","0.0-6.0-1.106","FAMI","3","m","rechts","22","","","object","f","150","true"
"null","<div style=""font-size:60px;"">+</div>","null","html-keyboard-response","220","168042","0.0-6.0-0.107","FAMI","3","m","rechts","22","","fixation","","","",""
"1061","img/90_180.png","70","image-keyboard-response","221","169113","0.0-6.0-1.107","FAMI","3","m","rechts","22","","","object","f","90","true"
"null","<div style=""font-size:60px;"">+</div>","null","html-keyboard-response","222","169635","0.0-6.0-0.108","FAMI","3","m","rechts","22","","fixation","","","",""
"625","img/0_60.png","74","image-keyboard-response","223","170272","0.0-6.0-1.108","FAMI","3","m","rechts","22","","","object","j","0","true"
"null","<div style=""font-size:60px;"">+</div>","null","html-keyboard-response","224","170729","0.0-6.0-0.109","FAMI","3","m","rechts","22","","fixation","","","",""
"914","img/30_300.png","70","image-keyboard-response","225","171657","0.0-6.0-1.109","FAMI","3","m","rechts","22","","","object","f","30","true"
"null","<div style=""font-size:60px;"">+</div>","null","html-keyboard-response","226","172072","0.0-6.0-0.110","FAMI","3","m","rechts","22","","fixation","","","",""
"803","img/30_90.png","70","image-keyboard-response","227","172884","0.0-6.0-1.110","FAMI","3","m","rechts","22","","","object","j","30","false"
"null","<div style=""font-size:60px;"">+</div>","null","html-keyboard-response","228","173294","0.0-6.0-0.111","FAMI","3","m","rechts","22","","fixation","","","",""
"780","img/150_270.png","74","image-keyboard-response","229","174087","0.0-6.0-1.111","FAMI","3","m","rechts","22","","","object","j","150","true"
"null","<div style=""font-size:60px;"">+</div>","null","html-keyboard-response","230","174495","0.0-6.0-0.112","FAMI","3","m","rechts","22","","fixation","","","",""
"1240","img/60_180.png","70","image-keyboard-response","231","175741","0.0-6.0-1.112","FAMI","3","m","rechts","22","","","object","f","60","true"
"null","<div style=""font-size:60px;"">+</div>","null","html-keyboard-response","232","176245","0.0-6.0-0.113","FAMI","3","m","rechts","22","","fixation","","","",""
"1544","img/60_210.png","70","image-keyboard-response","233","177798","0.0-6.0-1.113","FAMI","3","m","rechts","22","","","object","f","60","true"
"null","<div style=""font-size:60px;"">+</div>","null","html-keyboard-response","234","178105","0.0-6.0-0.114","FAMI","3","m","rechts","22","","fixation","","","",""
"856","img/90_120.png","74","image-keyboard-response","235","178970","0.0-6.0-1.114","FAMI","3","m","rechts","22","","","object","j","90","true"
"null","<div style=""font-size:60px;"">+</div>","null","html-keyboard-response","236","179401","0.0-6.0-0.115","FAMI","3","m","rechts","22","","fixation","","","",""
"1556","img/150_120.png","74","image-keyboard-response","237","180973","0.0-6.0-1.115","FAMI","3","m","rechts","22","","","object","f","150","false"
"null","<div style=""font-size:60px;"">+</div>","null","html-keyboard-response","238","181495","0.0-6.0-0.116","FAMI","3","m","rechts","22","","fixation","","","",""
"851","img/L120_180.png","74","image-keyboard-response","239","182361","0.0-6.0-1.116","FAMI","3","m","rechts","22","","","object","j","120","true"
"null","<div style=""font-size:60px;"">+</div>","null","html-keyboard-response","240","182668","0.0-6.0-0.117","FAMI","3","m","rechts","22","","fixation","","","",""
"1316","img/60_270.png","74","image-keyboard-response","241","183999","0.0-6.0-1.117","FAMI","3","m","rechts","22","","","object","f","60","false"
"null","<div style=""font-size:60px;"">+</div>","null","html-keyboard-response","242","184310","0.0-6.0-0.118","FAMI","3","m","rechts","22","","fixation","","","",""
"699","img/90_30.png","70","image-keyboard-response","243","185023","0.0-6.0-1.118","FAMI","3","m","rechts","22","","","object","f","90","true"
"null","<div style=""font-size:60px;"">+</div>","null","html-keyboard-response","244","185481","0.0-6.0-0.119","FAMI","3","m","rechts","22","","fixation","","","",""
"768","img/120_270.png","74","image-keyboard-response","245","186260","0.0-6.0-1.119","FAMI","3","m","rechts","22","","","object","j","120","true"
"null","<div style=""font-size:60px;"">+</div>","null","html-keyboard-response","246","186670","0.0-6.0-0.120","FAMI","3","m","rechts","22","","fixation","","","",""
"905","img/120_150.png","70","image-keyboard-response","247","187588","0.0-6.0-1.120","FAMI","3","m","rechts","22","","","object","j","120","false"
"null","<div style=""font-size:60px;"">+</div>","null","html-keyboard-response","248","188047","0.0-6.0-0.121","FAMI","3","m","rechts","22","","fixation","","","",""
"934","img/30_60.png","70","image-keyboard-response","249","188994","0.0-6.0-1.121","FAMI","3","m","rechts","22","","","object","j","30","false"
"null","<div style=""font-size:60px;"">+</div>","null","html-keyboard-response","250","189500","0.0-6.0-0.122","FAMI","3","m","rechts","22","","fixation","","","",""
"644","img/0_120.png","74","image-keyboard-response","251","190152","0.0-6.0-1.122","FAMI","3","m","rechts","22","","","object","j","0","true"
"null","<div style=""font-size:60px;"">+</div>","null","html-keyboard-response","252","190578","0.0-6.0-0.123","FAMI","3","m","rechts","22","","fixation","","","",""
"876","img/90_210.png","70","image-keyboard-response","253","191468","0.0-6.0-1.123","FAMI","3","m","rechts","22","","","object","f","90","true"
"null","<div style=""font-size:60px;"">+</div>","null","html-keyboard-response","254","191924","0.0-6.0-0.124","FAMI","3","m","rechts","22","","fixation","","","",""
"649","img/0_210.png","70","image-keyboard-response","255","192582","0.0-6.0-1.124","FAMI","3","m","rechts","22","","","object","f","0","true"
"null","<div style=""font-size:60px;"">+</div>","null","html-keyboard-response","256","193088","0.0-6.0-0.125","FAMI","3","m","rechts","22","","fixation","","","",""
"652","img/L30_180.png","74","image-keyboard-response","257","193753","0.0-6.0-1.125","FAMI","3","m","rechts","22","","","object","j","30","true"
"null","<div style=""font-size:60px;"">+</div>","null","html-keyboard-response","258","194265","0.0-6.0-0.126","FAMI","3","m","rechts","22","","fixation","","","",""
"588","img/0_90.png","74","image-keyboard-response","259","194867","0.0-6.0-1.126","FAMI","3","m","rechts","22","","","object","j","0","true"
"null","<div style=""font-size:60px;"">+</div>","null","html-keyboard-response","260","195375","0.0-6.0-0.127","FAMI","3","m","rechts","22","","fixation","","","",""
"616","img/60_330.png","74","image-keyboard-response","261","196003","0.0-6.0-1.127","FAMI","3","m","rechts","22","","","object","j","60","true"
"null","<div style=""font-size:60px;"">+</div>","null","html-keyboard-response","262","196360","0.0-6.0-0.128","FAMI","3","m","rechts","22","","fixation","","","",""
"677","img/L150_180.png","70","image-keyboard-response","263","197049","0.0-6.0-1.128","FAMI","3","m","rechts","22","","","object","j","150","false"
"null","<div style=""font-size:60px;"">+</div>","null","html-keyboard-response","264","197452","0.0-6.0-0.129","FAMI","3","m","rechts","22","","fixation","","","",""
"1186","img/60_150.png","74","image-keyboard-response","265","198646","0.0-6.0-1.129","FAMI","3","m","rechts","22","","","object","j","60","true"
"null","<div style=""font-size:60px;"">+</div>","null","html-keyboard-response","266","199159","0.0-6.0-0.130","FAMI","3","m","rechts","22","","fixation","","","",""
"569","img/0_30.png","74","image-keyboard-response","267","199738","0.0-6.0-1.130","FAMI","3","m","rechts","22","","","object","j","0","true"
"null","<div style=""font-size:60px;"">+</div>","null","html-keyboard-response","268","200112","0.0-6.0-0.131","FAMI","3","m","rechts","22","","fixation","","","",""
"851","img/90_240.png","70","image-keyboard-response","269","200976","0.0-6.0-1.131","FAMI","3","m","rechts","22","","","object","f","90","true"
"null","<div style=""font-size:60px;"">+</div>","null","html-keyboard-response","270","201502","0.0-6.0-0.132","FAMI","3","m","rechts","22","","fixation","","","",""
"584","img/0_150.png","74","image-keyboard-response","271","202100","0.0-6.0-1.132","FAMI","3","m","rechts","22","","","object","j","0","true"
"null","<div style=""font-size:60px;"">+</div>","null","html-keyboard-response","272","202565","0.0-6.0-0.133","FAMI","3","m","rechts","22","","fixation","","","",""
"821","img/90_60.png","70","image-keyboard-response","273","203396","0.0-6.0-1.133","FAMI","3","m","rechts","22","","","object","f","90","true"
"null","<div style=""font-size:60px;"">+</div>","null","html-keyboard-response","274","203768","0.0-6.0-0.134","FAMI","3","m","rechts","22","","fixation","","","",""
"560","img/120_30.png","70","image-keyboard-response","275","204337","0.0-6.0-1.134","FAMI","3","m","rechts","22","","","object","f","120","true"
"null","<div style=""font-size:60px;"">+</div>","null","html-keyboard-response","276","204767","0.0-6.0-0.135","FAMI","3","m","rechts","22","","fixation","","","",""
"682","img/60_90.png","74","image-keyboard-response","277","205462","0.0-6.0-1.135","FAMI","3","m","rechts","22","","","object","j","60","true"
"null","<div style=""font-size:60px;"">+</div>","null","html-keyboard-response","278","205892","0.0-6.0-0.136","FAMI","3","m","rechts","22","","fixation","","","",""
"640","img/90_330.png","74","image-keyboard-response","279","206542","0.0-6.0-1.136","FAMI","3","m","rechts","22","","","object","j","90","true"
"null","<div style=""font-size:60px;"">+</div>","null","html-keyboard-response","280","207049","0.0-6.0-0.137","FAMI","3","m","rechts","22","","fixation","","","",""
"1002","img/L90_180.png","74","image-keyboard-response","281","208063","0.0-6.0-1.137","FAMI","3","m","rechts","22","","","object","j","90","true"
"null","<div style=""font-size:60px;"">+</div>","null","html-keyboard-response","282","208486","0.0-6.0-0.138","FAMI","3","m","rechts","22","","fixation","","","",""
"630","img/120_330.png","70","image-keyboard-response","283","209131","0.0-6.0-1.138","FAMI","3","m","rechts","22","","","object","j","120","false"
"null","<div style=""font-size:60px;"">+</div>","null","html-keyboard-response","284","209642","0.0-6.0-0.139","FAMI","3","m","rechts","22","","fixation","","","",""
"779","img/30_270.png","70","image-keyboard-response","285","210435","0.0-6.0-1.139","FAMI","3","m","rechts","22","","","object","f","30","true"
"null","<div style=""font-size:60px;"">+</div>","null","html-keyboard-response","286","210845","0.0-6.0-0.140","FAMI","3","m","rechts","22","","fixation","","","",""
"673","img/90_150.png","74","image-keyboard-response","287","211528","0.0-6.0-1.140","FAMI","3","m","rechts","22","","","object","j","90","true"
"null","<div style=""font-size:60px;"">+</div>","null","html-keyboard-response","288","212002","0.0-6.0-0.141","FAMI","3","m","rechts","22","","fixation","","","",""
"627","img/0_270.png","70","image-keyboard-response","289","212642","0.0-6.0-1.141","FAMI","3","m","rechts","22","","","object","f","0","true"
"null","<div style=""font-size:60px;"">+</div>","null","html-keyboard-response","290","213002","0.0-6.0-0.142","FAMI","3","m","rechts","22","","fixation","","","",""
"661","img/150_300.png","74","image-keyboard-response","291","213678","0.0-6.0-1.142","FAMI","3","m","rechts","22","","","object","j","150","true"
"null","<div style=""font-size:60px;"">+</div>","null","html-keyboard-response","292","214206","0.0-6.0-0.143","FAMI","3","m","rechts","22","","fixation","","","",""
"909","img/30_180.png","74","image-keyboard-response","293","215128","0.0-6.0-1.143","FAMI","3","m","rechts","22","","","object","f","30","false"
"null","<div style=""font-size:60px;"">+</div>","null","html-keyboard-response","294","215643","0.0-6.0-0.144","FAMI","3","m","rechts","22","","fixation","","","",""
"599","img/0_240.png","70","image-keyboard-response","295","216253","0.0-6.0-1.144","FAMI","3","m","rechts","22","","","object","f","0","true"
"null","<div style=""font-size:60px;"">+</div>","null","html-keyboard-response","296","216659","0.0-6.0-0.145","FAMI","3","m","rechts","22","","fixation","","","",""
"650","img/L60_180.png","74","image-keyboard-response","297","217322","0.0-6.0-1.145","FAMI","3","m","rechts","22","","","object","j","60","true"
"null","<div style=""font-size:60px;"">+</div>","null","html-keyboard-response","298","217674","0.0-6.0-0.146","FAMI","3","m","rechts","22","","fixation","","","",""
"788","img/90_300.png","74","image-keyboard-response","299","218468","0.0-6.0-1.146","FAMI","3","m","rechts","22","","","object","j","90","true"
"null","<div style=""font-size:60px;"">+</div>","null","html-keyboard-response","300","218977","0.0-6.0-0.147","FAMI","3","m","rechts","22","","fixation","","","",""
"661","img/0_330.png","70","image-keyboard-response","301","219651","0.0-6.0-1.147","FAMI","3","m","rechts","22","","","object","f","0","true"
"null","<div style=""font-size:60px;"">+</div>","null","html-keyboard-response","302","220165","0.0-6.0-0.148","FAMI","3","m","rechts","22","","fixation","","","",""
"574","img/0_300.png","70","image-keyboard-response","303","220753","0.0-6.0-1.148","FAMI","3","m","rechts","22","","","object","f","0","true"
"null","<div style=""font-size:60px;"">+</div>","null","html-keyboard-response","304","221211","0.0-6.0-0.149","FAMI","3","m","rechts","22","","fixation","","","",""
"666","img/60_30.png","70","image-keyboard-response","305","221891","0.0-6.0-1.149","FAMI","3","m","rechts","22","","","object","f","60","true"
"null","<div style=""font-size:60px;"">+</div>","null","html-keyboard-response","306","222258","0.0-6.0-0.150","FAMI","3","m","rechts","22","","fixation","","","",""
"821","img/150_90.png","70","image-keyboard-response","307","223094","0.0-6.0-1.150","FAMI","3","m","rechts","22","","","object","f","150","true"
"null","<div style=""font-size:60px;"">+</div>","null","html-keyboard-response","308","223601","0.0-6.0-0.151","FAMI","3","m","rechts","22","","fixation","","","",""
"670","img/30_120.png","74","image-keyboard-response","309","224287","0.0-6.0-1.151","FAMI","3","m","rechts","22","","","object","j","30","true"
"null","<div style=""font-size:60px;"">+</div>","null","html-keyboard-response","310","224743","0.0-6.0-0.152","FAMI","3","m","rechts","22","","fixation","","","",""
"913","img/150_240.png","74","image-keyboard-response","311","225670","0.0-6.0-1.152","FAMI","3","m","rechts","22","","","object","j","150","true"
"null","<div style=""font-size:60px;"">+</div>","null","html-keyboard-response","312","226148","0.0-6.0-0.153","FAMI","3","m","rechts","22","","fixation","","","",""
"1050","img/120_180.png","70","image-keyboard-response","313","227211","0.0-6.0-1.153","FAMI","3","m","rechts","22","","","object","f","120","true"
"null","<div style=""font-size:60px;"">+</div>","null","html-keyboard-response","314","227694","0.0-6.0-0.154","FAMI","3","m","rechts","22","","fixation","","","",""
"751","img/120_210.png","70","image-keyboard-response","315","228459","0.0-6.0-1.154","FAMI","3","m","rechts","22","","","object","f","120","true"
"null","<div style=""font-size:60px;"">+</div>","null","html-keyboard-response","316","228979","0.0-6.0-0.155","FAMI","3","m","rechts","22","","fixation","","","",""
"840","img/120_90.png","70","image-keyboard-response","317","229833","0.0-6.0-1.155","FAMI","3","m","rechts","22","","","object","f","120","true"
"null","<div style=""font-size:60px;"">+</div>","null","html-keyboard-response","318","230211","0.0-6.0-0.156","FAMI","3","m","rechts","22","","fixation","","","",""
"998","img/60_90.png","74","image-keyboard-response","319","231216","0.0-6.0-1.156","FAMI","3","m","rechts","22","","","object","j","60","true"
"null","<div style=""font-size:60px;"">+</div>","null","html-keyboard-response","320","231743","0.0-6.0-0.157","FAMI","3","m","rechts","22","","fixation","","","",""
"947","img/150_240.png","74","image-keyboard-response","321","232700","0.0-6.0-1.157","FAMI","3","m","rechts","22","","","object","j","150","true"
"null","<div style=""font-size:60px;"">+</div>","null","html-keyboard-response","322","233008","0.0-6.0-0.158","FAMI","3","m","rechts","22","","fixation","","","",""
"848","img/90_180.png","70","image-keyboard-response","323","233870","0.0-6.0-1.158","FAMI","3","m","rechts","22","","","object","f","90","true"
"null","<div style=""font-size:60px;"">+</div>","null","html-keyboard-response","324","234291","0.0-6.0-0.159","FAMI","3","m","rechts","22","","fixation","","","",""
"974","img/90_150.png","74","image-keyboard-response","325","235276","0.0-6.0-1.159","FAMI","3","m","rechts","22","","","object","j","90","true"
"null","<div style=""font-size:60px;"">+</div>","null","html-keyboard-response","326","235697","0.0-6.0-0.160","FAMI","3","m","rechts","22","","fixation","","","",""
"816","img/30_90.png","74","image-keyboard-response","327","236526","0.0-6.0-1.160","FAMI","3","m","rechts","22","","","object","j","30","true"
"null","<div style=""font-size:60px;"">+</div>","null","html-keyboard-response","328","236978","0.0-6.0-0.161","FAMI","3","m","rechts","22","","fixation","","","",""
"658","img/0_30.png","74","image-keyboard-response","329","237651","0.0-6.0-1.161","FAMI","3","m","rechts","22","","","object","j","0","true"
"null","<div style=""font-size:60px;"">+</div>","null","html-keyboard-response","330","238119","0.0-6.0-0.162","FAMI","3","m","rechts","22","","fixation","","","",""
"1196","img/120_210.png","70","image-keyboard-response","331","239325","0.0-6.0-1.162","FAMI","3","m","rechts","22","","","object","f","120","true"
"null","<div style=""font-size:60px;"">+</div>","null","html-keyboard-response","332","239650","0.0-6.0-0.163","FAMI","3","m","rechts","22","","fixation","","","",""
"803","img/60_30.png","70","image-keyboard-response","333","240464","0.0-6.0-1.163","FAMI","3","m","rechts","22","","","object","f","60","true"
"null","<div style=""font-size:60px;"">+</div>","null","html-keyboard-response","334","240775","0.0-6.0-0.164","FAMI","3","m","rechts","22","","fixation","","","",""
"747","img/L60_180.png","74","image-keyboard-response","335","241532","0.0-6.0-1.164","FAMI","3","m","rechts","22","","","object","j","60","true"
"null","<div style=""font-size:60px;"">+</div>","null","html-keyboard-response","336","242040","0.0-6.0-0.165","FAMI","3","m","rechts","22","","fixation","","","",""
"911","img/L150_180.png","74","image-keyboard-response","337","242961","0.0-6.0-1.165","FAMI","3","m","rechts","22","","","object","j","150","true"
"null","<div style=""font-size:60px;"">+</div>","null","html-keyboard-response","338","243479","0.0-6.0-0.166","FAMI","3","m","rechts","22","","fixation","","","",""
"664","img/90_300.png","74","image-keyboard-response","339","244153","0.0-6.0-1.166","FAMI","3","m","rechts","22","","","object","j","90","true"
"null","<div style=""font-size:60px;"">+</div>","null","html-keyboard-response","340","244604","0.0-6.0-0.167","FAMI","3","m","rechts","22","","fixation","","","",""
"667","img/0_300.png","70","image-keyboard-response","341","245279","0.0-6.0-1.167","FAMI","3","m","rechts","22","","","object","f","0","true"
"null","<div style=""font-size:60px;"">+</div>","null","html-keyboard-response","342","245698","0.0-6.0-0.168","FAMI","3","m","rechts","22","","fixation","","","",""
"1639","img/90_210.png","70","image-keyboard-response","343","247347","0.0-6.0-1.168","FAMI","3","m","rechts","22","","","object","f","90","true"
"null","<div style=""font-size:60px;"">+</div>","null","html-keyboard-response","344","247807","0.0-6.0-0.169","FAMI","3","m","rechts","22","","fixation","","","",""
"720","img/120_150.png","74","image-keyboard-response","345","248542","0.0-6.0-1.169","FAMI","3","m","rechts","22","","","object","j","120","true"
"null","<div style=""font-size:60px;"">+</div>","null","html-keyboard-response","346","248963","0.0-6.0-0.170","FAMI","3","m","rechts","22","","fixation","","","",""
"624","img/0_240.png","70","image-keyboard-response","347","249597","0.0-6.0-1.170","FAMI","3","m","rechts","22","","","object","f","0","true"
"null","<div style=""font-size:60px;"">+</div>","null","html-keyboard-response","348","250057","0.0-6.0-0.171","FAMI","3","m","rechts","22","","fixation","","","",""
"589","img/0_330.png","70","image-keyboard-response","349","250656","0.0-6.0-1.171","FAMI","3","m","rechts","22","","","object","f","0","true"
"null","<div style=""font-size:60px;"">+</div>","null","html-keyboard-response","350","251139","0.0-6.0-0.172","FAMI","3","m","rechts","22","","fixation","","","",""
"667","img/90_30.png","70","image-keyboard-response","351","251821","0.0-6.0-1.172","FAMI","3","m","rechts","22","","","object","f","90","true"
"null","<div style=""font-size:60px;"">+</div>","null","html-keyboard-response","352","252330","0.0-6.0-0.173","FAMI","3","m","rechts","22","","fixation","","","",""
"607","img/0_60.png","74","image-keyboard-response","353","252951","0.0-6.0-1.173","FAMI","3","m","rechts","22","","","object","j","0","true"
"null","<div style=""font-size:60px;"">+</div>","null","html-keyboard-response","354","253465","0.0-6.0-0.174","FAMI","3","m","rechts","22","","fixation","","","",""
"1396","img/60_210.png","70","image-keyboard-response","355","254875","0.0-6.0-1.174","FAMI","3","m","rechts","22","","","object","f","60","true"
"null","<div style=""font-size:60px;"">+</div>","null","html-keyboard-response","356","255230","0.0-6.0-0.175","FAMI","3","m","rechts","22","","fixation","","","",""
"1154","img/L90_180.png","74","image-keyboard-response","357","256394","0.0-6.0-1.175","FAMI","3","m","rechts","22","","","object","j","90","true"
"null","<div style=""font-size:60px;"">+</div>","null","html-keyboard-response","358","256808","0.0-6.0-0.176","FAMI","3","m","rechts","22","","fixation","","","",""
"1013","img/30_240.png","70","image-keyboard-response","359","257835","0.0-6.0-1.176","FAMI","3","m","rechts","22","","","object","f","30","true"
"null","<div style=""font-size:60px;"">+</div>","null","html-keyboard-response","360","258341","0.0-6.0-0.177","FAMI","3","m","rechts","22","","fixation","","","",""
"639","img/60_330.png","74","image-keyboard-response","361","258990","0.0-6.0-1.177","FAMI","3","m","rechts","22","","","object","j","60","true"
"null","<div style=""font-size:60px;"">+</div>","null","html-keyboard-response","362","259498","0.0-6.0-0.178","FAMI","3","m","rechts","22","","fixation","","","",""
"811","img/30_120.png","74","image-keyboard-response","363","260321","0.0-6.0-1.178","FAMI","3","m","rechts","22","","","object","j","30","true"
"null","<div style=""font-size:60px;"">+</div>","null","html-keyboard-response","364","260701","0.0-6.0-0.179","FAMI","3","m","rechts","22","","fixation","","","",""
"719","img/90_60.png","70","image-keyboard-response","365","261433","0.0-6.0-1.179","FAMI","3","m","rechts","22","","","object","f","90","true"
"null","<div style=""font-size:60px;"">+</div>","null","html-keyboard-response","366","261966","0.0-6.0-0.180","FAMI","3","m","rechts","22","","fixation","","","",""
"631","img/0_210.png","70","image-keyboard-response","367","262613","0.0-6.0-1.180","FAMI","3","m","rechts","22","","","object","f","0","true"
"null","<div style=""font-size:60px;"">+</div>","null","html-keyboard-response","368","262966","0.0-6.0-0.181","FAMI","3","m","rechts","22","","fixation","","","",""
"951","img/150_180.png","74","image-keyboard-response","369","263931","0.0-6.0-1.181","FAMI","3","m","rechts","22","","","object","f","150","false"
"null","<div style=""font-size:60px;"">+</div>","null","html-keyboard-response","370","264403","0.0-6.0-0.182","FAMI","3","m","rechts","22","","fixation","","","",""
"846","img/90_240.png","74","image-keyboard-response","371","265259","0.0-6.0-1.182","FAMI","3","m","rechts","22","","","object","f","90","false"
"null","<div style=""font-size:60px;"">+</div>","null","html-keyboard-response","372","265731","0.0-6.0-0.183","FAMI","3","m","rechts","22","","fixation","","","",""
"639","img/90_330.png","74","image-keyboard-response","373","266383","0.0-6.0-1.183","FAMI","3","m","rechts","22","","","object","j","90","true"
"null","<div style=""font-size:60px;"">+</div>","null","html-keyboard-response","374","266841","0.0-6.0-0.184","FAMI","3","m","rechts","22","","fixation","","","",""
"743","img/150_60.png","70","image-keyboard-response","375","267599","0.0-6.0-1.184","FAMI","3","m","rechts","22","","","object","f","150","true"
"null","<div style=""font-size:60px;"">+</div>","null","html-keyboard-response","376","268119","0.0-6.0-0.185","FAMI","3","m","rechts","22","","fixation","","","",""
"658","img/0_150.png","74","image-keyboard-response","377","268791","0.0-6.0-1.185","FAMI","3","m","rechts","22","","","object","j","0","true"
"null","<div style=""font-size:60px;"">+</div>","null","html-keyboard-response","378","269155","0.0-6.0-0.186","FAMI","3","m","rechts","22","","fixation","","","",""
"702","img/60_270.png","74","image-keyboard-response","379","269871","0.0-6.0-1.186","FAMI","3","m","rechts","22","","","object","f","60","false"
"null","<div style=""font-size:60px;"">+</div>","null","html-keyboard-response","380","270374","0.0-6.0-0.187","FAMI","3","m","rechts","22","","fixation","","","",""
"679","img/150_300.png","74","image-keyboard-response","381","271064","0.0-6.0-1.187","FAMI","3","m","rechts","22","","","object","j","150","true"
"null","<div style=""font-size:60px;"">+</div>","null","html-keyboard-response","382","271421","0.0-6.0-0.188","FAMI","3","m","rechts","22","","fixation","","","",""
"642","img/0_90.png","74","image-keyboard-response","383","272076","0.0-6.0-1.188","FAMI","3","m","rechts","22","","","object","j","0","true"
"null","<div style=""font-size:60px;"">+</div>","null","html-keyboard-response","384","272484","0.0-6.0-0.189","FAMI","3","m","rechts","22","","fixation","","","",""
"1291","img/30_180.png","70","image-keyboard-response","385","273787","0.0-6.0-1.189","FAMI","3","m","rechts","22","","","object","f","30","true"
"null","<div style=""font-size:60px;"">+</div>","null","html-keyboard-response","386","274296","0.0-6.0-0.190","FAMI","3","m","rechts","22","","fixation","","","",""
"690","img/120_30.png","70","image-keyboard-response","387","275002","0.0-6.0-1.190","FAMI","3","m","rechts","22","","","object","f","120","true"
"null","<div style=""font-size:60px;"">+</div>","null","html-keyboard-response","388","275312","0.0-6.0-0.191","FAMI","3","m","rechts","22","","fixation","","","",""
"647","img/120_90.png","70","image-keyboard-response","389","275969","0.0-6.0-1.191","FAMI","3","m","rechts","22","","","object","f","120","true"
"null","<div style=""font-size:60px;"">+</div>","null","html-keyboard-response","390","276280","0.0-6.0-0.192","FAMI","3","m","rechts","22","","fixation","","","",""
"1405","img/150_120.png","70","image-keyboard-response","391","277699","0.0-6.0-1.192","FAMI","3","m","rechts","22","","","object","f","150","true"
"null","<div style=""font-size:60px;"">+</div>","null","html-keyboard-response","392","278061","0.0-6.0-0.193","FAMI","3","m","rechts","22","","fixation","","","",""
"996","img/30_270.png","70","image-keyboard-response","393","279063","0.0-6.0-1.193","FAMI","3","m","rechts","22","","","object","f","30","true"
"null","<div style=""font-size:60px;"">+</div>","null","html-keyboard-response","394","279437","0.0-6.0-0.194","FAMI","3","m","rechts","22","","fixation","","","",""
"724","img/150_270.png","74","image-keyboard-response","395","280176","0.0-6.0-1.194","FAMI","3","m","rechts","22","","","object","j","150","true"
"null","<div style=""font-size:60px;"">+</div>","null","html-keyboard-response","396","280688","0.0-6.0-0.195","FAMI","3","m","rechts","22","","fixation","","","",""
"656","img/0_120.png","74","image-keyboard-response","397","281357","0.0-6.0-1.195","FAMI","3","m","rechts","22","","","object","j","0","true"
"null","<div style=""font-size:60px;"">+</div>","null","html-keyboard-response","398","281675","0.0-6.0-0.196","FAMI","3","m","rechts","22","","fixation","","","",""
"647","img/0_270.png","70","image-keyboard-response","399","282337","0.0-6.0-1.196","FAMI","3","m","rechts","22","","","object","f","0","true"
"null","<div style=""font-size:60px;"">+</div>","null","html-keyboard-response","400","282643","0.0-6.0-0.197","FAMI","3","m","rechts","22","","fixation","","","",""
"873","img/60_150.png","74","image-keyboard-response","401","283529","0.0-6.0-1.197","FAMI","3","m","rechts","22","","","object","j","60","true"
"null","<div style=""font-size:60px;"">+</div>","null","html-keyboard-response","402","284047","0.0-6.0-0.198","FAMI","3","m","rechts","22","","fixation","","","",""
"1213","img/120_270.png","74","image-keyboard-response","403","285273","0.0-6.0-1.198","FAMI","3","m","rechts","22","","","object","j","120","true"
"null","<div style=""font-size:60px;"">+</div>","null","html-keyboard-response","404","285579","0.0-6.0-0.199","FAMI","3","m","rechts","22","","fixation","","","",""
"747","img/30_300.png","70","image-keyboard-response","405","286342","0.0-6.0-1.199","FAMI","3","m","rechts","22","","","object","f","30","true"
"null","<div style=""font-size:60px;"">+</div>","null","html-keyboard-response","406","286798","0.0-6.0-0.200","FAMI","3","m","rechts","22","","fixation","","","",""
"566","img/120_330.png","74","image-keyboard-response","407","287378","0.0-6.0-1.200","FAMI","3","m","rechts","22","","","object","j","120","true"
"null","<div style=""font-size:60px;"">+</div>","null","html-keyboard-response","408","287812","0.0-6.0-0.201","FAMI","3","m","rechts","22","","fixation","","","",""
"978","img/90_120.png","70","image-keyboard-response","409","288805","0.0-6.0-1.201","FAMI","3","m","rechts","22","","","object","j","90","false"
"null","<div style=""font-size:60px;"">+</div>","null","html-keyboard-response","410","289314","0.0-6.0-0.202","FAMI","3","m","rechts","22","","fixation","","","",""
"1582","img/L30_180.png","74","image-keyboard-response","411","290911","0.0-6.0-1.202","FAMI","3","m","rechts","22","","","object","j","30","true"
"null","<div style=""font-size:60px;"">+</div>","null","html-keyboard-response","412","291221","0.0-6.0-0.203","FAMI","3","m","rechts","22","","fixation","","","",""
"1034","img/L120_180.png","74","image-keyboard-response","413","292270","0.0-6.0-1.203","FAMI","3","m","rechts","22","","","object","j","120","true"
"null","<div style=""font-size:60px;"">+</div>","null","html-keyboard-response","414","292751","0.0-6.0-0.204","FAMI","3","m","rechts","22","","fixation","","","",""
"945","img/30_60.png","74","image-keyboard-response","415","293711","0.0-6.0-1.204","FAMI","3","m","rechts","22","","","object","j","30","true"
"null","<div style=""font-size:60px;"">+</div>","null","html-keyboard-response","416","294017","0.0-6.0-0.205","FAMI","3","m","rechts","22","","fixation","","","",""
"1175","img/60_180.png","70","image-keyboard-response","417","295206","0.0-6.0-1.205","FAMI","3","m","rechts","22","","","object","f","60","true"
"null","<div style=""font-size:60px;"">+</div>","null","html-keyboard-response","418","295580","0.0-6.0-0.206","FAMI","3","m","rechts","22","","fixation","","","",""
"682","img/120_180.png","70","image-keyboard-response","419","296276","0.0-6.0-1.206","FAMI","3","m","rechts","22","","","object","f","120","true"
"null","<div style=""font-size:60px;"">+</div>","null","html-keyboard-response","420","296657","0.0-6.0-0.207","FAMI","3","m","rechts","22","","fixation","","","",""
"1304","img/150_90.png","70","image-keyboard-response","421","297974","0.0-6.0-1.207","FAMI","3","m","rechts","22","","","object","f","150","true"
"10952","<p>Du hast in 85% der Versuche korrekt entschieden.</p><p>Deine durchschnittliche Reaktionszeit war  841ms.</p><p>Dr&uuml;cke eine beliebige Taste, um die Session zu beenden. Vielen Dank!</p>","32","html-keyboard-response","422","308932","0.0-7.0","FAMI","3","m","rechts","22","","","","","",""
