"rt","stimulus","key_press","trial_type","trial_index","time_elapsed","internal_node_id","subject","session","sex","handedness","age","responses","test_part","condition","correct_response","angle","correct"
"1285","<p>Mental Rotation Experiment.</p> <p>Dr&uuml;cke eine beliebige Taste, um anzufangen.</p>","13","html-keyboard-response","0","1301","0.0-0.0","FAMI","1","m","rechts","22","","","","","",""
"15265","","","survey-text","1","16568","0.0-1.0","FAMI","1","m","rechts","22","{""Q0"":""FAMI""}","","","","",""
"2574","","","survey-text","2","19144","0.0-2.0","FAMI","1","m","rechts","22","{""Q0"":""1""}","","","","",""
"2252","","","survey-multi-choice","3","21403","0.0-3.0","FAMI","1","m","rechts","22","{""Q0"":""m"",""Q1"":""rechts""}","","","","",""
"1988","","","survey-text","4","23395","0.0-4.0","FAMI","1","m","rechts","22","{""Q0"":""22""}","","","","",""
"11061","<p>Stell dir vor, dass du vor einem runden Tisch stehst, auf dem sich ein blauer Ball am Tischrand befindet. Entlang des Tischrands ist jeweils ein verschieden langer Pfeil. Nun bleibst du an deinem Platz vor dem Tisch und rotierst den Tisch entlang des Pfeils (gleiche Richtung und Länge). </p> <img src='img/30_180.png'></img> <br><p> Nachdem du diese (vorgestellte) Rotation durchgef&uuml;hrt hast, schau in Richtung der Tischmitte, und entscheide dann, ob der Ball links oder rechts von dir liegt.</p> <p>Dr&uuml;cke die <strong>'f'</strong>-Taste f&uuml;r links, die <strong>'j'</strong>-Taste f&uuml;r rechts.</p><br><p> Das Bild wird jeweils 1 Sekunde lang pr&auml;sentiert. Du hast 3 Sekunden Zeit eine Entscheidung zu treffen.</p>","70","html-keyboard-response","5","34462","0.0-5.0","FAMI","1","m","rechts","22","","","","","",""
"null","<div style=""font-size:60px;"">+</div>","null","html-keyboard-response","6","35897","0.0-6.0-0.0","FAMI","1","m","rechts","22","","fixation","","","",""
"1657","img/60_90.png","70","image-keyboard-response","7","37574","0.0-6.0-1.0","FAMI","1","m","rechts","22","","","object","j","60","false"
"null","<div style=""font-size:60px;"">+</div>","null","html-keyboard-response","8","38038","0.0-6.0-0.1","FAMI","1","m","rechts","22","","fixation","","","",""
"996","img/120_30.png","70","image-keyboard-response","9","39053","0.0-6.0-1.1","FAMI","1","m","rechts","22","","","object","f","120","true"
"null","<div style=""font-size:60px;"">+</div>","null","html-keyboard-response","10","39475","0.0-6.0-0.2","FAMI","1","m","rechts","22","","fixation","","","",""
"1594","img/120_180.png","70","image-keyboard-response","11","41088","0.0-6.0-1.2","FAMI","1","m","rechts","22","","","object","f","120","true"
"null","<div style=""font-size:60px;"">+</div>","null","html-keyboard-response","12","41601","0.0-6.0-0.3","FAMI","1","m","rechts","22","","fixation","","","",""
"1032","img/90_150.png","74","image-keyboard-response","13","42652","0.0-6.0-1.3","FAMI","1","m","rechts","22","","","object","j","90","true"
"null","<div style=""font-size:60px;"">+</div>","null","html-keyboard-response","14","42976","0.0-6.0-0.4","FAMI","1","m","rechts","22","","fixation","","","",""
"978","img/90_330.png","74","image-keyboard-response","15","43959","0.0-6.0-1.4","FAMI","1","m","rechts","22","","","object","j","90","true"
"null","<div style=""font-size:60px;"">+</div>","null","html-keyboard-response","16","44383","0.0-6.0-0.5","FAMI","1","m","rechts","22","","fixation","","","",""
"728","img/120_330.png","74","image-keyboard-response","17","45128","0.0-6.0-1.5","FAMI","1","m","rechts","22","","","object","j","120","true"
"null","<div style=""font-size:60px;"">+</div>","null","html-keyboard-response","18","45553","0.0-6.0-0.6","FAMI","1","m","rechts","22","","fixation","","","",""
"918","img/0_150.png","74","image-keyboard-response","19","46488","0.0-6.0-1.6","FAMI","1","m","rechts","22","","","object","j","0","true"
"null","<div style=""font-size:60px;"">+</div>","null","html-keyboard-response","20","46912","0.0-6.0-0.7","FAMI","1","m","rechts","22","","fixation","","","",""
"1737","img/120_150.png","74","image-keyboard-response","21","48670","0.0-6.0-1.7","FAMI","1","m","rechts","22","","","object","j","120","true"
"null","<div style=""font-size:60px;"">+</div>","null","html-keyboard-response","22","49132","0.0-6.0-0.8","FAMI","1","m","rechts","22","","fixation","","","",""
"790","img/60_150.png","74","image-keyboard-response","23","49941","0.0-6.0-1.8","FAMI","1","m","rechts","22","","","object","j","60","true"
"null","<div style=""font-size:60px;"">+</div>","null","html-keyboard-response","24","50367","0.0-6.0-0.9","FAMI","1","m","rechts","22","","fixation","","","",""
"940","img/30_240.png","70","image-keyboard-response","25","51327","0.0-6.0-1.9","FAMI","1","m","rechts","22","","","object","f","30","true"
"null","<div style=""font-size:60px;"">+</div>","null","html-keyboard-response","26","51790","0.0-6.0-0.10","FAMI","1","m","rechts","22","","fixation","","","",""
"766","img/30_300.png","70","image-keyboard-response","27","52574","0.0-6.0-1.10","FAMI","1","m","rechts","22","","","object","f","30","true"
"null","<div style=""font-size:60px;"">+</div>","null","html-keyboard-response","28","53040","0.0-6.0-0.11","FAMI","1","m","rechts","22","","fixation","","","",""
"1702","img/L150_180.png","74","image-keyboard-response","29","54759","0.0-6.0-1.11","FAMI","1","m","rechts","22","","","object","j","150","true"
"null","<div style=""font-size:60px;"">+</div>","null","html-keyboard-response","30","55166","0.0-6.0-0.12","FAMI","1","m","rechts","22","","fixation","","","",""
"1627","img/30_180.png","70","image-keyboard-response","31","56807","0.0-6.0-1.12","FAMI","1","m","rechts","22","","","object","f","30","true"
"null","<div style=""font-size:60px;"">+</div>","null","html-keyboard-response","32","57137","0.0-6.0-0.13","FAMI","1","m","rechts","22","","fixation","","","",""
"1156","img/0_60.png","74","image-keyboard-response","33","58313","0.0-6.0-1.13","FAMI","1","m","rechts","22","","","object","j","0","true"
"null","<div style=""font-size:60px;"">+</div>","null","html-keyboard-response","34","58621","0.0-6.0-0.14","FAMI","1","m","rechts","22","","fixation","","","",""
"965","img/0_210.png","70","image-keyboard-response","35","59607","0.0-6.0-1.14","FAMI","1","m","rechts","22","","","object","f","0","true"
"null","<div style=""font-size:60px;"">+</div>","null","html-keyboard-response","36","60027","0.0-6.0-0.15","FAMI","1","m","rechts","22","","fixation","","","",""
"1986","img/30_60.png","74","image-keyboard-response","37","62031","0.0-6.0-1.15","FAMI","1","m","rechts","22","","","object","j","30","true"
"null","<div style=""font-size:60px;"">+</div>","null","html-keyboard-response","38","62449","0.0-6.0-0.16","FAMI","1","m","rechts","22","","fixation","","","",""
"1659","img/30_270.png","74","image-keyboard-response","39","64129","0.0-6.0-1.16","FAMI","1","m","rechts","22","","","object","f","30","false"
"null","<div style=""font-size:60px;"">+</div>","null","html-keyboard-response","40","64637","0.0-6.0-0.17","FAMI","1","m","rechts","22","","fixation","","","",""
"2587","img/L60_180.png","70","image-keyboard-response","41","67240","0.0-6.0-1.17","FAMI","1","m","rechts","22","","","object","j","60","false"
"null","<div style=""font-size:60px;"">+</div>","null","html-keyboard-response","42","67657","0.0-6.0-0.18","FAMI","1","m","rechts","22","","fixation","","","",""
"1415","img/90_120.png","70","image-keyboard-response","43","69090","0.0-6.0-1.18","FAMI","1","m","rechts","22","","","object","j","90","false"
"null","<div style=""font-size:60px;"">+</div>","null","html-keyboard-response","44","69461","0.0-6.0-0.19","FAMI","1","m","rechts","22","","fixation","","","",""
"1450","img/60_270.png","74","image-keyboard-response","45","70925","0.0-6.0-1.19","FAMI","1","m","rechts","22","","","object","f","60","false"
"null","<div style=""font-size:60px;"">+</div>","null","html-keyboard-response","46","71453","0.0-6.0-0.20","FAMI","1","m","rechts","22","","fixation","","","",""
"870","img/90_300.png","74","image-keyboard-response","47","72341","0.0-6.0-1.20","FAMI","1","m","rechts","22","","","object","j","90","true"
"null","<div style=""font-size:60px;"">+</div>","null","html-keyboard-response","48","72657","0.0-6.0-0.21","FAMI","1","m","rechts","22","","fixation","","","",""
"1007","img/0_30.png","74","image-keyboard-response","49","73682","0.0-6.0-1.21","FAMI","1","m","rechts","22","","","object","j","0","true"
"null","<div style=""font-size:60px;"">+</div>","null","html-keyboard-response","50","74063","0.0-6.0-0.22","FAMI","1","m","rechts","22","","fixation","","","",""
"1580","img/90_180.png","70","image-keyboard-response","51","75661","0.0-6.0-1.22","FAMI","1","m","rechts","22","","","object","f","90","true"
"null","<div style=""font-size:60px;"">+</div>","null","html-keyboard-response","52","76111","0.0-6.0-0.23","FAMI","1","m","rechts","22","","fixation","","","",""
"1186","img/90_30.png","70","image-keyboard-response","53","77315","0.0-6.0-1.23","FAMI","1","m","rechts","22","","","object","f","90","true"
"null","<div style=""font-size:60px;"">+</div>","null","html-keyboard-response","54","77689","0.0-6.0-0.24","FAMI","1","m","rechts","22","","fixation","","","",""
"1060","img/150_60.png","70","image-keyboard-response","55","78765","0.0-6.0-1.24","FAMI","1","m","rechts","22","","","object","f","150","true"
"null","<div style=""font-size:60px;"">+</div>","null","html-keyboard-response","56","79094","0.0-6.0-0.25","FAMI","1","m","rechts","22","","fixation","","","",""
"2143","img/90_240.png","74","image-keyboard-response","57","81258","0.0-6.0-1.25","FAMI","1","m","rechts","22","","","object","f","90","false"
"null","<div style=""font-size:60px;"">+</div>","null","html-keyboard-response","58","81660","0.0-6.0-0.26","FAMI","1","m","rechts","22","","fixation","","","",""
"732","img/120_270.png","74","image-keyboard-response","59","82410","0.0-6.0-1.26","FAMI","1","m","rechts","22","","","object","j","120","true"
"null","<div style=""font-size:60px;"">+</div>","null","html-keyboard-response","60","82769","0.0-6.0-0.27","FAMI","1","m","rechts","22","","fixation","","","",""
"1580","img/150_180.png","70","image-keyboard-response","61","84369","0.0-6.0-1.27","FAMI","1","m","rechts","22","","","object","f","150","true"
"null","<div style=""font-size:60px;"">+</div>","null","html-keyboard-response","62","84722","0.0-6.0-0.28","FAMI","1","m","rechts","22","","fixation","","","",""
"731","img/60_330.png","74","image-keyboard-response","63","85471","0.0-6.0-1.28","FAMI","1","m","rechts","22","","","object","j","60","true"
"null","<div style=""font-size:60px;"">+</div>","null","html-keyboard-response","64","85800","0.0-6.0-0.29","FAMI","1","m","rechts","22","","fixation","","","",""
"1792","img/150_120.png","70","image-keyboard-response","65","87609","0.0-6.0-1.29","FAMI","1","m","rechts","22","","","object","f","150","true"
"null","<div style=""font-size:60px;"">+</div>","null","html-keyboard-response","66","87933","0.0-6.0-0.30","FAMI","1","m","rechts","22","","fixation","","","",""
"759","img/0_120.png","74","image-keyboard-response","67","88711","0.0-6.0-1.30","FAMI","1","m","rechts","22","","","object","j","0","true"
"null","<div style=""font-size:60px;"">+</div>","null","html-keyboard-response","68","89181","0.0-6.0-0.31","FAMI","1","m","rechts","22","","fixation","","","",""
"725","img/0_300.png","70","image-keyboard-response","69","89927","0.0-6.0-1.31","FAMI","1","m","rechts","22","","","object","f","0","true"
"null","<div style=""font-size:60px;"">+</div>","null","html-keyboard-response","70","90380","0.0-6.0-0.32","FAMI","1","m","rechts","22","","fixation","","","",""
"1171","img/60_210.png","70","image-keyboard-response","71","91569","0.0-6.0-1.32","FAMI","1","m","rechts","22","","","object","f","60","true"
"null","<div style=""font-size:60px;"">+</div>","null","html-keyboard-response","72","91880","0.0-6.0-0.33","FAMI","1","m","rechts","22","","fixation","","","",""
"852","img/30_120.png","74","image-keyboard-response","73","92751","0.0-6.0-1.33","FAMI","1","m","rechts","22","","","object","j","30","true"
"null","<div style=""font-size:60px;"">+</div>","null","html-keyboard-response","74","93118","0.0-6.0-0.34","FAMI","1","m","rechts","22","","fixation","","","",""
"865","img/0_270.png","70","image-keyboard-response","75","93999","0.0-6.0-1.34","FAMI","1","m","rechts","22","","","object","f","0","true"
"null","<div style=""font-size:60px;"">+</div>","null","html-keyboard-response","76","94477","0.0-6.0-0.35","FAMI","1","m","rechts","22","","fixation","","","",""
"645","img/0_90.png","74","image-keyboard-response","77","95137","0.0-6.0-1.35","FAMI","1","m","rechts","22","","","object","j","0","true"
"null","<div style=""font-size:60px;"">+</div>","null","html-keyboard-response","78","95600","0.0-6.0-0.36","FAMI","1","m","rechts","22","","fixation","","","",""
"1317","img/150_240.png","74","image-keyboard-response","79","96934","0.0-6.0-1.36","FAMI","1","m","rechts","22","","","object","j","150","true"
"null","<div style=""font-size:60px;"">+</div>","null","html-keyboard-response","80","97443","0.0-6.0-0.37","FAMI","1","m","rechts","22","","fixation","","","",""
"968","img/150_270.png","74","image-keyboard-response","81","98432","0.0-6.0-1.37","FAMI","1","m","rechts","22","","","object","j","150","true"
"null","<div style=""font-size:60px;"">+</div>","null","html-keyboard-response","82","98787","0.0-6.0-0.38","FAMI","1","m","rechts","22","","fixation","","","",""
"784","img/0_240.png","70","image-keyboard-response","83","99588","0.0-6.0-1.38","FAMI","1","m","rechts","22","","","object","f","0","true"
"null","<div style=""font-size:60px;"">+</div>","null","html-keyboard-response","84","100006","0.0-6.0-0.39","FAMI","1","m","rechts","22","","fixation","","","",""
"904","img/60_30.png","70","image-keyboard-response","85","100929","0.0-6.0-1.39","FAMI","1","m","rechts","22","","","object","f","60","true"
"null","<div style=""font-size:60px;"">+</div>","null","html-keyboard-response","86","101349","0.0-6.0-0.40","FAMI","1","m","rechts","22","","fixation","","","",""
"766","img/90_60.png","70","image-keyboard-response","87","102133","0.0-6.0-1.40","FAMI","1","m","rechts","22","","","object","f","90","true"
"null","<div style=""font-size:60px;"">+</div>","null","html-keyboard-response","88","102443","0.0-6.0-0.41","FAMI","1","m","rechts","22","","fixation","","","",""
"884","img/30_90.png","74","image-keyboard-response","89","103345","0.0-6.0-1.41","FAMI","1","m","rechts","22","","","object","j","30","true"
"null","<div style=""font-size:60px;"">+</div>","null","html-keyboard-response","90","103661","0.0-6.0-0.42","FAMI","1","m","rechts","22","","fixation","","","",""
"929","img/0_330.png","70","image-keyboard-response","91","104608","0.0-6.0-1.42","FAMI","1","m","rechts","22","","","object","f","0","true"
"null","<div style=""font-size:60px;"">+</div>","null","html-keyboard-response","92","105020","0.0-6.0-0.43","FAMI","1","m","rechts","22","","fixation","","","",""
"1274","img/L120_180.png","74","image-keyboard-response","93","106306","0.0-6.0-1.43","FAMI","1","m","rechts","22","","","object","j","120","true"
"null","<div style=""font-size:60px;"">+</div>","null","html-keyboard-response","94","106758","0.0-6.0-0.44","FAMI","1","m","rechts","22","","fixation","","","",""
"1502","img/120_210.png","74","image-keyboard-response","95","108276","0.0-6.0-1.44","FAMI","1","m","rechts","22","","","object","f","120","false"
"null","<div style=""font-size:60px;"">+</div>","null","html-keyboard-response","96","108603","0.0-6.0-0.45","FAMI","1","m","rechts","22","","fixation","","","",""
"1430","img/L30_180.png","70","image-keyboard-response","97","110051","0.0-6.0-1.45","FAMI","1","m","rechts","22","","","object","j","30","false"
"null","<div style=""font-size:60px;"">+</div>","null","html-keyboard-response","98","110461","0.0-6.0-0.46","FAMI","1","m","rechts","22","","fixation","","","",""
"1721","img/90_210.png","70","image-keyboard-response","99","112189","0.0-6.0-1.46","FAMI","1","m","rechts","22","","","object","f","90","true"
"null","<div style=""font-size:60px;"">+</div>","null","html-keyboard-response","100","112648","0.0-6.0-0.47","FAMI","1","m","rechts","22","","fixation","","","",""
"1025","img/L90_180.png","74","image-keyboard-response","101","113698","0.0-6.0-1.47","FAMI","1","m","rechts","22","","","object","j","90","true"
"null","<div style=""font-size:60px;"">+</div>","null","html-keyboard-response","102","114070","0.0-6.0-0.48","FAMI","1","m","rechts","22","","fixation","","","",""
"2317","img/150_300.png","74","image-keyboard-response","103","116413","0.0-6.0-1.48","FAMI","1","m","rechts","22","","","object","j","150","true"
"null","<div style=""font-size:60px;"">+</div>","null","html-keyboard-response","104","116877","0.0-6.0-0.49","FAMI","1","m","rechts","22","","fixation","","","",""
"1561","img/60_180.png","70","image-keyboard-response","105","118456","0.0-6.0-1.49","FAMI","1","m","rechts","22","","","object","f","60","true"
"null","<div style=""font-size:60px;"">+</div>","null","html-keyboard-response","106","118968","0.0-6.0-0.50","FAMI","1","m","rechts","22","","fixation","","","",""
"1649","img/120_90.png","70","image-keyboard-response","107","120640","0.0-6.0-1.50","FAMI","1","m","rechts","22","","","object","f","120","true"
"null","<div style=""font-size:60px;"">+</div>","null","html-keyboard-response","108","121092","0.0-6.0-0.51","FAMI","1","m","rechts","22","","fixation","","","",""
"1422","img/150_90.png","70","image-keyboard-response","109","122529","0.0-6.0-1.51","FAMI","1","m","rechts","22","","","object","f","150","true"
"null","<div style=""font-size:60px;"">+</div>","null","html-keyboard-response","110","123037","0.0-6.0-0.52","FAMI","1","m","rechts","22","","fixation","","","",""
"983","img/60_330.png","74","image-keyboard-response","111","124025","0.0-6.0-1.52","FAMI","1","m","rechts","22","","","object","j","60","true"
"null","<div style=""font-size:60px;"">+</div>","null","html-keyboard-response","112","124553","0.0-6.0-0.53","FAMI","1","m","rechts","22","","fixation","","","",""
"1297","img/150_240.png","74","image-keyboard-response","113","125859","0.0-6.0-1.53","FAMI","1","m","rechts","22","","","object","j","150","true"
"null","<div style=""font-size:60px;"">+</div>","null","html-keyboard-response","114","126318","0.0-6.0-0.54","FAMI","1","m","rechts","22","","fixation","","","",""
"1174","img/150_90.png","70","image-keyboard-response","115","127501","0.0-6.0-1.54","FAMI","1","m","rechts","22","","","object","f","150","true"
"null","<div style=""font-size:60px;"">+</div>","null","html-keyboard-response","116","127834","0.0-6.0-0.55","FAMI","1","m","rechts","22","","fixation","","","",""
"1016","img/120_270.png","74","image-keyboard-response","117","128862","0.0-6.0-1.55","FAMI","1","m","rechts","22","","","object","j","120","true"
"null","<div style=""font-size:60px;"">+</div>","null","html-keyboard-response","118","129318","0.0-6.0-0.56","FAMI","1","m","rechts","22","","fixation","","","",""
"1077","img/90_240.png","74","image-keyboard-response","119","130405","0.0-6.0-1.56","FAMI","1","m","rechts","22","","","object","f","90","false"
"null","<div style=""font-size:60px;"">+</div>","null","html-keyboard-response","120","130882","0.0-6.0-0.57","FAMI","1","m","rechts","22","","fixation","","","",""
"779","img/30_60.png","70","image-keyboard-response","121","131676","0.0-6.0-1.57","FAMI","1","m","rechts","22","","","object","j","30","false"
"null","<div style=""font-size:60px;"">+</div>","null","html-keyboard-response","122","132137","0.0-6.0-0.58","FAMI","1","m","rechts","22","","fixation","","","",""
"842","img/90_300.png","74","image-keyboard-response","123","132993","0.0-6.0-1.58","FAMI","1","m","rechts","22","","","object","j","90","true"
"null","<div style=""font-size:60px;"">+</div>","null","html-keyboard-response","124","133357","0.0-6.0-0.59","FAMI","1","m","rechts","22","","fixation","","","",""
"1056","img/150_120.png","70","image-keyboard-response","125","134421","0.0-6.0-1.59","FAMI","1","m","rechts","22","","","object","f","150","true"
"null","<div style=""font-size:60px;"">+</div>","null","html-keyboard-response","126","134825","0.0-6.0-0.60","FAMI","1","m","rechts","22","","fixation","","","",""
"695","img/90_330.png","74","image-keyboard-response","127","135533","0.0-6.0-1.60","FAMI","1","m","rechts","22","","","object","j","90","true"
"null","<div style=""font-size:60px;"">+</div>","null","html-keyboard-response","128","135899","0.0-6.0-0.61","FAMI","1","m","rechts","22","","fixation","","","",""
"1377","img/30_300.png","70","image-keyboard-response","129","137289","0.0-6.0-1.61","FAMI","1","m","rechts","22","","","object","f","30","true"
"null","<div style=""font-size:60px;"">+</div>","null","html-keyboard-response","130","137743","0.0-6.0-0.62","FAMI","1","m","rechts","22","","fixation","","","",""
"931","img/0_270.png","70","image-keyboard-response","131","138685","0.0-6.0-1.62","FAMI","1","m","rechts","22","","","object","f","0","true"
"null","<div style=""font-size:60px;"">+</div>","null","html-keyboard-response","132","139148","0.0-6.0-0.63","FAMI","1","m","rechts","22","","fixation","","","",""
"2710","img/90_120.png","70","image-keyboard-response","133","141873","0.0-6.0-1.63","FAMI","1","m","rechts","22","","","object","j","90","false"
"null","<div style=""font-size:60px;"">+</div>","null","html-keyboard-response","134","142289","0.0-6.0-0.64","FAMI","1","m","rechts","22","","fixation","","","",""
"1144","img/L120_180.png","74","image-keyboard-response","135","143443","0.0-6.0-1.64","FAMI","1","m","rechts","22","","","object","j","120","true"
"null","<div style=""font-size:60px;"">+</div>","null","html-keyboard-response","136","143946","0.0-6.0-0.65","FAMI","1","m","rechts","22","","fixation","","","",""
"1248","img/60_90.png","70","image-keyboard-response","137","145207","0.0-6.0-1.65","FAMI","1","m","rechts","22","","","object","j","60","false"
"null","<div style=""font-size:60px;"">+</div>","null","html-keyboard-response","138","145682","0.0-6.0-0.66","FAMI","1","m","rechts","22","","fixation","","","",""
"1090","img/L60_180.png","74","image-keyboard-response","139","146784","0.0-6.0-1.66","FAMI","1","m","rechts","22","","","object","j","60","true"
"null","<div style=""font-size:60px;"">+</div>","null","html-keyboard-response","140","147196","0.0-6.0-0.67","FAMI","1","m","rechts","22","","fixation","","","",""
"753","img/90_60.png","70","image-keyboard-response","141","147955","0.0-6.0-1.67","FAMI","1","m","rechts","22","","","object","f","90","true"
"null","<div style=""font-size:60px;"">+</div>","null","html-keyboard-response","142","148266","0.0-6.0-0.68","FAMI","1","m","rechts","22","","fixation","","","",""
"691","img/60_30.png","70","image-keyboard-response","143","148967","0.0-6.0-1.68","FAMI","1","m","rechts","22","","","object","f","60","true"
"null","<div style=""font-size:60px;"">+</div>","null","html-keyboard-response","144","149422","0.0-6.0-0.69","FAMI","1","m","rechts","22","","fixation","","","",""
"1460","img/150_300.png","74","image-keyboard-response","145","150891","0.0-6.0-1.69","FAMI","1","m","rechts","22","","","object","j","150","true"
"null","<div style=""font-size:60px;"">+</div>","null","html-keyboard-response","146","151219","0.0-6.0-0.70","FAMI","1","m","rechts","22","","fixation","","","",""
"990","img/120_210.png","74","image-keyboard-response","147","152218","0.0-6.0-1.70","FAMI","1","m","rechts","22","","","object","f","120","false"
"null","<div style=""font-size:60px;"">+</div>","null","html-keyboard-response","148","152750","0.0-6.0-0.71","FAMI","1","m","rechts","22","","fixation","","","",""
"1214","img/L30_180.png","70","image-keyboard-response","149","153973","0.0-6.0-1.71","FAMI","1","m","rechts","22","","","object","j","30","false"
"null","<div style=""font-size:60px;"">+</div>","null","html-keyboard-response","150","154501","0.0-6.0-0.72","FAMI","1","m","rechts","22","","fixation","","","",""
"921","img/0_60.png","74","image-keyboard-response","151","155435","0.0-6.0-1.72","FAMI","1","m","rechts","22","","","object","j","0","true"
"null","<div style=""font-size:60px;"">+</div>","null","html-keyboard-response","152","155845","0.0-6.0-0.73","FAMI","1","m","rechts","22","","fixation","","","",""
"827","img/0_30.png","74","image-keyboard-response","153","156685","0.0-6.0-1.73","FAMI","1","m","rechts","22","","","object","j","0","true"
"null","<div style=""font-size:60px;"">+</div>","null","html-keyboard-response","154","157188","0.0-6.0-0.74","FAMI","1","m","rechts","22","","fixation","","","",""
"1606","img/120_180.png","70","image-keyboard-response","155","158800","0.0-6.0-1.74","FAMI","1","m","rechts","22","","","object","f","120","true"
"null","<div style=""font-size:60px;"">+</div>","null","html-keyboard-response","156","159267","0.0-6.0-0.75","FAMI","1","m","rechts","22","","fixation","","","",""
"826","img/0_330.png","70","image-keyboard-response","157","160102","0.0-6.0-1.75","FAMI","1","m","rechts","22","","","object","f","0","true"
"null","<div style=""font-size:60px;"">+</div>","null","html-keyboard-response","158","160423","0.0-6.0-0.76","FAMI","1","m","rechts","22","","fixation","","","",""
"1106","img/60_150.png","74","image-keyboard-response","159","161544","0.0-6.0-1.76","FAMI","1","m","rechts","22","","","object","j","60","true"
"null","<div style=""font-size:60px;"">+</div>","null","html-keyboard-response","160","162002","0.0-6.0-0.77","FAMI","1","m","rechts","22","","fixation","","","",""
"970","img/60_210.png","70","image-keyboard-response","161","162985","0.0-6.0-1.77","FAMI","1","m","rechts","22","","","object","f","60","true"
"null","<div style=""font-size:60px;"">+</div>","null","html-keyboard-response","162","163503","0.0-6.0-0.78","FAMI","1","m","rechts","22","","fixation","","","",""
"1091","img/120_30.png","70","image-keyboard-response","163","164605","0.0-6.0-1.78","FAMI","1","m","rechts","22","","","object","f","120","true"
"null","<div style=""font-size:60px;"">+</div>","null","html-keyboard-response","164","165111","0.0-6.0-0.79","FAMI","1","m","rechts","22","","fixation","","","",""
"1560","img/90_180.png","70","image-keyboard-response","165","166687","0.0-6.0-1.79","FAMI","1","m","rechts","22","","","object","f","90","true"
"null","<div style=""font-size:60px;"">+</div>","null","html-keyboard-response","166","167191","0.0-6.0-0.80","FAMI","1","m","rechts","22","","fixation","","","",""
"1314","img/30_240.png","70","image-keyboard-response","167","168521","0.0-6.0-1.80","FAMI","1","m","rechts","22","","","object","f","30","true"
"null","<div style=""font-size:60px;"">+</div>","null","html-keyboard-response","168","169033","0.0-6.0-0.81","FAMI","1","m","rechts","22","","fixation","","","",""
"1005","img/90_210.png","70","image-keyboard-response","169","170050","0.0-6.0-1.81","FAMI","1","m","rechts","22","","","object","f","90","true"
"null","<div style=""font-size:60px;"">+</div>","null","html-keyboard-response","170","170379","0.0-6.0-0.82","FAMI","1","m","rechts","22","","fixation","","","",""
"1198","img/150_60.png","70","image-keyboard-response","171","171591","0.0-6.0-1.82","FAMI","1","m","rechts","22","","","object","f","150","true"
"null","<div style=""font-size:60px;"">+</div>","null","html-keyboard-response","172","171894","0.0-6.0-0.83","FAMI","1","m","rechts","22","","fixation","","","",""
"1494","img/30_180.png","70","image-keyboard-response","173","173403","0.0-6.0-1.83","FAMI","1","m","rechts","22","","","object","f","30","true"
"null","<div style=""font-size:60px;"">+</div>","null","html-keyboard-response","174","173705","0.0-6.0-0.84","FAMI","1","m","rechts","22","","fixation","","","",""
"1462","img/L90_180.png","74","image-keyboard-response","175","175179","0.0-6.0-1.84","FAMI","1","m","rechts","22","","","object","j","90","true"
"null","<div style=""font-size:60px;"">+</div>","null","html-keyboard-response","176","175631","0.0-6.0-0.85","FAMI","1","m","rechts","22","","fixation","","","",""
"1516","img/120_150.png","74","image-keyboard-response","177","177159","0.0-6.0-1.85","FAMI","1","m","rechts","22","","","object","j","120","true"
"null","<div style=""font-size:60px;"">+</div>","null","html-keyboard-response","178","177677","0.0-6.0-0.86","FAMI","1","m","rechts","22","","fixation","","","",""
"null","img/150_270.png","null","image-keyboard-response","179","180694","0.0-6.0-1.86","FAMI","1","m","rechts","22","","","object","j","150","false"
"null","<div style=""font-size:60px;"">+</div>","null","html-keyboard-response","180","181200","0.0-6.0-0.87","FAMI","1","m","rechts","22","","fixation","","","",""
"808","img/0_210.png","70","image-keyboard-response","181","182020","0.0-6.0-1.87","FAMI","1","m","rechts","22","","","object","f","0","true"
"null","<div style=""font-size:60px;"">+</div>","null","html-keyboard-response","182","182479","0.0-6.0-0.88","FAMI","1","m","rechts","22","","fixation","","","",""
"708","img/0_240.png","70","image-keyboard-response","183","183202","0.0-6.0-1.88","FAMI","1","m","rechts","22","","","object","f","0","true"
"null","<div style=""font-size:60px;"">+</div>","null","html-keyboard-response","184","183715","0.0-6.0-0.89","FAMI","1","m","rechts","22","","fixation","","","",""
"566","img/0_300.png","70","image-keyboard-response","185","184292","0.0-6.0-1.89","FAMI","1","m","rechts","22","","","object","f","0","true"
"null","<div style=""font-size:60px;"">+</div>","null","html-keyboard-response","186","184605","0.0-6.0-0.90","FAMI","1","m","rechts","22","","fixation","","","",""
"1418","img/30_90.png","74","image-keyboard-response","187","186037","0.0-6.0-1.90","FAMI","1","m","rechts","22","","","object","j","30","true"
"null","<div style=""font-size:60px;"">+</div>","null","html-keyboard-response","188","186397","0.0-6.0-0.91","FAMI","1","m","rechts","22","","fixation","","","",""
"1199","img/90_150.png","70","image-keyboard-response","189","187611","0.0-6.0-1.91","FAMI","1","m","rechts","22","","","object","j","90","false"
"null","<div style=""font-size:60px;"">+</div>","null","html-keyboard-response","190","187928","0.0-6.0-0.92","FAMI","1","m","rechts","22","","fixation","","","",""
"1231","img/L150_180.png","74","image-keyboard-response","191","189174","0.0-6.0-1.92","FAMI","1","m","rechts","22","","","object","j","150","true"
"null","<div style=""font-size:60px;"">+</div>","null","html-keyboard-response","192","189491","0.0-6.0-0.93","FAMI","1","m","rechts","22","","fixation","","","",""
"1304","img/60_180.png","70","image-keyboard-response","193","190806","0.0-6.0-1.93","FAMI","1","m","rechts","22","","","object","f","60","true"
"null","<div style=""font-size:60px;"">+</div>","null","html-keyboard-response","194","191269","0.0-6.0-0.94","FAMI","1","m","rechts","22","","fixation","","","",""
"1417","img/30_270.png","70","image-keyboard-response","195","192696","0.0-6.0-1.94","FAMI","1","m","rechts","22","","","object","f","30","true"
"null","<div style=""font-size:60px;"">+</div>","null","html-keyboard-response","196","193153","0.0-6.0-0.95","FAMI","1","m","rechts","22","","fixation","","","",""
"1162","img/120_90.png","70","image-keyboard-response","197","194328","0.0-6.0-1.95","FAMI","1","m","rechts","22","","","object","f","120","true"
"null","<div style=""font-size:60px;"">+</div>","null","html-keyboard-response","198","194842","0.0-6.0-0.96","FAMI","1","m","rechts","22","","fixation","","","",""
"868","img/0_120.png","74","image-keyboard-response","199","195724","0.0-6.0-1.96","FAMI","1","m","rechts","22","","","object","j","0","true"
"null","<div style=""font-size:60px;"">+</div>","null","html-keyboard-response","200","196179","0.0-6.0-0.97","FAMI","1","m","rechts","22","","fixation","","","",""
"1427","img/150_180.png","70","image-keyboard-response","201","197613","0.0-6.0-1.97","FAMI","1","m","rechts","22","","","object","f","150","true"
"null","<div style=""font-size:60px;"">+</div>","null","html-keyboard-response","202","198116","0.0-6.0-0.98","FAMI","1","m","rechts","22","","fixation","","","",""
"950","img/0_150.png","74","image-keyboard-response","203","199083","0.0-6.0-1.98","FAMI","1","m","rechts","22","","","object","j","0","true"
"null","<div style=""font-size:60px;"">+</div>","null","html-keyboard-response","204","199397","0.0-6.0-0.99","FAMI","1","m","rechts","22","","fixation","","","",""
"969","img/90_30.png","70","image-keyboard-response","205","200380","0.0-6.0-1.99","FAMI","1","m","rechts","22","","","object","f","90","true"
"null","<div style=""font-size:60px;"">+</div>","null","html-keyboard-response","206","200834","0.0-6.0-0.100","FAMI","1","m","rechts","22","","fixation","","","",""
"1052","img/60_270.png","74","image-keyboard-response","207","201899","0.0-6.0-1.100","FAMI","1","m","rechts","22","","","object","f","60","false"
"null","<div style=""font-size:60px;"">+</div>","null","html-keyboard-response","208","202257","0.0-6.0-0.101","FAMI","1","m","rechts","22","","fixation","","","",""
"943","img/120_330.png","74","image-keyboard-response","209","203214","0.0-6.0-1.101","FAMI","1","m","rechts","22","","","object","j","120","true"
"null","<div style=""font-size:60px;"">+</div>","null","html-keyboard-response","210","203616","0.0-6.0-0.102","FAMI","1","m","rechts","22","","fixation","","","",""
"813","img/0_90.png","74","image-keyboard-response","211","204442","0.0-6.0-1.102","FAMI","1","m","rechts","22","","","object","j","0","true"
"null","<div style=""font-size:60px;"">+</div>","null","html-keyboard-response","212","204945","0.0-6.0-0.103","FAMI","1","m","rechts","22","","fixation","","","",""
"1003","img/30_120.png","74","image-keyboard-response","213","205960","0.0-6.0-1.103","FAMI","1","m","rechts","22","","","object","j","30","true"
"null","<div style=""font-size:60px;"">+</div>","null","html-keyboard-response","214","206336","0.0-6.0-0.104","FAMI","1","m","rechts","22","","fixation","","","",""
"931","img/0_330.png","70","image-keyboard-response","215","207276","0.0-6.0-1.104","FAMI","1","m","rechts","22","","","object","f","0","true"
"null","<div style=""font-size:60px;"">+</div>","null","html-keyboard-response","216","207804","0.0-6.0-0.105","FAMI","1","m","rechts","22","","fixation","","","",""
"978","img/30_240.png","70","image-keyboard-response","217","208794","0.0-6.0-1.105","FAMI","1","m","rechts","22","","","object","f","30","true"
"null","<div style=""font-size:60px;"">+</div>","null","html-keyboard-response","218","209158","0.0-6.0-0.106","FAMI","1","m","rechts","22","","fixation","","","",""
"1364","img/60_150.png","74","image-keyboard-response","219","210527","0.0-6.0-1.106","FAMI","1","m","rechts","22","","","object","j","60","true"
"null","<div style=""font-size:60px;"">+</div>","null","html-keyboard-response","220","211002","0.0-6.0-0.107","FAMI","1","m","rechts","22","","fixation","","","",""
"921","img/150_60.png","70","image-keyboard-response","221","211932","0.0-6.0-1.107","FAMI","1","m","rechts","22","","","object","f","150","true"
"null","<div style=""font-size:60px;"">+</div>","null","html-keyboard-response","222","212241","0.0-6.0-0.108","FAMI","1","m","rechts","22","","fixation","","","",""
"1106","img/30_60.png","70","image-keyboard-response","223","213362","0.0-6.0-1.108","FAMI","1","m","rechts","22","","","object","j","30","false"
"null","<div style=""font-size:60px;"">+</div>","null","html-keyboard-response","224","213830","0.0-6.0-0.109","FAMI","1","m","rechts","22","","fixation","","","",""
"727","img/0_90.png","74","image-keyboard-response","225","214566","0.0-6.0-1.109","FAMI","1","m","rechts","22","","","object","j","0","true"
"null","<div style=""font-size:60px;"">+</div>","null","html-keyboard-response","226","214881","0.0-6.0-0.110","FAMI","1","m","rechts","22","","fixation","","","",""
"700","img/120_330.png","74","image-keyboard-response","227","215591","0.0-6.0-1.110","FAMI","1","m","rechts","22","","","object","j","120","true"
"null","<div style=""font-size:60px;"">+</div>","null","html-keyboard-response","228","215943","0.0-6.0-0.111","FAMI","1","m","rechts","22","","fixation","","","",""
"1028","img/150_240.png","74","image-keyboard-response","229","216985","0.0-6.0-1.111","FAMI","1","m","rechts","22","","","object","j","150","true"
"null","<div style=""font-size:60px;"">+</div>","null","html-keyboard-response","230","217302","0.0-6.0-0.112","FAMI","1","m","rechts","22","","fixation","","","",""
"740","img/120_270.png","74","image-keyboard-response","231","218055","0.0-6.0-1.112","FAMI","1","m","rechts","22","","","object","j","120","true"
"null","<div style=""font-size:60px;"">+</div>","null","html-keyboard-response","232","218583","0.0-6.0-0.113","FAMI","1","m","rechts","22","","fixation","","","",""
"1093","img/90_180.png","70","image-keyboard-response","233","219686","0.0-6.0-1.113","FAMI","1","m","rechts","22","","","object","f","90","true"
"null","<div style=""font-size:60px;"">+</div>","null","html-keyboard-response","234","220051","0.0-6.0-0.114","FAMI","1","m","rechts","22","","fixation","","","",""
"984","img/L60_180.png","74","image-keyboard-response","235","221046","0.0-6.0-1.114","FAMI","1","m","rechts","22","","","object","j","60","true"
"null","<div style=""font-size:60px;"">+</div>","null","html-keyboard-response","236","221510","0.0-6.0-0.115","FAMI","1","m","rechts","22","","fixation","","","",""
"799","img/0_210.png","70","image-keyboard-response","237","222318","0.0-6.0-1.115","FAMI","1","m","rechts","22","","","object","f","0","true"
"null","<div style=""font-size:60px;"">+</div>","null","html-keyboard-response","238","222821","0.0-6.0-0.116","FAMI","1","m","rechts","22","","fixation","","","",""
"670","img/0_240.png","70","image-keyboard-response","239","223500","0.0-6.0-1.116","FAMI","1","m","rechts","22","","","object","f","0","true"
"null","<div style=""font-size:60px;"">+</div>","null","html-keyboard-response","240","223977","0.0-6.0-0.117","FAMI","1","m","rechts","22","","fixation","","","",""
"571","img/0_300.png","70","image-keyboard-response","241","224557","0.0-6.0-1.117","FAMI","1","m","rechts","22","","","object","f","0","true"
"null","<div style=""font-size:60px;"">+</div>","null","html-keyboard-response","242","224869","0.0-6.0-0.118","FAMI","1","m","rechts","22","","fixation","","","",""
"497","img/0_270.png","70","image-keyboard-response","243","225378","0.0-6.0-1.118","FAMI","1","m","rechts","22","","","object","f","0","true"
"null","<div style=""font-size:60px;"">+</div>","null","html-keyboard-response","244","225839","0.0-6.0-0.119","FAMI","1","m","rechts","22","","fixation","","","",""
"684","img/L30_180.png","74","image-keyboard-response","245","226538","0.0-6.0-1.119","FAMI","1","m","rechts","22","","","object","j","30","true"
"null","<div style=""font-size:60px;"">+</div>","null","html-keyboard-response","246","227011","0.0-6.0-0.120","FAMI","1","m","rechts","22","","fixation","","","",""
"844","img/30_270.png","70","image-keyboard-response","247","227864","0.0-6.0-1.120","FAMI","1","m","rechts","22","","","object","f","30","true"
"null","<div style=""font-size:60px;"">+</div>","null","html-keyboard-response","248","228337","0.0-6.0-0.121","FAMI","1","m","rechts","22","","fixation","","","",""
"740","img/150_300.png","74","image-keyboard-response","249","229090","0.0-6.0-1.121","FAMI","1","m","rechts","22","","","object","j","150","true"
"null","<div style=""font-size:60px;"">+</div>","null","html-keyboard-response","250","229448","0.0-6.0-0.122","FAMI","1","m","rechts","22","","fixation","","","",""
"1069","img/60_210.png","70","image-keyboard-response","251","230531","0.0-6.0-1.122","FAMI","1","m","rechts","22","","","object","f","60","true"
"null","<div style=""font-size:60px;"">+</div>","null","html-keyboard-response","252","230839","0.0-6.0-0.123","FAMI","1","m","rechts","22","","fixation","","","",""
"914","img/60_270.png","74","image-keyboard-response","253","231767","0.0-6.0-1.123","FAMI","1","m","rechts","22","","","object","f","60","false"
"null","<div style=""font-size:60px;"">+</div>","null","html-keyboard-response","254","232184","0.0-6.0-0.124","FAMI","1","m","rechts","22","","fixation","","","",""
"744","img/30_90.png","70","image-keyboard-response","255","232938","0.0-6.0-1.124","FAMI","1","m","rechts","22","","","object","j","30","false"
"null","<div style=""font-size:60px;"">+</div>","null","html-keyboard-response","256","233309","0.0-6.0-0.125","FAMI","1","m","rechts","22","","fixation","","","",""
"1476","img/0_120.png","74","image-keyboard-response","257","234795","0.0-6.0-1.125","FAMI","1","m","rechts","22","","","object","j","0","true"
"null","<div style=""font-size:60px;"">+</div>","null","html-keyboard-response","258","235152","0.0-6.0-0.126","FAMI","1","m","rechts","22","","fixation","","","",""
"1069","img/L90_180.png","74","image-keyboard-response","259","236232","0.0-6.0-1.126","FAMI","1","m","rechts","22","","","object","j","90","true"
"null","<div style=""font-size:60px;"">+</div>","null","html-keyboard-response","260","236640","0.0-6.0-0.127","FAMI","1","m","rechts","22","","fixation","","","",""
"1172","img/L150_180.png","74","image-keyboard-response","261","237821","0.0-6.0-1.127","FAMI","1","m","rechts","22","","","object","j","150","true"
"null","<div style=""font-size:60px;"">+</div>","null","html-keyboard-response","262","238328","0.0-6.0-0.128","FAMI","1","m","rechts","22","","fixation","","","",""
"909","img/30_180.png","70","image-keyboard-response","263","239245","0.0-6.0-1.128","FAMI","1","m","rechts","22","","","object","f","30","true"
"null","<div style=""font-size:60px;"">+</div>","null","html-keyboard-response","264","239712","0.0-6.0-0.129","FAMI","1","m","rechts","22","","fixation","","","",""
"687","img/30_120.png","74","image-keyboard-response","265","240408","0.0-6.0-1.129","FAMI","1","m","rechts","22","","","object","j","30","true"
"null","<div style=""font-size:60px;"">+</div>","null","html-keyboard-response","266","240767","0.0-6.0-0.130","FAMI","1","m","rechts","22","","fixation","","","",""
"894","img/150_180.png","70","image-keyboard-response","267","241669","0.0-6.0-1.130","FAMI","1","m","rechts","22","","","object","f","150","true"
"null","<div style=""font-size:60px;"">+</div>","null","html-keyboard-response","268","242046","0.0-6.0-0.131","FAMI","1","m","rechts","22","","fixation","","","",""
"1048","img/90_240.png","74","image-keyboard-response","269","243109","0.0-6.0-1.131","FAMI","1","m","rechts","22","","","object","f","90","false"
"null","<div style=""font-size:60px;"">+</div>","null","html-keyboard-response","270","243562","0.0-6.0-0.132","FAMI","1","m","rechts","22","","fixation","","","",""
"1119","img/30_300.png","74","image-keyboard-response","271","244694","0.0-6.0-1.132","FAMI","1","m","rechts","22","","","object","f","30","false"
"null","<div style=""font-size:60px;"">+</div>","null","html-keyboard-response","272","245107","0.0-6.0-0.133","FAMI","1","m","rechts","22","","fixation","","","",""
"760","img/120_90.png","70","image-keyboard-response","273","245878","0.0-6.0-1.133","FAMI","1","m","rechts","22","","","object","f","120","true"
"null","<div style=""font-size:60px;"">+</div>","null","html-keyboard-response","274","246345","0.0-6.0-0.134","FAMI","1","m","rechts","22","","fixation","","","",""
"792","img/120_150.png","70","image-keyboard-response","275","247146","0.0-6.0-1.134","FAMI","1","m","rechts","22","","","object","j","120","false"
"null","<div style=""font-size:60px;"">+</div>","null","html-keyboard-response","276","247626","0.0-6.0-0.135","FAMI","1","m","rechts","22","","fixation","","","",""
"784","img/0_150.png","74","image-keyboard-response","277","248419","0.0-6.0-1.135","FAMI","1","m","rechts","22","","","object","j","0","true"
"null","<div style=""font-size:60px;"">+</div>","null","html-keyboard-response","278","248782","0.0-6.0-0.136","FAMI","1","m","rechts","22","","fixation","","","",""
"887","img/60_180.png","70","image-keyboard-response","279","249678","0.0-6.0-1.136","FAMI","1","m","rechts","22","","","object","f","60","true"
"null","<div style=""font-size:60px;"">+</div>","null","html-keyboard-response","280","250033","0.0-6.0-0.137","FAMI","1","m","rechts","22","","fixation","","","",""
"915","img/150_120.png","74","image-keyboard-response","281","250962","0.0-6.0-1.137","FAMI","1","m","rechts","22","","","object","f","150","false"
"null","<div style=""font-size:60px;"">+</div>","null","html-keyboard-response","282","251471","0.0-6.0-0.138","FAMI","1","m","rechts","22","","fixation","","","",""
"961","img/150_90.png","70","image-keyboard-response","283","252445","0.0-6.0-1.138","FAMI","1","m","rechts","22","","","object","f","150","true"
"null","<div style=""font-size:60px;"">+</div>","null","html-keyboard-response","284","252860","0.0-6.0-0.139","FAMI","1","m","rechts","22","","fixation","","","",""
"744","img/90_330.png","74","image-keyboard-response","285","253617","0.0-6.0-1.139","FAMI","1","m","rechts","22","","","object","j","90","true"
"null","<div style=""font-size:60px;"">+</div>","null","html-keyboard-response","286","254127","0.0-6.0-0.140","FAMI","1","m","rechts","22","","fixation","","","",""
"645","img/120_30.png","70","image-keyboard-response","287","254786","0.0-6.0-1.140","FAMI","1","m","rechts","22","","","object","f","120","true"
"null","<div style=""font-size:60px;"">+</div>","null","html-keyboard-response","288","255205","0.0-6.0-0.141","FAMI","1","m","rechts","22","","fixation","","","",""
"976","img/120_210.png","74","image-keyboard-response","289","256192","0.0-6.0-1.141","FAMI","1","m","rechts","22","","","object","f","120","false"
"null","<div style=""font-size:60px;"">+</div>","null","html-keyboard-response","290","256523","0.0-6.0-0.142","FAMI","1","m","rechts","22","","fixation","","","",""
"826","img/0_60.png","74","image-keyboard-response","291","257362","0.0-6.0-1.142","FAMI","1","m","rechts","22","","","object","j","0","true"
"null","<div style=""font-size:60px;"">+</div>","null","html-keyboard-response","292","257787","0.0-6.0-0.143","FAMI","1","m","rechts","22","","fixation","","","",""
"653","img/60_30.png","70","image-keyboard-response","293","258455","0.0-6.0-1.143","FAMI","1","m","rechts","22","","","object","f","60","true"
"null","<div style=""font-size:60px;"">+</div>","null","html-keyboard-response","294","258772","0.0-6.0-0.144","FAMI","1","m","rechts","22","","fixation","","","",""
"647","img/60_330.png","74","image-keyboard-response","295","259432","0.0-6.0-1.144","FAMI","1","m","rechts","22","","","object","j","60","true"
"null","<div style=""font-size:60px;"">+</div>","null","html-keyboard-response","296","259739","0.0-6.0-0.145","FAMI","1","m","rechts","22","","fixation","","","",""
"782","img/60_90.png","70","image-keyboard-response","297","260535","0.0-6.0-1.145","FAMI","1","m","rechts","22","","","object","j","60","false"
"null","<div style=""font-size:60px;"">+</div>","null","html-keyboard-response","298","260850","0.0-6.0-0.146","FAMI","1","m","rechts","22","","fixation","","","",""
"1235","img/120_180.png","70","image-keyboard-response","299","262098","0.0-6.0-1.146","FAMI","1","m","rechts","22","","","object","f","120","true"
"null","<div style=""font-size:60px;"">+</div>","null","html-keyboard-response","300","262553","0.0-6.0-0.147","FAMI","1","m","rechts","22","","fixation","","","",""
"930","img/90_30.png","70","image-keyboard-response","301","263495","0.0-6.0-1.147","FAMI","1","m","rechts","22","","","object","f","90","true"
"null","<div style=""font-size:60px;"">+</div>","null","html-keyboard-response","302","263973","0.0-6.0-0.148","FAMI","1","m","rechts","22","","fixation","","","",""
"565","img/90_60.png","70","image-keyboard-response","303","264551","0.0-6.0-1.148","FAMI","1","m","rechts","22","","","object","f","90","true"
"null","<div style=""font-size:60px;"">+</div>","null","html-keyboard-response","304","264959","0.0-6.0-0.149","FAMI","1","m","rechts","22","","fixation","","","",""
"962","img/L120_180.png","74","image-keyboard-response","305","265934","0.0-6.0-1.149","FAMI","1","m","rechts","22","","","object","j","120","true"
"null","<div style=""font-size:60px;"">+</div>","null","html-keyboard-response","306","266445","0.0-6.0-0.150","FAMI","1","m","rechts","22","","fixation","","","",""
"795","img/90_150.png","74","image-keyboard-response","307","267250","0.0-6.0-1.150","FAMI","1","m","rechts","22","","","object","j","90","true"
"null","<div style=""font-size:60px;"">+</div>","null","html-keyboard-response","308","267626","0.0-6.0-0.151","FAMI","1","m","rechts","22","","fixation","","","",""
"1197","img/90_120.png","74","image-keyboard-response","309","268836","0.0-6.0-1.151","FAMI","1","m","rechts","22","","","object","j","90","true"
"null","<div style=""font-size:60px;"">+</div>","null","html-keyboard-response","310","269314","0.0-6.0-0.152","FAMI","1","m","rechts","22","","fixation","","","",""
"735","img/0_30.png","74","image-keyboard-response","311","270063","0.0-6.0-1.152","FAMI","1","m","rechts","22","","","object","j","0","true"
"null","<div style=""font-size:60px;"">+</div>","null","html-keyboard-response","312","270475","0.0-6.0-0.153","FAMI","1","m","rechts","22","","fixation","","","",""
"1058","img/90_300.png","74","image-keyboard-response","313","271548","0.0-6.0-1.153","FAMI","1","m","rechts","22","","","object","j","90","true"
"null","<div style=""font-size:60px;"">+</div>","null","html-keyboard-response","314","272007","0.0-6.0-0.154","FAMI","1","m","rechts","22","","fixation","","","",""
"997","img/150_270.png","74","image-keyboard-response","315","273023","0.0-6.0-1.154","FAMI","1","m","rechts","22","","","object","j","150","true"
"null","<div style=""font-size:60px;"">+</div>","null","html-keyboard-response","316","273475","0.0-6.0-0.155","FAMI","1","m","rechts","22","","fixation","","","",""
"1030","img/90_210.png","74","image-keyboard-response","317","274518","0.0-6.0-1.155","FAMI","1","m","rechts","22","","","object","f","90","false"
"null","<div style=""font-size:60px;"">+</div>","null","html-keyboard-response","318","275023","0.0-6.0-0.156","FAMI","1","m","rechts","22","","fixation","","","",""
"2221","img/L30_180.png","70","image-keyboard-response","319","277254","0.0-6.0-1.156","FAMI","1","m","rechts","22","","","object","j","30","false"
"null","<div style=""font-size:60px;"">+</div>","null","html-keyboard-response","320","277627","0.0-6.0-0.157","FAMI","1","m","rechts","22","","fixation","","","",""
"1098","img/L90_180.png","74","image-keyboard-response","321","278738","0.0-6.0-1.157","FAMI","1","m","rechts","22","","","object","j","90","true"
"null","<div style=""font-size:60px;"">+</div>","null","html-keyboard-response","322","279066","0.0-6.0-0.158","FAMI","1","m","rechts","22","","fixation","","","",""
"1924","img/120_210.png","74","image-keyboard-response","323","280999","0.0-6.0-1.158","FAMI","1","m","rechts","22","","","object","f","120","false"
"null","<div style=""font-size:60px;"">+</div>","null","html-keyboard-response","324","281315","0.0-6.0-0.159","FAMI","1","m","rechts","22","","fixation","","","",""
"998","img/90_330.png","74","image-keyboard-response","325","282324","0.0-6.0-1.159","FAMI","1","m","rechts","22","","","object","j","90","true"
"null","<div style=""font-size:60px;"">+</div>","null","html-keyboard-response","326","282644","0.0-6.0-0.160","FAMI","1","m","rechts","22","","fixation","","","",""
"716","img/0_150.png","74","image-keyboard-response","327","283373","0.0-6.0-1.160","FAMI","1","m","rechts","22","","","object","j","0","true"
"null","<div style=""font-size:60px;"">+</div>","null","html-keyboard-response","328","283847","0.0-6.0-0.161","FAMI","1","m","rechts","22","","fixation","","","",""
"1028","img/60_150.png","70","image-keyboard-response","329","284890","0.0-6.0-1.161","FAMI","1","m","rechts","22","","","object","j","60","false"
"null","<div style=""font-size:60px;"">+</div>","null","html-keyboard-response","330","285267","0.0-6.0-0.162","FAMI","1","m","rechts","22","","fixation","","","",""
"786","img/120_330.png","74","image-keyboard-response","331","286062","0.0-6.0-1.162","FAMI","1","m","rechts","22","","","object","j","120","true"
"null","<div style=""font-size:60px;"">+</div>","null","html-keyboard-response","332","286583","0.0-6.0-0.163","FAMI","1","m","rechts","22","","fixation","","","",""
"689","img/90_30.png","70","image-keyboard-response","333","287285","0.0-6.0-1.163","FAMI","1","m","rechts","22","","","object","f","90","true"
"null","<div style=""font-size:60px;"">+</div>","null","html-keyboard-response","334","287596","0.0-6.0-0.164","FAMI","1","m","rechts","22","","fixation","","","",""
"812","img/0_240.png","70","image-keyboard-response","335","288425","0.0-6.0-1.164","FAMI","1","m","rechts","22","","","object","f","0","true"
"null","<div style=""font-size:60px;"">+</div>","null","html-keyboard-response","336","288847","0.0-6.0-0.165","FAMI","1","m","rechts","22","","fixation","","","",""
"670","img/90_60.png","70","image-keyboard-response","337","289526","0.0-6.0-1.165","FAMI","1","m","rechts","22","","","object","f","90","true"
"null","<div style=""font-size:60px;"">+</div>","null","html-keyboard-response","338","289833","0.0-6.0-0.166","FAMI","1","m","rechts","22","","fixation","","","",""
"728","img/120_270.png","74","image-keyboard-response","339","290570","0.0-6.0-1.166","FAMI","1","m","rechts","22","","","object","j","120","true"
"null","<div style=""font-size:60px;"">+</div>","null","html-keyboard-response","340","290881","0.0-6.0-0.167","FAMI","1","m","rechts","22","","fixation","","","",""
"796","img/0_30.png","74","image-keyboard-response","341","291686","0.0-6.0-1.167","FAMI","1","m","rechts","22","","","object","j","0","true"
"null","<div style=""font-size:60px;"">+</div>","null","html-keyboard-response","342","292006","0.0-6.0-0.168","FAMI","1","m","rechts","22","","fixation","","","",""
"819","img/150_90.png","70","image-keyboard-response","343","292834","0.0-6.0-1.168","FAMI","1","m","rechts","22","","","object","f","150","true"
"null","<div style=""font-size:60px;"">+</div>","null","html-keyboard-response","344","293209","0.0-6.0-0.169","FAMI","1","m","rechts","22","","fixation","","","",""
"695","img/60_330.png","74","image-keyboard-response","345","293915","0.0-6.0-1.169","FAMI","1","m","rechts","22","","","object","j","60","true"
"null","<div style=""font-size:60px;"">+</div>","null","html-keyboard-response","346","294239","0.0-6.0-0.170","FAMI","1","m","rechts","22","","fixation","","","",""
"1006","img/30_240.png","70","image-keyboard-response","347","295252","0.0-6.0-1.170","FAMI","1","m","rechts","22","","","object","f","30","true"
"null","<div style=""font-size:60px;"">+</div>","null","html-keyboard-response","348","295661","0.0-6.0-0.171","FAMI","1","m","rechts","22","","fixation","","","",""
"784","img/0_270.png","70","image-keyboard-response","349","296456","0.0-6.0-1.171","FAMI","1","m","rechts","22","","","object","f","0","true"
"null","<div style=""font-size:60px;"">+</div>","null","html-keyboard-response","350","296864","0.0-6.0-0.172","FAMI","1","m","rechts","22","","fixation","","","",""
"684","img/90_300.png","74","image-keyboard-response","351","297559","0.0-6.0-1.172","FAMI","1","m","rechts","22","","","object","j","90","true"
"null","<div style=""font-size:60px;"">+</div>","null","html-keyboard-response","352","297990","0.0-6.0-0.173","FAMI","1","m","rechts","22","","fixation","","","",""
"740","img/120_30.png","70","image-keyboard-response","353","298739","0.0-6.0-1.173","FAMI","1","m","rechts","22","","","object","f","120","true"
"null","<div style=""font-size:60px;"">+</div>","null","html-keyboard-response","354","299254","0.0-6.0-0.174","FAMI","1","m","rechts","22","","fixation","","","",""
"1132","img/30_180.png","70","image-keyboard-response","355","300395","0.0-6.0-1.174","FAMI","1","m","rechts","22","","","object","f","30","true"
"null","<div style=""font-size:60px;"">+</div>","null","html-keyboard-response","356","300704","0.0-6.0-0.175","FAMI","1","m","rechts","22","","fixation","","","",""
"929","img/150_270.png","74","image-keyboard-response","357","301644","0.0-6.0-1.175","FAMI","1","m","rechts","22","","","object","j","150","true"
"null","<div style=""font-size:60px;"">+</div>","null","html-keyboard-response","358","301955","0.0-6.0-0.176","FAMI","1","m","rechts","22","","fixation","","","",""
"881","img/150_300.png","74","image-keyboard-response","359","302845","0.0-6.0-1.176","FAMI","1","m","rechts","22","","","object","j","150","true"
"null","<div style=""font-size:60px;"">+</div>","null","html-keyboard-response","360","303361","0.0-6.0-0.177","FAMI","1","m","rechts","22","","fixation","","","",""
"1113","img/30_90.png","74","image-keyboard-response","361","304488","0.0-6.0-1.177","FAMI","1","m","rechts","22","","","object","j","30","true"
"null","<div style=""font-size:60px;"">+</div>","null","html-keyboard-response","362","304862","0.0-6.0-0.178","FAMI","1","m","rechts","22","","fixation","","","",""
"636","img/120_90.png","70","image-keyboard-response","363","305514","0.0-6.0-1.178","FAMI","1","m","rechts","22","","","object","f","120","true"
"null","<div style=""font-size:60px;"">+</div>","null","html-keyboard-response","364","305975","0.0-6.0-0.179","FAMI","1","m","rechts","22","","fixation","","","",""
"618","img/30_300.png","74","image-keyboard-response","365","306604","0.0-6.0-1.179","FAMI","1","m","rechts","22","","","object","f","30","false"
"null","<div style=""font-size:60px;"">+</div>","null","html-keyboard-response","366","307007","0.0-6.0-0.180","FAMI","1","m","rechts","22","","fixation","","","",""
"826","img/120_180.png","70","image-keyboard-response","367","307843","0.0-6.0-1.180","FAMI","1","m","rechts","22","","","object","f","120","true"
"null","<div style=""font-size:60px;"">+</div>","null","html-keyboard-response","368","308209","0.0-6.0-0.181","FAMI","1","m","rechts","22","","fixation","","","",""
"778","img/90_180.png","70","image-keyboard-response","369","309001","0.0-6.0-1.181","FAMI","1","m","rechts","22","","","object","f","90","true"
"null","<div style=""font-size:60px;"">+</div>","null","html-keyboard-response","370","309521","0.0-6.0-0.182","FAMI","1","m","rechts","22","","fixation","","","",""
"2194","img/L120_180.png","74","image-keyboard-response","371","311726","0.0-6.0-1.182","FAMI","1","m","rechts","22","","","object","j","120","true"
"null","<div style=""font-size:60px;"">+</div>","null","html-keyboard-response","372","312050","0.0-6.0-0.183","FAMI","1","m","rechts","22","","fixation","","","",""
"1294","img/90_150.png","74","image-keyboard-response","373","313354","0.0-6.0-1.183","FAMI","1","m","rechts","22","","","object","j","90","true"
"null","<div style=""font-size:60px;"">+</div>","null","html-keyboard-response","374","313771","0.0-6.0-0.184","FAMI","1","m","rechts","22","","fixation","","","",""
"767","img/0_90.png","74","image-keyboard-response","375","314553","0.0-6.0-1.184","FAMI","1","m","rechts","22","","","object","j","0","true"
"null","<div style=""font-size:60px;"">+</div>","null","html-keyboard-response","376","315020","0.0-6.0-0.185","FAMI","1","m","rechts","22","","fixation","","","",""
"1517","img/90_210.png","70","image-keyboard-response","377","316548","0.0-6.0-1.185","FAMI","1","m","rechts","22","","","object","f","90","true"
"null","<div style=""font-size:60px;"">+</div>","null","html-keyboard-response","378","317020","0.0-6.0-0.186","FAMI","1","m","rechts","22","","fixation","","","",""
"1437","img/30_120.png","74","image-keyboard-response","379","318473","0.0-6.0-1.186","FAMI","1","m","rechts","22","","","object","j","30","true"
"null","<div style=""font-size:60px;"">+</div>","null","html-keyboard-response","380","319006","0.0-6.0-0.187","FAMI","1","m","rechts","22","","fixation","","","",""
"1273","img/60_210.png","70","image-keyboard-response","381","320293","0.0-6.0-1.187","FAMI","1","m","rechts","22","","","object","f","60","true"
"null","<div style=""font-size:60px;"">+</div>","null","html-keyboard-response","382","320758","0.0-6.0-0.188","FAMI","1","m","rechts","22","","fixation","","","",""
"1088","img/L150_180.png","74","image-keyboard-response","383","321859","0.0-6.0-1.188","FAMI","1","m","rechts","22","","","object","j","150","true"
"null","<div style=""font-size:60px;"">+</div>","null","html-keyboard-response","384","322366","0.0-6.0-0.189","FAMI","1","m","rechts","22","","fixation","","","",""
"643","img/60_30.png","70","image-keyboard-response","385","323018","0.0-6.0-1.189","FAMI","1","m","rechts","22","","","object","f","60","true"
"null","<div style=""font-size:60px;"">+</div>","null","html-keyboard-response","386","323523","0.0-6.0-0.190","FAMI","1","m","rechts","22","","fixation","","","",""
"743","img/0_60.png","74","image-keyboard-response","387","324276","0.0-6.0-1.190","FAMI","1","m","rechts","22","","","object","j","0","true"
"null","<div style=""font-size:60px;"">+</div>","null","html-keyboard-response","388","324631","0.0-6.0-0.191","FAMI","1","m","rechts","22","","fixation","","","",""
"784","img/150_120.png","70","image-keyboard-response","389","325426","0.0-6.0-1.191","FAMI","1","m","rechts","22","","","object","f","150","true"
"null","<div style=""font-size:60px;"">+</div>","null","html-keyboard-response","390","325743","0.0-6.0-0.192","FAMI","1","m","rechts","22","","fixation","","","",""
"726","img/0_300.png","70","image-keyboard-response","391","326483","0.0-6.0-1.192","FAMI","1","m","rechts","22","","","object","f","0","true"
"null","<div style=""font-size:60px;"">+</div>","null","html-keyboard-response","392","326882","0.0-6.0-0.193","FAMI","1","m","rechts","22","","fixation","","","",""
"2043","img/90_240.png","74","image-keyboard-response","393","328941","0.0-6.0-1.193","FAMI","1","m","rechts","22","","","object","f","90","false"
"null","<div style=""font-size:60px;"">+</div>","null","html-keyboard-response","394","329406","0.0-6.0-0.194","FAMI","1","m","rechts","22","","fixation","","","",""
"1103","img/150_60.png","74","image-keyboard-response","395","330522","0.0-6.0-1.194","FAMI","1","m","rechts","22","","","object","f","150","false"
"null","<div style=""font-size:60px;"">+</div>","null","html-keyboard-response","396","331032","0.0-6.0-0.195","FAMI","1","m","rechts","22","","fixation","","","",""
"984","img/120_150.png","74","image-keyboard-response","397","332029","0.0-6.0-1.195","FAMI","1","m","rechts","22","","","object","j","120","true"
"null","<div style=""font-size:60px;"">+</div>","null","html-keyboard-response","398","332538","0.0-6.0-0.196","FAMI","1","m","rechts","22","","fixation","","","",""
"1131","img/30_270.png","70","image-keyboard-response","399","333683","0.0-6.0-1.196","FAMI","1","m","rechts","22","","","object","f","30","true"
"null","<div style=""font-size:60px;"">+</div>","null","html-keyboard-response","400","334148","0.0-6.0-0.197","FAMI","1","m","rechts","22","","fixation","","","",""
"892","img/60_180.png","74","image-keyboard-response","401","335054","0.0-6.0-1.197","FAMI","1","m","rechts","22","","","object","f","60","false"
"null","<div style=""font-size:60px;"">+</div>","null","html-keyboard-response","402","335413","0.0-6.0-0.198","FAMI","1","m","rechts","22","","fixation","","","",""
"732","img/0_330.png","70","image-keyboard-response","403","336158","0.0-6.0-1.198","FAMI","1","m","rechts","22","","","object","f","0","true"
"null","<div style=""font-size:60px;"">+</div>","null","html-keyboard-response","404","336461","0.0-6.0-0.199","FAMI","1","m","rechts","22","","fixation","","","",""
"915","img/60_90.png","70","image-keyboard-response","405","337386","0.0-6.0-1.199","FAMI","1","m","rechts","22","","","object","j","60","false"
"null","<div style=""font-size:60px;"">+</div>","null","html-keyboard-response","406","337851","0.0-6.0-0.200","FAMI","1","m","rechts","22","","fixation","","","",""
"600","img/60_270.png","74","image-keyboard-response","407","338464","0.0-6.0-1.200","FAMI","1","m","rechts","22","","","object","f","60","false"
"null","<div style=""font-size:60px;"">+</div>","null","html-keyboard-response","408","338867","0.0-6.0-0.201","FAMI","1","m","rechts","22","","fixation","","","",""
"481","img/30_60.png","70","image-keyboard-response","409","339365","0.0-6.0-1.201","FAMI","1","m","rechts","22","","","object","j","30","false"
"null","<div style=""font-size:60px;"">+</div>","null","html-keyboard-response","410","339742","0.0-6.0-0.202","FAMI","1","m","rechts","22","","fixation","","","",""
"595","img/0_120.png","74","image-keyboard-response","411","340354","0.0-6.0-1.202","FAMI","1","m","rechts","22","","","object","j","0","true"
"null","<div style=""font-size:60px;"">+</div>","null","html-keyboard-response","412","340884","0.0-6.0-0.203","FAMI","1","m","rechts","22","","fixation","","","",""
"660","img/0_210.png","70","image-keyboard-response","413","341559","0.0-6.0-1.203","FAMI","1","m","rechts","22","","","object","f","0","true"
"null","<div style=""font-size:60px;"">+</div>","null","html-keyboard-response","414","341884","0.0-6.0-0.204","FAMI","1","m","rechts","22","","fixation","","","",""
"857","img/90_120.png","70","image-keyboard-response","415","342752","0.0-6.0-1.204","FAMI","1","m","rechts","22","","","object","j","90","false"
"null","<div style=""font-size:60px;"">+</div>","null","html-keyboard-response","416","343215","0.0-6.0-0.205","FAMI","1","m","rechts","22","","fixation","","","",""
"1727","img/150_180.png","74","image-keyboard-response","417","344955","0.0-6.0-1.205","FAMI","1","m","rechts","22","","","object","f","150","false"
"null","<div style=""font-size:60px;"">+</div>","null","html-keyboard-response","418","345466","0.0-6.0-0.206","FAMI","1","m","rechts","22","","fixation","","","",""
"1129","img/L60_180.png","70","image-keyboard-response","419","346609","0.0-6.0-1.206","FAMI","1","m","rechts","22","","","object","j","60","false"
"null","<div style=""font-size:60px;"">+</div>","null","html-keyboard-response","420","346919","0.0-6.0-0.207","FAMI","1","m","rechts","22","","fixation","","","",""
"1174","img/150_240.png","74","image-keyboard-response","421","348107","0.0-6.0-1.207","FAMI","1","m","rechts","22","","","object","j","150","true"
"13789","<p>Du hast in 79% der Versuche korrekt entschieden.</p><p>Deine durchschnittliche Reaktionszeit war  1018ms.</p><p>Dr&uuml;cke eine beliebige Taste, um die Session zu beenden. Vielen Dank!</p>","32","html-keyboard-response","422","361903","0.0-7.0","FAMI","1","m","rechts","22","","","","","",""
