"rt","stimulus","key_press","trial_type","trial_index","time_elapsed","internal_node_id","subject","session","sex","handedness","age","responses","test_part","condition","correct_response","angle","correct"
"1369","<p>Mental Rotation Experiment.</p> <p>Dr&uuml;cke eine beliebige Taste, um anzufangen.</p>","13","html-keyboard-response","0","1406","0.0-0.0","FAMI","2","m","rechts","22","","","","","",""
"3001","","","survey-text","1","4408","0.0-1.0","FAMI","2","m","rechts","22","{""Q0"":""FAMI""}","","","","",""
"2662","","","survey-text","2","7071","0.0-2.0","FAMI","2","m","rechts","22","{""Q0"":""2""}","","","","",""
"2437","","","survey-multi-choice","3","9521","0.0-3.0","FAMI","2","m","rechts","22","{""Q0"":""m"",""Q1"":""rechts""}","","","","",""
"1703","","","survey-text","4","11226","0.0-4.0","FAMI","2","m","rechts","22","{""Q0"":""22""}","","","","",""
"9344","<p>Stell dir vor, dass du vor einem runden Tisch stehst, auf dem sich ein blauer Ball am Tischrand befindet. Entlang des Tischrands ist jeweils ein verschieden langer Pfeil. Nun bleibst du an deinem Platz vor dem Tisch und rotierst den Tisch entlang des Pfeils (gleiche Richtung und Länge). </p> <img src='img/30_180.png'></img> <br><p> Nachdem du diese (vorgestellte) Rotation durchgef&uuml;hrt hast, schau in Richtung der Tischmitte, und entscheide dann, ob der Ball links oder rechts von dir liegt.</p> <p>Dr&uuml;cke die <strong>'f'</strong>-Taste f&uuml;r links, die <strong>'j'</strong>-Taste f&uuml;r rechts.</p><br><p> Das Bild wird jeweils 1 Sekunde lang pr&auml;sentiert. Du hast 3 Sekunden Zeit eine Entscheidung zu treffen.</p>","70","html-keyboard-response","5","20581","0.0-5.0","FAMI","2","m","rechts","22","","","","","",""
"null","<div style=""font-size:60px;"">+</div>","null","html-keyboard-response","6","22014","0.0-6.0-0.0","FAMI","2","m","rechts","22","","fixation","","","",""
"1012","img/90_300.png","74","image-keyboard-response","7","23045","0.0-6.0-1.0","FAMI","2","m","rechts","22","","","object","j","90","true"
"null","<div style=""font-size:60px;"">+</div>","null","html-keyboard-response","8","23369","0.0-6.0-0.1","FAMI","2","m","rechts","22","","fixation","","","",""
"989","img/90_180.png","70","image-keyboard-response","9","24375","0.0-6.0-1.1","FAMI","2","m","rechts","22","","","object","f","90","true"
"null","<div style=""font-size:60px;"">+</div>","null","html-keyboard-response","10","24681","0.0-6.0-0.2","FAMI","2","m","rechts","22","","fixation","","","",""
"826","img/0_210.png","70","image-keyboard-response","11","25526","0.0-6.0-1.2","FAMI","2","m","rechts","22","","","object","f","0","true"
"null","<div style=""font-size:60px;"">+</div>","null","html-keyboard-response","12","26040","0.0-6.0-0.3","FAMI","2","m","rechts","22","","fixation","","","",""
"682","img/60_30.png","70","image-keyboard-response","13","26741","0.0-6.0-1.3","FAMI","2","m","rechts","22","","","object","f","60","true"
"null","<div style=""font-size:60px;"">+</div>","null","html-keyboard-response","14","27211","0.0-6.0-0.4","FAMI","2","m","rechts","22","","fixation","","","",""
"986","img/30_90.png","74","image-keyboard-response","15","28214","0.0-6.0-1.4","FAMI","2","m","rechts","22","","","object","j","30","true"
"null","<div style=""font-size:60px;"">+</div>","null","html-keyboard-response","16","28733","0.0-6.0-0.5","FAMI","2","m","rechts","22","","fixation","","","",""
"775","img/0_30.png","74","image-keyboard-response","17","29530","0.0-6.0-1.5","FAMI","2","m","rechts","22","","","object","j","0","true"
"null","<div style=""font-size:60px;"">+</div>","null","html-keyboard-response","18","29838","0.0-6.0-0.6","FAMI","2","m","rechts","22","","fixation","","","",""
"711","img/0_90.png","74","image-keyboard-response","19","30565","0.0-6.0-1.6","FAMI","2","m","rechts","22","","","object","j","0","true"
"null","<div style=""font-size:60px;"">+</div>","null","html-keyboard-response","20","30994","0.0-6.0-0.7","FAMI","2","m","rechts","22","","fixation","","","",""
"975","img/120_210.png","70","image-keyboard-response","21","31995","0.0-6.0-1.7","FAMI","2","m","rechts","22","","","object","f","120","true"
"null","<div style=""font-size:60px;"">+</div>","null","html-keyboard-response","22","32462","0.0-6.0-0.8","FAMI","2","m","rechts","22","","fixation","","","",""
"840","img/150_90.png","70","image-keyboard-response","23","33322","0.0-6.0-1.8","FAMI","2","m","rechts","22","","","object","f","150","true"
"null","<div style=""font-size:60px;"">+</div>","null","html-keyboard-response","24","33682","0.0-6.0-0.9","FAMI","2","m","rechts","22","","fixation","","","",""
"930","img/90_120.png","70","image-keyboard-response","25","34637","0.0-6.0-1.9","FAMI","2","m","rechts","22","","","object","j","90","false"
"null","<div style=""font-size:60px;"">+</div>","null","html-keyboard-response","26","34995","0.0-6.0-0.10","FAMI","2","m","rechts","22","","fixation","","","",""
"1464","img/30_60.png","74","image-keyboard-response","27","36478","0.0-6.0-1.10","FAMI","2","m","rechts","22","","","object","j","30","true"
"null","<div style=""font-size:60px;"">+</div>","null","html-keyboard-response","28","36933","0.0-6.0-0.11","FAMI","2","m","rechts","22","","fixation","","","",""
"692","img/0_300.png","70","image-keyboard-response","29","37642","0.0-6.0-1.11","FAMI","2","m","rechts","22","","","object","f","0","true"
"null","<div style=""font-size:60px;"">+</div>","null","html-keyboard-response","30","38166","0.0-6.0-0.12","FAMI","2","m","rechts","22","","fixation","","","",""
"588","img/0_240.png","70","image-keyboard-response","31","38767","0.0-6.0-1.12","FAMI","2","m","rechts","22","","","object","f","0","true"
"null","<div style=""font-size:60px;"">+</div>","null","html-keyboard-response","32","39276","0.0-6.0-0.13","FAMI","2","m","rechts","22","","fixation","","","",""
"821","img/120_270.png","74","image-keyboard-response","33","40116","0.0-6.0-1.13","FAMI","2","m","rechts","22","","","object","j","120","true"
"null","<div style=""font-size:60px;"">+</div>","null","html-keyboard-response","34","40635","0.0-6.0-0.14","FAMI","2","m","rechts","22","","fixation","","","",""
"655","img/90_30.png","70","image-keyboard-response","35","41310","0.0-6.0-1.14","FAMI","2","m","rechts","22","","","object","f","90","true"
"null","<div style=""font-size:60px;"">+</div>","null","html-keyboard-response","36","41713","0.0-6.0-0.15","FAMI","2","m","rechts","22","","fixation","","","",""
"871","img/L120_180.png","74","image-keyboard-response","37","42603","0.0-6.0-1.15","FAMI","2","m","rechts","22","","","object","j","120","true"
"null","<div style=""font-size:60px;"">+</div>","null","html-keyboard-response","38","42979","0.0-6.0-0.16","FAMI","2","m","rechts","22","","fixation","","","",""
"1572","img/120_180.png","70","image-keyboard-response","39","44573","0.0-6.0-1.16","FAMI","2","m","rechts","22","","","object","f","120","true"
"null","<div style=""font-size:60px;"">+</div>","null","html-keyboard-response","40","44934","0.0-6.0-0.17","FAMI","2","m","rechts","22","","fixation","","","",""
"1048","img/150_120.png","70","image-keyboard-response","41","46001","0.0-6.0-1.17","FAMI","2","m","rechts","22","","","object","f","150","true"
"null","<div style=""font-size:60px;"">+</div>","null","html-keyboard-response","42","46480","0.0-6.0-0.18","FAMI","2","m","rechts","22","","fixation","","","",""
"853","img/60_150.png","74","image-keyboard-response","43","47352","0.0-6.0-1.18","FAMI","2","m","rechts","22","","","object","j","60","true"
"null","<div style=""font-size:60px;"">+</div>","null","html-keyboard-response","44","47855","0.0-6.0-0.19","FAMI","2","m","rechts","22","","fixation","","","",""
"693","img/0_120.png","74","image-keyboard-response","45","48565","0.0-6.0-1.19","FAMI","2","m","rechts","22","","","object","j","0","true"
"null","<div style=""font-size:60px;"">+</div>","null","html-keyboard-response","46","49072","0.0-6.0-0.20","FAMI","2","m","rechts","22","","fixation","","","",""
"647","img/0_330.png","70","image-keyboard-response","47","49737","0.0-6.0-1.20","FAMI","2","m","rechts","22","","","object","f","0","true"
"null","<div style=""font-size:60px;"">+</div>","null","html-keyboard-response","48","50137","0.0-6.0-0.21","FAMI","2","m","rechts","22","","fixation","","","",""
"1098","img/150_240.png","74","image-keyboard-response","49","51254","0.0-6.0-1.21","FAMI","2","m","rechts","22","","","object","j","150","true"
"null","<div style=""font-size:60px;"">+</div>","null","html-keyboard-response","50","51560","0.0-6.0-0.22","FAMI","2","m","rechts","22","","fixation","","","",""
"935","img/90_60.png","70","image-keyboard-response","51","52513","0.0-6.0-1.22","FAMI","2","m","rechts","22","","","object","f","90","true"
"null","<div style=""font-size:60px;"">+</div>","null","html-keyboard-response","52","53028","0.0-6.0-0.23","FAMI","2","m","rechts","22","","fixation","","","",""
"918","img/90_150.png","70","image-keyboard-response","53","53966","0.0-6.0-1.23","FAMI","2","m","rechts","22","","","object","j","90","false"
"null","<div style=""font-size:60px;"">+</div>","null","html-keyboard-response","54","54439","0.0-6.0-0.24","FAMI","2","m","rechts","22","","fixation","","","",""
"667","img/0_60.png","74","image-keyboard-response","55","55124","0.0-6.0-1.24","FAMI","2","m","rechts","22","","","object","j","0","true"
"null","<div style=""font-size:60px;"">+</div>","null","html-keyboard-response","56","55548","0.0-6.0-0.25","FAMI","2","m","rechts","22","","fixation","","","",""
"1981","img/150_180.png","70","image-keyboard-response","57","57548","0.0-6.0-1.25","FAMI","2","m","rechts","22","","","object","f","150","true"
"null","<div style=""font-size:60px;"">+</div>","null","html-keyboard-response","58","58062","0.0-6.0-0.26","FAMI","2","m","rechts","22","","fixation","","","",""
"1296","img/150_60.png","70","image-keyboard-response","59","59378","0.0-6.0-1.26","FAMI","2","m","rechts","22","","","object","f","150","true"
"null","<div style=""font-size:60px;"">+</div>","null","html-keyboard-response","60","59737","0.0-6.0-0.27","FAMI","2","m","rechts","22","","fixation","","","",""
"883","img/120_30.png","70","image-keyboard-response","61","60638","0.0-6.0-1.27","FAMI","2","m","rechts","22","","","object","f","120","true"
"null","<div style=""font-size:60px;"">+</div>","null","html-keyboard-response","62","61159","0.0-6.0-0.28","FAMI","2","m","rechts","22","","fixation","","","",""
"1255","img/120_150.png","74","image-keyboard-response","63","62435","0.0-6.0-1.28","FAMI","2","m","rechts","22","","","object","j","120","true"
"null","<div style=""font-size:60px;"">+</div>","null","html-keyboard-response","64","62894","0.0-6.0-0.29","FAMI","2","m","rechts","22","","fixation","","","",""
"1022","img/60_270.png","74","image-keyboard-response","65","63933","0.0-6.0-1.29","FAMI","2","m","rechts","22","","","object","f","60","false"
"null","<div style=""font-size:60px;"">+</div>","null","html-keyboard-response","66","64393","0.0-6.0-0.30","FAMI","2","m","rechts","22","","fixation","","","",""
"656","img/0_150.png","74","image-keyboard-response","67","65070","0.0-6.0-1.30","FAMI","2","m","rechts","22","","","object","j","0","true"
"null","<div style=""font-size:60px;"">+</div>","null","html-keyboard-response","68","65551","0.0-6.0-0.31","FAMI","2","m","rechts","22","","fixation","","","",""
"2213","img/L30_180.png","74","image-keyboard-response","69","67781","0.0-6.0-1.31","FAMI","2","m","rechts","22","","","object","j","30","true"
"null","<div style=""font-size:60px;"">+</div>","null","html-keyboard-response","70","68183","0.0-6.0-0.32","FAMI","2","m","rechts","22","","fixation","","","",""
"1130","img/L90_180.png","74","image-keyboard-response","71","69322","0.0-6.0-1.32","FAMI","2","m","rechts","22","","","object","j","90","true"
"null","<div style=""font-size:60px;"">+</div>","null","html-keyboard-response","72","69677","0.0-6.0-0.33","FAMI","2","m","rechts","22","","fixation","","","",""
"1112","img/30_270.png","70","image-keyboard-response","73","70806","0.0-6.0-1.33","FAMI","2","m","rechts","22","","","object","f","30","true"
"null","<div style=""font-size:60px;"">+</div>","null","html-keyboard-response","74","71114","0.0-6.0-0.34","FAMI","2","m","rechts","22","","fixation","","","",""
"891","img/150_300.png","74","image-keyboard-response","75","72023","0.0-6.0-1.34","FAMI","2","m","rechts","22","","","object","j","150","true"
"null","<div style=""font-size:60px;"">+</div>","null","html-keyboard-response","76","72426","0.0-6.0-0.35","FAMI","2","m","rechts","22","","fixation","","","",""
"862","img/90_330.png","74","image-keyboard-response","77","73305","0.0-6.0-1.35","FAMI","2","m","rechts","22","","","object","j","90","true"
"null","<div style=""font-size:60px;"">+</div>","null","html-keyboard-response","78","73770","0.0-6.0-0.36","FAMI","2","m","rechts","22","","fixation","","","",""
"812","img/30_300.png","74","image-keyboard-response","79","74599","0.0-6.0-1.36","FAMI","2","m","rechts","22","","","object","f","30","false"
"null","<div style=""font-size:60px;"">+</div>","null","html-keyboard-response","80","75129","0.0-6.0-0.37","FAMI","2","m","rechts","22","","fixation","","","",""
"1223","img/60_180.png","70","image-keyboard-response","81","76376","0.0-6.0-1.37","FAMI","2","m","rechts","22","","","object","f","60","true"
"null","<div style=""font-size:60px;"">+</div>","null","html-keyboard-response","82","76833","0.0-6.0-0.38","FAMI","2","m","rechts","22","","fixation","","","",""
"1573","img/30_120.png","74","image-keyboard-response","83","78423","0.0-6.0-1.38","FAMI","2","m","rechts","22","","","object","j","30","true"
"null","<div style=""font-size:60px;"">+</div>","null","html-keyboard-response","84","78941","0.0-6.0-0.39","FAMI","2","m","rechts","22","","fixation","","","",""
"1290","img/30_180.png","70","image-keyboard-response","85","80244","0.0-6.0-1.39","FAMI","2","m","rechts","22","","","object","f","30","true"
"null","<div style=""font-size:60px;"">+</div>","null","html-keyboard-response","86","80772","0.0-6.0-0.40","FAMI","2","m","rechts","22","","fixation","","","",""
"1569","img/60_330.png","74","image-keyboard-response","87","82360","0.0-6.0-1.40","FAMI","2","m","rechts","22","","","object","j","60","true"
"null","<div style=""font-size:60px;"">+</div>","null","html-keyboard-response","88","82772","0.0-6.0-0.41","FAMI","2","m","rechts","22","","fixation","","","",""
"740","img/0_270.png","70","image-keyboard-response","89","83531","0.0-6.0-1.41","FAMI","2","m","rechts","22","","","object","f","0","true"
"null","<div style=""font-size:60px;"">+</div>","null","html-keyboard-response","90","83913","0.0-6.0-0.42","FAMI","2","m","rechts","22","","fixation","","","",""
"772","img/30_240.png","74","image-keyboard-response","91","84703","0.0-6.0-1.42","FAMI","2","m","rechts","22","","","object","f","30","false"
"null","<div style=""font-size:60px;"">+</div>","null","html-keyboard-response","92","85123","0.0-6.0-0.43","FAMI","2","m","rechts","22","","fixation","","","",""
"1044","img/60_210.png","70","image-keyboard-response","93","86185","0.0-6.0-1.43","FAMI","2","m","rechts","22","","","object","f","60","true"
"null","<div style=""font-size:60px;"">+</div>","null","html-keyboard-response","94","86513","0.0-6.0-0.44","FAMI","2","m","rechts","22","","fixation","","","",""
"770","img/90_210.png","70","image-keyboard-response","95","87300","0.0-6.0-1.44","FAMI","2","m","rechts","22","","","object","f","90","true"
"null","<div style=""font-size:60px;"">+</div>","null","html-keyboard-response","96","87670","0.0-6.0-0.45","FAMI","2","m","rechts","22","","fixation","","","",""
"790","img/120_330.png","74","image-keyboard-response","97","88480","0.0-6.0-1.45","FAMI","2","m","rechts","22","","","object","j","120","true"
"null","<div style=""font-size:60px;"">+</div>","null","html-keyboard-response","98","88904","0.0-6.0-0.46","FAMI","2","m","rechts","22","","fixation","","","",""
"1234","img/L150_180.png","74","image-keyboard-response","99","90157","0.0-6.0-1.46","FAMI","2","m","rechts","22","","","object","j","150","true"
"null","<div style=""font-size:60px;"">+</div>","null","html-keyboard-response","100","90568","0.0-6.0-0.47","FAMI","2","m","rechts","22","","fixation","","","",""
"875","img/120_90.png","70","image-keyboard-response","101","91461","0.0-6.0-1.47","FAMI","2","m","rechts","22","","","object","f","120","true"
"null","<div style=""font-size:60px;"">+</div>","null","html-keyboard-response","102","91943","0.0-6.0-0.48","FAMI","2","m","rechts","22","","fixation","","","",""
"928","img/60_90.png","70","image-keyboard-response","103","92893","0.0-6.0-1.48","FAMI","2","m","rechts","22","","","object","j","60","false"
"null","<div style=""font-size:60px;"">+</div>","null","html-keyboard-response","104","93396","0.0-6.0-0.49","FAMI","2","m","rechts","22","","fixation","","","",""
"1241","img/150_270.png","74","image-keyboard-response","105","94657","0.0-6.0-1.49","FAMI","2","m","rechts","22","","","object","j","150","true"
"null","<div style=""font-size:60px;"">+</div>","null","html-keyboard-response","106","95084","0.0-6.0-0.50","FAMI","2","m","rechts","22","","fixation","","","",""
"779","img/L60_180.png","74","image-keyboard-response","107","95881","0.0-6.0-1.50","FAMI","2","m","rechts","22","","","object","j","60","true"
"null","<div style=""font-size:60px;"">+</div>","null","html-keyboard-response","108","96287","0.0-6.0-0.51","FAMI","2","m","rechts","22","","fixation","","","",""
"1784","img/90_240.png","70","image-keyboard-response","109","98089","0.0-6.0-1.51","FAMI","2","m","rechts","22","","","object","f","90","true"
"null","<div style=""font-size:60px;"">+</div>","null","html-keyboard-response","110","98397","0.0-6.0-0.52","FAMI","2","m","rechts","22","","fixation","","","",""
"1089","img/L90_180.png","74","image-keyboard-response","111","99495","0.0-6.0-1.52","FAMI","2","m","rechts","22","","","object","j","90","true"
"null","<div style=""font-size:60px;"">+</div>","null","html-keyboard-response","112","99973","0.0-6.0-0.53","FAMI","2","m","rechts","22","","fixation","","","",""
"736","img/120_330.png","74","image-keyboard-response","113","100721","0.0-6.0-1.53","FAMI","2","m","rechts","22","","","object","j","120","true"
"null","<div style=""font-size:60px;"">+</div>","null","html-keyboard-response","114","101084","0.0-6.0-0.54","FAMI","2","m","rechts","22","","fixation","","","",""
"675","img/120_30.png","70","image-keyboard-response","115","101767","0.0-6.0-1.54","FAMI","2","m","rechts","22","","","object","f","120","true"
"null","<div style=""font-size:60px;"">+</div>","null","html-keyboard-response","116","102223","0.0-6.0-0.55","FAMI","2","m","rechts","22","","fixation","","","",""
"1346","img/90_150.png","74","image-keyboard-response","117","103577","0.0-6.0-1.55","FAMI","2","m","rechts","22","","","object","j","90","true"
"null","<div style=""font-size:60px;"">+</div>","null","html-keyboard-response","118","103958","0.0-6.0-0.56","FAMI","2","m","rechts","22","","fixation","","","",""
"1467","img/120_150.png","74","image-keyboard-response","119","105434","0.0-6.0-1.56","FAMI","2","m","rechts","22","","","object","j","120","true"
"null","<div style=""font-size:60px;"">+</div>","null","html-keyboard-response","120","105802","0.0-6.0-0.57","FAMI","2","m","rechts","22","","fixation","","","",""
"926","img/30_270.png","70","image-keyboard-response","121","106737","0.0-6.0-1.57","FAMI","2","m","rechts","22","","","object","f","30","true"
"null","<div style=""font-size:60px;"">+</div>","null","html-keyboard-response","122","107114","0.0-6.0-0.58","FAMI","2","m","rechts","22","","fixation","","","",""
"1300","img/120_180.png","70","image-keyboard-response","123","108427","0.0-6.0-1.58","FAMI","2","m","rechts","22","","","object","f","120","true"
"null","<div style=""font-size:60px;"">+</div>","null","html-keyboard-response","124","108738","0.0-6.0-0.59","FAMI","2","m","rechts","22","","fixation","","","",""
"930","img/150_60.png","70","image-keyboard-response","125","109677","0.0-6.0-1.59","FAMI","2","m","rechts","22","","","object","f","150","true"
"null","<div style=""font-size:60px;"">+</div>","null","html-keyboard-response","126","110140","0.0-6.0-0.60","FAMI","2","m","rechts","22","","fixation","","","",""
"1686","img/60_210.png","70","image-keyboard-response","127","111837","0.0-6.0-1.60","FAMI","2","m","rechts","22","","","object","f","60","true"
"null","<div style=""font-size:60px;"">+</div>","null","html-keyboard-response","128","112344","0.0-6.0-0.61","FAMI","2","m","rechts","22","","fixation","","","",""
"687","img/90_60.png","70","image-keyboard-response","129","113040","0.0-6.0-1.61","FAMI","2","m","rechts","22","","","object","f","90","true"
"null","<div style=""font-size:60px;"">+</div>","null","html-keyboard-response","130","113405","0.0-6.0-0.62","FAMI","2","m","rechts","22","","fixation","","","",""
"752","img/30_120.png","74","image-keyboard-response","131","114166","0.0-6.0-1.62","FAMI","2","m","rechts","22","","","object","j","30","true"
"null","<div style=""font-size:60px;"">+</div>","null","html-keyboard-response","132","114678","0.0-6.0-0.63","FAMI","2","m","rechts","22","","fixation","","","",""
"1016","img/30_90.png","74","image-keyboard-response","133","115707","0.0-6.0-1.63","FAMI","2","m","rechts","22","","","object","j","30","true"
"null","<div style=""font-size:60px;"">+</div>","null","html-keyboard-response","134","116072","0.0-6.0-0.64","FAMI","2","m","rechts","22","","fixation","","","",""
"749","img/0_150.png","74","image-keyboard-response","135","116833","0.0-6.0-1.64","FAMI","2","m","rechts","22","","","object","j","0","true"
"null","<div style=""font-size:60px;"">+</div>","null","html-keyboard-response","136","117149","0.0-6.0-0.65","FAMI","2","m","rechts","22","","fixation","","","",""
"647","img/60_30.png","70","image-keyboard-response","137","117811","0.0-6.0-1.65","FAMI","2","m","rechts","22","","","object","f","60","true"
"null","<div style=""font-size:60px;"">+</div>","null","html-keyboard-response","138","118322","0.0-6.0-0.66","FAMI","2","m","rechts","22","","fixation","","","",""
"1039","img/150_120.png","70","image-keyboard-response","139","119374","0.0-6.0-1.66","FAMI","2","m","rechts","22","","","object","f","150","true"
"null","<div style=""font-size:60px;"">+</div>","null","html-keyboard-response","140","119837","0.0-6.0-0.67","FAMI","2","m","rechts","22","","fixation","","","",""
"811","img/150_300.png","74","image-keyboard-response","141","120657","0.0-6.0-1.67","FAMI","2","m","rechts","22","","","object","j","150","true"
"null","<div style=""font-size:60px;"">+</div>","null","html-keyboard-response","142","121185","0.0-6.0-0.68","FAMI","2","m","rechts","22","","fixation","","","",""
"1182","img/30_180.png","70","image-keyboard-response","143","122378","0.0-6.0-1.68","FAMI","2","m","rechts","22","","","object","f","30","true"
"null","<div style=""font-size:60px;"">+</div>","null","html-keyboard-response","144","122889","0.0-6.0-0.69","FAMI","2","m","rechts","22","","fixation","","","",""
"871","img/90_210.png","70","image-keyboard-response","145","123770","0.0-6.0-1.69","FAMI","2","m","rechts","22","","","object","f","90","true"
"null","<div style=""font-size:60px;"">+</div>","null","html-keyboard-response","146","124202","0.0-6.0-0.70","FAMI","2","m","rechts","22","","fixation","","","",""
"643","img/60_330.png","74","image-keyboard-response","147","124854","0.0-6.0-1.70","FAMI","2","m","rechts","22","","","object","j","60","true"
"null","<div style=""font-size:60px;"">+</div>","null","html-keyboard-response","148","125274","0.0-6.0-0.71","FAMI","2","m","rechts","22","","fixation","","","",""
"1203","img/150_240.png","74","image-keyboard-response","149","126483","0.0-6.0-1.71","FAMI","2","m","rechts","22","","","object","j","150","true"
"null","<div style=""font-size:60px;"">+</div>","null","html-keyboard-response","150","126945","0.0-6.0-0.72","FAMI","2","m","rechts","22","","fixation","","","",""
"1169","img/90_180.png","70","image-keyboard-response","151","128127","0.0-6.0-1.72","FAMI","2","m","rechts","22","","","object","f","90","true"
"null","<div style=""font-size:60px;"">+</div>","null","html-keyboard-response","152","128556","0.0-6.0-0.73","FAMI","2","m","rechts","22","","fixation","","","",""
"710","img/L60_180.png","74","image-keyboard-response","153","129274","0.0-6.0-1.73","FAMI","2","m","rechts","22","","","object","j","60","true"
"null","<div style=""font-size:60px;"">+</div>","null","html-keyboard-response","154","129586","0.0-6.0-0.74","FAMI","2","m","rechts","22","","fixation","","","",""
"1311","img/30_240.png","70","image-keyboard-response","155","130906","0.0-6.0-1.74","FAMI","2","m","rechts","22","","","object","f","30","true"
"null","<div style=""font-size:60px;"">+</div>","null","html-keyboard-response","156","131335","0.0-6.0-0.75","FAMI","2","m","rechts","22","","fixation","","","",""
"688","img/0_120.png","74","image-keyboard-response","157","132031","0.0-6.0-1.75","FAMI","2","m","rechts","22","","","object","j","0","true"
"null","<div style=""font-size:60px;"">+</div>","null","html-keyboard-response","158","132336","0.0-6.0-0.76","FAMI","2","m","rechts","22","","fixation","","","",""
"1025","img/90_120.png","70","image-keyboard-response","159","133369","0.0-6.0-1.76","FAMI","2","m","rechts","22","","","object","j","90","false"
"null","<div style=""font-size:60px;"">+</div>","null","html-keyboard-response","160","133729","0.0-6.0-0.77","FAMI","2","m","rechts","22","","fixation","","","",""
"774","img/0_240.png","70","image-keyboard-response","161","134517","0.0-6.0-1.77","FAMI","2","m","rechts","22","","","object","f","0","true"
"null","<div style=""font-size:60px;"">+</div>","null","html-keyboard-response","162","135040","0.0-6.0-0.78","FAMI","2","m","rechts","22","","fixation","","","",""
"712","img/60_270.png","74","image-keyboard-response","163","135767","0.0-6.0-1.78","FAMI","2","m","rechts","22","","","object","f","60","false"
"null","<div style=""font-size:60px;"">+</div>","null","html-keyboard-response","164","136196","0.0-6.0-0.79","FAMI","2","m","rechts","22","","fixation","","","",""
"617","img/90_330.png","74","image-keyboard-response","165","136822","0.0-6.0-1.79","FAMI","2","m","rechts","22","","","object","j","90","true"
"null","<div style=""font-size:60px;"">+</div>","null","html-keyboard-response","166","137242","0.0-6.0-0.80","FAMI","2","m","rechts","22","","fixation","","","",""
"965","img/30_300.png","70","image-keyboard-response","167","138218","0.0-6.0-1.80","FAMI","2","m","rechts","22","","","object","f","30","true"
"null","<div style=""font-size:60px;"">+</div>","null","html-keyboard-response","168","138743","0.0-6.0-0.81","FAMI","2","m","rechts","22","","fixation","","","",""
"926","img/0_90.png","74","image-keyboard-response","169","139681","0.0-6.0-1.81","FAMI","2","m","rechts","22","","","object","j","0","true"
"null","<div style=""font-size:60px;"">+</div>","null","html-keyboard-response","170","140044","0.0-6.0-0.82","FAMI","2","m","rechts","22","","fixation","","","",""
"953","img/150_180.png","70","image-keyboard-response","171","141010","0.0-6.0-1.82","FAMI","2","m","rechts","22","","","object","f","150","true"
"null","<div style=""font-size:60px;"">+</div>","null","html-keyboard-response","172","141464","0.0-6.0-0.83","FAMI","2","m","rechts","22","","fixation","","","",""
"896","img/120_90.png","70","image-keyboard-response","173","142369","0.0-6.0-1.83","FAMI","2","m","rechts","22","","","object","f","120","true"
"null","<div style=""font-size:60px;"">+</div>","null","html-keyboard-response","174","142822","0.0-6.0-0.84","FAMI","2","m","rechts","22","","fixation","","","",""
"706","img/0_270.png","70","image-keyboard-response","175","143538","0.0-6.0-1.84","FAMI","2","m","rechts","22","","","object","f","0","true"
"null","<div style=""font-size:60px;"">+</div>","null","html-keyboard-response","176","143865","0.0-6.0-0.85","FAMI","2","m","rechts","22","","fixation","","","",""
"724","img/90_240.png","74","image-keyboard-response","177","144595","0.0-6.0-1.85","FAMI","2","m","rechts","22","","","object","f","90","false"
"null","<div style=""font-size:60px;"">+</div>","null","html-keyboard-response","178","144907","0.0-6.0-0.86","FAMI","2","m","rechts","22","","fixation","","","",""
"847","img/120_210.png","74","image-keyboard-response","179","145768","0.0-6.0-1.86","FAMI","2","m","rechts","22","","","object","f","120","false"
"null","<div style=""font-size:60px;"">+</div>","null","html-keyboard-response","180","146142","0.0-6.0-0.87","FAMI","2","m","rechts","22","","fixation","","","",""
"608","img/90_300.png","74","image-keyboard-response","181","146765","0.0-6.0-1.87","FAMI","2","m","rechts","22","","","object","j","90","true"
"null","<div style=""font-size:60px;"">+</div>","null","html-keyboard-response","182","147084","0.0-6.0-0.88","FAMI","2","m","rechts","22","","fixation","","","",""
"605","img/120_270.png","74","image-keyboard-response","183","147703","0.0-6.0-1.88","FAMI","2","m","rechts","22","","","object","j","120","true"
"null","<div style=""font-size:60px;"">+</div>","null","html-keyboard-response","184","148019","0.0-6.0-0.89","FAMI","2","m","rechts","22","","fixation","","","",""
"1355","img/L30_180.png","74","image-keyboard-response","185","149387","0.0-6.0-1.89","FAMI","2","m","rechts","22","","","object","j","30","true"
"null","<div style=""font-size:60px;"">+</div>","null","html-keyboard-response","186","149910","0.0-6.0-0.90","FAMI","2","m","rechts","22","","fixation","","","",""
"647","img/0_300.png","70","image-keyboard-response","187","150570","0.0-6.0-1.90","FAMI","2","m","rechts","22","","","object","f","0","true"
"null","<div style=""font-size:60px;"">+</div>","null","html-keyboard-response","188","150982","0.0-6.0-0.91","FAMI","2","m","rechts","22","","fixation","","","",""
"747","img/60_90.png","70","image-keyboard-response","189","151741","0.0-6.0-1.91","FAMI","2","m","rechts","22","","","object","j","60","false"
"null","<div style=""font-size:60px;"">+</div>","null","html-keyboard-response","190","152218","0.0-6.0-0.92","FAMI","2","m","rechts","22","","fixation","","","",""
"920","img/150_270.png","74","image-keyboard-response","191","153148","0.0-6.0-1.92","FAMI","2","m","rechts","22","","","object","j","150","true"
"null","<div style=""font-size:60px;"">+</div>","null","html-keyboard-response","192","153608","0.0-6.0-0.93","FAMI","2","m","rechts","22","","fixation","","","",""
"1058","img/L150_180.png","74","image-keyboard-response","193","154674","0.0-6.0-1.93","FAMI","2","m","rechts","22","","","object","j","150","true"
"null","<div style=""font-size:60px;"">+</div>","null","html-keyboard-response","194","155144","0.0-6.0-0.94","FAMI","2","m","rechts","22","","fixation","","","",""
"675","img/0_60.png","74","image-keyboard-response","195","155825","0.0-6.0-1.94","FAMI","2","m","rechts","22","","","object","j","0","true"
"null","<div style=""font-size:60px;"">+</div>","null","html-keyboard-response","196","156148","0.0-6.0-0.95","FAMI","2","m","rechts","22","","fixation","","","",""
"911","img/150_90.png","70","image-keyboard-response","197","157072","0.0-6.0-1.95","FAMI","2","m","rechts","22","","","object","f","150","true"
"null","<div style=""font-size:60px;"">+</div>","null","html-keyboard-response","198","157608","0.0-6.0-0.96","FAMI","2","m","rechts","22","","fixation","","","",""
"622","img/30_60.png","70","image-keyboard-response","199","158244","0.0-6.0-1.96","FAMI","2","m","rechts","22","","","object","j","30","false"
"null","<div style=""font-size:60px;"">+</div>","null","html-keyboard-response","200","158611","0.0-6.0-0.97","FAMI","2","m","rechts","22","","fixation","","","",""
"1464","img/L120_180.png","74","image-keyboard-response","201","160088","0.0-6.0-1.97","FAMI","2","m","rechts","22","","","object","j","120","true"
"null","<div style=""font-size:60px;"">+</div>","null","html-keyboard-response","202","160462","0.0-6.0-0.98","FAMI","2","m","rechts","22","","fixation","","","",""
"659","img/0_330.png","70","image-keyboard-response","203","161136","0.0-6.0-1.98","FAMI","2","m","rechts","22","","","object","f","0","true"
"null","<div style=""font-size:60px;"">+</div>","null","html-keyboard-response","204","161552","0.0-6.0-0.99","FAMI","2","m","rechts","22","","fixation","","","",""
"1459","img/60_180.png","70","image-keyboard-response","205","163027","0.0-6.0-1.99","FAMI","2","m","rechts","22","","","object","f","60","true"
"null","<div style=""font-size:60px;"">+</div>","null","html-keyboard-response","206","163389","0.0-6.0-0.100","FAMI","2","m","rechts","22","","fixation","","","",""
"698","img/0_30.png","74","image-keyboard-response","207","164096","0.0-6.0-1.100","FAMI","2","m","rechts","22","","","object","j","0","true"
"null","<div style=""font-size:60px;"">+</div>","null","html-keyboard-response","208","164408","0.0-6.0-0.101","FAMI","2","m","rechts","22","","fixation","","","",""
"1052","img/60_150.png","70","image-keyboard-response","209","165466","0.0-6.0-1.101","FAMI","2","m","rechts","22","","","object","j","60","false"
"null","<div style=""font-size:60px;"">+</div>","null","html-keyboard-response","210","165822","0.0-6.0-0.102","FAMI","2","m","rechts","22","","fixation","","","",""
"734","img/90_30.png","70","image-keyboard-response","211","166569","0.0-6.0-1.102","FAMI","2","m","rechts","22","","","object","f","90","true"
"null","<div style=""font-size:60px;"">+</div>","null","html-keyboard-response","212","166930","0.0-6.0-0.103","FAMI","2","m","rechts","22","","fixation","","","",""
"694","img/0_210.png","70","image-keyboard-response","213","167638","0.0-6.0-1.103","FAMI","2","m","rechts","22","","","object","f","0","true"
"null","<div style=""font-size:60px;"">+</div>","null","html-keyboard-response","214","167994","0.0-6.0-0.104","FAMI","2","m","rechts","22","","fixation","","","",""
"625","img/0_300.png","70","image-keyboard-response","215","168627","0.0-6.0-1.104","FAMI","2","m","rechts","22","","","object","f","0","true"
"null","<div style=""font-size:60px;"">+</div>","null","html-keyboard-response","216","169088","0.0-6.0-0.105","FAMI","2","m","rechts","22","","fixation","","","",""
"1251","img/90_180.png","74","image-keyboard-response","217","170348","0.0-6.0-1.105","FAMI","2","m","rechts","22","","","object","f","90","false"
"null","<div style=""font-size:60px;"">+</div>","null","html-keyboard-response","218","170880","0.0-6.0-0.106","FAMI","2","m","rechts","22","","fixation","","","",""
"977","img/30_240.png","70","image-keyboard-response","219","171867","0.0-6.0-1.106","FAMI","2","m","rechts","22","","","object","f","30","true"
"null","<div style=""font-size:60px;"">+</div>","null","html-keyboard-response","220","172298","0.0-6.0-0.107","FAMI","2","m","rechts","22","","fixation","","","",""
"1022","img/60_270.png","70","image-keyboard-response","221","173331","0.0-6.0-1.107","FAMI","2","m","rechts","22","","","object","f","60","true"
"null","<div style=""font-size:60px;"">+</div>","null","html-keyboard-response","222","173798","0.0-6.0-0.108","FAMI","2","m","rechts","22","","fixation","","","",""
"727","img/0_60.png","74","image-keyboard-response","223","174534","0.0-6.0-1.108","FAMI","2","m","rechts","22","","","object","j","0","true"
"null","<div style=""font-size:60px;"">+</div>","null","html-keyboard-response","224","174954","0.0-6.0-0.109","FAMI","2","m","rechts","22","","fixation","","","",""
"1692","img/L90_180.png","74","image-keyboard-response","225","176660","0.0-6.0-1.109","FAMI","2","m","rechts","22","","","object","j","90","true"
"null","<div style=""font-size:60px;"">+</div>","null","html-keyboard-response","226","177170","0.0-6.0-0.110","FAMI","2","m","rechts","22","","fixation","","","",""
"707","img/0_330.png","70","image-keyboard-response","227","177886","0.0-6.0-1.110","FAMI","2","m","rechts","22","","","object","f","0","true"
"null","<div style=""font-size:60px;"">+</div>","null","html-keyboard-response","228","178248","0.0-6.0-0.111","FAMI","2","m","rechts","22","","fixation","","","",""
"1225","img/150_180.png","70","image-keyboard-response","229","179482","0.0-6.0-1.111","FAMI","2","m","rechts","22","","","object","f","150","true"
"null","<div style=""font-size:60px;"">+</div>","null","html-keyboard-response","230","179940","0.0-6.0-0.112","FAMI","2","m","rechts","22","","fixation","","","",""
"634","img/0_270.png","70","image-keyboard-response","231","180584","0.0-6.0-1.112","FAMI","2","m","rechts","22","","","object","f","0","true"
"null","<div style=""font-size:60px;"">+</div>","null","html-keyboard-response","232","180986","0.0-6.0-0.113","FAMI","2","m","rechts","22","","fixation","","","",""
"882","img/120_150.png","74","image-keyboard-response","233","181880","0.0-6.0-1.113","FAMI","2","m","rechts","22","","","object","j","120","true"
"null","<div style=""font-size:60px;"">+</div>","null","html-keyboard-response","234","182193","0.0-6.0-0.114","FAMI","2","m","rechts","22","","fixation","","","",""
"1083","img/150_90.png","70","image-keyboard-response","235","183287","0.0-6.0-1.114","FAMI","2","m","rechts","22","","","object","f","150","true"
"null","<div style=""font-size:60px;"">+</div>","null","html-keyboard-response","236","183590","0.0-6.0-0.115","FAMI","2","m","rechts","22","","fixation","","","",""
"775","img/30_120.png","74","image-keyboard-response","237","184378","0.0-6.0-1.115","FAMI","2","m","rechts","22","","","object","j","30","true"
"null","<div style=""font-size:60px;"">+</div>","null","html-keyboard-response","238","184737","0.0-6.0-0.116","FAMI","2","m","rechts","22","","fixation","","","",""
"875","img/90_150.png","74","image-keyboard-response","239","185626","0.0-6.0-1.116","FAMI","2","m","rechts","22","","","object","j","90","true"
"null","<div style=""font-size:60px;"">+</div>","null","html-keyboard-response","240","186144","0.0-6.0-0.117","FAMI","2","m","rechts","22","","fixation","","","",""
"630","img/60_30.png","70","image-keyboard-response","241","186785","0.0-6.0-1.117","FAMI","2","m","rechts","22","","","object","f","60","true"
"null","<div style=""font-size:60px;"">+</div>","null","html-keyboard-response","242","187142","0.0-6.0-0.118","FAMI","2","m","rechts","22","","fixation","","","",""
"1229","img/120_90.png","70","image-keyboard-response","243","188382","0.0-6.0-1.118","FAMI","2","m","rechts","22","","","object","f","120","true"
"null","<div style=""font-size:60px;"">+</div>","null","html-keyboard-response","244","188737","0.0-6.0-0.119","FAMI","2","m","rechts","22","","fixation","","","",""
"807","img/120_270.png","74","image-keyboard-response","245","189553","0.0-6.0-1.119","FAMI","2","m","rechts","22","","","object","j","120","true"
"null","<div style=""font-size:60px;"">+</div>","null","html-keyboard-response","246","190080","0.0-6.0-0.120","FAMI","2","m","rechts","22","","fixation","","","",""
"675","img/60_330.png","74","image-keyboard-response","247","190768","0.0-6.0-1.120","FAMI","2","m","rechts","22","","","object","j","60","true"
"null","<div style=""font-size:60px;"">+</div>","null","html-keyboard-response","248","191283","0.0-6.0-0.121","FAMI","2","m","rechts","22","","fixation","","","",""
"731","img/120_30.png","70","image-keyboard-response","249","192027","0.0-6.0-1.121","FAMI","2","m","rechts","22","","","object","f","120","true"
"null","<div style=""font-size:60px;"">+</div>","null","html-keyboard-response","250","192501","0.0-6.0-0.122","FAMI","2","m","rechts","22","","fixation","","","",""
"1026","img/L150_180.png","74","image-keyboard-response","251","193535","0.0-6.0-1.122","FAMI","2","m","rechts","22","","","object","j","150","true"
"null","<div style=""font-size:60px;"">+</div>","null","html-keyboard-response","252","194049","0.0-6.0-0.123","FAMI","2","m","rechts","22","","fixation","","","",""
"1558","img/L30_180.png","74","image-keyboard-response","253","195617","0.0-6.0-1.123","FAMI","2","m","rechts","22","","","object","j","30","true"
"null","<div style=""font-size:60px;"">+</div>","null","html-keyboard-response","254","196083","0.0-6.0-0.124","FAMI","2","m","rechts","22","","fixation","","","",""
"1308","img/150_60.png","70","image-keyboard-response","255","197404","0.0-6.0-1.124","FAMI","2","m","rechts","22","","","object","f","150","true"
"null","<div style=""font-size:60px;"">+</div>","null","html-keyboard-response","256","197815","0.0-6.0-0.125","FAMI","2","m","rechts","22","","fixation","","","",""
"1534","img/90_210.png","70","image-keyboard-response","257","199363","0.0-6.0-1.125","FAMI","2","m","rechts","22","","","object","f","90","true"
"null","<div style=""font-size:60px;"">+</div>","null","html-keyboard-response","258","199676","0.0-6.0-0.126","FAMI","2","m","rechts","22","","fixation","","","",""
"714","img/0_150.png","74","image-keyboard-response","259","200404","0.0-6.0-1.126","FAMI","2","m","rechts","22","","","object","j","0","true"
"null","<div style=""font-size:60px;"">+</div>","null","html-keyboard-response","260","200832","0.0-6.0-0.127","FAMI","2","m","rechts","22","","fixation","","","",""
"760","img/90_300.png","74","image-keyboard-response","261","201603","0.0-6.0-1.127","FAMI","2","m","rechts","22","","","object","j","90","true"
"null","<div style=""font-size:60px;"">+</div>","null","html-keyboard-response","262","202114","0.0-6.0-0.128","FAMI","2","m","rechts","22","","fixation","","","",""
"654","img/90_60.png","70","image-keyboard-response","263","202782","0.0-6.0-1.128","FAMI","2","m","rechts","22","","","object","f","90","true"
"null","<div style=""font-size:60px;"">+</div>","null","html-keyboard-response","264","203291","0.0-6.0-0.129","FAMI","2","m","rechts","22","","fixation","","","",""
"1125","img/60_150.png","74","image-keyboard-response","265","204426","0.0-6.0-1.129","FAMI","2","m","rechts","22","","","object","j","60","true"
"null","<div style=""font-size:60px;"">+</div>","null","html-keyboard-response","266","204895","0.0-6.0-0.130","FAMI","2","m","rechts","22","","fixation","","","",""
"1055","img/90_240.png","74","image-keyboard-response","267","205966","0.0-6.0-1.130","FAMI","2","m","rechts","22","","","object","f","90","false"
"null","<div style=""font-size:60px;"">+</div>","null","html-keyboard-response","268","206334","0.0-6.0-0.131","FAMI","2","m","rechts","22","","fixation","","","",""
"691","img/0_210.png","70","image-keyboard-response","269","207036","0.0-6.0-1.131","FAMI","2","m","rechts","22","","","object","f","0","true"
"null","<div style=""font-size:60px;"">+</div>","null","html-keyboard-response","270","207400","0.0-6.0-0.132","FAMI","2","m","rechts","22","","fixation","","","",""
"1218","img/30_270.png","70","image-keyboard-response","271","208633","0.0-6.0-1.132","FAMI","2","m","rechts","22","","","object","f","30","true"
"null","<div style=""font-size:60px;"">+</div>","null","html-keyboard-response","272","209051","0.0-6.0-0.133","FAMI","2","m","rechts","22","","fixation","","","",""
"1259","img/120_210.png","74","image-keyboard-response","273","210322","0.0-6.0-1.133","FAMI","2","m","rechts","22","","","object","f","120","false"
"null","<div style=""font-size:60px;"">+</div>","null","html-keyboard-response","274","210833","0.0-6.0-0.134","FAMI","2","m","rechts","22","","fixation","","","",""
"658","img/90_30.png","70","image-keyboard-response","275","211503","0.0-6.0-1.134","FAMI","2","m","rechts","22","","","object","f","90","true"
"null","<div style=""font-size:60px;"">+</div>","null","html-keyboard-response","276","212005","0.0-6.0-0.135","FAMI","2","m","rechts","22","","fixation","","","",""
"736","img/150_270.png","74","image-keyboard-response","277","212750","0.0-6.0-1.135","FAMI","2","m","rechts","22","","","object","j","150","true"
"null","<div style=""font-size:60px;"">+</div>","null","html-keyboard-response","278","213128","0.0-6.0-0.136","FAMI","2","m","rechts","22","","fixation","","","",""
"936","img/120_180.png","70","image-keyboard-response","279","214077","0.0-6.0-1.136","FAMI","2","m","rechts","22","","","object","f","120","true"
"null","<div style=""font-size:60px;"">+</div>","null","html-keyboard-response","280","214443","0.0-6.0-0.137","FAMI","2","m","rechts","22","","fixation","","","",""
"1706","img/60_90.png","74","image-keyboard-response","281","216161","0.0-6.0-1.137","FAMI","2","m","rechts","22","","","object","j","60","true"
"null","<div style=""font-size:60px;"">+</div>","null","html-keyboard-response","282","216677","0.0-6.0-0.138","FAMI","2","m","rechts","22","","fixation","","","",""
"1120","img/30_300.png","70","image-keyboard-response","283","217812","0.0-6.0-1.138","FAMI","2","m","rechts","22","","","object","f","30","true"
"null","<div style=""font-size:60px;"">+</div>","null","html-keyboard-response","284","218240","0.0-6.0-0.139","FAMI","2","m","rechts","22","","fixation","","","",""
"1072","img/L120_180.png","74","image-keyboard-response","285","219322","0.0-6.0-1.139","FAMI","2","m","rechts","22","","","object","j","120","true"
"null","<div style=""font-size:60px;"">+</div>","null","html-keyboard-response","286","219630","0.0-6.0-0.140","FAMI","2","m","rechts","22","","fixation","","","",""
"1386","img/30_180.png","70","image-keyboard-response","287","221031","0.0-6.0-1.140","FAMI","2","m","rechts","22","","","object","f","30","true"
"null","<div style=""font-size:60px;"">+</div>","null","html-keyboard-response","288","221536","0.0-6.0-0.141","FAMI","2","m","rechts","22","","fixation","","","",""
"730","img/120_330.png","74","image-keyboard-response","289","222279","0.0-6.0-1.141","FAMI","2","m","rechts","22","","","object","j","120","true"
"null","<div style=""font-size:60px;"">+</div>","null","html-keyboard-response","290","222692","0.0-6.0-0.142","FAMI","2","m","rechts","22","","fixation","","","",""
"740","img/0_120.png","74","image-keyboard-response","291","223447","0.0-6.0-1.142","FAMI","2","m","rechts","22","","","object","j","0","true"
"null","<div style=""font-size:60px;"">+</div>","null","html-keyboard-response","292","223959","0.0-6.0-0.143","FAMI","2","m","rechts","22","","fixation","","","",""
"749","img/0_90.png","74","image-keyboard-response","293","224720","0.0-6.0-1.143","FAMI","2","m","rechts","22","","","object","j","0","true"
"null","<div style=""font-size:60px;"">+</div>","null","html-keyboard-response","294","225023","0.0-6.0-0.144","FAMI","2","m","rechts","22","","fixation","","","",""
"675","img/90_330.png","74","image-keyboard-response","295","225711","0.0-6.0-1.144","FAMI","2","m","rechts","22","","","object","j","90","true"
"null","<div style=""font-size:60px;"">+</div>","null","html-keyboard-response","296","226227","0.0-6.0-0.145","FAMI","2","m","rechts","22","","fixation","","","",""
"792","img/60_180.png","70","image-keyboard-response","297","227027","0.0-6.0-1.145","FAMI","2","m","rechts","22","","","object","f","60","true"
"null","<div style=""font-size:60px;"">+</div>","null","html-keyboard-response","298","227350","0.0-6.0-0.146","FAMI","2","m","rechts","22","","fixation","","","",""
"888","img/150_300.png","74","image-keyboard-response","299","228253","0.0-6.0-1.146","FAMI","2","m","rechts","22","","","object","j","150","true"
"null","<div style=""font-size:60px;"">+</div>","null","html-keyboard-response","300","228756","0.0-6.0-0.147","FAMI","2","m","rechts","22","","fixation","","","",""
"843","img/60_210.png","70","image-keyboard-response","301","229616","0.0-6.0-1.147","FAMI","2","m","rechts","22","","","object","f","60","true"
"null","<div style=""font-size:60px;"">+</div>","null","html-keyboard-response","302","230131","0.0-6.0-0.148","FAMI","2","m","rechts","22","","fixation","","","",""
"1221","img/150_120.png","70","image-keyboard-response","303","231369","0.0-6.0-1.148","FAMI","2","m","rechts","22","","","object","f","150","true"
"null","<div style=""font-size:60px;"">+</div>","null","html-keyboard-response","304","231678","0.0-6.0-0.149","FAMI","2","m","rechts","22","","fixation","","","",""
"625","img/0_30.png","74","image-keyboard-response","305","232314","0.0-6.0-1.149","FAMI","2","m","rechts","22","","","object","j","0","true"
"null","<div style=""font-size:60px;"">+</div>","null","html-keyboard-response","306","232678","0.0-6.0-0.150","FAMI","2","m","rechts","22","","fixation","","","",""
"917","img/150_240.png","70","image-keyboard-response","307","233608","0.0-6.0-1.150","FAMI","2","m","rechts","22","","","object","j","150","false"
"null","<div style=""font-size:60px;"">+</div>","null","html-keyboard-response","308","234124","0.0-6.0-0.151","FAMI","2","m","rechts","22","","fixation","","","",""
"675","img/0_240.png","70","image-keyboard-response","309","234812","0.0-6.0-1.151","FAMI","2","m","rechts","22","","","object","f","0","true"
"null","<div style=""font-size:60px;"">+</div>","null","html-keyboard-response","310","235322","0.0-6.0-0.152","FAMI","2","m","rechts","22","","fixation","","","",""
"960","img/L60_180.png","74","image-keyboard-response","311","236295","0.0-6.0-1.152","FAMI","2","m","rechts","22","","","object","j","60","true"
"null","<div style=""font-size:60px;"">+</div>","null","html-keyboard-response","312","236616","0.0-6.0-0.153","FAMI","2","m","rechts","22","","fixation","","","",""
"1220","img/30_60.png","74","image-keyboard-response","313","237850","0.0-6.0-1.153","FAMI","2","m","rechts","22","","","object","j","30","true"
"null","<div style=""font-size:60px;"">+</div>","null","html-keyboard-response","314","238382","0.0-6.0-0.154","FAMI","2","m","rechts","22","","fixation","","","",""
"725","img/30_90.png","74","image-keyboard-response","315","239120","0.0-6.0-1.154","FAMI","2","m","rechts","22","","","object","j","30","true"
"null","<div style=""font-size:60px;"">+</div>","null","html-keyboard-response","316","239448","0.0-6.0-0.155","FAMI","2","m","rechts","22","","fixation","","","",""
"970","img/90_120.png","70","image-keyboard-response","317","240432","0.0-6.0-1.155","FAMI","2","m","rechts","22","","","object","j","90","false"
"null","<div style=""font-size:60px;"">+</div>","null","html-keyboard-response","318","240839","0.0-6.0-0.156","FAMI","2","m","rechts","22","","fixation","","","",""
"1197","img/30_180.png","74","image-keyboard-response","319","242045","0.0-6.0-1.156","FAMI","2","m","rechts","22","","","object","f","30","false"
"null","<div style=""font-size:60px;"">+</div>","null","html-keyboard-response","320","242573","0.0-6.0-0.157","FAMI","2","m","rechts","22","","fixation","","","",""
"706","img/120_30.png","70","image-keyboard-response","321","243283","0.0-6.0-1.157","FAMI","2","m","rechts","22","","","object","f","120","true"
"null","<div style=""font-size:60px;"">+</div>","null","html-keyboard-response","322","243798","0.0-6.0-0.158","FAMI","2","m","rechts","22","","fixation","","","",""
"732","img/0_330.png","70","image-keyboard-response","323","244543","0.0-6.0-1.158","FAMI","2","m","rechts","22","","","object","f","0","true"
"null","<div style=""font-size:60px;"">+</div>","null","html-keyboard-response","324","244859","0.0-6.0-0.159","FAMI","2","m","rechts","22","","fixation","","","",""
"855","img/120_330.png","74","image-keyboard-response","325","245725","0.0-6.0-1.159","FAMI","2","m","rechts","22","","","object","j","120","true"
"null","<div style=""font-size:60px;"">+</div>","null","html-keyboard-response","326","246077","0.0-6.0-0.160","FAMI","2","m","rechts","22","","fixation","","","",""
"736","img/0_60.png","74","image-keyboard-response","327","246826","0.0-6.0-1.160","FAMI","2","m","rechts","22","","","object","j","0","true"
"null","<div style=""font-size:60px;"">+</div>","null","html-keyboard-response","328","247187","0.0-6.0-0.161","FAMI","2","m","rechts","22","","fixation","","","",""
"879","img/30_270.png","70","image-keyboard-response","329","248075","0.0-6.0-1.161","FAMI","2","m","rechts","22","","","object","f","30","true"
"null","<div style=""font-size:60px;"">+</div>","null","html-keyboard-response","330","248436","0.0-6.0-0.162","FAMI","2","m","rechts","22","","fixation","","","",""
"732","img/150_300.png","74","image-keyboard-response","331","249183","0.0-6.0-1.162","FAMI","2","m","rechts","22","","","object","j","150","true"
"null","<div style=""font-size:60px;"">+</div>","null","html-keyboard-response","332","249642","0.0-6.0-0.163","FAMI","2","m","rechts","22","","fixation","","","",""
"690","img/0_240.png","70","image-keyboard-response","333","250337","0.0-6.0-1.163","FAMI","2","m","rechts","22","","","object","f","0","true"
"null","<div style=""font-size:60px;"">+</div>","null","html-keyboard-response","334","250846","0.0-6.0-0.164","FAMI","2","m","rechts","22","","fixation","","","",""
"742","img/90_30.png","70","image-keyboard-response","335","251598","0.0-6.0-1.164","FAMI","2","m","rechts","22","","","object","f","90","true"
"null","<div style=""font-size:60px;"">+</div>","null","html-keyboard-response","336","252002","0.0-6.0-0.165","FAMI","2","m","rechts","22","","fixation","","","",""
"857","img/90_120.png","74","image-keyboard-response","337","252869","0.0-6.0-1.165","FAMI","2","m","rechts","22","","","object","j","90","true"
"null","<div style=""font-size:60px;"">+</div>","null","html-keyboard-response","338","253282","0.0-6.0-0.166","FAMI","2","m","rechts","22","","fixation","","","",""
"713","img/0_210.png","70","image-keyboard-response","339","254005","0.0-6.0-1.166","FAMI","2","m","rechts","22","","","object","f","0","true"
"null","<div style=""font-size:60px;"">+</div>","null","html-keyboard-response","340","254519","0.0-6.0-0.167","FAMI","2","m","rechts","22","","fixation","","","",""
"1240","img/150_180.png","74","image-keyboard-response","341","255772","0.0-6.0-1.167","FAMI","2","m","rechts","22","","","object","f","150","false"
"null","<div style=""font-size:60px;"">+</div>","null","html-keyboard-response","342","256237","0.0-6.0-0.168","FAMI","2","m","rechts","22","","fixation","","","",""
"727","img/90_60.png","70","image-keyboard-response","343","256975","0.0-6.0-1.168","FAMI","2","m","rechts","22","","","object","f","90","true"
"null","<div style=""font-size:60px;"">+</div>","null","html-keyboard-response","344","257348","0.0-6.0-0.169","FAMI","2","m","rechts","22","","fixation","","","",""
"1181","img/30_90.png","74","image-keyboard-response","345","258538","0.0-6.0-1.169","FAMI","2","m","rechts","22","","","object","j","30","true"
"null","<div style=""font-size:60px;"">+</div>","null","html-keyboard-response","346","258941","0.0-6.0-0.170","FAMI","2","m","rechts","22","","fixation","","","",""
"804","img/150_60.png","70","image-keyboard-response","347","259755","0.0-6.0-1.170","FAMI","2","m","rechts","22","","","object","f","150","true"
"null","<div style=""font-size:60px;"">+</div>","null","html-keyboard-response","348","260128","0.0-6.0-0.171","FAMI","2","m","rechts","22","","fixation","","","",""
"1470","img/120_210.png","70","image-keyboard-response","349","261611","0.0-6.0-1.171","FAMI","2","m","rechts","22","","","object","f","120","true"
"null","<div style=""font-size:60px;"">+</div>","null","html-keyboard-response","350","261924","0.0-6.0-0.172","FAMI","2","m","rechts","22","","fixation","","","",""
"1138","img/90_210.png","70","image-keyboard-response","351","263072","0.0-6.0-1.172","FAMI","2","m","rechts","22","","","object","f","90","true"
"null","<div style=""font-size:60px;"">+</div>","null","html-keyboard-response","352","263395","0.0-6.0-0.173","FAMI","2","m","rechts","22","","fixation","","","",""
"1108","img/120_180.png","70","image-keyboard-response","353","264512","0.0-6.0-1.173","FAMI","2","m","rechts","22","","","object","f","120","true"
"null","<div style=""font-size:60px;"">+</div>","null","html-keyboard-response","354","264973","0.0-6.0-0.174","FAMI","2","m","rechts","22","","fixation","","","",""
"1019","img/60_270.png","74","image-keyboard-response","355","266008","0.0-6.0-1.174","FAMI","2","m","rechts","22","","","object","f","60","false"
"null","<div style=""font-size:60px;"">+</div>","null","html-keyboard-response","356","266363","0.0-6.0-0.175","FAMI","2","m","rechts","22","","fixation","","","",""
"1175","img/L150_180.png","74","image-keyboard-response","357","267551","0.0-6.0-1.175","FAMI","2","m","rechts","22","","","object","j","150","true"
"null","<div style=""font-size:60px;"">+</div>","null","html-keyboard-response","358","267926","0.0-6.0-0.176","FAMI","2","m","rechts","22","","fixation","","","",""
"667","img/0_270.png","70","image-keyboard-response","359","268608","0.0-6.0-1.176","FAMI","2","m","rechts","22","","","object","f","0","true"
"null","<div style=""font-size:60px;"">+</div>","null","html-keyboard-response","360","269019","0.0-6.0-0.177","FAMI","2","m","rechts","22","","fixation","","","",""
"1151","img/30_240.png","70","image-keyboard-response","361","270183","0.0-6.0-1.177","FAMI","2","m","rechts","22","","","object","f","30","true"
"null","<div style=""font-size:60px;"">+</div>","null","html-keyboard-response","362","270595","0.0-6.0-0.178","FAMI","2","m","rechts","22","","fixation","","","",""
"866","img/120_150.png","74","image-keyboard-response","363","271475","0.0-6.0-1.178","FAMI","2","m","rechts","22","","","object","j","120","true"
"null","<div style=""font-size:60px;"">+</div>","null","html-keyboard-response","364","271985","0.0-6.0-0.179","FAMI","2","m","rechts","22","","fixation","","","",""
"944","img/L60_180.png","74","image-keyboard-response","365","272938","0.0-6.0-1.179","FAMI","2","m","rechts","22","","","object","j","60","true"
"null","<div style=""font-size:60px;"">+</div>","null","html-keyboard-response","366","273453","0.0-6.0-0.180","FAMI","2","m","rechts","22","","fixation","","","",""
"1068","img/120_270.png","74","image-keyboard-response","367","274535","0.0-6.0-1.180","FAMI","2","m","rechts","22","","","object","j","120","true"
"null","<div style=""font-size:60px;"">+</div>","null","html-keyboard-response","368","274897","0.0-6.0-0.181","FAMI","2","m","rechts","22","","fixation","","","",""
"1039","img/L120_180.png","74","image-keyboard-response","369","275941","0.0-6.0-1.181","FAMI","2","m","rechts","22","","","object","j","120","true"
"null","<div style=""font-size:60px;"">+</div>","null","html-keyboard-response","370","276257","0.0-6.0-0.182","FAMI","2","m","rechts","22","","fixation","","","",""
"1510","img/90_240.png","70","image-keyboard-response","371","277776","0.0-6.0-1.182","FAMI","2","m","rechts","22","","","object","f","90","true"
"null","<div style=""font-size:60px;"">+</div>","null","html-keyboard-response","372","278131","0.0-6.0-0.183","FAMI","2","m","rechts","22","","fixation","","","",""
"881","img/120_90.png","74","image-keyboard-response","373","279025","0.0-6.0-1.183","FAMI","2","m","rechts","22","","","object","f","120","false"
"null","<div style=""font-size:60px;"">+</div>","null","html-keyboard-response","374","279335","0.0-6.0-0.184","FAMI","2","m","rechts","22","","fixation","","","",""
"1245","img/90_330.png","74","image-keyboard-response","375","280588","0.0-6.0-1.184","FAMI","2","m","rechts","22","","","object","j","90","true"
"null","<div style=""font-size:60px;"">+</div>","null","html-keyboard-response","376","281053","0.0-6.0-0.185","FAMI","2","m","rechts","22","","fixation","","","",""
"1101","img/60_210.png","70","image-keyboard-response","377","282164","0.0-6.0-1.185","FAMI","2","m","rechts","22","","","object","f","60","true"
"null","<div style=""font-size:60px;"">+</div>","null","html-keyboard-response","378","282521","0.0-6.0-0.186","FAMI","2","m","rechts","22","","fixation","","","",""
"956","img/30_120.png","74","image-keyboard-response","379","283491","0.0-6.0-1.186","FAMI","2","m","rechts","22","","","object","j","30","true"
"null","<div style=""font-size:60px;"">+</div>","null","html-keyboard-response","380","283994","0.0-6.0-0.187","FAMI","2","m","rechts","22","","fixation","","","",""
"748","img/0_120.png","74","image-keyboard-response","381","284752","0.0-6.0-1.187","FAMI","2","m","rechts","22","","","object","j","0","true"
"null","<div style=""font-size:60px;"">+</div>","null","html-keyboard-response","382","285131","0.0-6.0-0.188","FAMI","2","m","rechts","22","","fixation","","","",""
"1099","img/150_90.png","70","image-keyboard-response","383","286245","0.0-6.0-1.188","FAMI","2","m","rechts","22","","","object","f","150","true"
"null","<div style=""font-size:60px;"">+</div>","null","html-keyboard-response","384","286709","0.0-6.0-0.189","FAMI","2","m","rechts","22","","fixation","","","",""
"982","img/150_270.png","74","image-keyboard-response","385","287698","0.0-6.0-1.189","FAMI","2","m","rechts","22","","","object","j","150","true"
"null","<div style=""font-size:60px;"">+</div>","null","html-keyboard-response","386","288023","0.0-6.0-0.190","FAMI","2","m","rechts","22","","fixation","","","",""
"719","img/0_150.png","74","image-keyboard-response","387","288756","0.0-6.0-1.190","FAMI","2","m","rechts","22","","","object","j","0","true"
"null","<div style=""font-size:60px;"">+</div>","null","html-keyboard-response","388","289231","0.0-6.0-0.191","FAMI","2","m","rechts","22","","fixation","","","",""
"705","img/60_330.png","74","image-keyboard-response","389","289950","0.0-6.0-1.191","FAMI","2","m","rechts","22","","","object","j","60","true"
"null","<div style=""font-size:60px;"">+</div>","null","html-keyboard-response","390","290366","0.0-6.0-0.192","FAMI","2","m","rechts","22","","fixation","","","",""
"1143","img/L30_180.png","70","image-keyboard-response","391","291525","0.0-6.0-1.192","FAMI","2","m","rechts","22","","","object","j","30","false"
"null","<div style=""font-size:60px;"">+</div>","null","html-keyboard-response","392","291881","0.0-6.0-0.193","FAMI","2","m","rechts","22","","fixation","","","",""
"1385","img/60_180.png","70","image-keyboard-response","393","293280","0.0-6.0-1.193","FAMI","2","m","rechts","22","","","object","f","60","true"
"null","<div style=""font-size:60px;"">+</div>","null","html-keyboard-response","394","293789","0.0-6.0-0.194","FAMI","2","m","rechts","22","","fixation","","","",""
"1343","img/90_150.png","74","image-keyboard-response","395","295146","0.0-6.0-1.194","FAMI","2","m","rechts","22","","","object","j","90","true"
"null","<div style=""font-size:60px;"">+</div>","null","html-keyboard-response","396","295570","0.0-6.0-0.195","FAMI","2","m","rechts","22","","fixation","","","",""
"1249","img/30_300.png","70","image-keyboard-response","397","296834","0.0-6.0-1.195","FAMI","2","m","rechts","22","","","object","f","30","true"
"null","<div style=""font-size:60px;"">+</div>","null","html-keyboard-response","398","297336","0.0-6.0-0.196","FAMI","2","m","rechts","22","","fixation","","","",""
"951","img/L90_180.png","74","image-keyboard-response","399","298302","0.0-6.0-1.196","FAMI","2","m","rechts","22","","","object","j","90","true"
"null","<div style=""font-size:60px;"">+</div>","null","html-keyboard-response","400","298617","0.0-6.0-0.197","FAMI","2","m","rechts","22","","fixation","","","",""
"1084","img/150_120.png","70","image-keyboard-response","401","299715","0.0-6.0-1.197","FAMI","2","m","rechts","22","","","object","f","150","true"
"null","<div style=""font-size:60px;"">+</div>","null","html-keyboard-response","402","300024","0.0-6.0-0.198","FAMI","2","m","rechts","22","","fixation","","","",""
"1030","img/150_240.png","74","image-keyboard-response","403","301063","0.0-6.0-1.198","FAMI","2","m","rechts","22","","","object","j","150","true"
"null","<div style=""font-size:60px;"">+</div>","null","html-keyboard-response","404","301490","0.0-6.0-0.199","FAMI","2","m","rechts","22","","fixation","","","",""
"1766","img/60_150.png","74","image-keyboard-response","405","303270","0.0-6.0-1.199","FAMI","2","m","rechts","22","","","object","j","60","true"
"null","<div style=""font-size:60px;"">+</div>","null","html-keyboard-response","406","303787","0.0-6.0-0.200","FAMI","2","m","rechts","22","","fixation","","","",""
"749","img/90_180.png","70","image-keyboard-response","407","304551","0.0-6.0-1.200","FAMI","2","m","rechts","22","","","object","f","90","true"
"null","<div style=""font-size:60px;"">+</div>","null","html-keyboard-response","408","305071","0.0-6.0-0.201","FAMI","2","m","rechts","22","","fixation","","","",""
"738","img/0_300.png","70","image-keyboard-response","409","305824","0.0-6.0-1.201","FAMI","2","m","rechts","22","","","object","f","0","true"
"null","<div style=""font-size:60px;"">+</div>","null","html-keyboard-response","410","306180","0.0-6.0-0.202","FAMI","2","m","rechts","22","","fixation","","","",""
"753","img/0_90.png","74","image-keyboard-response","411","306947","0.0-6.0-1.202","FAMI","2","m","rechts","22","","","object","j","0","true"
"null","<div style=""font-size:60px;"">+</div>","null","html-keyboard-response","412","307274","0.0-6.0-0.203","FAMI","2","m","rechts","22","","fixation","","","",""
"639","img/0_30.png","74","image-keyboard-response","413","307926","0.0-6.0-1.203","FAMI","2","m","rechts","22","","","object","j","0","true"
"null","<div style=""font-size:60px;"">+</div>","null","html-keyboard-response","414","308430","0.0-6.0-0.204","FAMI","2","m","rechts","22","","fixation","","","",""
"1060","img/30_60.png","74","image-keyboard-response","415","309501","0.0-6.0-1.204","FAMI","2","m","rechts","22","","","object","j","30","true"
"null","<div style=""font-size:60px;"">+</div>","null","html-keyboard-response","416","309804","0.0-6.0-0.205","FAMI","2","m","rechts","22","","fixation","","","",""
"638","img/60_30.png","70","image-keyboard-response","417","310458","0.0-6.0-1.205","FAMI","2","m","rechts","22","","","object","f","60","true"
"null","<div style=""font-size:60px;"">+</div>","null","html-keyboard-response","418","310962","0.0-6.0-0.206","FAMI","2","m","rechts","22","","fixation","","","",""
"730","img/60_90.png","70","image-keyboard-response","419","311705","0.0-6.0-1.206","FAMI","2","m","rechts","22","","","object","j","60","false"
"null","<div style=""font-size:60px;"">+</div>","null","html-keyboard-response","420","312085","0.0-6.0-0.207","FAMI","2","m","rechts","22","","fixation","","","",""
"714","img/90_300.png","74","image-keyboard-response","421","312815","0.0-6.0-1.207","FAMI","2","m","rechts","22","","","object","j","90","true"
"16290","<p>Du hast in 86% der Versuche korrekt entschieden.</p><p>Deine durchschnittliche Reaktionszeit war  968ms.</p><p>Dr&uuml;cke eine beliebige Taste, um die Session zu beenden. Vielen Dank!</p>","32","html-keyboard-response","422","329114","0.0-7.0","FAMI","2","m","rechts","22","","","","","",""
