"rt","stimulus","key_press","trial_type","trial_index","time_elapsed","internal_node_id","subject","session","sex","handedness","age","responses","test_part","condition","correct_response","angle","correct"
"1307","<p>Mental Rotation Experiment.</p> <p>Dr&uuml;cke eine beliebige Taste, um anzufangen.</p>","13","html-keyboard-response","0","1327","0.0-0.0","FAMI","4","m","rechts","22","","","","","",""
"14654","","","survey-text","1","15983","0.0-1.0","FAMI","4","m","rechts","22","{""Q0"":""FAMI""}","","","","",""
"2154","","","survey-text","2","18139","0.0-2.0","FAMI","4","m","rechts","22","{""Q0"":""4""}","","","","",""
"19778","","","survey-multi-choice","3","37926","0.0-3.0","FAMI","4","m","rechts","22","{""Q0"":""m"",""Q1"":""rechts""}","","","","",""
"28615","","","survey-text","4","66542","0.0-4.0","FAMI","4","m","rechts","22","{""Q0"":""22""}","","","","",""
"94506","<p> Stell dir vor, dass du vor einem runden Tisch stehst, auf dem sich ein blauer Ball am Tischrand befindet. Entlang des Tischrands ist jeweils ein verschieden langer Pfeil. Nun bewegst du dich entlang dieses Pfeils bis an seine Spitze. Wenn du am Ende des Pfeils angekommen bist, schau zur Tischmitte. </p> <img src='img/90_180.png'></img> <br> <p>Entscheide dann, ob der Ball von deiner neuen (vorgestellten) Position links oder rechts von dir liegt.</p> <p>Dr&uuml;cke die <strong>'f'</strong>-Taste f&uuml;r links, die <strong>'j'</strong>-Taste f&uuml;r rechts.</p> <br><p> Das Bild wird jeweils 1 Sekunde lang pr&auml;sentiert. Du hast 3 Sekunden Zeit eine Entscheidung zu treffen.</p>","74","html-keyboard-response","5","161057","0.0-5.0","FAMI","4","m","rechts","22","","","","","",""
"null","<div style=""font-size:60px;"">+</div>","null","html-keyboard-response","6","162405","0.0-6.0-0.0","FAMI","4","m","rechts","22","","fixation","","","",""
"1122","img/60_330.png","70","image-keyboard-response","7","163546","0.0-6.0-1.0","FAMI","4","m","rechts","22","","","self","f","60","true"
"null","<div style=""font-size:60px;"">+</div>","null","html-keyboard-response","8","163965","0.0-6.0-0.1","FAMI","4","m","rechts","22","","fixation","","","",""
"1120","img/30_180.png","74","image-keyboard-response","9","165103","0.0-6.0-1.1","FAMI","4","m","rechts","22","","","self","j","30","true"
"null","<div style=""font-size:60px;"">+</div>","null","html-keyboard-response","10","165528","0.0-6.0-0.2","FAMI","4","m","rechts","22","","fixation","","","",""
"1031","img/120_90.png","70","image-keyboard-response","11","166577","0.0-6.0-1.2","FAMI","4","m","rechts","22","","","self","f","120","true"
"null","<div style=""font-size:60px;"">+</div>","null","html-keyboard-response","12","167030","0.0-6.0-0.3","FAMI","4","m","rechts","22","","fixation","","","",""
"774","img/120_180.png","74","image-keyboard-response","13","167826","0.0-6.0-1.3","FAMI","4","m","rechts","22","","","self","j","120","true"
"null","<div style=""font-size:60px;"">+</div>","null","html-keyboard-response","14","168186","0.0-6.0-0.4","FAMI","4","m","rechts","22","","fixation","","","",""
"757","img/120_270.png","74","image-keyboard-response","15","168961","0.0-6.0-1.4","FAMI","4","m","rechts","22","","","self","j","120","true"
"null","<div style=""font-size:60px;"">+</div>","null","html-keyboard-response","16","169468","0.0-6.0-0.5","FAMI","4","m","rechts","22","","fixation","","","",""
"836","img/120_30.png","70","image-keyboard-response","17","170323","0.0-6.0-1.5","FAMI","4","m","rechts","22","","","self","j","120","false"
"null","<div style=""font-size:60px;"">+</div>","null","html-keyboard-response","18","170826","0.0-6.0-0.6","FAMI","4","m","rechts","22","","fixation","","","",""
"705","img/0_300.png","70","image-keyboard-response","19","171550","0.0-6.0-1.6","FAMI","4","m","rechts","22","","","self","f","0","true"
"null","<div style=""font-size:60px;"">+</div>","null","html-keyboard-response","20","172061","0.0-6.0-0.7","FAMI","4","m","rechts","22","","fixation","","","",""
"796","img/90_30.png","74","image-keyboard-response","21","172877","0.0-6.0-1.7","FAMI","4","m","rechts","22","","","self","j","90","true"
"null","<div style=""font-size:60px;"">+</div>","null","html-keyboard-response","22","173187","0.0-6.0-0.8","FAMI","4","m","rechts","22","","fixation","","","",""
"727","img/0_270.png","70","image-keyboard-response","23","173934","0.0-6.0-1.8","FAMI","4","m","rechts","22","","","self","f","0","true"
"null","<div style=""font-size:60px;"">+</div>","null","html-keyboard-response","24","174297","0.0-6.0-0.9","FAMI","4","m","rechts","22","","fixation","","","",""
"960","img/150_300.png","74","image-keyboard-response","25","175273","0.0-6.0-1.9","FAMI","4","m","rechts","22","","","self","j","150","true"
"null","<div style=""font-size:60px;"">+</div>","null","html-keyboard-response","26","175639","0.0-6.0-0.10","FAMI","4","m","rechts","22","","fixation","","","",""
"765","img/120_210.png","74","image-keyboard-response","27","176422","0.0-6.0-1.10","FAMI","4","m","rechts","22","","","self","j","120","true"
"null","<div style=""font-size:60px;"">+</div>","null","html-keyboard-response","28","176842","0.0-6.0-0.11","FAMI","4","m","rechts","22","","fixation","","","",""
"752","img/150_240.png","74","image-keyboard-response","29","177602","0.0-6.0-1.11","FAMI","4","m","rechts","22","","","self","j","150","true"
"null","<div style=""font-size:60px;"">+</div>","null","html-keyboard-response","30","178124","0.0-6.0-0.12","FAMI","4","m","rechts","22","","fixation","","","",""
"721","img/60_150.png","70","image-keyboard-response","31","178862","0.0-6.0-1.12","FAMI","4","m","rechts","22","","","self","f","60","true"
"null","<div style=""font-size:60px;"">+</div>","null","html-keyboard-response","32","179373","0.0-6.0-0.13","FAMI","4","m","rechts","22","","fixation","","","",""
"664","img/0_240.png","70","image-keyboard-response","33","180054","0.0-6.0-1.13","FAMI","4","m","rechts","22","","","self","f","0","true"
"null","<div style=""font-size:60px;"">+</div>","null","html-keyboard-response","34","180512","0.0-6.0-0.14","FAMI","4","m","rechts","22","","fixation","","","",""
"715","img/90_150.png","70","image-keyboard-response","35","181248","0.0-6.0-1.14","FAMI","4","m","rechts","22","","","self","f","90","true"
"null","<div style=""font-size:60px;"">+</div>","null","html-keyboard-response","36","181607","0.0-6.0-0.15","FAMI","4","m","rechts","22","","fixation","","","",""
"760","img/60_210.png","74","image-keyboard-response","37","182384","0.0-6.0-1.15","FAMI","4","m","rechts","22","","","self","j","60","true"
"null","<div style=""font-size:60px;"">+</div>","null","html-keyboard-response","38","182906","0.0-6.0-0.16","FAMI","4","m","rechts","22","","fixation","","","",""
"938","img/120_330.png","70","image-keyboard-response","39","183865","0.0-6.0-1.16","FAMI","4","m","rechts","22","","","self","f","120","true"
"null","<div style=""font-size:60px;"">+</div>","null","html-keyboard-response","40","184282","0.0-6.0-0.17","FAMI","4","m","rechts","22","","fixation","","","",""
"1121","img/150_180.png","74","image-keyboard-response","41","185421","0.0-6.0-1.17","FAMI","4","m","rechts","22","","","self","j","150","true"
"null","<div style=""font-size:60px;"">+</div>","null","html-keyboard-response","42","185844","0.0-6.0-0.18","FAMI","4","m","rechts","22","","fixation","","","",""
"1237","img/90_240.png","74","image-keyboard-response","43","187098","0.0-6.0-1.18","FAMI","4","m","rechts","22","","","self","j","90","true"
"null","<div style=""font-size:60px;"">+</div>","null","html-keyboard-response","44","187610","0.0-6.0-0.19","FAMI","4","m","rechts","22","","fixation","","","",""
"695","img/90_210.png","74","image-keyboard-response","45","188324","0.0-6.0-1.19","FAMI","4","m","rechts","22","","","self","j","90","true"
"null","<div style=""font-size:60px;"">+</div>","null","html-keyboard-response","46","188688","0.0-6.0-0.20","FAMI","4","m","rechts","22","","fixation","","","",""
"942","img/90_120.png","70","image-keyboard-response","47","189650","0.0-6.0-1.20","FAMI","4","m","rechts","22","","","self","f","90","true"
"null","<div style=""font-size:60px;"">+</div>","null","html-keyboard-response","48","190109","0.0-6.0-0.21","FAMI","4","m","rechts","22","","fixation","","","",""
"906","img/30_120.png","74","image-keyboard-response","49","191035","0.0-6.0-1.21","FAMI","4","m","rechts","22","","","self","j","30","true"
"null","<div style=""font-size:60px;"">+</div>","null","html-keyboard-response","50","191546","0.0-6.0-0.22","FAMI","4","m","rechts","22","","fixation","","","",""
"865","img/30_300.png","70","image-keyboard-response","51","192431","0.0-6.0-1.22","FAMI","4","m","rechts","22","","","self","f","30","true"
"null","<div style=""font-size:60px;"">+</div>","null","html-keyboard-response","52","192892","0.0-6.0-0.23","FAMI","4","m","rechts","22","","fixation","","","",""
"745","img/150_270.png","74","image-keyboard-response","53","193655","0.0-6.0-1.23","FAMI","4","m","rechts","22","","","self","j","150","true"
"null","<div style=""font-size:60px;"">+</div>","null","html-keyboard-response","54","194111","0.0-6.0-0.24","FAMI","4","m","rechts","22","","fixation","","","",""
"1045","img/60_90.png","74","image-keyboard-response","55","195176","0.0-6.0-1.24","FAMI","4","m","rechts","22","","","self","j","60","true"
"null","<div style=""font-size:60px;"">+</div>","null","html-keyboard-response","56","195503","0.0-6.0-0.25","FAMI","4","m","rechts","22","","fixation","","","",""
"1051","img/30_90.png","74","image-keyboard-response","57","196570","0.0-6.0-1.25","FAMI","4","m","rechts","22","","","self","j","30","true"
"null","<div style=""font-size:60px;"">+</div>","null","html-keyboard-response","58","197033","0.0-6.0-0.26","FAMI","4","m","rechts","22","","fixation","","","",""
"847","img/60_30.png","74","image-keyboard-response","59","197897","0.0-6.0-1.26","FAMI","4","m","rechts","22","","","self","j","60","true"
"null","<div style=""font-size:60px;"">+</div>","null","html-keyboard-response","60","198360","0.0-6.0-0.27","FAMI","4","m","rechts","22","","fixation","","","",""
"743","img/150_60.png","70","image-keyboard-response","61","199124","0.0-6.0-1.27","FAMI","4","m","rechts","22","","","self","f","150","true"
"null","<div style=""font-size:60px;"">+</div>","null","html-keyboard-response","62","199627","0.0-6.0-0.28","FAMI","4","m","rechts","22","","fixation","","","",""
"908","img/60_270.png","70","image-keyboard-response","63","200553","0.0-6.0-1.28","FAMI","4","m","rechts","22","","","self","f","60","true"
"null","<div style=""font-size:60px;"">+</div>","null","html-keyboard-response","64","201033","0.0-6.0-0.29","FAMI","4","m","rechts","22","","fixation","","","",""
"760","img/L30_180.png","70","image-keyboard-response","65","201810","0.0-6.0-1.29","FAMI","4","m","rechts","22","","","self","f","30","true"
"null","<div style=""font-size:60px;"">+</div>","null","html-keyboard-response","66","202126","0.0-6.0-0.30","FAMI","4","m","rechts","22","","fixation","","","",""
"704","img/L120_180.png","70","image-keyboard-response","67","202848","0.0-6.0-1.30","FAMI","4","m","rechts","22","","","self","f","120","true"
"null","<div style=""font-size:60px;"">+</div>","null","html-keyboard-response","68","203360","0.0-6.0-0.31","FAMI","4","m","rechts","22","","fixation","","","",""
"924","img/30_270.png","70","image-keyboard-response","69","204302","0.0-6.0-1.31","FAMI","4","m","rechts","22","","","self","f","30","true"
"null","<div style=""font-size:60px;"">+</div>","null","html-keyboard-response","70","204610","0.0-6.0-0.32","FAMI","4","m","rechts","22","","fixation","","","",""
"605","img/L90_180.png","70","image-keyboard-response","71","205221","0.0-6.0-1.32","FAMI","4","m","rechts","22","","","self","f","90","true"
"null","<div style=""font-size:60px;"">+</div>","null","html-keyboard-response","72","205736","0.0-6.0-0.33","FAMI","4","m","rechts","22","","fixation","","","",""
"1566","img/90_60.png","74","image-keyboard-response","73","207324","0.0-6.0-1.33","FAMI","4","m","rechts","22","","","self","j","90","true"
"null","<div style=""font-size:60px;"">+</div>","null","html-keyboard-response","74","207642","0.0-6.0-0.34","FAMI","4","m","rechts","22","","fixation","","","",""
"687","img/0_330.png","70","image-keyboard-response","75","208347","0.0-6.0-1.34","FAMI","4","m","rechts","22","","","self","f","0","true"
"null","<div style=""font-size:60px;"">+</div>","null","html-keyboard-response","76","208673","0.0-6.0-0.35","FAMI","4","m","rechts","22","","fixation","","","",""
"663","img/90_180.png","74","image-keyboard-response","77","209350","0.0-6.0-1.35","FAMI","4","m","rechts","22","","","self","j","90","true"
"null","<div style=""font-size:60px;"">+</div>","null","html-keyboard-response","78","209767","0.0-6.0-0.36","FAMI","4","m","rechts","22","","fixation","","","",""
"627","img/120_150.png","70","image-keyboard-response","79","210407","0.0-6.0-1.36","FAMI","4","m","rechts","22","","","self","f","120","true"
"null","<div style=""font-size:60px;"">+</div>","null","html-keyboard-response","80","210783","0.0-6.0-0.37","FAMI","4","m","rechts","22","","fixation","","","",""
"698","img/150_120.png","70","image-keyboard-response","81","211487","0.0-6.0-1.37","FAMI","4","m","rechts","22","","","self","f","150","true"
"null","<div style=""font-size:60px;"">+</div>","null","html-keyboard-response","82","211940","0.0-6.0-0.38","FAMI","4","m","rechts","22","","fixation","","","",""
"670","img/60_180.png","74","image-keyboard-response","83","212635","0.0-6.0-1.38","FAMI","4","m","rechts","22","","","self","j","60","true"
"null","<div style=""font-size:60px;"">+</div>","null","html-keyboard-response","84","213111","0.0-6.0-0.39","FAMI","4","m","rechts","22","","fixation","","","",""
"845","img/30_240.png","70","image-keyboard-response","85","213974","0.0-6.0-1.39","FAMI","4","m","rechts","22","","","self","f","30","true"
"null","<div style=""font-size:60px;"">+</div>","null","html-keyboard-response","86","214479","0.0-6.0-0.40","FAMI","4","m","rechts","22","","fixation","","","",""
"624","img/0_210.png","70","image-keyboard-response","87","215121","0.0-6.0-1.40","FAMI","4","m","rechts","22","","","self","f","0","true"
"null","<div style=""font-size:60px;"">+</div>","null","html-keyboard-response","88","215654","0.0-6.0-0.41","FAMI","4","m","rechts","22","","fixation","","","",""
"778","img/0_60.png","74","image-keyboard-response","89","216450","0.0-6.0-1.41","FAMI","4","m","rechts","22","","","self","j","0","true"
"null","<div style=""font-size:60px;"">+</div>","null","html-keyboard-response","90","216778","0.0-6.0-0.42","FAMI","4","m","rechts","22","","fixation","","","",""
"575","img/0_120.png","74","image-keyboard-response","91","217359","0.0-6.0-1.42","FAMI","4","m","rechts","22","","","self","j","0","true"
"null","<div style=""font-size:60px;"">+</div>","null","html-keyboard-response","92","217825","0.0-6.0-0.43","FAMI","4","m","rechts","22","","fixation","","","",""
"914","img/90_300.png","70","image-keyboard-response","93","218756","0.0-6.0-1.43","FAMI","4","m","rechts","22","","","self","f","90","true"
"null","<div style=""font-size:60px;"">+</div>","null","html-keyboard-response","94","219262","0.0-6.0-0.44","FAMI","4","m","rechts","22","","fixation","","","",""
"645","img/0_150.png","74","image-keyboard-response","95","219925","0.0-6.0-1.44","FAMI","4","m","rechts","22","","","self","j","0","true"
"null","<div style=""font-size:60px;"">+</div>","null","html-keyboard-response","96","220230","0.0-6.0-0.45","FAMI","4","m","rechts","22","","fixation","","","",""
"711","img/L150_180.png","70","image-keyboard-response","97","220961","0.0-6.0-1.45","FAMI","4","m","rechts","22","","","self","f","150","true"
"null","<div style=""font-size:60px;"">+</div>","null","html-keyboard-response","98","221386","0.0-6.0-0.46","FAMI","4","m","rechts","22","","fixation","","","",""
"783","img/L60_180.png","70","image-keyboard-response","99","222187","0.0-6.0-1.46","FAMI","4","m","rechts","22","","","self","f","60","true"
"null","<div style=""font-size:60px;"">+</div>","null","html-keyboard-response","100","222545","0.0-6.0-0.47","FAMI","4","m","rechts","22","","fixation","","","",""
"647","img/150_90.png","70","image-keyboard-response","101","223210","0.0-6.0-1.47","FAMI","4","m","rechts","22","","","self","f","150","true"
"null","<div style=""font-size:60px;"">+</div>","null","html-keyboard-response","102","223670","0.0-6.0-0.48","FAMI","4","m","rechts","22","","fixation","","","",""
"837","img/90_330.png","74","image-keyboard-response","103","224527","0.0-6.0-1.48","FAMI","4","m","rechts","22","","","self","f","90","false"
"null","<div style=""font-size:60px;"">+</div>","null","html-keyboard-response","104","225061","0.0-6.0-0.49","FAMI","4","m","rechts","22","","fixation","","","",""
"624","img/0_30.png","74","image-keyboard-response","105","225708","0.0-6.0-1.49","FAMI","4","m","rechts","22","","","self","j","0","true"
"null","<div style=""font-size:60px;"">+</div>","null","html-keyboard-response","106","226139","0.0-6.0-0.50","FAMI","4","m","rechts","22","","fixation","","","",""
"597","img/0_90.png","74","image-keyboard-response","107","226754","0.0-6.0-1.50","FAMI","4","m","rechts","22","","","self","j","0","true"
"null","<div style=""font-size:60px;"">+</div>","null","html-keyboard-response","108","227061","0.0-6.0-0.51","FAMI","4","m","rechts","22","","fixation","","","",""
"868","img/30_60.png","74","image-keyboard-response","109","227947","0.0-6.0-1.51","FAMI","4","m","rechts","22","","","self","j","30","true"
"null","<div style=""font-size:60px;"">+</div>","null","html-keyboard-response","110","228468","0.0-6.0-0.52","FAMI","4","m","rechts","22","","fixation","","","",""
"798","img/60_90.png","74","image-keyboard-response","111","229274","0.0-6.0-1.52","FAMI","4","m","rechts","22","","","self","j","60","true"
"null","<div style=""font-size:60px;"">+</div>","null","html-keyboard-response","112","229793","0.0-6.0-0.53","FAMI","4","m","rechts","22","","fixation","","","",""
"736","img/150_90.png","70","image-keyboard-response","113","230535","0.0-6.0-1.53","FAMI","4","m","rechts","22","","","self","f","150","true"
"null","<div style=""font-size:60px;"">+</div>","null","html-keyboard-response","114","230904","0.0-6.0-0.54","FAMI","4","m","rechts","22","","fixation","","","",""
"642","img/30_300.png","70","image-keyboard-response","115","231556","0.0-6.0-1.54","FAMI","4","m","rechts","22","","","self","f","30","true"
"null","<div style=""font-size:60px;"">+</div>","null","html-keyboard-response","116","232061","0.0-6.0-0.55","FAMI","4","m","rechts","22","","fixation","","","",""
"844","img/150_300.png","74","image-keyboard-response","117","232918","0.0-6.0-1.55","FAMI","4","m","rechts","22","","","self","j","150","true"
"null","<div style=""font-size:60px;"">+</div>","null","html-keyboard-response","118","233281","0.0-6.0-0.56","FAMI","4","m","rechts","22","","fixation","","","",""
"877","img/60_270.png","70","image-keyboard-response","119","234167","0.0-6.0-1.56","FAMI","4","m","rechts","22","","","self","f","60","true"
"null","<div style=""font-size:60px;"">+</div>","null","html-keyboard-response","120","234531","0.0-6.0-0.57","FAMI","4","m","rechts","22","","fixation","","","",""
"673","img/30_90.png","74","image-keyboard-response","121","235214","0.0-6.0-1.57","FAMI","4","m","rechts","22","","","self","j","30","true"
"null","<div style=""font-size:60px;"">+</div>","null","html-keyboard-response","122","235594","0.0-6.0-0.58","FAMI","4","m","rechts","22","","fixation","","","",""
"699","img/90_150.png","70","image-keyboard-response","123","236306","0.0-6.0-1.58","FAMI","4","m","rechts","22","","","self","f","90","true"
"null","<div style=""font-size:60px;"">+</div>","null","html-keyboard-response","124","236765","0.0-6.0-0.59","FAMI","4","m","rechts","22","","fixation","","","",""
"602","img/90_180.png","74","image-keyboard-response","125","237373","0.0-6.0-1.59","FAMI","4","m","rechts","22","","","self","j","90","true"
"null","<div style=""font-size:60px;"">+</div>","null","html-keyboard-response","126","237687","0.0-6.0-0.60","FAMI","4","m","rechts","22","","fixation","","","",""
"657","img/30_60.png","74","image-keyboard-response","127","238352","0.0-6.0-1.60","FAMI","4","m","rechts","22","","","self","j","30","true"
"null","<div style=""font-size:60px;"">+</div>","null","html-keyboard-response","128","238804","0.0-6.0-0.61","FAMI","4","m","rechts","22","","fixation","","","",""
"745","img/150_180.png","74","image-keyboard-response","129","239557","0.0-6.0-1.61","FAMI","4","m","rechts","22","","","self","j","150","true"
"null","<div style=""font-size:60px;"">+</div>","null","html-keyboard-response","130","239930","0.0-6.0-0.62","FAMI","4","m","rechts","22","","fixation","","","",""
"730","img/60_180.png","74","image-keyboard-response","131","240670","0.0-6.0-1.62","FAMI","4","m","rechts","22","","","self","j","60","true"
"null","<div style=""font-size:60px;"">+</div>","null","html-keyboard-response","132","241133","0.0-6.0-0.63","FAMI","4","m","rechts","22","","fixation","","","",""
"537","img/120_210.png","74","image-keyboard-response","133","241684","0.0-6.0-1.63","FAMI","4","m","rechts","22","","","self","j","120","true"
"null","<div style=""font-size:60px;"">+</div>","null","html-keyboard-response","134","242095","0.0-6.0-0.64","FAMI","4","m","rechts","22","","fixation","","","",""
"702","img/60_30.png","74","image-keyboard-response","135","242806","0.0-6.0-1.64","FAMI","4","m","rechts","22","","","self","j","60","true"
"null","<div style=""font-size:60px;"">+</div>","null","html-keyboard-response","136","243282","0.0-6.0-0.65","FAMI","4","m","rechts","22","","fixation","","","",""
"1831","img/120_330.png","70","image-keyboard-response","137","245126","0.0-6.0-1.65","FAMI","4","m","rechts","22","","","self","f","120","true"
"null","<div style=""font-size:60px;"">+</div>","null","html-keyboard-response","138","245578","0.0-6.0-0.66","FAMI","4","m","rechts","22","","fixation","","","",""
"764","img/L120_180.png","70","image-keyboard-response","139","246352","0.0-6.0-1.66","FAMI","4","m","rechts","22","","","self","f","120","true"
"null","<div style=""font-size:60px;"">+</div>","null","html-keyboard-response","140","246756","0.0-6.0-0.67","FAMI","4","m","rechts","22","","fixation","","","",""
"688","img/L90_180.png","70","image-keyboard-response","141","247455","0.0-6.0-1.67","FAMI","4","m","rechts","22","","","self","f","90","true"
"null","<div style=""font-size:60px;"">+</div>","null","html-keyboard-response","142","247829","0.0-6.0-0.68","FAMI","4","m","rechts","22","","fixation","","","",""
"564","img/0_150.png","74","image-keyboard-response","143","248399","0.0-6.0-1.68","FAMI","4","m","rechts","22","","","self","j","0","true"
"null","<div style=""font-size:60px;"">+</div>","null","html-keyboard-response","144","248875","0.0-6.0-0.69","FAMI","4","m","rechts","22","","fixation","","","",""
"1078","img/30_240.png","70","image-keyboard-response","145","249964","0.0-6.0-1.69","FAMI","4","m","rechts","22","","","self","f","30","true"
"null","<div style=""font-size:60px;"">+</div>","null","html-keyboard-response","146","250392","0.0-6.0-0.70","FAMI","4","m","rechts","22","","fixation","","","",""
"617","img/0_60.png","74","image-keyboard-response","147","251020","0.0-6.0-1.70","FAMI","4","m","rechts","22","","","self","j","0","true"
"null","<div style=""font-size:60px;"">+</div>","null","html-keyboard-response","148","251532","0.0-6.0-0.71","FAMI","4","m","rechts","22","","fixation","","","",""
"762","img/150_120.png","70","image-keyboard-response","149","252303","0.0-6.0-1.71","FAMI","4","m","rechts","22","","","self","f","150","true"
"null","<div style=""font-size:60px;"">+</div>","null","html-keyboard-response","150","252610","0.0-6.0-0.72","FAMI","4","m","rechts","22","","fixation","","","",""
"771","img/60_330.png","70","image-keyboard-response","151","253394","0.0-6.0-1.72","FAMI","4","m","rechts","22","","","self","f","60","true"
"null","<div style=""font-size:60px;"">+</div>","null","html-keyboard-response","152","253813","0.0-6.0-0.73","FAMI","4","m","rechts","22","","fixation","","","",""
"702","img/0_300.png","70","image-keyboard-response","153","254532","0.0-6.0-1.73","FAMI","4","m","rechts","22","","","self","f","0","true"
"null","<div style=""font-size:60px;"">+</div>","null","html-keyboard-response","154","255000","0.0-6.0-0.74","FAMI","4","m","rechts","22","","fixation","","","",""
"743","img/90_120.png","70","image-keyboard-response","155","255757","0.0-6.0-1.74","FAMI","4","m","rechts","22","","","self","f","90","true"
"null","<div style=""font-size:60px;"">+</div>","null","html-keyboard-response","156","256266","0.0-6.0-0.75","FAMI","4","m","rechts","22","","fixation","","","",""
"629","img/0_120.png","74","image-keyboard-response","157","256904","0.0-6.0-1.75","FAMI","4","m","rechts","22","","","self","j","0","true"
"null","<div style=""font-size:60px;"">+</div>","null","html-keyboard-response","158","257407","0.0-6.0-0.76","FAMI","4","m","rechts","22","","fixation","","","",""
"580","img/0_210.png","70","image-keyboard-response","159","257996","0.0-6.0-1.76","FAMI","4","m","rechts","22","","","self","f","0","true"
"null","<div style=""font-size:60px;"">+</div>","null","html-keyboard-response","160","258468","0.0-6.0-0.77","FAMI","4","m","rechts","22","","fixation","","","",""
"712","img/L150_180.png","70","image-keyboard-response","161","259189","0.0-6.0-1.77","FAMI","4","m","rechts","22","","","self","f","150","true"
"null","<div style=""font-size:60px;"">+</div>","null","html-keyboard-response","162","259656","0.0-6.0-0.78","FAMI","4","m","rechts","22","","fixation","","","",""
"736","img/120_150.png","70","image-keyboard-response","163","260403","0.0-6.0-1.78","FAMI","4","m","rechts","22","","","self","f","120","true"
"null","<div style=""font-size:60px;"">+</div>","null","html-keyboard-response","164","260780","0.0-6.0-0.79","FAMI","4","m","rechts","22","","fixation","","","",""
"859","img/120_30.png","74","image-keyboard-response","165","261653","0.0-6.0-1.79","FAMI","4","m","rechts","22","","","self","j","120","true"
"null","<div style=""font-size:60px;"">+</div>","null","html-keyboard-response","166","262017","0.0-6.0-0.80","FAMI","4","m","rechts","22","","fixation","","","",""
"704","img/L60_180.png","70","image-keyboard-response","167","262732","0.0-6.0-1.80","FAMI","4","m","rechts","22","","","self","f","60","true"
"null","<div style=""font-size:60px;"">+</div>","null","html-keyboard-response","168","263237","0.0-6.0-0.81","FAMI","4","m","rechts","22","","fixation","","","",""
"820","img/30_120.png","74","image-keyboard-response","169","264070","0.0-6.0-1.81","FAMI","4","m","rechts","22","","","self","j","30","true"
"null","<div style=""font-size:60px;"">+</div>","null","html-keyboard-response","170","264502","0.0-6.0-0.82","FAMI","4","m","rechts","22","","fixation","","","",""
"589","img/0_240.png","70","image-keyboard-response","171","265104","0.0-6.0-1.82","FAMI","4","m","rechts","22","","","self","f","0","true"
"null","<div style=""font-size:60px;"">+</div>","null","html-keyboard-response","172","265610","0.0-6.0-0.83","FAMI","4","m","rechts","22","","fixation","","","",""
"501","img/0_270.png","70","image-keyboard-response","173","266119","0.0-6.0-1.83","FAMI","4","m","rechts","22","","","self","f","0","true"
"null","<div style=""font-size:60px;"">+</div>","null","html-keyboard-response","174","266533","0.0-6.0-0.84","FAMI","4","m","rechts","22","","fixation","","","",""
"1124","img/150_60.png","70","image-keyboard-response","175","267671","0.0-6.0-1.84","FAMI","4","m","rechts","22","","","self","f","150","true"
"null","<div style=""font-size:60px;"">+</div>","null","html-keyboard-response","176","268128","0.0-6.0-0.85","FAMI","4","m","rechts","22","","fixation","","","",""
"579","img/0_30.png","74","image-keyboard-response","177","268718","0.0-6.0-1.85","FAMI","4","m","rechts","22","","","self","j","0","true"
"null","<div style=""font-size:60px;"">+</div>","null","html-keyboard-response","178","269174","0.0-6.0-0.86","FAMI","4","m","rechts","22","","fixation","","","",""
"642","img/120_90.png","70","image-keyboard-response","179","269829","0.0-6.0-1.86","FAMI","4","m","rechts","22","","","self","f","120","true"
"null","<div style=""font-size:60px;"">+</div>","null","html-keyboard-response","180","270301","0.0-6.0-0.87","FAMI","4","m","rechts","22","","fixation","","","",""
"580","img/0_90.png","74","image-keyboard-response","181","270888","0.0-6.0-1.87","FAMI","4","m","rechts","22","","","self","j","0","true"
"null","<div style=""font-size:60px;"">+</div>","null","html-keyboard-response","182","271261","0.0-6.0-0.88","FAMI","4","m","rechts","22","","fixation","","","",""
"693","img/120_180.png","74","image-keyboard-response","183","271968","0.0-6.0-1.88","FAMI","4","m","rechts","22","","","self","j","120","true"
"null","<div style=""font-size:60px;"">+</div>","null","html-keyboard-response","184","272292","0.0-6.0-0.89","FAMI","4","m","rechts","22","","fixation","","","",""
"687","img/90_240.png","74","image-keyboard-response","185","272992","0.0-6.0-1.89","FAMI","4","m","rechts","22","","","self","j","90","true"
"null","<div style=""font-size:60px;"">+</div>","null","html-keyboard-response","186","273353","0.0-6.0-0.90","FAMI","4","m","rechts","22","","fixation","","","",""
"625","img/120_270.png","74","image-keyboard-response","187","273992","0.0-6.0-1.90","FAMI","4","m","rechts","22","","","self","j","120","true"
"null","<div style=""font-size:60px;"">+</div>","null","html-keyboard-response","188","274401","0.0-6.0-0.91","FAMI","4","m","rechts","22","","fixation","","","",""
"921","img/90_330.png","70","image-keyboard-response","189","275332","0.0-6.0-1.91","FAMI","4","m","rechts","22","","","self","f","90","true"
"null","<div style=""font-size:60px;"">+</div>","null","html-keyboard-response","190","275639","0.0-6.0-0.92","FAMI","4","m","rechts","22","","fixation","","","",""
"694","img/0_330.png","70","image-keyboard-response","191","276344","0.0-6.0-1.92","FAMI","4","m","rechts","22","","","self","f","0","true"
"null","<div style=""font-size:60px;"">+</div>","null","html-keyboard-response","192","276698","0.0-6.0-0.93","FAMI","4","m","rechts","22","","fixation","","","",""
"602","img/150_240.png","74","image-keyboard-response","193","277312","0.0-6.0-1.93","FAMI","4","m","rechts","22","","","self","j","150","true"
"null","<div style=""font-size:60px;"">+</div>","null","html-keyboard-response","194","277683","0.0-6.0-0.94","FAMI","4","m","rechts","22","","fixation","","","",""
"650","img/60_210.png","74","image-keyboard-response","195","278347","0.0-6.0-1.94","FAMI","4","m","rechts","22","","","self","j","60","true"
"null","<div style=""font-size:60px;"">+</div>","null","html-keyboard-response","196","278652","0.0-6.0-0.95","FAMI","4","m","rechts","22","","fixation","","","",""
"638","img/150_270.png","70","image-keyboard-response","197","279305","0.0-6.0-1.95","FAMI","4","m","rechts","22","","","self","j","150","false"
"null","<div style=""font-size:60px;"">+</div>","null","html-keyboard-response","198","279771","0.0-6.0-0.96","FAMI","4","m","rechts","22","","fixation","","","",""
"1051","img/90_60.png","74","image-keyboard-response","199","280835","0.0-6.0-1.96","FAMI","4","m","rechts","22","","","self","j","90","true"
"null","<div style=""font-size:60px;"">+</div>","null","html-keyboard-response","200","281302","0.0-6.0-0.97","FAMI","4","m","rechts","22","","fixation","","","",""
"731","img/30_270.png","70","image-keyboard-response","201","282048","0.0-6.0-1.97","FAMI","4","m","rechts","22","","","self","f","30","true"
"null","<div style=""font-size:60px;"">+</div>","null","html-keyboard-response","202","282373","0.0-6.0-0.98","FAMI","4","m","rechts","22","","fixation","","","",""
"855","img/90_300.png","70","image-keyboard-response","203","283243","0.0-6.0-1.98","FAMI","4","m","rechts","22","","","self","f","90","true"
"null","<div style=""font-size:60px;"">+</div>","null","html-keyboard-response","204","283747","0.0-6.0-0.99","FAMI","4","m","rechts","22","","fixation","","","",""
"695","img/30_180.png","74","image-keyboard-response","205","284455","0.0-6.0-1.99","FAMI","4","m","rechts","22","","","self","j","30","true"
"null","<div style=""font-size:60px;"">+</div>","null","html-keyboard-response","206","284965","0.0-6.0-0.100","FAMI","4","m","rechts","22","","fixation","","","",""
"682","img/60_150.png","70","image-keyboard-response","207","285660","0.0-6.0-1.100","FAMI","4","m","rechts","22","","","self","f","60","true"
"null","<div style=""font-size:60px;"">+</div>","null","html-keyboard-response","208","286028","0.0-6.0-0.101","FAMI","4","m","rechts","22","","fixation","","","",""
"608","img/90_210.png","74","image-keyboard-response","209","286649","0.0-6.0-1.101","FAMI","4","m","rechts","22","","","self","j","90","true"
"null","<div style=""font-size:60px;"">+</div>","null","html-keyboard-response","210","287028","0.0-6.0-0.102","FAMI","4","m","rechts","22","","fixation","","","",""
"667","img/L30_180.png","70","image-keyboard-response","211","287708","0.0-6.0-1.102","FAMI","4","m","rechts","22","","","self","f","30","true"
"null","<div style=""font-size:60px;"">+</div>","null","html-keyboard-response","212","288074","0.0-6.0-0.103","FAMI","4","m","rechts","22","","fixation","","","",""
"1016","img/90_30.png","74","image-keyboard-response","213","289102","0.0-6.0-1.103","FAMI","4","m","rechts","22","","","self","j","90","true"
"null","<div style=""font-size:60px;"">+</div>","null","html-keyboard-response","214","289559","0.0-6.0-0.104","FAMI","4","m","rechts","22","","fixation","","","",""
"554","img/0_150.png","74","image-keyboard-response","215","290126","0.0-6.0-1.104","FAMI","4","m","rechts","22","","","self","j","0","true"
"null","<div style=""font-size:60px;"">+</div>","null","html-keyboard-response","216","290481","0.0-6.0-0.105","FAMI","4","m","rechts","22","","fixation","","","",""
"839","img/120_330.png","70","image-keyboard-response","217","291329","0.0-6.0-1.105","FAMI","4","m","rechts","22","","","self","f","120","true"
"null","<div style=""font-size:60px;"">+</div>","null","html-keyboard-response","218","291699","0.0-6.0-0.106","FAMI","4","m","rechts","22","","fixation","","","",""
"803","img/120_90.png","70","image-keyboard-response","219","292512","0.0-6.0-1.106","FAMI","4","m","rechts","22","","","self","f","120","true"
"null","<div style=""font-size:60px;"">+</div>","null","html-keyboard-response","220","292826","0.0-6.0-0.107","FAMI","4","m","rechts","22","","fixation","","","",""
"710","img/L60_180.png","70","image-keyboard-response","221","293546","0.0-6.0-1.107","FAMI","4","m","rechts","22","","","self","f","60","true"
"null","<div style=""font-size:60px;"">+</div>","null","html-keyboard-response","222","294061","0.0-6.0-0.108","FAMI","4","m","rechts","22","","fixation","","","",""
"599","img/90_120.png","70","image-keyboard-response","223","294672","0.0-6.0-1.108","FAMI","4","m","rechts","22","","","self","f","90","true"
"null","<div style=""font-size:60px;"">+</div>","null","html-keyboard-response","224","294983","0.0-6.0-0.109","FAMI","4","m","rechts","22","","fixation","","","",""
"636","img/90_330.png","74","image-keyboard-response","225","295627","0.0-6.0-1.109","FAMI","4","m","rechts","22","","","self","f","90","false"
"null","<div style=""font-size:60px;"">+</div>","null","html-keyboard-response","226","295982","0.0-6.0-0.110","FAMI","4","m","rechts","22","","fixation","","","",""
"852","img/150_60.png","70","image-keyboard-response","227","296843","0.0-6.0-1.110","FAMI","4","m","rechts","22","","","self","f","150","true"
"null","<div style=""font-size:60px;"">+</div>","null","html-keyboard-response","228","297295","0.0-6.0-0.111","FAMI","4","m","rechts","22","","fixation","","","",""
"796","img/30_60.png","74","image-keyboard-response","229","298100","0.0-6.0-1.111","FAMI","4","m","rechts","22","","","self","j","30","true"
"null","<div style=""font-size:60px;"">+</div>","null","html-keyboard-response","230","298514","0.0-6.0-0.112","FAMI","4","m","rechts","22","","fixation","","","",""
"672","img/120_180.png","74","image-keyboard-response","231","299194","0.0-6.0-1.112","FAMI","4","m","rechts","22","","","self","j","120","true"
"null","<div style=""font-size:60px;"">+</div>","null","html-keyboard-response","232","299623","0.0-6.0-0.113","FAMI","4","m","rechts","22","","fixation","","","",""
"810","img/90_60.png","74","image-keyboard-response","233","300442","0.0-6.0-1.113","FAMI","4","m","rechts","22","","","self","j","90","true"
"null","<div style=""font-size:60px;"">+</div>","null","html-keyboard-response","234","300901","0.0-6.0-0.114","FAMI","4","m","rechts","22","","fixation","","","",""
"692","img/90_180.png","74","image-keyboard-response","235","301602","0.0-6.0-1.114","FAMI","4","m","rechts","22","","","self","j","90","true"
"null","<div style=""font-size:60px;"">+</div>","null","html-keyboard-response","236","302125","0.0-6.0-0.115","FAMI","4","m","rechts","22","","fixation","","","",""
"689","img/L90_180.png","70","image-keyboard-response","237","302829","0.0-6.0-1.115","FAMI","4","m","rechts","22","","","self","f","90","true"
"null","<div style=""font-size:60px;"">+</div>","null","html-keyboard-response","238","303358","0.0-6.0-0.116","FAMI","4","m","rechts","22","","fixation","","","",""
"662","img/150_180.png","74","image-keyboard-response","239","304033","0.0-6.0-1.116","FAMI","4","m","rechts","22","","","self","j","150","true"
"null","<div style=""font-size:60px;"">+</div>","null","html-keyboard-response","240","304342","0.0-6.0-0.117","FAMI","4","m","rechts","22","","fixation","","","",""
"561","img/0_60.png","74","image-keyboard-response","241","304916","0.0-6.0-1.117","FAMI","4","m","rechts","22","","","self","j","0","true"
"null","<div style=""font-size:60px;"">+</div>","null","html-keyboard-response","242","305431","0.0-6.0-0.118","FAMI","4","m","rechts","22","","fixation","","","",""
"706","img/90_210.png","74","image-keyboard-response","243","306147","0.0-6.0-1.118","FAMI","4","m","rechts","22","","","self","j","90","true"
"null","<div style=""font-size:60px;"">+</div>","null","html-keyboard-response","244","306663","0.0-6.0-0.119","FAMI","4","m","rechts","22","","fixation","","","",""
"606","img/L150_180.png","70","image-keyboard-response","245","307282","0.0-6.0-1.119","FAMI","4","m","rechts","22","","","self","f","150","true"
"null","<div style=""font-size:60px;"">+</div>","null","html-keyboard-response","246","307595","0.0-6.0-0.120","FAMI","4","m","rechts","22","","fixation","","","",""
"1385","img/30_240.png","70","image-keyboard-response","247","308994","0.0-6.0-1.120","FAMI","4","m","rechts","22","","","self","f","30","true"
"null","<div style=""font-size:60px;"">+</div>","null","html-keyboard-response","248","309313","0.0-6.0-0.121","FAMI","4","m","rechts","22","","fixation","","","",""
"669","img/0_90.png","74","image-keyboard-response","249","309992","0.0-6.0-1.121","FAMI","4","m","rechts","22","","","self","j","0","true"
"null","<div style=""font-size:60px;"">+</div>","null","html-keyboard-response","250","310358","0.0-6.0-0.122","FAMI","4","m","rechts","22","","fixation","","","",""
"823","img/30_90.png","74","image-keyboard-response","251","311187","0.0-6.0-1.122","FAMI","4","m","rechts","22","","","self","j","30","true"
"null","<div style=""font-size:60px;"">+</div>","null","html-keyboard-response","252","311609","0.0-6.0-0.123","FAMI","4","m","rechts","22","","fixation","","","",""
"779","img/60_180.png","74","image-keyboard-response","253","312402","0.0-6.0-1.123","FAMI","4","m","rechts","22","","","self","j","60","true"
"null","<div style=""font-size:60px;"">+</div>","null","html-keyboard-response","254","312906","0.0-6.0-0.124","FAMI","4","m","rechts","22","","fixation","","","",""
"862","img/30_120.png","70","image-keyboard-response","255","313775","0.0-6.0-1.124","FAMI","4","m","rechts","22","","","self","j","30","false"
"null","<div style=""font-size:60px;"">+</div>","null","html-keyboard-response","256","314187","0.0-6.0-0.125","FAMI","4","m","rechts","22","","fixation","","","",""
"575","img/0_240.png","70","image-keyboard-response","257","314775","0.0-6.0-1.125","FAMI","4","m","rechts","22","","","self","f","0","true"
"null","<div style=""font-size:60px;"">+</div>","null","html-keyboard-response","258","315234","0.0-6.0-0.126","FAMI","4","m","rechts","22","","fixation","","","",""
"870","img/120_30.png","74","image-keyboard-response","259","316115","0.0-6.0-1.126","FAMI","4","m","rechts","22","","","self","j","120","true"
"null","<div style=""font-size:60px;"">+</div>","null","html-keyboard-response","260","316485","0.0-6.0-0.127","FAMI","4","m","rechts","22","","fixation","","","",""
"784","img/90_150.png","70","image-keyboard-response","261","317282","0.0-6.0-1.127","FAMI","4","m","rechts","22","","","self","f","90","true"
"null","<div style=""font-size:60px;"">+</div>","null","html-keyboard-response","262","317740","0.0-6.0-0.128","FAMI","4","m","rechts","22","","fixation","","","",""
"705","img/30_180.png","74","image-keyboard-response","263","318454","0.0-6.0-1.128","FAMI","4","m","rechts","22","","","self","j","30","true"
"null","<div style=""font-size:60px;"">+</div>","null","html-keyboard-response","264","318866","0.0-6.0-0.129","FAMI","4","m","rechts","22","","fixation","","","",""
"827","img/150_240.png","74","image-keyboard-response","265","319702","0.0-6.0-1.129","FAMI","4","m","rechts","22","","","self","j","150","true"
"null","<div style=""font-size:60px;"">+</div>","null","html-keyboard-response","266","320161","0.0-6.0-0.130","FAMI","4","m","rechts","22","","fixation","","","",""
"720","img/120_150.png","70","image-keyboard-response","267","320894","0.0-6.0-1.130","FAMI","4","m","rechts","22","","","self","f","120","true"
"null","<div style=""font-size:60px;"">+</div>","null","html-keyboard-response","268","321255","0.0-6.0-0.131","FAMI","4","m","rechts","22","","fixation","","","",""
"608","img/0_330.png","70","image-keyboard-response","269","321873","0.0-6.0-1.131","FAMI","4","m","rechts","22","","","self","f","0","true"
"null","<div style=""font-size:60px;"">+</div>","null","html-keyboard-response","270","322329","0.0-6.0-0.132","FAMI","4","m","rechts","22","","fixation","","","",""
"657","img/150_90.png","70","image-keyboard-response","271","323000","0.0-6.0-1.132","FAMI","4","m","rechts","22","","","self","f","150","true"
"null","<div style=""font-size:60px;"">+</div>","null","html-keyboard-response","272","323313","0.0-6.0-0.133","FAMI","4","m","rechts","22","","fixation","","","",""
"828","img/60_90.png","74","image-keyboard-response","273","324157","0.0-6.0-1.133","FAMI","4","m","rechts","22","","","self","j","60","true"
"null","<div style=""font-size:60px;"">+</div>","null","html-keyboard-response","274","324563","0.0-6.0-0.134","FAMI","4","m","rechts","22","","fixation","","","",""
"935","img/30_300.png","70","image-keyboard-response","275","325507","0.0-6.0-1.134","FAMI","4","m","rechts","22","","","self","f","30","true"
"null","<div style=""font-size:60px;"">+</div>","null","html-keyboard-response","276","326017","0.0-6.0-0.135","FAMI","4","m","rechts","22","","fixation","","","",""
"1033","img/90_300.png","70","image-keyboard-response","277","327060","0.0-6.0-1.135","FAMI","4","m","rechts","22","","","self","f","90","true"
"null","<div style=""font-size:60px;"">+</div>","null","html-keyboard-response","278","327470","0.0-6.0-0.136","FAMI","4","m","rechts","22","","fixation","","","",""
"887","img/60_210.png","74","image-keyboard-response","279","328366","0.0-6.0-1.136","FAMI","4","m","rechts","22","","","self","j","60","true"
"null","<div style=""font-size:60px;"">+</div>","null","html-keyboard-response","280","328720","0.0-6.0-0.137","FAMI","4","m","rechts","22","","fixation","","","",""
"647","img/L120_180.png","70","image-keyboard-response","281","329379","0.0-6.0-1.137","FAMI","4","m","rechts","22","","","self","f","120","true"
"null","<div style=""font-size:60px;"">+</div>","null","html-keyboard-response","282","329735","0.0-6.0-0.138","FAMI","4","m","rechts","22","","fixation","","","",""
"585","img/0_30.png","74","image-keyboard-response","283","330334","0.0-6.0-1.138","FAMI","4","m","rechts","22","","","self","j","0","true"
"null","<div style=""font-size:60px;"">+</div>","null","html-keyboard-response","284","330845","0.0-6.0-0.139","FAMI","4","m","rechts","22","","fixation","","","",""
"750","img/120_270.png","74","image-keyboard-response","285","331604","0.0-6.0-1.139","FAMI","4","m","rechts","22","","","self","j","120","true"
"null","<div style=""font-size:60px;"">+</div>","null","html-keyboard-response","286","331907","0.0-6.0-0.140","FAMI","4","m","rechts","22","","fixation","","","",""
"957","img/60_30.png","74","image-keyboard-response","287","332877","0.0-6.0-1.140","FAMI","4","m","rechts","22","","","self","j","60","true"
"null","<div style=""font-size:60px;"">+</div>","null","html-keyboard-response","288","333345","0.0-6.0-0.141","FAMI","4","m","rechts","22","","fixation","","","",""
"970","img/60_330.png","70","image-keyboard-response","289","334328","0.0-6.0-1.141","FAMI","4","m","rechts","22","","","self","f","60","true"
"null","<div style=""font-size:60px;"">+</div>","null","html-keyboard-response","290","334782","0.0-6.0-0.142","FAMI","4","m","rechts","22","","fixation","","","",""
"672","img/90_240.png","74","image-keyboard-response","291","335464","0.0-6.0-1.142","FAMI","4","m","rechts","22","","","self","j","90","true"
"null","<div style=""font-size:60px;"">+</div>","null","html-keyboard-response","292","335788","0.0-6.0-0.143","FAMI","4","m","rechts","22","","fixation","","","",""
"630","img/0_300.png","70","image-keyboard-response","293","336431","0.0-6.0-1.143","FAMI","4","m","rechts","22","","","self","f","0","true"
"null","<div style=""font-size:60px;"">+</div>","null","html-keyboard-response","294","336939","0.0-6.0-0.144","FAMI","4","m","rechts","22","","fixation","","","",""
"931","img/60_270.png","70","image-keyboard-response","295","337883","0.0-6.0-1.144","FAMI","4","m","rechts","22","","","self","f","60","true"
"null","<div style=""font-size:60px;"">+</div>","null","html-keyboard-response","296","338395","0.0-6.0-0.145","FAMI","4","m","rechts","22","","fixation","","","",""
"772","img/60_150.png","70","image-keyboard-response","297","339177","0.0-6.0-1.145","FAMI","4","m","rechts","22","","","self","f","60","true"
"null","<div style=""font-size:60px;"">+</div>","null","html-keyboard-response","298","339592","0.0-6.0-0.146","FAMI","4","m","rechts","22","","fixation","","","",""
"584","img/0_120.png","74","image-keyboard-response","299","340190","0.0-6.0-1.146","FAMI","4","m","rechts","22","","","self","j","0","true"
"null","<div style=""font-size:60px;"">+</div>","null","html-keyboard-response","300","340655","0.0-6.0-0.147","FAMI","4","m","rechts","22","","fixation","","","",""
"735","img/150_120.png","70","image-keyboard-response","301","341403","0.0-6.0-1.147","FAMI","4","m","rechts","22","","","self","f","150","true"
"null","<div style=""font-size:60px;"">+</div>","null","html-keyboard-response","302","341718","0.0-6.0-0.148","FAMI","4","m","rechts","22","","fixation","","","",""
"847","img/90_30.png","74","image-keyboard-response","303","342574","0.0-6.0-1.148","FAMI","4","m","rechts","22","","","self","j","90","true"
"null","<div style=""font-size:60px;"">+</div>","null","html-keyboard-response","304","343044","0.0-6.0-0.149","FAMI","4","m","rechts","22","","fixation","","","",""
"689","img/150_270.png","74","image-keyboard-response","305","343745","0.0-6.0-1.149","FAMI","4","m","rechts","22","","","self","j","150","true"
"null","<div style=""font-size:60px;"">+</div>","null","html-keyboard-response","306","344217","0.0-6.0-0.150","FAMI","4","m","rechts","22","","fixation","","","",""
"628","img/150_300.png","74","image-keyboard-response","307","344858","0.0-6.0-1.150","FAMI","4","m","rechts","22","","","self","j","150","true"
"null","<div style=""font-size:60px;"">+</div>","null","html-keyboard-response","308","345170","0.0-6.0-0.151","FAMI","4","m","rechts","22","","fixation","","","",""
"642","img/0_210.png","70","image-keyboard-response","309","345825","0.0-6.0-1.151","FAMI","4","m","rechts","22","","","self","f","0","true"
"null","<div style=""font-size:60px;"">+</div>","null","html-keyboard-response","310","346288","0.0-6.0-0.152","FAMI","4","m","rechts","22","","fixation","","","",""
"558","img/120_210.png","74","image-keyboard-response","311","346860","0.0-6.0-1.152","FAMI","4","m","rechts","22","","","self","j","120","true"
"null","<div style=""font-size:60px;"">+</div>","null","html-keyboard-response","312","347163","0.0-6.0-0.153","FAMI","4","m","rechts","22","","fixation","","","",""
"573","img/0_270.png","70","image-keyboard-response","313","347749","0.0-6.0-1.153","FAMI","4","m","rechts","22","","","self","f","0","true"
"null","<div style=""font-size:60px;"">+</div>","null","html-keyboard-response","314","348272","0.0-6.0-0.154","FAMI","4","m","rechts","22","","fixation","","","",""
"1020","img/L30_180.png","70","image-keyboard-response","315","349303","0.0-6.0-1.154","FAMI","4","m","rechts","22","","","self","f","30","true"
"null","<div style=""font-size:60px;"">+</div>","null","html-keyboard-response","316","349617","0.0-6.0-0.155","FAMI","4","m","rechts","22","","fixation","","","",""
"920","img/30_270.png","70","image-keyboard-response","317","350551","0.0-6.0-1.155","FAMI","4","m","rechts","22","","","self","f","30","true"
"null","<div style=""font-size:60px;"">+</div>","null","html-keyboard-response","318","350913","0.0-6.0-0.156","FAMI","4","m","rechts","22","","fixation","","","",""
"641","img/30_270.png","70","image-keyboard-response","319","351564","0.0-6.0-1.156","FAMI","4","m","rechts","22","","","self","f","30","true"
"null","<div style=""font-size:60px;"">+</div>","null","html-keyboard-response","320","351978","0.0-6.0-0.157","FAMI","4","m","rechts","22","","fixation","","","",""
"825","img/L30_180.png","70","image-keyboard-response","321","352813","0.0-6.0-1.157","FAMI","4","m","rechts","22","","","self","f","30","true"
"null","<div style=""font-size:60px;"">+</div>","null","html-keyboard-response","322","353320","0.0-6.0-0.158","FAMI","4","m","rechts","22","","fixation","","","",""
"786","img/30_120.png","74","image-keyboard-response","323","354118","0.0-6.0-1.158","FAMI","4","m","rechts","22","","","self","j","30","true"
"null","<div style=""font-size:60px;"">+</div>","null","html-keyboard-response","324","354477","0.0-6.0-0.159","FAMI","4","m","rechts","22","","fixation","","","",""
"677","img/120_210.png","70","image-keyboard-response","325","355164","0.0-6.0-1.159","FAMI","4","m","rechts","22","","","self","j","120","false"
"null","<div style=""font-size:60px;"">+</div>","null","html-keyboard-response","326","355585","0.0-6.0-0.160","FAMI","4","m","rechts","22","","fixation","","","",""
"688","img/150_240.png","74","image-keyboard-response","327","356289","0.0-6.0-1.160","FAMI","4","m","rechts","22","","","self","j","150","true"
"null","<div style=""font-size:60px;"">+</div>","null","html-keyboard-response","328","356806","0.0-6.0-0.161","FAMI","4","m","rechts","22","","fixation","","","",""
"788","img/120_270.png","74","image-keyboard-response","329","357605","0.0-6.0-1.161","FAMI","4","m","rechts","22","","","self","j","120","true"
"null","<div style=""font-size:60px;"">+</div>","null","html-keyboard-response","330","357931","0.0-6.0-0.162","FAMI","4","m","rechts","22","","fixation","","","",""
"1263","img/90_30.png","74","image-keyboard-response","331","359203","0.0-6.0-1.162","FAMI","4","m","rechts","22","","","self","j","90","true"
"null","<div style=""font-size:60px;"">+</div>","null","html-keyboard-response","332","359618","0.0-6.0-0.163","FAMI","4","m","rechts","22","","fixation","","","",""
"811","img/120_150.png","70","image-keyboard-response","333","360438","0.0-6.0-1.163","FAMI","4","m","rechts","22","","","self","f","120","true"
"null","<div style=""font-size:60px;"">+</div>","null","html-keyboard-response","334","360898","0.0-6.0-0.164","FAMI","4","m","rechts","22","","fixation","","","",""
"794","img/30_90.png","74","image-keyboard-response","335","361702","0.0-6.0-1.164","FAMI","4","m","rechts","22","","","self","j","30","true"
"null","<div style=""font-size:60px;"">+</div>","null","html-keyboard-response","336","362009","0.0-6.0-0.165","FAMI","4","m","rechts","22","","fixation","","","",""
"810","img/90_300.png","70","image-keyboard-response","337","362835","0.0-6.0-1.165","FAMI","4","m","rechts","22","","","self","f","90","true"
"null","<div style=""font-size:60px;"">+</div>","null","html-keyboard-response","338","363353","0.0-6.0-0.166","FAMI","4","m","rechts","22","","fixation","","","",""
"933","img/120_330.png","70","image-keyboard-response","339","364299","0.0-6.0-1.166","FAMI","4","m","rechts","22","","","self","f","120","true"
"null","<div style=""font-size:60px;"">+</div>","null","html-keyboard-response","340","364760","0.0-6.0-0.167","FAMI","4","m","rechts","22","","fixation","","","",""
"717","img/60_210.png","74","image-keyboard-response","341","365490","0.0-6.0-1.167","FAMI","4","m","rechts","22","","","self","j","60","true"
"null","<div style=""font-size:60px;"">+</div>","null","html-keyboard-response","342","365900","0.0-6.0-0.168","FAMI","4","m","rechts","22","","fixation","","","",""
"853","img/90_180.png","74","image-keyboard-response","343","366765","0.0-6.0-1.168","FAMI","4","m","rechts","22","","","self","j","90","true"
"null","<div style=""font-size:60px;"">+</div>","null","html-keyboard-response","344","367072","0.0-6.0-0.169","FAMI","4","m","rechts","22","","fixation","","","",""
"780","img/30_180.png","74","image-keyboard-response","345","367865","0.0-6.0-1.169","FAMI","4","m","rechts","22","","","self","j","30","true"
"null","<div style=""font-size:60px;"">+</div>","null","html-keyboard-response","346","368182","0.0-6.0-0.170","FAMI","4","m","rechts","22","","fixation","","","",""
"886","img/30_60.png","74","image-keyboard-response","347","369080","0.0-6.0-1.170","FAMI","4","m","rechts","22","","","self","j","30","true"
"null","<div style=""font-size:60px;"">+</div>","null","html-keyboard-response","348","369399","0.0-6.0-0.171","FAMI","4","m","rechts","22","","fixation","","","",""
"828","img/L90_180.png","70","image-keyboard-response","349","370239","0.0-6.0-1.171","FAMI","4","m","rechts","22","","","self","f","90","true"
"null","<div style=""font-size:60px;"">+</div>","null","html-keyboard-response","350","370666","0.0-6.0-0.172","FAMI","4","m","rechts","22","","fixation","","","",""
"689","img/150_270.png","74","image-keyboard-response","351","371365","0.0-6.0-1.172","FAMI","4","m","rechts","22","","","self","j","150","true"
"null","<div style=""font-size:60px;"">+</div>","null","html-keyboard-response","352","371683","0.0-6.0-0.173","FAMI","4","m","rechts","22","","fixation","","","",""
"784","img/150_300.png","74","image-keyboard-response","353","372477","0.0-6.0-1.173","FAMI","4","m","rechts","22","","","self","j","150","true"
"null","<div style=""font-size:60px;"">+</div>","null","html-keyboard-response","354","373010","0.0-6.0-0.174","FAMI","4","m","rechts","22","","fixation","","","",""
"753","img/120_90.png","70","image-keyboard-response","355","373771","0.0-6.0-1.174","FAMI","4","m","rechts","22","","","self","f","120","true"
"null","<div style=""font-size:60px;"">+</div>","null","html-keyboard-response","356","374087","0.0-6.0-0.175","FAMI","4","m","rechts","22","","fixation","","","",""
"615","img/150_120.png","70","image-keyboard-response","357","374714","0.0-6.0-1.175","FAMI","4","m","rechts","22","","","self","f","150","true"
"null","<div style=""font-size:60px;"">+</div>","null","html-keyboard-response","358","375228","0.0-6.0-0.176","FAMI","4","m","rechts","22","","fixation","","","",""
"566","img/0_150.png","74","image-keyboard-response","359","375808","0.0-6.0-1.176","FAMI","4","m","rechts","22","","","self","j","0","true"
"null","<div style=""font-size:60px;"">+</div>","null","html-keyboard-response","360","376228","0.0-6.0-0.177","FAMI","4","m","rechts","22","","fixation","","","",""
"782","img/0_300.png","70","image-keyboard-response","361","377021","0.0-6.0-1.177","FAMI","4","m","rechts","22","","","self","f","0","true"
"null","<div style=""font-size:60px;"">+</div>","null","html-keyboard-response","362","377481","0.0-6.0-0.178","FAMI","4","m","rechts","22","","fixation","","","",""
"809","img/90_60.png","74","image-keyboard-response","363","378304","0.0-6.0-1.178","FAMI","4","m","rechts","22","","","self","j","90","true"
"null","<div style=""font-size:60px;"">+</div>","null","html-keyboard-response","364","378715","0.0-6.0-0.179","FAMI","4","m","rechts","22","","fixation","","","",""
"638","img/60_150.png","70","image-keyboard-response","365","379362","0.0-6.0-1.179","FAMI","4","m","rechts","22","","","self","f","60","true"
"null","<div style=""font-size:60px;"">+</div>","null","html-keyboard-response","366","379666","0.0-6.0-0.180","FAMI","4","m","rechts","22","","fixation","","","",""
"686","img/90_330.png","74","image-keyboard-response","367","380365","0.0-6.0-1.180","FAMI","4","m","rechts","22","","","self","f","90","false"
"null","<div style=""font-size:60px;"">+</div>","null","html-keyboard-response","368","380745","0.0-6.0-0.181","FAMI","4","m","rechts","22","","fixation","","","",""
"623","img/L120_180.png","70","image-keyboard-response","369","381377","0.0-6.0-1.181","FAMI","4","m","rechts","22","","","self","f","120","true"
"null","<div style=""font-size:60px;"">+</div>","null","html-keyboard-response","370","381745","0.0-6.0-0.182","FAMI","4","m","rechts","22","","fixation","","","",""
"620","img/0_330.png","70","image-keyboard-response","371","382378","0.0-6.0-1.182","FAMI","4","m","rechts","22","","","self","f","0","true"
"null","<div style=""font-size:60px;"">+</div>","null","html-keyboard-response","372","382731","0.0-6.0-0.183","FAMI","4","m","rechts","22","","fixation","","","",""
"717","img/0_120.png","74","image-keyboard-response","373","383458","0.0-6.0-1.183","FAMI","4","m","rechts","22","","","self","j","0","true"
"null","<div style=""font-size:60px;"">+</div>","null","html-keyboard-response","374","383875","0.0-6.0-0.184","FAMI","4","m","rechts","22","","fixation","","","",""
"737","img/60_180.png","74","image-keyboard-response","375","384617","0.0-6.0-1.184","FAMI","4","m","rechts","22","","","self","j","60","true"
"null","<div style=""font-size:60px;"">+</div>","null","html-keyboard-response","376","384979","0.0-6.0-0.185","FAMI","4","m","rechts","22","","fixation","","","",""
"564","img/0_210.png","70","image-keyboard-response","377","385548","0.0-6.0-1.185","FAMI","4","m","rechts","22","","","self","f","0","true"
"null","<div style=""font-size:60px;"">+</div>","null","html-keyboard-response","378","385973","0.0-6.0-0.186","FAMI","4","m","rechts","22","","fixation","","","",""
"816","img/60_90.png","74","image-keyboard-response","379","386800","0.0-6.0-1.186","FAMI","4","m","rechts","22","","","self","j","60","true"
"null","<div style=""font-size:60px;"">+</div>","null","html-keyboard-response","380","387178","0.0-6.0-0.187","FAMI","4","m","rechts","22","","fixation","","","",""
"857","img/30_300.png","70","image-keyboard-response","381","388046","0.0-6.0-1.187","FAMI","4","m","rechts","22","","","self","f","30","true"
"null","<div style=""font-size:60px;"">+</div>","null","html-keyboard-response","382","388559","0.0-6.0-0.188","FAMI","4","m","rechts","22","","fixation","","","",""
"837","img/30_240.png","70","image-keyboard-response","383","389408","0.0-6.0-1.188","FAMI","4","m","rechts","22","","","self","f","30","true"
"null","<div style=""font-size:60px;"">+</div>","null","html-keyboard-response","384","389919","0.0-6.0-0.189","FAMI","4","m","rechts","22","","fixation","","","",""
"804","img/L60_180.png","70","image-keyboard-response","385","390736","0.0-6.0-1.189","FAMI","4","m","rechts","22","","","self","f","60","true"
"null","<div style=""font-size:60px;"">+</div>","null","html-keyboard-response","386","391160","0.0-6.0-0.190","FAMI","4","m","rechts","22","","fixation","","","",""
"646","img/90_150.png","70","image-keyboard-response","387","391818","0.0-6.0-1.190","FAMI","4","m","rechts","22","","","self","f","90","true"
"null","<div style=""font-size:60px;"">+</div>","null","html-keyboard-response","388","392342","0.0-6.0-0.191","FAMI","4","m","rechts","22","","fixation","","","",""
"585","img/150_180.png","74","image-keyboard-response","389","392940","0.0-6.0-1.191","FAMI","4","m","rechts","22","","","self","j","150","true"
"null","<div style=""font-size:60px;"">+</div>","null","html-keyboard-response","390","393275","0.0-6.0-0.192","FAMI","4","m","rechts","22","","fixation","","","",""
"564","img/0_240.png","70","image-keyboard-response","391","393855","0.0-6.0-1.192","FAMI","4","m","rechts","22","","","self","f","0","true"
"null","<div style=""font-size:60px;"">+</div>","null","html-keyboard-response","392","394279","0.0-6.0-0.193","FAMI","4","m","rechts","22","","fixation","","","",""
"864","img/120_30.png","74","image-keyboard-response","393","395157","0.0-6.0-1.193","FAMI","4","m","rechts","22","","","self","j","120","true"
"null","<div style=""font-size:60px;"">+</div>","null","html-keyboard-response","394","395537","0.0-6.0-0.194","FAMI","4","m","rechts","22","","fixation","","","",""
"596","img/0_90.png","74","image-keyboard-response","395","396148","0.0-6.0-1.194","FAMI","4","m","rechts","22","","","self","j","0","true"
"null","<div style=""font-size:60px;"">+</div>","null","html-keyboard-response","396","396556","0.0-6.0-0.195","FAMI","4","m","rechts","22","","fixation","","","",""
"808","img/60_330.png","70","image-keyboard-response","397","397376","0.0-6.0-1.195","FAMI","4","m","rechts","22","","","self","f","60","true"
"null","<div style=""font-size:60px;"">+</div>","null","html-keyboard-response","398","397813","0.0-6.0-0.196","FAMI","4","m","rechts","22","","fixation","","","",""
"957","img/60_270.png","70","image-keyboard-response","399","398782","0.0-6.0-1.196","FAMI","4","m","rechts","22","","","self","f","60","true"
"null","<div style=""font-size:60px;"">+</div>","null","html-keyboard-response","400","399219","0.0-6.0-0.197","FAMI","4","m","rechts","22","","fixation","","","",""
"720","img/150_90.png","74","image-keyboard-response","401","399950","0.0-6.0-1.197","FAMI","4","m","rechts","22","","","self","f","150","false"
"null","<div style=""font-size:60px;"">+</div>","null","html-keyboard-response","402","400369","0.0-6.0-0.198","FAMI","4","m","rechts","22","","fixation","","","",""
"634","img/0_60.png","74","image-keyboard-response","403","401017","0.0-6.0-1.198","FAMI","4","m","rechts","22","","","self","j","0","true"
"null","<div style=""font-size:60px;"">+</div>","null","html-keyboard-response","404","401528","0.0-6.0-0.199","FAMI","4","m","rechts","22","","fixation","","","",""
"910","img/0_270.png","74","image-keyboard-response","405","402447","0.0-6.0-1.199","FAMI","4","m","rechts","22","","","self","f","0","false"
"null","<div style=""font-size:60px;"">+</div>","null","html-keyboard-response","406","402911","0.0-6.0-0.200","FAMI","4","m","rechts","22","","fixation","","","",""
"751","img/L150_180.png","70","image-keyboard-response","407","403674","0.0-6.0-1.200","FAMI","4","m","rechts","22","","","self","f","150","true"
"null","<div style=""font-size:60px;"">+</div>","null","html-keyboard-response","408","404191","0.0-6.0-0.201","FAMI","4","m","rechts","22","","fixation","","","",""
"790","img/90_240.png","74","image-keyboard-response","409","404989","0.0-6.0-1.201","FAMI","4","m","rechts","22","","","self","j","90","true"
"null","<div style=""font-size:60px;"">+</div>","null","html-keyboard-response","410","405500","0.0-6.0-0.202","FAMI","4","m","rechts","22","","fixation","","","",""
"682","img/120_180.png","74","image-keyboard-response","411","406196","0.0-6.0-1.202","FAMI","4","m","rechts","22","","","self","j","120","true"
"null","<div style=""font-size:60px;"">+</div>","null","html-keyboard-response","412","406578","0.0-6.0-0.203","FAMI","4","m","rechts","22","","fixation","","","",""
"1191","img/60_30.png","74","image-keyboard-response","413","407780","0.0-6.0-1.203","FAMI","4","m","rechts","22","","","self","j","60","true"
"null","<div style=""font-size:60px;"">+</div>","null","html-keyboard-response","414","408251","0.0-6.0-0.204","FAMI","4","m","rechts","22","","fixation","","","",""
"584","img/0_30.png","74","image-keyboard-response","415","408849","0.0-6.0-1.204","FAMI","4","m","rechts","22","","","self","j","0","true"
"null","<div style=""font-size:60px;"">+</div>","null","html-keyboard-response","416","409314","0.0-6.0-0.205","FAMI","4","m","rechts","22","","fixation","","","",""
"679","img/90_120.png","70","image-keyboard-response","417","410007","0.0-6.0-1.205","FAMI","4","m","rechts","22","","","self","f","90","true"
"null","<div style=""font-size:60px;"">+</div>","null","html-keyboard-response","418","410424","0.0-6.0-0.206","FAMI","4","m","rechts","22","","fixation","","","",""
"706","img/150_60.png","70","image-keyboard-response","419","411144","0.0-6.0-1.206","FAMI","4","m","rechts","22","","","self","f","150","true"
"null","<div style=""font-size:60px;"">+</div>","null","html-keyboard-response","420","411595","0.0-6.0-0.207","FAMI","4","m","rechts","22","","fixation","","","",""
"604","img/90_210.png","74","image-keyboard-response","421","412213","0.0-6.0-1.207","FAMI","4","m","rechts","22","","","self","j","90","true"
"25888","<p>Du hast in 93% der Versuche korrekt entschieden.</p><p>Deine durchschnittliche Reaktionszeit war  768ms.</p><p>Dr&uuml;cke eine beliebige Taste, um die Session zu beenden. Vielen Dank!</p>","32","html-keyboard-response","422","438105","0.0-7.0","FAMI","4","m","rechts","22","","","","","",""
