"rt","stimulus","key_press","trial_type","trial_index","time_elapsed","internal_node_id","subject","session","sex","handedness","age","responses","test_part","condition","correct_response","angle","correct"
"1698","<p>Mental Rotation Experiment.</p> <p>Dr&uuml;cke eine beliebige Taste, um anzufangen.</p>","13","html-keyboard-response","0","1737","0.0-0.0","FAMI","3","m","rechts","22","","","","","",""
"3508","","","survey-text","1","5246","0.0-1.0","FAMI","3","m","rechts","22","{""Q0"":""FAMI""}","","","","",""
"14404","","","survey-text","2","19652","0.0-2.0","FAMI","3","m","rechts","22","{""Q0"":""3""}","","","","",""
"2571","","","survey-multi-choice","3","22235","0.0-3.0","FAMI","3","m","rechts","22","{""Q0"":""m"",""Q1"":""rechts""}","","","","",""
"12296","","","survey-text","4","34533","0.0-4.0","FAMI","3","m","rechts","22","{""Q0"":""22""}","","","","",""
"148241","<p> Stell dir vor, dass du vor einem runden Tisch stehst, auf dem sich ein blauer Ball am Tischrand befindet. Entlang des Tischrands ist jeweils ein verschieden langer Pfeil. Nun bewegst du dich entlang dieses Pfeils bis an seine Spitze. Wenn du am Ende des Pfeils angekommen bist, schau zur Tischmitte. </p> <img src='img/90_180.png'></img> <br> <p>Entscheide dann, ob der Ball von deiner neuen (vorgestellten) Position links oder rechts von dir liegt.</p> <p>Dr&uuml;cke die <strong>'f'</strong>-Taste f&uuml;r links, die <strong>'j'</strong>-Taste f&uuml;r rechts.</p> <br><p> Das Bild wird jeweils 1 Sekunde lang pr&auml;sentiert. Du hast 3 Sekunden Zeit eine Entscheidung zu treffen.</p>","74","html-keyboard-response","5","182793","0.0-5.0","FAMI","3","m","rechts","22","","","","","",""
"null","<div style=""font-size:60px;"">+</div>","null","html-keyboard-response","6","184327","0.0-6.0-0.0","FAMI","3","m","rechts","22","","fixation","","","",""
"939","img/0_60.png","74","image-keyboard-response","7","185290","0.0-6.0-1.0","FAMI","3","m","rechts","22","","","self","j","0","true"
"null","<div style=""font-size:60px;"">+</div>","null","html-keyboard-response","8","185707","0.0-6.0-0.1","FAMI","3","m","rechts","22","","fixation","","","",""
"853","img/60_150.png","70","image-keyboard-response","9","186578","0.0-6.0-1.1","FAMI","3","m","rechts","22","","","self","f","60","true"
"null","<div style=""font-size:60px;"">+</div>","null","html-keyboard-response","10","187081","0.0-6.0-0.2","FAMI","3","m","rechts","22","","fixation","","","",""
"1033","img/150_120.png","70","image-keyboard-response","11","188132","0.0-6.0-1.2","FAMI","3","m","rechts","22","","","self","f","150","true"
"null","<div style=""font-size:60px;"">+</div>","null","html-keyboard-response","12","188487","0.0-6.0-0.3","FAMI","3","m","rechts","22","","fixation","","","",""
"706","img/0_120.png","74","image-keyboard-response","13","189210","0.0-6.0-1.3","FAMI","3","m","rechts","22","","","self","j","0","true"
"null","<div style=""font-size:60px;"">+</div>","null","html-keyboard-response","14","189518","0.0-6.0-0.4","FAMI","3","m","rechts","22","","fixation","","","",""
"785","img/90_180.png","74","image-keyboard-response","15","190314","0.0-6.0-1.4","FAMI","3","m","rechts","22","","","self","j","90","true"
"null","<div style=""font-size:60px;"">+</div>","null","html-keyboard-response","16","190847","0.0-6.0-0.5","FAMI","3","m","rechts","22","","fixation","","","",""
"844","img/90_210.png","74","image-keyboard-response","17","191708","0.0-6.0-1.5","FAMI","3","m","rechts","22","","","self","j","90","true"
"null","<div style=""font-size:60px;"">+</div>","null","html-keyboard-response","18","192114","0.0-6.0-0.6","FAMI","3","m","rechts","22","","fixation","","","",""
"1140","img/90_60.png","74","image-keyboard-response","19","193271","0.0-6.0-1.6","FAMI","3","m","rechts","22","","","self","j","90","true"
"null","<div style=""font-size:60px;"">+</div>","null","html-keyboard-response","20","193739","0.0-6.0-0.7","FAMI","3","m","rechts","22","","fixation","","","",""
"987","img/30_270.png","70","image-keyboard-response","21","194746","0.0-6.0-1.7","FAMI","3","m","rechts","22","","","self","f","30","true"
"null","<div style=""font-size:60px;"">+</div>","null","html-keyboard-response","22","195052","0.0-6.0-0.8","FAMI","3","m","rechts","22","","fixation","","","",""
"813","img/L90_180.png","70","image-keyboard-response","23","195883","0.0-6.0-1.8","FAMI","3","m","rechts","22","","","self","f","90","true"
"null","<div style=""font-size:60px;"">+</div>","null","html-keyboard-response","24","196240","0.0-6.0-0.9","FAMI","3","m","rechts","22","","fixation","","","",""
"885","img/120_270.png","74","image-keyboard-response","25","197143","0.0-6.0-1.9","FAMI","3","m","rechts","22","","","self","j","120","true"
"null","<div style=""font-size:60px;"">+</div>","null","html-keyboard-response","26","197660","0.0-6.0-0.10","FAMI","3","m","rechts","22","","fixation","","","",""
"758","img/120_180.png","74","image-keyboard-response","27","198426","0.0-6.0-1.10","FAMI","3","m","rechts","22","","","self","j","120","true"
"null","<div style=""font-size:60px;"">+</div>","null","html-keyboard-response","28","198879","0.0-6.0-0.11","FAMI","3","m","rechts","22","","fixation","","","",""
"779","img/90_120.png","70","image-keyboard-response","29","199673","0.0-6.0-1.11","FAMI","3","m","rechts","22","","","self","f","90","true"
"null","<div style=""font-size:60px;"">+</div>","null","html-keyboard-response","30","200098","0.0-6.0-0.12","FAMI","3","m","rechts","22","","fixation","","","",""
"771","img/120_210.png","74","image-keyboard-response","31","200890","0.0-6.0-1.12","FAMI","3","m","rechts","22","","","self","j","120","true"
"null","<div style=""font-size:60px;"">+</div>","null","html-keyboard-response","32","201349","0.0-6.0-0.13","FAMI","3","m","rechts","22","","fixation","","","",""
"816","img/L150_180.png","70","image-keyboard-response","33","202183","0.0-6.0-1.13","FAMI","3","m","rechts","22","","","self","f","150","true"
"null","<div style=""font-size:60px;"">+</div>","null","html-keyboard-response","34","202708","0.0-6.0-0.14","FAMI","3","m","rechts","22","","fixation","","","",""
"859","img/60_90.png","74","image-keyboard-response","35","203589","0.0-6.0-1.14","FAMI","3","m","rechts","22","","","self","j","60","true"
"null","<div style=""font-size:60px;"">+</div>","null","html-keyboard-response","36","203911","0.0-6.0-0.15","FAMI","3","m","rechts","22","","fixation","","","",""
"807","img/30_180.png","74","image-keyboard-response","37","204736","0.0-6.0-1.15","FAMI","3","m","rechts","22","","","self","j","30","true"
"null","<div style=""font-size:60px;"">+</div>","null","html-keyboard-response","38","205193","0.0-6.0-0.16","FAMI","3","m","rechts","22","","fixation","","","",""
"907","img/L30_180.png","70","image-keyboard-response","39","206120","0.0-6.0-1.16","FAMI","3","m","rechts","22","","","self","f","30","true"
"null","<div style=""font-size:60px;"">+</div>","null","html-keyboard-response","40","206535","0.0-6.0-0.17","FAMI","3","m","rechts","22","","fixation","","","",""
"959","img/90_300.png","70","image-keyboard-response","41","207515","0.0-6.0-1.17","FAMI","3","m","rechts","22","","","self","f","90","true"
"null","<div style=""font-size:60px;"">+</div>","null","html-keyboard-response","42","207942","0.0-6.0-0.18","FAMI","3","m","rechts","22","","fixation","","","",""
"1017","img/90_240.png","74","image-keyboard-response","43","208976","0.0-6.0-1.18","FAMI","3","m","rechts","22","","","self","j","90","true"
"null","<div style=""font-size:60px;"">+</div>","null","html-keyboard-response","44","209489","0.0-6.0-0.19","FAMI","3","m","rechts","22","","fixation","","","",""
"717","img/90_150.png","70","image-keyboard-response","45","210226","0.0-6.0-1.19","FAMI","3","m","rechts","22","","","self","f","90","true"
"null","<div style=""font-size:60px;"">+</div>","null","html-keyboard-response","46","210535","0.0-6.0-0.20","FAMI","3","m","rechts","22","","fixation","","","",""
"736","img/L60_180.png","70","image-keyboard-response","47","211284","0.0-6.0-1.20","FAMI","3","m","rechts","22","","","self","f","60","true"
"null","<div style=""font-size:60px;"">+</div>","null","html-keyboard-response","48","211598","0.0-6.0-0.21","FAMI","3","m","rechts","22","","fixation","","","",""
"949","img/30_300.png","70","image-keyboard-response","49","212565","0.0-6.0-1.21","FAMI","3","m","rechts","22","","","self","f","30","true"
"null","<div style=""font-size:60px;"">+</div>","null","html-keyboard-response","50","213036","0.0-6.0-0.22","FAMI","3","m","rechts","22","","fixation","","","",""
"964","img/90_330.png","70","image-keyboard-response","51","214019","0.0-6.0-1.22","FAMI","3","m","rechts","22","","","self","f","90","true"
"null","<div style=""font-size:60px;"">+</div>","null","html-keyboard-response","52","214379","0.0-6.0-0.23","FAMI","3","m","rechts","22","","fixation","","","",""
"689","img/0_210.png","70","image-keyboard-response","53","215085","0.0-6.0-1.23","FAMI","3","m","rechts","22","","","self","f","0","true"
"null","<div style=""font-size:60px;"">+</div>","null","html-keyboard-response","54","215552","0.0-6.0-0.24","FAMI","3","m","rechts","22","","fixation","","","",""
"853","img/30_240.png","70","image-keyboard-response","55","216414","0.0-6.0-1.24","FAMI","3","m","rechts","22","","","self","f","30","true"
"null","<div style=""font-size:60px;"">+</div>","null","html-keyboard-response","56","216724","0.0-6.0-0.25","FAMI","3","m","rechts","22","","fixation","","","",""
"1697","img/30_120.png","74","image-keyboard-response","57","218440","0.0-6.0-1.25","FAMI","3","m","rechts","22","","","self","j","30","true"
"null","<div style=""font-size:60px;"">+</div>","null","html-keyboard-response","58","218756","0.0-6.0-0.26","FAMI","3","m","rechts","22","","fixation","","","",""
"678","img/0_300.png","70","image-keyboard-response","59","219452","0.0-6.0-1.26","FAMI","3","m","rechts","22","","","self","f","0","true"
"null","<div style=""font-size:60px;"">+</div>","null","html-keyboard-response","60","219759","0.0-6.0-0.27","FAMI","3","m","rechts","22","","fixation","","","",""
"766","img/150_180.png","74","image-keyboard-response","61","220541","0.0-6.0-1.27","FAMI","3","m","rechts","22","","","self","j","150","true"
"null","<div style=""font-size:60px;"">+</div>","null","html-keyboard-response","62","221007","0.0-6.0-0.28","FAMI","3","m","rechts","22","","fixation","","","",""
"640","img/0_270.png","70","image-keyboard-response","63","221668","0.0-6.0-1.28","FAMI","3","m","rechts","22","","","self","f","0","true"
"null","<div style=""font-size:60px;"">+</div>","null","html-keyboard-response","64","222179","0.0-6.0-0.29","FAMI","3","m","rechts","22","","fixation","","","",""
"855","img/150_270.png","74","image-keyboard-response","65","223052","0.0-6.0-1.29","FAMI","3","m","rechts","22","","","self","j","150","true"
"null","<div style=""font-size:60px;"">+</div>","null","html-keyboard-response","66","223554","0.0-6.0-0.30","FAMI","3","m","rechts","22","","fixation","","","",""
"1072","img/30_90.png","74","image-keyboard-response","67","224638","0.0-6.0-1.30","FAMI","3","m","rechts","22","","","self","j","30","true"
"null","<div style=""font-size:60px;"">+</div>","null","html-keyboard-response","68","225118","0.0-6.0-0.31","FAMI","3","m","rechts","22","","fixation","","","",""
"633","img/0_90.png","74","image-keyboard-response","69","225775","0.0-6.0-1.31","FAMI","3","m","rechts","22","","","self","j","0","true"
"null","<div style=""font-size:60px;"">+</div>","null","html-keyboard-response","70","226150","0.0-6.0-0.32","FAMI","3","m","rechts","22","","fixation","","","",""
"574","img/0_30.png","74","image-keyboard-response","71","226741","0.0-6.0-1.32","FAMI","3","m","rechts","22","","","self","j","0","true"
"null","<div style=""font-size:60px;"">+</div>","null","html-keyboard-response","72","227197","0.0-6.0-0.33","FAMI","3","m","rechts","22","","fixation","","","",""
"855","img/150_60.png","70","image-keyboard-response","73","228070","0.0-6.0-1.33","FAMI","3","m","rechts","22","","","self","f","150","true"
"null","<div style=""font-size:60px;"">+</div>","null","html-keyboard-response","74","228524","0.0-6.0-0.34","FAMI","3","m","rechts","22","","fixation","","","",""
"963","img/60_270.png","70","image-keyboard-response","75","229498","0.0-6.0-1.34","FAMI","3","m","rechts","22","","","self","f","60","true"
"null","<div style=""font-size:60px;"">+</div>","null","html-keyboard-response","76","229964","0.0-6.0-0.35","FAMI","3","m","rechts","22","","fixation","","","",""
"969","img/120_90.png","70","image-keyboard-response","77","230951","0.0-6.0-1.35","FAMI","3","m","rechts","22","","","self","f","120","true"
"null","<div style=""font-size:60px;"">+</div>","null","html-keyboard-response","78","231261","0.0-6.0-0.36","FAMI","3","m","rechts","22","","fixation","","","",""
"1606","img/90_30.png","74","image-keyboard-response","79","232884","0.0-6.0-1.36","FAMI","3","m","rechts","22","","","self","j","90","true"
"null","<div style=""font-size:60px;"">+</div>","null","html-keyboard-response","80","233261","0.0-6.0-0.37","FAMI","3","m","rechts","22","","fixation","","","",""
"796","img/30_60.png","74","image-keyboard-response","81","234076","0.0-6.0-1.37","FAMI","3","m","rechts","22","","","self","j","30","true"
"null","<div style=""font-size:60px;"">+</div>","null","html-keyboard-response","82","234587","0.0-6.0-0.38","FAMI","3","m","rechts","22","","fixation","","","",""
"992","img/120_330.png","70","image-keyboard-response","83","235596","0.0-6.0-1.38","FAMI","3","m","rechts","22","","","self","f","120","true"
"null","<div style=""font-size:60px;"">+</div>","null","html-keyboard-response","84","236104","0.0-6.0-0.39","FAMI","3","m","rechts","22","","fixation","","","",""
"883","img/120_30.png","70","image-keyboard-response","85","237002","0.0-6.0-1.39","FAMI","3","m","rechts","22","","","self","j","120","false"
"null","<div style=""font-size:60px;"">+</div>","null","html-keyboard-response","86","237509","0.0-6.0-0.40","FAMI","3","m","rechts","22","","fixation","","","",""
"673","img/0_240.png","70","image-keyboard-response","87","238195","0.0-6.0-1.40","FAMI","3","m","rechts","22","","","self","f","0","true"
"null","<div style=""font-size:60px;"">+</div>","null","html-keyboard-response","88","238604","0.0-6.0-0.41","FAMI","3","m","rechts","22","","fixation","","","",""
"754","img/0_150.png","74","image-keyboard-response","89","239375","0.0-6.0-1.41","FAMI","3","m","rechts","22","","","self","j","0","true"
"null","<div style=""font-size:60px;"">+</div>","null","html-keyboard-response","90","239730","0.0-6.0-0.42","FAMI","3","m","rechts","22","","fixation","","","",""
"855","img/150_90.png","70","image-keyboard-response","91","240602","0.0-6.0-1.42","FAMI","3","m","rechts","22","","","self","f","150","true"
"null","<div style=""font-size:60px;"">+</div>","null","html-keyboard-response","92","241059","0.0-6.0-0.43","FAMI","3","m","rechts","22","","fixation","","","",""
"783","img/120_150.png","70","image-keyboard-response","93","241860","0.0-6.0-1.43","FAMI","3","m","rechts","22","","","self","f","120","true"
"null","<div style=""font-size:60px;"">+</div>","null","html-keyboard-response","94","242325","0.0-6.0-0.44","FAMI","3","m","rechts","22","","fixation","","","",""
"736","img/150_240.png","74","image-keyboard-response","95","243078","0.0-6.0-1.44","FAMI","3","m","rechts","22","","","self","j","150","true"
"null","<div style=""font-size:60px;"">+</div>","null","html-keyboard-response","96","243401","0.0-6.0-0.45","FAMI","3","m","rechts","22","","fixation","","","",""
"734","img/60_330.png","70","image-keyboard-response","97","244157","0.0-6.0-1.45","FAMI","3","m","rechts","22","","","self","f","60","true"
"null","<div style=""font-size:60px;"">+</div>","null","html-keyboard-response","98","244526","0.0-6.0-0.46","FAMI","3","m","rechts","22","","fixation","","","",""
"733","img/150_300.png","74","image-keyboard-response","99","245271","0.0-6.0-1.46","FAMI","3","m","rechts","22","","","self","j","150","true"
"null","<div style=""font-size:60px;"">+</div>","null","html-keyboard-response","100","245730","0.0-6.0-0.47","FAMI","3","m","rechts","22","","fixation","","","",""
"771","img/60_30.png","74","image-keyboard-response","101","246518","0.0-6.0-1.47","FAMI","3","m","rechts","22","","","self","j","60","true"
"null","<div style=""font-size:60px;"">+</div>","null","html-keyboard-response","102","246838","0.0-6.0-0.48","FAMI","3","m","rechts","22","","fixation","","","",""
"881","img/60_210.png","74","image-keyboard-response","103","247747","0.0-6.0-1.48","FAMI","3","m","rechts","22","","","self","j","60","true"
"null","<div style=""font-size:60px;"">+</div>","null","html-keyboard-response","104","248058","0.0-6.0-0.49","FAMI","3","m","rechts","22","","fixation","","","",""
"704","img/L120_180.png","70","image-keyboard-response","105","248780","0.0-6.0-1.49","FAMI","3","m","rechts","22","","","self","f","120","true"
"null","<div style=""font-size:60px;"">+</div>","null","html-keyboard-response","106","249150","0.0-6.0-0.50","FAMI","3","m","rechts","22","","fixation","","","",""
"649","img/0_330.png","70","image-keyboard-response","107","249816","0.0-6.0-1.50","FAMI","3","m","rechts","22","","","self","f","0","true"
"null","<div style=""font-size:60px;"">+</div>","null","html-keyboard-response","108","250231","0.0-6.0-0.51","FAMI","3","m","rechts","22","","fixation","","","",""
"680","img/60_180.png","74","image-keyboard-response","109","250929","0.0-6.0-1.51","FAMI","3","m","rechts","22","","","self","j","60","true"
"null","<div style=""font-size:60px;"">+</div>","null","html-keyboard-response","110","251356","0.0-6.0-0.52","FAMI","3","m","rechts","22","","fixation","","","",""
"641","img/L60_180.png","70","image-keyboard-response","111","252010","0.0-6.0-1.52","FAMI","3","m","rechts","22","","","self","f","60","true"
"null","<div style=""font-size:60px;"">+</div>","null","html-keyboard-response","112","252340","0.0-6.0-0.53","FAMI","3","m","rechts","22","","fixation","","","",""
"658","img/L120_180.png","70","image-keyboard-response","113","253009","0.0-6.0-1.53","FAMI","3","m","rechts","22","","","self","f","120","true"
"null","<div style=""font-size:60px;"">+</div>","null","html-keyboard-response","114","253340","0.0-6.0-0.54","FAMI","3","m","rechts","22","","fixation","","","",""
"1900","img/120_330.png","70","image-keyboard-response","115","255249","0.0-6.0-1.54","FAMI","3","m","rechts","22","","","self","f","120","true"
"null","<div style=""font-size:60px;"">+</div>","null","html-keyboard-response","116","255712","0.0-6.0-0.55","FAMI","3","m","rechts","22","","fixation","","","",""
"621","img/0_150.png","74","image-keyboard-response","117","256343","0.0-6.0-1.55","FAMI","3","m","rechts","22","","","self","j","0","true"
"null","<div style=""font-size:60px;"">+</div>","null","html-keyboard-response","118","256650","0.0-6.0-0.56","FAMI","3","m","rechts","22","","fixation","","","",""
"740","img/60_180.png","74","image-keyboard-response","119","257400","0.0-6.0-1.56","FAMI","3","m","rechts","22","","","self","j","60","true"
"null","<div style=""font-size:60px;"">+</div>","null","html-keyboard-response","120","257806","0.0-6.0-0.57","FAMI","3","m","rechts","22","","fixation","","","",""
"739","img/60_210.png","74","image-keyboard-response","121","258556","0.0-6.0-1.57","FAMI","3","m","rechts","22","","","self","j","60","true"
"null","<div style=""font-size:60px;"">+</div>","null","html-keyboard-response","122","259009","0.0-6.0-0.58","FAMI","3","m","rechts","22","","fixation","","","",""
"730","img/L150_180.png","70","image-keyboard-response","123","259751","0.0-6.0-1.58","FAMI","3","m","rechts","22","","","self","f","150","true"
"null","<div style=""font-size:60px;"">+</div>","null","html-keyboard-response","124","260264","0.0-6.0-0.59","FAMI","3","m","rechts","22","","fixation","","","",""
"1076","img/120_30.png","74","image-keyboard-response","125","261347","0.0-6.0-1.59","FAMI","3","m","rechts","22","","","self","j","120","true"
"null","<div style=""font-size:60px;"">+</div>","null","html-keyboard-response","126","261704","0.0-6.0-0.60","FAMI","3","m","rechts","22","","fixation","","","",""
"1060","img/90_150.png","70","image-keyboard-response","127","262776","0.0-6.0-1.60","FAMI","3","m","rechts","22","","","self","f","90","true"
"null","<div style=""font-size:60px;"">+</div>","null","html-keyboard-response","128","263141","0.0-6.0-0.61","FAMI","3","m","rechts","22","","fixation","","","",""
"694","img/30_90.png","74","image-keyboard-response","129","263845","0.0-6.0-1.61","FAMI","3","m","rechts","22","","","self","j","30","true"
"null","<div style=""font-size:60px;"">+</div>","null","html-keyboard-response","130","264254","0.0-6.0-0.62","FAMI","3","m","rechts","22","","fixation","","","",""
"816","img/30_300.png","70","image-keyboard-response","131","265083","0.0-6.0-1.62","FAMI","3","m","rechts","22","","","self","f","30","true"
"null","<div style=""font-size:60px;"">+</div>","null","html-keyboard-response","132","265599","0.0-6.0-0.63","FAMI","3","m","rechts","22","","fixation","","","",""
"741","img/90_60.png","74","image-keyboard-response","133","266353","0.0-6.0-1.63","FAMI","3","m","rechts","22","","","self","j","90","true"
"null","<div style=""font-size:60px;"">+</div>","null","html-keyboard-response","134","266864","0.0-6.0-0.64","FAMI","3","m","rechts","22","","fixation","","","",""
"747","img/30_270.png","70","image-keyboard-response","135","267625","0.0-6.0-1.64","FAMI","3","m","rechts","22","","","self","f","30","true"
"null","<div style=""font-size:60px;"">+</div>","null","html-keyboard-response","136","268145","0.0-6.0-0.65","FAMI","3","m","rechts","22","","fixation","","","",""
"601","img/0_60.png","74","image-keyboard-response","137","268759","0.0-6.0-1.65","FAMI","3","m","rechts","22","","","self","j","0","true"
"null","<div style=""font-size:60px;"">+</div>","null","html-keyboard-response","138","269161","0.0-6.0-0.66","FAMI","3","m","rechts","22","","fixation","","","",""
"701","img/120_210.png","74","image-keyboard-response","139","269876","0.0-6.0-1.66","FAMI","3","m","rechts","22","","","self","j","120","true"
"null","<div style=""font-size:60px;"">+</div>","null","html-keyboard-response","140","270334","0.0-6.0-0.67","FAMI","3","m","rechts","22","","fixation","","","",""
"764","img/60_150.png","70","image-keyboard-response","141","271113","0.0-6.0-1.67","FAMI","3","m","rechts","22","","","self","f","60","true"
"null","<div style=""font-size:60px;"">+</div>","null","html-keyboard-response","142","271616","0.0-6.0-0.68","FAMI","3","m","rechts","22","","fixation","","","",""
"698","img/150_120.png","70","image-keyboard-response","143","272327","0.0-6.0-1.68","FAMI","3","m","rechts","22","","","self","f","150","true"
"null","<div style=""font-size:60px;"">+</div>","null","html-keyboard-response","144","272786","0.0-6.0-0.69","FAMI","3","m","rechts","22","","fixation","","","",""
"912","img/90_300.png","70","image-keyboard-response","145","273711","0.0-6.0-1.69","FAMI","3","m","rechts","22","","","self","f","90","true"
"null","<div style=""font-size:60px;"">+</div>","null","html-keyboard-response","146","274115","0.0-6.0-0.70","FAMI","3","m","rechts","22","","fixation","","","",""
"909","img/150_270.png","74","image-keyboard-response","147","275037","0.0-6.0-1.70","FAMI","3","m","rechts","22","","","self","j","150","true"
"null","<div style=""font-size:60px;"">+</div>","null","html-keyboard-response","148","275412","0.0-6.0-0.71","FAMI","3","m","rechts","22","","fixation","","","",""
"603","img/0_90.png","74","image-keyboard-response","149","276028","0.0-6.0-1.71","FAMI","3","m","rechts","22","","","self","j","0","true"
"null","<div style=""font-size:60px;"">+</div>","null","html-keyboard-response","150","276507","0.0-6.0-0.72","FAMI","3","m","rechts","22","","fixation","","","",""
"665","img/90_180.png","74","image-keyboard-response","151","277187","0.0-6.0-1.72","FAMI","3","m","rechts","22","","","self","j","90","true"
"null","<div style=""font-size:60px;"">+</div>","null","html-keyboard-response","152","277694","0.0-6.0-0.73","FAMI","3","m","rechts","22","","fixation","","","",""
"609","img/0_330.png","70","image-keyboard-response","153","278312","0.0-6.0-1.73","FAMI","3","m","rechts","22","","","self","f","0","true"
"null","<div style=""font-size:60px;"">+</div>","null","html-keyboard-response","154","278630","0.0-6.0-0.74","FAMI","3","m","rechts","22","","fixation","","","",""
"533","img/0_270.png","70","image-keyboard-response","155","279176","0.0-6.0-1.74","FAMI","3","m","rechts","22","","","self","f","0","true"
"null","<div style=""font-size:60px;"">+</div>","null","html-keyboard-response","156","279492","0.0-6.0-0.75","FAMI","3","m","rechts","22","","fixation","","","",""
"968","img/120_90.png","70","image-keyboard-response","157","280473","0.0-6.0-1.75","FAMI","3","m","rechts","22","","","self","f","120","true"
"null","<div style=""font-size:60px;"">+</div>","null","html-keyboard-response","158","280834","0.0-6.0-0.76","FAMI","3","m","rechts","22","","fixation","","","",""
"770","img/60_90.png","74","image-keyboard-response","159","281621","0.0-6.0-1.76","FAMI","3","m","rechts","22","","","self","j","60","true"
"null","<div style=""font-size:60px;"">+</div>","null","html-keyboard-response","160","281933","0.0-6.0-0.77","FAMI","3","m","rechts","22","","fixation","","","",""
"653","img/0_240.png","70","image-keyboard-response","161","282595","0.0-6.0-1.77","FAMI","3","m","rechts","22","","","self","f","0","true"
"null","<div style=""font-size:60px;"">+</div>","null","html-keyboard-response","162","283027","0.0-6.0-0.78","FAMI","3","m","rechts","22","","fixation","","","",""
"673","img/150_180.png","74","image-keyboard-response","163","283712","0.0-6.0-1.78","FAMI","3","m","rechts","22","","","self","j","150","true"
"null","<div style=""font-size:60px;"">+</div>","null","html-keyboard-response","164","284026","0.0-6.0-0.79","FAMI","3","m","rechts","22","","fixation","","","",""
"707","img/90_120.png","70","image-keyboard-response","165","284747","0.0-6.0-1.79","FAMI","3","m","rechts","22","","","self","f","90","true"
"null","<div style=""font-size:60px;"">+</div>","null","html-keyboard-response","166","285167","0.0-6.0-0.80","FAMI","3","m","rechts","22","","fixation","","","",""
"839","img/60_270.png","70","image-keyboard-response","167","286020","0.0-6.0-1.80","FAMI","3","m","rechts","22","","","self","f","60","true"
"null","<div style=""font-size:60px;"">+</div>","null","html-keyboard-response","168","286541","0.0-6.0-0.81","FAMI","3","m","rechts","22","","fixation","","","",""
"949","img/30_180.png","74","image-keyboard-response","169","287504","0.0-6.0-1.81","FAMI","3","m","rechts","22","","","self","j","30","true"
"null","<div style=""font-size:60px;"">+</div>","null","html-keyboard-response","170","287964","0.0-6.0-0.82","FAMI","3","m","rechts","22","","fixation","","","",""
"1342","img/60_30.png","74","image-keyboard-response","171","289314","0.0-6.0-1.82","FAMI","3","m","rechts","22","","","self","j","60","true"
"null","<div style=""font-size:60px;"">+</div>","null","html-keyboard-response","172","289773","0.0-6.0-0.83","FAMI","3","m","rechts","22","","fixation","","","",""
"856","img/90_30.png","74","image-keyboard-response","173","290642","0.0-6.0-1.83","FAMI","3","m","rechts","22","","","self","j","90","true"
"null","<div style=""font-size:60px;"">+</div>","null","html-keyboard-response","174","291070","0.0-6.0-0.84","FAMI","3","m","rechts","22","","fixation","","","",""
"653","img/0_300.png","70","image-keyboard-response","175","291734","0.0-6.0-1.84","FAMI","3","m","rechts","22","","","self","f","0","true"
"null","<div style=""font-size:60px;"">+</div>","null","html-keyboard-response","176","292054","0.0-6.0-0.85","FAMI","3","m","rechts","22","","fixation","","","",""
"1703","img/30_240.png","70","image-keyboard-response","177","293769","0.0-6.0-1.85","FAMI","3","m","rechts","22","","","self","f","30","true"
"null","<div style=""font-size:60px;"">+</div>","null","html-keyboard-response","178","294132","0.0-6.0-0.86","FAMI","3","m","rechts","22","","fixation","","","",""
"670","img/90_210.png","74","image-keyboard-response","179","294816","0.0-6.0-1.86","FAMI","3","m","rechts","22","","","self","j","90","true"
"null","<div style=""font-size:60px;"">+</div>","null","html-keyboard-response","180","295241","0.0-6.0-0.87","FAMI","3","m","rechts","22","","fixation","","","",""
"946","img/30_120.png","74","image-keyboard-response","181","296201","0.0-6.0-1.87","FAMI","3","m","rechts","22","","","self","j","30","true"
"null","<div style=""font-size:60px;"">+</div>","null","html-keyboard-response","182","296616","0.0-6.0-0.88","FAMI","3","m","rechts","22","","fixation","","","",""
"605","img/30_60.png","74","image-keyboard-response","183","297235","0.0-6.0-1.88","FAMI","3","m","rechts","22","","","self","j","30","true"
"null","<div style=""font-size:60px;"">+</div>","null","html-keyboard-response","184","297647","0.0-6.0-0.89","FAMI","3","m","rechts","22","","fixation","","","",""
"610","img/0_120.png","74","image-keyboard-response","185","298271","0.0-6.0-1.89","FAMI","3","m","rechts","22","","","self","j","0","true"
"null","<div style=""font-size:60px;"">+</div>","null","html-keyboard-response","186","298786","0.0-6.0-0.90","FAMI","3","m","rechts","22","","fixation","","","",""
"686","img/90_240.png","74","image-keyboard-response","187","299485","0.0-6.0-1.90","FAMI","3","m","rechts","22","","","self","j","90","true"
"null","<div style=""font-size:60px;"">+</div>","null","html-keyboard-response","188","299851","0.0-6.0-0.91","FAMI","3","m","rechts","22","","fixation","","","",""
"892","img/60_330.png","70","image-keyboard-response","189","300756","0.0-6.0-1.91","FAMI","3","m","rechts","22","","","self","f","60","true"
"null","<div style=""font-size:60px;"">+</div>","null","html-keyboard-response","190","301210","0.0-6.0-0.92","FAMI","3","m","rechts","22","","fixation","","","",""
"1052","img/120_270.png","74","image-keyboard-response","191","302275","0.0-6.0-1.92","FAMI","3","m","rechts","22","","","self","j","120","true"
"null","<div style=""font-size:60px;"">+</div>","null","html-keyboard-response","192","302648","0.0-6.0-0.93","FAMI","3","m","rechts","22","","fixation","","","",""
"638","img/L90_180.png","70","image-keyboard-response","193","303300","0.0-6.0-1.93","FAMI","3","m","rechts","22","","","self","f","90","true"
"null","<div style=""font-size:60px;"">+</div>","null","html-keyboard-response","194","303804","0.0-6.0-0.94","FAMI","3","m","rechts","22","","fixation","","","",""
"920","img/L30_180.png","70","image-keyboard-response","195","304738","0.0-6.0-1.94","FAMI","3","m","rechts","22","","","self","f","30","true"
"null","<div style=""font-size:60px;"">+</div>","null","html-keyboard-response","196","305241","0.0-6.0-0.95","FAMI","3","m","rechts","22","","fixation","","","",""
"831","img/90_330.png","74","image-keyboard-response","197","306089","0.0-6.0-1.95","FAMI","3","m","rechts","22","","","self","f","90","false"
"null","<div style=""font-size:60px;"">+</div>","null","html-keyboard-response","198","306600","0.0-6.0-0.96","FAMI","3","m","rechts","22","","fixation","","","",""
"808","img/120_180.png","74","image-keyboard-response","199","307417","0.0-6.0-1.96","FAMI","3","m","rechts","22","","","self","j","120","true"
"null","<div style=""font-size:60px;"">+</div>","null","html-keyboard-response","200","307836","0.0-6.0-0.97","FAMI","3","m","rechts","22","","fixation","","","",""
"682","img/120_150.png","70","image-keyboard-response","201","308531","0.0-6.0-1.97","FAMI","3","m","rechts","22","","","self","f","120","true"
"null","<div style=""font-size:60px;"">+</div>","null","html-keyboard-response","202","309007","0.0-6.0-0.98","FAMI","3","m","rechts","22","","fixation","","","",""
"654","img/0_30.png","74","image-keyboard-response","203","309678","0.0-6.0-1.98","FAMI","3","m","rechts","22","","","self","j","0","true"
"null","<div style=""font-size:60px;"">+</div>","null","html-keyboard-response","204","310135","0.0-6.0-0.99","FAMI","3","m","rechts","22","","fixation","","","",""
"586","img/0_210.png","70","image-keyboard-response","205","310736","0.0-6.0-1.99","FAMI","3","m","rechts","22","","","self","f","0","true"
"null","<div style=""font-size:60px;"">+</div>","null","html-keyboard-response","206","311244","0.0-6.0-0.100","FAMI","3","m","rechts","22","","fixation","","","",""
"793","img/150_240.png","74","image-keyboard-response","207","312052","0.0-6.0-1.100","FAMI","3","m","rechts","22","","","self","j","150","true"
"null","<div style=""font-size:60px;"">+</div>","null","html-keyboard-response","208","312509","0.0-6.0-0.101","FAMI","3","m","rechts","22","","fixation","","","",""
"723","img/150_300.png","74","image-keyboard-response","209","313245","0.0-6.0-1.101","FAMI","3","m","rechts","22","","","self","j","150","true"
"null","<div style=""font-size:60px;"">+</div>","null","html-keyboard-response","210","313617","0.0-6.0-0.102","FAMI","3","m","rechts","22","","fixation","","","",""
"727","img/150_90.png","70","image-keyboard-response","211","314358","0.0-6.0-1.102","FAMI","3","m","rechts","22","","","self","f","150","true"
"null","<div style=""font-size:60px;"">+</div>","null","html-keyboard-response","212","314790","0.0-6.0-0.103","FAMI","3","m","rechts","22","","fixation","","","",""
"725","img/150_60.png","70","image-keyboard-response","213","315528","0.0-6.0-1.103","FAMI","3","m","rechts","22","","","self","f","150","true"
"null","<div style=""font-size:60px;"">+</div>","null","html-keyboard-response","214","315993","0.0-6.0-0.104","FAMI","3","m","rechts","22","","fixation","","","",""
"793","img/150_120.png","70","image-keyboard-response","215","316799","0.0-6.0-1.104","FAMI","3","m","rechts","22","","","self","f","150","true"
"null","<div style=""font-size:60px;"">+</div>","null","html-keyboard-response","216","317210","0.0-6.0-0.105","FAMI","3","m","rechts","22","","fixation","","","",""
"736","img/90_150.png","70","image-keyboard-response","217","317959","0.0-6.0-1.105","FAMI","3","m","rechts","22","","","self","f","90","true"
"null","<div style=""font-size:60px;"">+</div>","null","html-keyboard-response","218","318366","0.0-6.0-0.106","FAMI","3","m","rechts","22","","fixation","","","",""
"728","img/150_60.png","70","image-keyboard-response","219","319105","0.0-6.0-1.106","FAMI","3","m","rechts","22","","","self","f","150","true"
"null","<div style=""font-size:60px;"">+</div>","null","html-keyboard-response","220","319461","0.0-6.0-0.107","FAMI","3","m","rechts","22","","fixation","","","",""
"723","img/60_150.png","70","image-keyboard-response","221","320197","0.0-6.0-1.107","FAMI","3","m","rechts","22","","","self","f","60","true"
"null","<div style=""font-size:60px;"">+</div>","null","html-keyboard-response","222","320572","0.0-6.0-0.108","FAMI","3","m","rechts","22","","fixation","","","",""
"631","img/0_240.png","70","image-keyboard-response","223","321209","0.0-6.0-1.108","FAMI","3","m","rechts","22","","","self","f","0","true"
"null","<div style=""font-size:60px;"">+</div>","null","html-keyboard-response","224","321717","0.0-6.0-0.109","FAMI","3","m","rechts","22","","fixation","","","",""
"705","img/150_270.png","74","image-keyboard-response","225","322435","0.0-6.0-1.109","FAMI","3","m","rechts","22","","","self","j","150","true"
"null","<div style=""font-size:60px;"">+</div>","null","html-keyboard-response","226","322893","0.0-6.0-0.110","FAMI","3","m","rechts","22","","fixation","","","",""
"657","img/120_150.png","70","image-keyboard-response","227","323560","0.0-6.0-1.110","FAMI","3","m","rechts","22","","","self","f","120","true"
"null","<div style=""font-size:60px;"">+</div>","null","html-keyboard-response","228","323923","0.0-6.0-0.111","FAMI","3","m","rechts","22","","fixation","","","",""
"660","img/30_60.png","74","image-keyboard-response","229","324593","0.0-6.0-1.111","FAMI","3","m","rechts","22","","","self","j","30","true"
"null","<div style=""font-size:60px;"">+</div>","null","html-keyboard-response","230","325049","0.0-6.0-0.112","FAMI","3","m","rechts","22","","fixation","","","",""
"749","img/90_180.png","74","image-keyboard-response","231","325811","0.0-6.0-1.112","FAMI","3","m","rechts","22","","","self","j","90","true"
"null","<div style=""font-size:60px;"">+</div>","null","html-keyboard-response","232","326267","0.0-6.0-0.113","FAMI","3","m","rechts","22","","fixation","","","",""
"712","img/L120_180.png","70","image-keyboard-response","233","326992","0.0-6.0-1.113","FAMI","3","m","rechts","22","","","self","f","120","true"
"null","<div style=""font-size:60px;"">+</div>","null","html-keyboard-response","234","327470","0.0-6.0-0.114","FAMI","3","m","rechts","22","","fixation","","","",""
"885","img/30_240.png","70","image-keyboard-response","235","328364","0.0-6.0-1.114","FAMI","3","m","rechts","22","","","self","f","30","true"
"null","<div style=""font-size:60px;"">+</div>","null","html-keyboard-response","236","328782","0.0-6.0-0.115","FAMI","3","m","rechts","22","","fixation","","","",""
"774","img/L30_180.png","70","image-keyboard-response","237","329568","0.0-6.0-1.115","FAMI","3","m","rechts","22","","","self","f","30","true"
"null","<div style=""font-size:60px;"">+</div>","null","html-keyboard-response","238","329925","0.0-6.0-0.116","FAMI","3","m","rechts","22","","fixation","","","",""
"1597","img/120_330.png","74","image-keyboard-response","239","331548","0.0-6.0-1.116","FAMI","3","m","rechts","22","","","self","f","120","false"
"null","<div style=""font-size:60px;"">+</div>","null","html-keyboard-response","240","332066","0.0-6.0-0.117","FAMI","3","m","rechts","22","","fixation","","","",""
"1143","img/90_60.png","74","image-keyboard-response","241","333223","0.0-6.0-1.117","FAMI","3","m","rechts","22","","","self","j","90","true"
"null","<div style=""font-size:60px;"">+</div>","null","html-keyboard-response","242","333737","0.0-6.0-0.118","FAMI","3","m","rechts","22","","fixation","","","",""
"632","img/0_270.png","70","image-keyboard-response","243","334383","0.0-6.0-1.118","FAMI","3","m","rechts","22","","","self","f","0","true"
"null","<div style=""font-size:60px;"">+</div>","null","html-keyboard-response","244","334847","0.0-6.0-0.119","FAMI","3","m","rechts","22","","fixation","","","",""
"569","img/0_90.png","74","image-keyboard-response","245","335430","0.0-6.0-1.119","FAMI","3","m","rechts","22","","","self","j","0","true"
"null","<div style=""font-size:60px;"">+</div>","null","html-keyboard-response","246","335894","0.0-6.0-0.120","FAMI","3","m","rechts","22","","fixation","","","",""
"986","img/120_30.png","74","image-keyboard-response","247","336893","0.0-6.0-1.120","FAMI","3","m","rechts","22","","","self","j","120","true"
"null","<div style=""font-size:60px;"">+</div>","null","html-keyboard-response","248","337206","0.0-6.0-0.121","FAMI","3","m","rechts","22","","fixation","","","",""
"1506","img/60_90.png","74","image-keyboard-response","249","338725","0.0-6.0-1.121","FAMI","3","m","rechts","22","","","self","j","60","true"
"null","<div style=""font-size:60px;"">+</div>","null","html-keyboard-response","250","339144","0.0-6.0-0.122","FAMI","3","m","rechts","22","","fixation","","","",""
"784","img/150_180.png","74","image-keyboard-response","251","339941","0.0-6.0-1.122","FAMI","3","m","rechts","22","","","self","j","150","true"
"null","<div style=""font-size:60px;"">+</div>","null","html-keyboard-response","252","340348","0.0-6.0-0.123","FAMI","3","m","rechts","22","","fixation","","","",""
"684","img/120_270.png","74","image-keyboard-response","253","341042","0.0-6.0-1.123","FAMI","3","m","rechts","22","","","self","j","120","true"
"null","<div style=""font-size:60px;"">+</div>","null","html-keyboard-response","254","341348","0.0-6.0-0.124","FAMI","3","m","rechts","22","","fixation","","","",""
"710","img/150_300.png","74","image-keyboard-response","255","342067","0.0-6.0-1.124","FAMI","3","m","rechts","22","","","self","j","150","true"
"null","<div style=""font-size:60px;"">+</div>","null","html-keyboard-response","256","342378","0.0-6.0-0.125","FAMI","3","m","rechts","22","","fixation","","","",""
"658","img/150_90.png","70","image-keyboard-response","257","343046","0.0-6.0-1.125","FAMI","3","m","rechts","22","","","self","f","150","true"
"null","<div style=""font-size:60px;"">+</div>","null","html-keyboard-response","258","343362","0.0-6.0-0.126","FAMI","3","m","rechts","22","","fixation","","","",""
"574","img/0_30.png","74","image-keyboard-response","259","343945","0.0-6.0-1.126","FAMI","3","m","rechts","22","","","self","j","0","true"
"null","<div style=""font-size:60px;"">+</div>","null","html-keyboard-response","260","344457","0.0-6.0-0.127","FAMI","3","m","rechts","22","","fixation","","","",""
"1156","img/30_120.png","74","image-keyboard-response","261","345622","0.0-6.0-1.127","FAMI","3","m","rechts","22","","","self","j","30","true"
"null","<div style=""font-size:60px;"">+</div>","null","html-keyboard-response","262","345974","0.0-6.0-0.128","FAMI","3","m","rechts","22","","fixation","","","",""
"613","img/0_150.png","74","image-keyboard-response","263","346600","0.0-6.0-1.128","FAMI","3","m","rechts","22","","","self","j","0","true"
"null","<div style=""font-size:60px;"">+</div>","null","html-keyboard-response","264","347130","0.0-6.0-0.129","FAMI","3","m","rechts","22","","fixation","","","",""
"821","img/60_330.png","70","image-keyboard-response","265","347962","0.0-6.0-1.129","FAMI","3","m","rechts","22","","","self","f","60","true"
"null","<div style=""font-size:60px;"">+</div>","null","html-keyboard-response","266","348375","0.0-6.0-0.130","FAMI","3","m","rechts","22","","fixation","","","",""
"777","img/60_270.png","70","image-keyboard-response","267","349166","0.0-6.0-1.130","FAMI","3","m","rechts","22","","","self","f","60","true"
"null","<div style=""font-size:60px;"">+</div>","null","html-keyboard-response","268","349672","0.0-6.0-0.131","FAMI","3","m","rechts","22","","fixation","","","",""
"649","img/90_30.png","74","image-keyboard-response","269","350335","0.0-6.0-1.131","FAMI","3","m","rechts","22","","","self","j","90","true"
"null","<div style=""font-size:60px;"">+</div>","null","html-keyboard-response","270","350656","0.0-6.0-0.132","FAMI","3","m","rechts","22","","fixation","","","",""
"723","img/L150_180.png","70","image-keyboard-response","271","351394","0.0-6.0-1.132","FAMI","3","m","rechts","22","","","self","f","150","true"
"null","<div style=""font-size:60px;"">+</div>","null","html-keyboard-response","272","351812","0.0-6.0-0.133","FAMI","3","m","rechts","22","","fixation","","","",""
"615","img/60_180.png","74","image-keyboard-response","273","352440","0.0-6.0-1.133","FAMI","3","m","rechts","22","","","self","j","60","true"
"null","<div style=""font-size:60px;"">+</div>","null","html-keyboard-response","274","352812","0.0-6.0-0.134","FAMI","3","m","rechts","22","","fixation","","","",""
"1067","img/90_240.png","74","image-keyboard-response","275","353893","0.0-6.0-1.134","FAMI","3","m","rechts","22","","","self","j","90","true"
"null","<div style=""font-size:60px;"">+</div>","null","html-keyboard-response","276","354204","0.0-6.0-0.135","FAMI","3","m","rechts","22","","fixation","","","",""
"575","img/120_180.png","74","image-keyboard-response","277","354790","0.0-6.0-1.135","FAMI","3","m","rechts","22","","","self","j","120","true"
"null","<div style=""font-size:60px;"">+</div>","null","html-keyboard-response","278","355118","0.0-6.0-0.136","FAMI","3","m","rechts","22","","fixation","","","",""
"581","img/0_120.png","74","image-keyboard-response","279","355712","0.0-6.0-1.136","FAMI","3","m","rechts","22","","","self","j","0","true"
"null","<div style=""font-size:60px;"">+</div>","null","html-keyboard-response","280","356026","0.0-6.0-0.137","FAMI","3","m","rechts","22","","fixation","","","",""
"619","img/L60_180.png","70","image-keyboard-response","281","356659","0.0-6.0-1.137","FAMI","3","m","rechts","22","","","self","f","60","true"
"null","<div style=""font-size:60px;"">+</div>","null","html-keyboard-response","282","357072","0.0-6.0-0.138","FAMI","3","m","rechts","22","","fixation","","","",""
"697","img/60_30.png","74","image-keyboard-response","283","357784","0.0-6.0-1.138","FAMI","3","m","rechts","22","","","self","j","60","true"
"null","<div style=""font-size:60px;"">+</div>","null","html-keyboard-response","284","358261","0.0-6.0-0.139","FAMI","3","m","rechts","22","","fixation","","","",""
"817","img/90_330.png","70","image-keyboard-response","285","359089","0.0-6.0-1.139","FAMI","3","m","rechts","22","","","self","f","90","true"
"null","<div style=""font-size:60px;"">+</div>","null","html-keyboard-response","286","359462","0.0-6.0-0.140","FAMI","3","m","rechts","22","","fixation","","","",""
"861","img/30_300.png","70","image-keyboard-response","287","360336","0.0-6.0-1.140","FAMI","3","m","rechts","22","","","self","f","30","true"
"null","<div style=""font-size:60px;"">+</div>","null","html-keyboard-response","288","360741","0.0-6.0-0.141","FAMI","3","m","rechts","22","","fixation","","","",""
"930","img/90_210.png","74","image-keyboard-response","289","361687","0.0-6.0-1.141","FAMI","3","m","rechts","22","","","self","j","90","true"
"null","<div style=""font-size:60px;"">+</div>","null","html-keyboard-response","290","361992","0.0-6.0-0.142","FAMI","3","m","rechts","22","","fixation","","","",""
"773","img/30_180.png","74","image-keyboard-response","291","362778","0.0-6.0-1.142","FAMI","3","m","rechts","22","","","self","j","30","true"
"null","<div style=""font-size:60px;"">+</div>","null","html-keyboard-response","292","363288","0.0-6.0-0.143","FAMI","3","m","rechts","22","","fixation","","","",""
"637","img/L90_180.png","70","image-keyboard-response","293","363938","0.0-6.0-1.143","FAMI","3","m","rechts","22","","","self","f","90","true"
"null","<div style=""font-size:60px;"">+</div>","null","html-keyboard-response","294","364351","0.0-6.0-0.144","FAMI","3","m","rechts","22","","fixation","","","",""
"855","img/0_300.png","70","image-keyboard-response","295","365219","0.0-6.0-1.144","FAMI","3","m","rechts","22","","","self","f","0","true"
"null","<div style=""font-size:60px;"">+</div>","null","html-keyboard-response","296","365633","0.0-6.0-0.145","FAMI","3","m","rechts","22","","fixation","","","",""
"698","img/30_270.png","70","image-keyboard-response","297","366344","0.0-6.0-1.145","FAMI","3","m","rechts","22","","","self","f","30","true"
"null","<div style=""font-size:60px;"">+</div>","null","html-keyboard-response","298","366851","0.0-6.0-0.146","FAMI","3","m","rechts","22","","fixation","","","",""
"684","img/90_120.png","70","image-keyboard-response","299","367548","0.0-6.0-1.146","FAMI","3","m","rechts","22","","","self","f","90","true"
"null","<div style=""font-size:60px;"">+</div>","null","html-keyboard-response","300","368007","0.0-6.0-0.147","FAMI","3","m","rechts","22","","fixation","","","",""
"699","img/120_90.png","70","image-keyboard-response","301","368719","0.0-6.0-1.147","FAMI","3","m","rechts","22","","","self","f","120","true"
"null","<div style=""font-size:60px;"">+</div>","null","html-keyboard-response","302","369178","0.0-6.0-0.148","FAMI","3","m","rechts","22","","fixation","","","",""
"708","img/60_210.png","74","image-keyboard-response","303","369901","0.0-6.0-1.148","FAMI","3","m","rechts","22","","","self","j","60","true"
"null","<div style=""font-size:60px;"">+</div>","null","html-keyboard-response","304","370226","0.0-6.0-0.149","FAMI","3","m","rechts","22","","fixation","","","",""
"639","img/0_210.png","70","image-keyboard-response","305","370879","0.0-6.0-1.149","FAMI","3","m","rechts","22","","","self","f","0","true"
"null","<div style=""font-size:60px;"">+</div>","null","html-keyboard-response","306","371241","0.0-6.0-0.150","FAMI","3","m","rechts","22","","fixation","","","",""
"603","img/0_330.png","70","image-keyboard-response","307","371857","0.0-6.0-1.150","FAMI","3","m","rechts","22","","","self","f","0","true"
"null","<div style=""font-size:60px;"">+</div>","null","html-keyboard-response","308","372179","0.0-6.0-0.151","FAMI","3","m","rechts","22","","fixation","","","",""
"766","img/90_300.png","74","image-keyboard-response","309","372961","0.0-6.0-1.151","FAMI","3","m","rechts","22","","","self","f","90","false"
"null","<div style=""font-size:60px;"">+</div>","null","html-keyboard-response","310","373383","0.0-6.0-0.152","FAMI","3","m","rechts","22","","fixation","","","",""
"778","img/150_240.png","70","image-keyboard-response","311","374175","0.0-6.0-1.152","FAMI","3","m","rechts","22","","","self","j","150","false"
"null","<div style=""font-size:60px;"">+</div>","null","html-keyboard-response","312","374681","0.0-6.0-0.153","FAMI","3","m","rechts","22","","fixation","","","",""
"662","img/120_210.png","74","image-keyboard-response","313","375357","0.0-6.0-1.153","FAMI","3","m","rechts","22","","","self","j","120","true"
"null","<div style=""font-size:60px;"">+</div>","null","html-keyboard-response","314","375665","0.0-6.0-0.154","FAMI","3","m","rechts","22","","fixation","","","",""
"589","img/0_60.png","74","image-keyboard-response","315","376267","0.0-6.0-1.154","FAMI","3","m","rechts","22","","","self","j","0","true"
"null","<div style=""font-size:60px;"">+</div>","null","html-keyboard-response","316","376773","0.0-6.0-0.155","FAMI","3","m","rechts","22","","fixation","","","",""
"933","img/30_90.png","74","image-keyboard-response","317","377719","0.0-6.0-1.155","FAMI","3","m","rechts","22","","","self","j","30","true"
"null","<div style=""font-size:60px;"">+</div>","null","html-keyboard-response","318","378180","0.0-6.0-0.156","FAMI","3","m","rechts","22","","fixation","","","",""
"720","img/60_150.png","70","image-keyboard-response","319","378909","0.0-6.0-1.156","FAMI","3","m","rechts","22","","","self","f","60","true"
"null","<div style=""font-size:60px;"">+</div>","null","html-keyboard-response","320","379368","0.0-6.0-0.157","FAMI","3","m","rechts","22","","fixation","","","",""
"637","img/L60_180.png","70","image-keyboard-response","321","380014","0.0-6.0-1.157","FAMI","3","m","rechts","22","","","self","f","60","true"
"null","<div style=""font-size:60px;"">+</div>","null","html-keyboard-response","322","380535","0.0-6.0-0.158","FAMI","3","m","rechts","22","","fixation","","","",""
"1017","img/150_300.png","74","image-keyboard-response","323","381567","0.0-6.0-1.158","FAMI","3","m","rechts","22","","","self","j","150","true"
"null","<div style=""font-size:60px;"">+</div>","null","html-keyboard-response","324","381871","0.0-6.0-0.159","FAMI","3","m","rechts","22","","fixation","","","",""
"694","img/150_270.png","74","image-keyboard-response","325","382578","0.0-6.0-1.159","FAMI","3","m","rechts","22","","","self","j","150","true"
"null","<div style=""font-size:60px;"">+</div>","null","html-keyboard-response","326","383054","0.0-6.0-0.160","FAMI","3","m","rechts","22","","fixation","","","",""
"831","img/90_210.png","74","image-keyboard-response","327","383894","0.0-6.0-1.160","FAMI","3","m","rechts","22","","","self","j","90","true"
"null","<div style=""font-size:60px;"">+</div>","null","html-keyboard-response","328","384349","0.0-6.0-0.161","FAMI","3","m","rechts","22","","fixation","","","",""
"565","img/0_270.png","70","image-keyboard-response","329","384929","0.0-6.0-1.161","FAMI","3","m","rechts","22","","","self","f","0","true"
"null","<div style=""font-size:60px;"">+</div>","null","html-keyboard-response","330","385312","0.0-6.0-0.162","FAMI","3","m","rechts","22","","fixation","","","",""
"724","img/90_150.png","70","image-keyboard-response","331","386050","0.0-6.0-1.162","FAMI","3","m","rechts","22","","","self","f","90","true"
"null","<div style=""font-size:60px;"">+</div>","null","html-keyboard-response","332","386422","0.0-6.0-0.163","FAMI","3","m","rechts","22","","fixation","","","",""
"598","img/90_180.png","74","image-keyboard-response","333","387035","0.0-6.0-1.163","FAMI","3","m","rechts","22","","","self","j","90","true"
"null","<div style=""font-size:60px;"">+</div>","null","html-keyboard-response","334","387516","0.0-6.0-0.164","FAMI","3","m","rechts","22","","fixation","","","",""
"755","img/150_180.png","74","image-keyboard-response","335","388283","0.0-6.0-1.164","FAMI","3","m","rechts","22","","","self","j","150","true"
"null","<div style=""font-size:60px;"">+</div>","null","html-keyboard-response","336","388786","0.0-6.0-0.165","FAMI","3","m","rechts","22","","fixation","","","",""
"745","img/150_240.png","74","image-keyboard-response","337","389543","0.0-6.0-1.165","FAMI","3","m","rechts","22","","","self","j","150","true"
"null","<div style=""font-size:60px;"">+</div>","null","html-keyboard-response","338","389898","0.0-6.0-0.166","FAMI","3","m","rechts","22","","fixation","","","",""
"813","img/L120_180.png","70","image-keyboard-response","339","390724","0.0-6.0-1.166","FAMI","3","m","rechts","22","","","self","f","120","true"
"null","<div style=""font-size:60px;"">+</div>","null","html-keyboard-response","340","391149","0.0-6.0-0.167","FAMI","3","m","rechts","22","","fixation","","","",""
"768","img/L150_180.png","70","image-keyboard-response","341","391927","0.0-6.0-1.167","FAMI","3","m","rechts","22","","","self","f","150","true"
"null","<div style=""font-size:60px;"">+</div>","null","html-keyboard-response","342","392304","0.0-6.0-0.168","FAMI","3","m","rechts","22","","fixation","","","",""
"705","img/0_330.png","70","image-keyboard-response","343","393020","0.0-6.0-1.168","FAMI","3","m","rechts","22","","","self","f","0","true"
"null","<div style=""font-size:60px;"">+</div>","null","html-keyboard-response","344","393351","0.0-6.0-0.169","FAMI","3","m","rechts","22","","fixation","","","",""
"992","img/30_240.png","70","image-keyboard-response","345","394357","0.0-6.0-1.169","FAMI","3","m","rechts","22","","","self","f","30","true"
"null","<div style=""font-size:60px;"">+</div>","null","html-keyboard-response","346","394773","0.0-6.0-0.170","FAMI","3","m","rechts","22","","fixation","","","",""
"864","img/L30_180.png","70","image-keyboard-response","347","395652","0.0-6.0-1.170","FAMI","3","m","rechts","22","","","self","f","30","true"
"null","<div style=""font-size:60px;"">+</div>","null","html-keyboard-response","348","396072","0.0-6.0-0.171","FAMI","3","m","rechts","22","","fixation","","","",""
"627","img/120_210.png","74","image-keyboard-response","349","396708","0.0-6.0-1.171","FAMI","3","m","rechts","22","","","self","j","120","true"
"null","<div style=""font-size:60px;"">+</div>","null","html-keyboard-response","350","397228","0.0-6.0-0.172","FAMI","3","m","rechts","22","","fixation","","","",""
"952","img/120_30.png","74","image-keyboard-response","351","398193","0.0-6.0-1.172","FAMI","3","m","rechts","22","","","self","j","120","true"
"null","<div style=""font-size:60px;"">+</div>","null","html-keyboard-response","352","398617","0.0-6.0-0.173","FAMI","3","m","rechts","22","","fixation","","","",""
"547","img/0_240.png","70","image-keyboard-response","353","399173","0.0-6.0-1.173","FAMI","3","m","rechts","22","","","self","f","0","true"
"null","<div style=""font-size:60px;"">+</div>","null","html-keyboard-response","354","399492","0.0-6.0-0.174","FAMI","3","m","rechts","22","","fixation","","","",""
"535","img/0_210.png","70","image-keyboard-response","355","400039","0.0-6.0-1.174","FAMI","3","m","rechts","22","","","self","f","0","true"
"null","<div style=""font-size:60px;"">+</div>","null","html-keyboard-response","356","400492","0.0-6.0-0.175","FAMI","3","m","rechts","22","","fixation","","","",""
"636","img/30_120.png","74","image-keyboard-response","357","401141","0.0-6.0-1.175","FAMI","3","m","rechts","22","","","self","j","30","true"
"null","<div style=""font-size:60px;"">+</div>","null","html-keyboard-response","358","401509","0.0-6.0-0.176","FAMI","3","m","rechts","22","","fixation","","","",""
"589","img/30_300.png","70","image-keyboard-response","359","402107","0.0-6.0-1.176","FAMI","3","m","rechts","22","","","self","f","30","true"
"null","<div style=""font-size:60px;"">+</div>","null","html-keyboard-response","360","402461","0.0-6.0-0.177","FAMI","3","m","rechts","22","","fixation","","","",""
"896","img/150_120.png","70","image-keyboard-response","361","403370","0.0-6.0-1.177","FAMI","3","m","rechts","22","","","self","f","150","true"
"null","<div style=""font-size:60px;"">+</div>","null","html-keyboard-response","362","403743","0.0-6.0-0.178","FAMI","3","m","rechts","22","","fixation","","","",""
"805","img/60_90.png","74","image-keyboard-response","363","404561","0.0-6.0-1.178","FAMI","3","m","rechts","22","","","self","j","60","true"
"null","<div style=""font-size:60px;"">+</div>","null","html-keyboard-response","364","404868","0.0-6.0-0.179","FAMI","3","m","rechts","22","","fixation","","","",""
"707","img/30_90.png","74","image-keyboard-response","365","405586","0.0-6.0-1.179","FAMI","3","m","rechts","22","","","self","j","30","true"
"null","<div style=""font-size:60px;"">+</div>","null","html-keyboard-response","366","405994","0.0-6.0-0.180","FAMI","3","m","rechts","22","","fixation","","","",""
"591","img/120_150.png","70","image-keyboard-response","367","406598","0.0-6.0-1.180","FAMI","3","m","rechts","22","","","self","f","120","true"
"null","<div style=""font-size:60px;"">+</div>","null","html-keyboard-response","368","407072","0.0-6.0-0.181","FAMI","3","m","rechts","22","","fixation","","","",""
"593","img/0_300.png","70","image-keyboard-response","369","407676","0.0-6.0-1.181","FAMI","3","m","rechts","22","","","self","f","0","true"
"null","<div style=""font-size:60px;"">+</div>","null","html-keyboard-response","370","408041","0.0-6.0-0.182","FAMI","3","m","rechts","22","","fixation","","","",""
"614","img/60_180.png","74","image-keyboard-response","371","408669","0.0-6.0-1.182","FAMI","3","m","rechts","22","","","self","j","60","true"
"null","<div style=""font-size:60px;"">+</div>","null","html-keyboard-response","372","409024","0.0-6.0-0.183","FAMI","3","m","rechts","22","","fixation","","","",""
"686","img/0_150.png","74","image-keyboard-response","373","409725","0.0-6.0-1.183","FAMI","3","m","rechts","22","","","self","j","0","true"
"null","<div style=""font-size:60px;"">+</div>","null","html-keyboard-response","374","410042","0.0-6.0-0.184","FAMI","3","m","rechts","22","","fixation","","","",""
"795","img/60_30.png","74","image-keyboard-response","375","410851","0.0-6.0-1.184","FAMI","3","m","rechts","22","","","self","j","60","true"
"null","<div style=""font-size:60px;"">+</div>","null","html-keyboard-response","376","411308","0.0-6.0-0.185","FAMI","3","m","rechts","22","","fixation","","","",""
"824","img/L90_180.png","74","image-keyboard-response","377","412145","0.0-6.0-1.185","FAMI","3","m","rechts","22","","","self","f","90","false"
"null","<div style=""font-size:60px;"">+</div>","null","html-keyboard-response","378","412448","0.0-6.0-0.186","FAMI","3","m","rechts","22","","fixation","","","",""
"965","img/120_330.png","70","image-keyboard-response","379","413426","0.0-6.0-1.186","FAMI","3","m","rechts","22","","","self","f","120","true"
"null","<div style=""font-size:60px;"">+</div>","null","html-keyboard-response","380","413834","0.0-6.0-0.187","FAMI","3","m","rechts","22","","fixation","","","",""
"1313","img/30_270.png","70","image-keyboard-response","381","415161","0.0-6.0-1.187","FAMI","3","m","rechts","22","","","self","f","30","true"
"null","<div style=""font-size:60px;"">+</div>","null","html-keyboard-response","382","415479","0.0-6.0-0.188","FAMI","3","m","rechts","22","","fixation","","","",""
"754","img/90_120.png","70","image-keyboard-response","383","416249","0.0-6.0-1.188","FAMI","3","m","rechts","22","","","self","f","90","true"
"null","<div style=""font-size:60px;"">+</div>","null","html-keyboard-response","384","416699","0.0-6.0-0.189","FAMI","3","m","rechts","22","","fixation","","","",""
"901","img/90_300.png","70","image-keyboard-response","385","417611","0.0-6.0-1.189","FAMI","3","m","rechts","22","","","self","f","90","true"
"null","<div style=""font-size:60px;"">+</div>","null","html-keyboard-response","386","418137","0.0-6.0-0.190","FAMI","3","m","rechts","22","","fixation","","","",""
"697","img/60_270.png","70","image-keyboard-response","387","418850","0.0-6.0-1.190","FAMI","3","m","rechts","22","","","self","f","60","true"
"null","<div style=""font-size:60px;"">+</div>","null","html-keyboard-response","388","419355","0.0-6.0-0.191","FAMI","3","m","rechts","22","","fixation","","","",""
"662","img/0_30.png","74","image-keyboard-response","389","420031","0.0-6.0-1.191","FAMI","3","m","rechts","22","","","self","j","0","true"
"null","<div style=""font-size:60px;"">+</div>","null","html-keyboard-response","390","420462","0.0-6.0-0.192","FAMI","3","m","rechts","22","","fixation","","","",""
"1136","img/120_90.png","70","image-keyboard-response","391","421617","0.0-6.0-1.192","FAMI","3","m","rechts","22","","","self","f","120","true"
"null","<div style=""font-size:60px;"">+</div>","null","html-keyboard-response","392","421924","0.0-6.0-0.193","FAMI","3","m","rechts","22","","fixation","","","",""
"984","img/30_60.png","74","image-keyboard-response","393","422923","0.0-6.0-1.193","FAMI","3","m","rechts","22","","","self","j","30","true"
"null","<div style=""font-size:60px;"">+</div>","null","html-keyboard-response","394","423331","0.0-6.0-0.194","FAMI","3","m","rechts","22","","fixation","","","",""
"1061","img/90_30.png","74","image-keyboard-response","395","424405","0.0-6.0-1.194","FAMI","3","m","rechts","22","","","self","j","90","true"
"null","<div style=""font-size:60px;"">+</div>","null","html-keyboard-response","396","424769","0.0-6.0-0.195","FAMI","3","m","rechts","22","","fixation","","","",""
"592","img/0_90.png","74","image-keyboard-response","397","425375","0.0-6.0-1.195","FAMI","3","m","rechts","22","","","self","j","0","true"
"null","<div style=""font-size:60px;"">+</div>","null","html-keyboard-response","398","425690","0.0-6.0-0.196","FAMI","3","m","rechts","22","","fixation","","","",""
"709","img/120_270.png","74","image-keyboard-response","399","426407","0.0-6.0-1.196","FAMI","3","m","rechts","22","","","self","j","120","true"
"null","<div style=""font-size:60px;"">+</div>","null","html-keyboard-response","400","426815","0.0-6.0-0.197","FAMI","3","m","rechts","22","","fixation","","","",""
"817","img/120_180.png","74","image-keyboard-response","401","427646","0.0-6.0-1.197","FAMI","3","m","rechts","22","","","self","j","120","true"
"null","<div style=""font-size:60px;"">+</div>","null","html-keyboard-response","402","427955","0.0-6.0-0.198","FAMI","3","m","rechts","22","","fixation","","","",""
"891","img/90_330.png","70","image-keyboard-response","403","428863","0.0-6.0-1.198","FAMI","3","m","rechts","22","","","self","f","90","true"
"null","<div style=""font-size:60px;"">+</div>","null","html-keyboard-response","404","429189","0.0-6.0-0.199","FAMI","3","m","rechts","22","","fixation","","","",""
"671","img/0_120.png","74","image-keyboard-response","405","429876","0.0-6.0-1.199","FAMI","3","m","rechts","22","","","self","j","0","true"
"null","<div style=""font-size:60px;"">+</div>","null","html-keyboard-response","406","430238","0.0-6.0-0.200","FAMI","3","m","rechts","22","","fixation","","","",""
"793","img/60_210.png","74","image-keyboard-response","407","431045","0.0-6.0-1.200","FAMI","3","m","rechts","22","","","self","j","60","true"
"null","<div style=""font-size:60px;"">+</div>","null","html-keyboard-response","408","431504","0.0-6.0-0.201","FAMI","3","m","rechts","22","","fixation","","","",""
"719","img/90_240.png","74","image-keyboard-response","409","432236","0.0-6.0-1.201","FAMI","3","m","rechts","22","","","self","j","90","true"
"null","<div style=""font-size:60px;"">+</div>","null","html-keyboard-response","410","432691","0.0-6.0-0.202","FAMI","3","m","rechts","22","","fixation","","","",""
"905","img/150_60.png","70","image-keyboard-response","411","433609","0.0-6.0-1.202","FAMI","3","m","rechts","22","","","self","f","150","true"
"null","<div style=""font-size:60px;"">+</div>","null","html-keyboard-response","412","433942","0.0-6.0-0.203","FAMI","3","m","rechts","22","","fixation","","","",""
"668","img/30_180.png","74","image-keyboard-response","413","434622","0.0-6.0-1.203","FAMI","3","m","rechts","22","","","self","j","30","true"
"null","<div style=""font-size:60px;"">+</div>","null","html-keyboard-response","414","434941","0.0-6.0-0.204","FAMI","3","m","rechts","22","","fixation","","","",""
"836","img/90_60.png","74","image-keyboard-response","415","435791","0.0-6.0-1.204","FAMI","3","m","rechts","22","","","self","j","90","true"
"null","<div style=""font-size:60px;"">+</div>","null","html-keyboard-response","416","436300","0.0-6.0-0.205","FAMI","3","m","rechts","22","","fixation","","","",""
"638","img/0_60.png","74","image-keyboard-response","417","436951","0.0-6.0-1.205","FAMI","3","m","rechts","22","","","self","j","0","true"
"null","<div style=""font-size:60px;"">+</div>","null","html-keyboard-response","418","437284","0.0-6.0-0.206","FAMI","3","m","rechts","22","","fixation","","","",""
"765","img/150_90.png","70","image-keyboard-response","419","438053","0.0-6.0-1.206","FAMI","3","m","rechts","22","","","self","f","150","true"
"null","<div style=""font-size:60px;"">+</div>","null","html-keyboard-response","420","438425","0.0-6.0-0.207","FAMI","3","m","rechts","22","","fixation","","","",""
"1742","img/60_330.png","70","image-keyboard-response","421","440180","0.0-6.0-1.207","FAMI","3","m","rechts","22","","","self","f","60","true"
"16000","<p>Du hast in 94% der Versuche korrekt entschieden.</p><p>Deine durchschnittliche Reaktionszeit war  801ms.</p><p>Dr&uuml;cke eine beliebige Taste, um die Session zu beenden. Vielen Dank!</p>","32","html-keyboard-response","422","456193","0.0-7.0","FAMI","3","m","rechts","22","","","","","",""
