"rt","stimulus","key_press","trial_type","trial_index","time_elapsed","internal_node_id","subject","session","sex","handedness","age","responses","test_part","condition","correct_response","angle","correct"
"1331","<p>Mental Rotation Experiment.</p> <p>Dr&uuml;cke eine beliebige Taste, um anzufangen.</p>","13","html-keyboard-response","0","1344","0.0-0.0","FAMI","2","m","rechts","22","","","","","",""
"4803","","","survey-text","1","6148","0.0-1.0","FAMI","2","m","rechts","22","{""Q0"":""FAMI""}","","","","",""
"5609","","","survey-text","2","11760","0.0-2.0","FAMI","2","m","rechts","22","{""Q0"":""2""}","","","","",""
"1967","","","survey-multi-choice","3","13745","0.0-3.0","FAMI","2","m","rechts","22","{""Q0"":""m"",""Q1"":""rechts""}","","","","",""
"3225","","","survey-text","4","16973","0.0-4.0","FAMI","2","m","rechts","22","{""Q0"":""22""}","","","","",""
"11260","<p> Stell dir vor, dass du vor einem runden Tisch stehst, auf dem sich ein blauer Ball am Tischrand befindet. Entlang des Tischrands ist jeweils ein verschieden langer Pfeil. Nun bewegst du dich entlang dieses Pfeils bis an seine Spitze. Wenn du am Ende des Pfeils angekommen bist, schau zur Tischmitte. </p> <img src='img/90_180.png'></img> <br> <p>Entscheide dann, ob der Ball von deiner neuen (vorgestellten) Position links oder rechts von dir liegt.</p> <p>Dr&uuml;cke die <strong>'f'</strong>-Taste f&uuml;r links, die <strong>'j'</strong>-Taste f&uuml;r rechts.</p> <br><p> Das Bild wird jeweils 1 Sekunde lang pr&auml;sentiert. Du hast 3 Sekunden Zeit eine Entscheidung zu treffen.</p>","74","html-keyboard-response","5","28255","0.0-5.0","FAMI","2","m","rechts","22","","","","","",""
"null","<div style=""font-size:60px;"">+</div>","null","html-keyboard-response","6","29653","0.0-6.0-0.0","FAMI","2","m","rechts","22","","fixation","","","",""
"1866","img/90_330.png","70","image-keyboard-response","7","31542","0.0-6.0-1.0","FAMI","2","m","rechts","22","","","self","f","90","true"
"null","<div style=""font-size:60px;"">+</div>","null","html-keyboard-response","8","31961","0.0-6.0-0.1","FAMI","2","m","rechts","22","","fixation","","","",""
"1401","img/60_270.png","70","image-keyboard-response","9","33380","0.0-6.0-1.1","FAMI","2","m","rechts","22","","","self","f","60","true"
"null","<div style=""font-size:60px;"">+</div>","null","html-keyboard-response","10","33741","0.0-6.0-0.2","FAMI","2","m","rechts","22","","fixation","","","",""
"1015","img/150_180.png","74","image-keyboard-response","11","34777","0.0-6.0-1.2","FAMI","2","m","rechts","22","","","self","j","150","true"
"null","<div style=""font-size:60px;"">+</div>","null","html-keyboard-response","12","35147","0.0-6.0-0.3","FAMI","2","m","rechts","22","","fixation","","","",""
"692","img/0_240.png","70","image-keyboard-response","13","35857","0.0-6.0-1.3","FAMI","2","m","rechts","22","","","self","f","0","true"
"null","<div style=""font-size:60px;"">+</div>","null","html-keyboard-response","14","36225","0.0-6.0-0.4","FAMI","2","m","rechts","22","","fixation","","","",""
"1018","img/30_270.png","70","image-keyboard-response","15","37262","0.0-6.0-1.4","FAMI","2","m","rechts","22","","","self","f","30","true"
"null","<div style=""font-size:60px;"">+</div>","null","html-keyboard-response","16","37679","0.0-6.0-0.5","FAMI","2","m","rechts","22","","fixation","","","",""
"1074","img/90_300.png","70","image-keyboard-response","17","38770","0.0-6.0-1.5","FAMI","2","m","rechts","22","","","self","f","90","true"
"null","<div style=""font-size:60px;"">+</div>","null","html-keyboard-response","18","39225","0.0-6.0-0.6","FAMI","2","m","rechts","22","","fixation","","","",""
"1373","img/60_30.png","74","image-keyboard-response","19","40617","0.0-6.0-1.6","FAMI","2","m","rechts","22","","","self","j","60","true"
"null","<div style=""font-size:60px;"">+</div>","null","html-keyboard-response","20","40927","0.0-6.0-0.7","FAMI","2","m","rechts","22","","fixation","","","",""
"928","img/150_120.png","70","image-keyboard-response","21","41874","0.0-6.0-1.7","FAMI","2","m","rechts","22","","","self","f","150","true"
"null","<div style=""font-size:60px;"">+</div>","null","html-keyboard-response","22","42383","0.0-6.0-0.8","FAMI","2","m","rechts","22","","fixation","","","",""
"701","img/0_270.png","70","image-keyboard-response","23","43103","0.0-6.0-1.8","FAMI","2","m","rechts","22","","","self","f","0","true"
"null","<div style=""font-size:60px;"">+</div>","null","html-keyboard-response","24","43617","0.0-6.0-0.9","FAMI","2","m","rechts","22","","fixation","","","",""
"1096","img/120_330.png","70","image-keyboard-response","25","44734","0.0-6.0-1.9","FAMI","2","m","rechts","22","","","self","f","120","true"
"null","<div style=""font-size:60px;"">+</div>","null","html-keyboard-response","26","45164","0.0-6.0-0.10","FAMI","2","m","rechts","22","","fixation","","","",""
"1048","img/150_90.png","74","image-keyboard-response","27","46232","0.0-6.0-1.10","FAMI","2","m","rechts","22","","","self","f","150","false"
"null","<div style=""font-size:60px;"">+</div>","null","html-keyboard-response","28","46743","0.0-6.0-0.11","FAMI","2","m","rechts","22","","fixation","","","",""
"1765","img/L60_180.png","70","image-keyboard-response","29","48526","0.0-6.0-1.11","FAMI","2","m","rechts","22","","","self","f","60","true"
"null","<div style=""font-size:60px;"">+</div>","null","html-keyboard-response","30","49008","0.0-6.0-0.12","FAMI","2","m","rechts","22","","fixation","","","",""
"929","img/90_150.png","70","image-keyboard-response","31","49943","0.0-6.0-1.12","FAMI","2","m","rechts","22","","","self","f","90","true"
"null","<div style=""font-size:60px;"">+</div>","null","html-keyboard-response","32","50445","0.0-6.0-0.13","FAMI","2","m","rechts","22","","fixation","","","",""
"1054","img/150_240.png","74","image-keyboard-response","33","51518","0.0-6.0-1.13","FAMI","2","m","rechts","22","","","self","j","150","true"
"null","<div style=""font-size:60px;"">+</div>","null","html-keyboard-response","34","51930","0.0-6.0-0.14","FAMI","2","m","rechts","22","","fixation","","","",""
"1095","img/L30_180.png","70","image-keyboard-response","35","53047","0.0-6.0-1.14","FAMI","2","m","rechts","22","","","self","f","30","true"
"null","<div style=""font-size:60px;"">+</div>","null","html-keyboard-response","36","53354","0.0-6.0-0.15","FAMI","2","m","rechts","22","","fixation","","","",""
"1072","img/90_240.png","74","image-keyboard-response","37","54444","0.0-6.0-1.15","FAMI","2","m","rechts","22","","","self","j","90","true"
"null","<div style=""font-size:60px;"">+</div>","null","html-keyboard-response","38","54925","0.0-6.0-0.16","FAMI","2","m","rechts","22","","fixation","","","",""
"712","img/0_90.png","74","image-keyboard-response","39","55657","0.0-6.0-1.16","FAMI","2","m","rechts","22","","","self","j","0","true"
"null","<div style=""font-size:60px;"">+</div>","null","html-keyboard-response","40","56126","0.0-6.0-0.17","FAMI","2","m","rechts","22","","fixation","","","",""
"1212","img/150_60.png","70","image-keyboard-response","41","57355","0.0-6.0-1.17","FAMI","2","m","rechts","22","","","self","f","150","true"
"null","<div style=""font-size:60px;"">+</div>","null","html-keyboard-response","42","57767","0.0-6.0-0.18","FAMI","2","m","rechts","22","","fixation","","","",""
"806","img/L90_180.png","70","image-keyboard-response","43","58593","0.0-6.0-1.18","FAMI","2","m","rechts","22","","","self","f","90","true"
"null","<div style=""font-size:60px;"">+</div>","null","html-keyboard-response","44","58909","0.0-6.0-0.19","FAMI","2","m","rechts","22","","fixation","","","",""
"713","img/0_150.png","74","image-keyboard-response","45","59640","0.0-6.0-1.19","FAMI","2","m","rechts","22","","","self","j","0","true"
"null","<div style=""font-size:60px;"">+</div>","null","html-keyboard-response","46","60159","0.0-6.0-0.20","FAMI","2","m","rechts","22","","fixation","","","",""
"882","img/60_150.png","70","image-keyboard-response","47","61057","0.0-6.0-1.20","FAMI","2","m","rechts","22","","","self","f","60","true"
"null","<div style=""font-size:60px;"">+</div>","null","html-keyboard-response","48","61381","0.0-6.0-0.21","FAMI","2","m","rechts","22","","fixation","","","",""
"1053","img/150_270.png","74","image-keyboard-response","49","62453","0.0-6.0-1.21","FAMI","2","m","rechts","22","","","self","j","150","true"
"null","<div style=""font-size:60px;"">+</div>","null","html-keyboard-response","50","62818","0.0-6.0-0.22","FAMI","2","m","rechts","22","","fixation","","","",""
"1359","img/90_60.png","74","image-keyboard-response","51","64195","0.0-6.0-1.22","FAMI","2","m","rechts","22","","","self","j","90","true"
"null","<div style=""font-size:60px;"">+</div>","null","html-keyboard-response","52","64657","0.0-6.0-0.23","FAMI","2","m","rechts","22","","fixation","","","",""
"1187","img/L120_180.png","70","image-keyboard-response","53","65861","0.0-6.0-1.23","FAMI","2","m","rechts","22","","","self","f","120","true"
"null","<div style=""font-size:60px;"">+</div>","null","html-keyboard-response","54","66390","0.0-6.0-0.24","FAMI","2","m","rechts","22","","fixation","","","",""
"1049","img/150_300.png","74","image-keyboard-response","55","67459","0.0-6.0-1.24","FAMI","2","m","rechts","22","","","self","j","150","true"
"null","<div style=""font-size:60px;"">+</div>","null","html-keyboard-response","56","67913","0.0-6.0-0.25","FAMI","2","m","rechts","22","","fixation","","","",""
"715","img/0_330.png","70","image-keyboard-response","57","68652","0.0-6.0-1.25","FAMI","2","m","rechts","22","","","self","f","0","true"
"null","<div style=""font-size:60px;"">+</div>","null","html-keyboard-response","58","69069","0.0-6.0-0.26","FAMI","2","m","rechts","22","","fixation","","","",""
"2325","img/90_30.png","74","image-keyboard-response","59","71411","0.0-6.0-1.26","FAMI","2","m","rechts","22","","","self","j","90","true"
"null","<div style=""font-size:60px;"">+</div>","null","html-keyboard-response","60","71783","0.0-6.0-0.27","FAMI","2","m","rechts","22","","fixation","","","",""
"1069","img/120_180.png","74","image-keyboard-response","61","72870","0.0-6.0-1.27","FAMI","2","m","rechts","22","","","self","j","120","true"
"null","<div style=""font-size:60px;"">+</div>","null","html-keyboard-response","62","73333","0.0-6.0-0.28","FAMI","2","m","rechts","22","","fixation","","","",""
"991","img/120_210.png","74","image-keyboard-response","63","74345","0.0-6.0-1.28","FAMI","2","m","rechts","22","","","self","j","120","true"
"null","<div style=""font-size:60px;"">+</div>","null","html-keyboard-response","64","74851","0.0-6.0-0.29","FAMI","2","m","rechts","22","","fixation","","","",""
"1205","img/30_60.png","74","image-keyboard-response","65","76074","0.0-6.0-1.29","FAMI","2","m","rechts","22","","","self","j","30","true"
"null","<div style=""font-size:60px;"">+</div>","null","html-keyboard-response","66","76381","0.0-6.0-0.30","FAMI","2","m","rechts","22","","fixation","","","",""
"1724","img/30_240.png","70","image-keyboard-response","67","78125","0.0-6.0-1.30","FAMI","2","m","rechts","22","","","self","f","30","true"
"null","<div style=""font-size:60px;"">+</div>","null","html-keyboard-response","68","78506","0.0-6.0-0.31","FAMI","2","m","rechts","22","","fixation","","","",""
"960","img/90_210.png","74","image-keyboard-response","69","79483","0.0-6.0-1.31","FAMI","2","m","rechts","22","","","self","j","90","true"
"null","<div style=""font-size:60px;"">+</div>","null","html-keyboard-response","70","79866","0.0-6.0-0.32","FAMI","2","m","rechts","22","","fixation","","","",""
"929","img/120_270.png","74","image-keyboard-response","71","80813","0.0-6.0-1.32","FAMI","2","m","rechts","22","","","self","j","120","true"
"null","<div style=""font-size:60px;"">+</div>","null","html-keyboard-response","72","81317","0.0-6.0-0.33","FAMI","2","m","rechts","22","","fixation","","","",""
"1040","img/120_150.png","70","image-keyboard-response","73","82366","0.0-6.0-1.33","FAMI","2","m","rechts","22","","","self","f","120","true"
"null","<div style=""font-size:60px;"">+</div>","null","html-keyboard-response","74","82821","0.0-6.0-0.34","FAMI","2","m","rechts","22","","fixation","","","",""
"1160","img/30_180.png","74","image-keyboard-response","75","83996","0.0-6.0-1.34","FAMI","2","m","rechts","22","","","self","j","30","true"
"null","<div style=""font-size:60px;"">+</div>","null","html-keyboard-response","76","84351","0.0-6.0-0.35","FAMI","2","m","rechts","22","","fixation","","","",""
"719","img/0_300.png","70","image-keyboard-response","77","85087","0.0-6.0-1.35","FAMI","2","m","rechts","22","","","self","f","0","true"
"null","<div style=""font-size:60px;"">+</div>","null","html-keyboard-response","78","85398","0.0-6.0-0.36","FAMI","2","m","rechts","22","","fixation","","","",""
"707","img/0_60.png","74","image-keyboard-response","79","86124","0.0-6.0-1.36","FAMI","2","m","rechts","22","","","self","j","0","true"
"null","<div style=""font-size:60px;"">+</div>","null","html-keyboard-response","80","86449","0.0-6.0-0.37","FAMI","2","m","rechts","22","","fixation","","","",""
"957","img/90_120.png","70","image-keyboard-response","81","87427","0.0-6.0-1.37","FAMI","2","m","rechts","22","","","self","f","90","true"
"null","<div style=""font-size:60px;"">+</div>","null","html-keyboard-response","82","87792","0.0-6.0-0.38","FAMI","2","m","rechts","22","","fixation","","","",""
"2355","img/30_120.png","74","image-keyboard-response","83","90165","0.0-6.0-1.38","FAMI","2","m","rechts","22","","","self","j","30","true"
"null","<div style=""font-size:60px;"">+</div>","null","html-keyboard-response","84","90522","0.0-6.0-0.39","FAMI","2","m","rechts","22","","fixation","","","",""
"733","img/0_30.png","74","image-keyboard-response","85","91275","0.0-6.0-1.39","FAMI","2","m","rechts","22","","","self","j","0","true"
"null","<div style=""font-size:60px;"">+</div>","null","html-keyboard-response","86","91631","0.0-6.0-0.40","FAMI","2","m","rechts","22","","fixation","","","",""
"1023","img/120_90.png","70","image-keyboard-response","87","92671","0.0-6.0-1.40","FAMI","2","m","rechts","22","","","self","f","120","true"
"null","<div style=""font-size:60px;"">+</div>","null","html-keyboard-response","88","92991","0.0-6.0-0.41","FAMI","2","m","rechts","22","","fixation","","","",""
"683","img/0_210.png","70","image-keyboard-response","89","93692","0.0-6.0-1.41","FAMI","2","m","rechts","22","","","self","f","0","true"
"null","<div style=""font-size:60px;"">+</div>","null","html-keyboard-response","90","94106","0.0-6.0-0.42","FAMI","2","m","rechts","22","","fixation","","","",""
"1383","img/60_330.png","70","image-keyboard-response","91","95506","0.0-6.0-1.42","FAMI","2","m","rechts","22","","","self","f","60","true"
"null","<div style=""font-size:60px;"">+</div>","null","html-keyboard-response","92","95934","0.0-6.0-0.43","FAMI","2","m","rechts","22","","fixation","","","",""
"1365","img/30_90.png","74","image-keyboard-response","93","97316","0.0-6.0-1.43","FAMI","2","m","rechts","22","","","self","j","30","true"
"null","<div style=""font-size:60px;"">+</div>","null","html-keyboard-response","94","97727","0.0-6.0-0.44","FAMI","2","m","rechts","22","","fixation","","","",""
"1350","img/60_180.png","74","image-keyboard-response","95","99095","0.0-6.0-1.44","FAMI","2","m","rechts","22","","","self","j","60","true"
"null","<div style=""font-size:60px;"">+</div>","null","html-keyboard-response","96","99398","0.0-6.0-0.45","FAMI","2","m","rechts","22","","fixation","","","",""
"1398","img/120_30.png","74","image-keyboard-response","97","100814","0.0-6.0-1.45","FAMI","2","m","rechts","22","","","self","j","120","true"
"null","<div style=""font-size:60px;"">+</div>","null","html-keyboard-response","98","101133","0.0-6.0-0.46","FAMI","2","m","rechts","22","","fixation","","","",""
"1173","img/L150_180.png","70","image-keyboard-response","99","102323","0.0-6.0-1.46","FAMI","2","m","rechts","22","","","self","f","150","true"
"null","<div style=""font-size:60px;"">+</div>","null","html-keyboard-response","100","102632","0.0-6.0-0.47","FAMI","2","m","rechts","22","","fixation","","","",""
"1956","img/60_90.png","74","image-keyboard-response","101","104606","0.0-6.0-1.47","FAMI","2","m","rechts","22","","","self","j","60","true"
"null","<div style=""font-size:60px;"">+</div>","null","html-keyboard-response","102","104965","0.0-6.0-0.48","FAMI","2","m","rechts","22","","fixation","","","",""
"2359","img/60_210.png","70","image-keyboard-response","103","107346","0.0-6.0-1.48","FAMI","2","m","rechts","22","","","self","j","60","false"
"null","<div style=""font-size:60px;"">+</div>","null","html-keyboard-response","104","107654","0.0-6.0-0.49","FAMI","2","m","rechts","22","","fixation","","","",""
"1701","img/30_300.png","70","image-keyboard-response","105","109376","0.0-6.0-1.49","FAMI","2","m","rechts","22","","","self","f","30","true"
"null","<div style=""font-size:60px;"">+</div>","null","html-keyboard-response","106","109887","0.0-6.0-0.50","FAMI","2","m","rechts","22","","fixation","","","",""
"948","img/90_180.png","74","image-keyboard-response","107","110849","0.0-6.0-1.50","FAMI","2","m","rechts","22","","","self","j","90","true"
"null","<div style=""font-size:60px;"">+</div>","null","html-keyboard-response","108","111358","0.0-6.0-0.51","FAMI","2","m","rechts","22","","fixation","","","",""
"761","img/0_120.png","74","image-keyboard-response","109","112134","0.0-6.0-1.51","FAMI","2","m","rechts","22","","","self","j","0","true"
"null","<div style=""font-size:60px;"">+</div>","null","html-keyboard-response","110","112559","0.0-6.0-0.52","FAMI","2","m","rechts","22","","fixation","","","",""
"644","img/0_120.png","74","image-keyboard-response","111","113212","0.0-6.0-1.52","FAMI","2","m","rechts","22","","","self","j","0","true"
"null","<div style=""font-size:60px;"">+</div>","null","html-keyboard-response","112","113576","0.0-6.0-0.53","FAMI","2","m","rechts","22","","fixation","","","",""
"2621","img/L30_180.png","70","image-keyboard-response","113","116210","0.0-6.0-1.53","FAMI","2","m","rechts","22","","","self","f","30","true"
"null","<div style=""font-size:60px;"">+</div>","null","html-keyboard-response","114","116535","0.0-6.0-0.54","FAMI","2","m","rechts","22","","fixation","","","",""
"802","img/0_150.png","74","image-keyboard-response","115","117351","0.0-6.0-1.54","FAMI","2","m","rechts","22","","","self","j","0","true"
"null","<div style=""font-size:60px;"">+</div>","null","html-keyboard-response","116","117861","0.0-6.0-0.55","FAMI","2","m","rechts","22","","fixation","","","",""
"2288","img/30_240.png","70","image-keyboard-response","117","120160","0.0-6.0-1.55","FAMI","2","m","rechts","22","","","self","f","30","true"
"null","<div style=""font-size:60px;"">+</div>","null","html-keyboard-response","118","120561","0.0-6.0-0.56","FAMI","2","m","rechts","22","","fixation","","","",""
"1092","img/90_210.png","74","image-keyboard-response","119","121662","0.0-6.0-1.56","FAMI","2","m","rechts","22","","","self","j","90","true"
"null","<div style=""font-size:60px;"">+</div>","null","html-keyboard-response","120","121968","0.0-6.0-0.57","FAMI","2","m","rechts","22","","fixation","","","",""
"null","img/150_60.png","null","image-keyboard-response","121","124996","0.0-6.0-1.57","FAMI","2","m","rechts","22","","","self","f","150","false"
"null","<div style=""font-size:60px;"">+</div>","null","html-keyboard-response","122","125324","0.0-6.0-0.58","FAMI","2","m","rechts","22","","fixation","","","",""
"1107","img/120_210.png","74","image-keyboard-response","123","126442","0.0-6.0-1.58","FAMI","2","m","rechts","22","","","self","j","120","true"
"null","<div style=""font-size:60px;"">+</div>","null","html-keyboard-response","124","126955","0.0-6.0-0.59","FAMI","2","m","rechts","22","","fixation","","","",""
"1365","img/30_270.png","70","image-keyboard-response","125","128333","0.0-6.0-1.59","FAMI","2","m","rechts","22","","","self","f","30","true"
"null","<div style=""font-size:60px;"">+</div>","null","html-keyboard-response","126","128645","0.0-6.0-0.60","FAMI","2","m","rechts","22","","fixation","","","",""
"1120","img/60_210.png","74","image-keyboard-response","127","129773","0.0-6.0-1.60","FAMI","2","m","rechts","22","","","self","j","60","true"
"null","<div style=""font-size:60px;"">+</div>","null","html-keyboard-response","128","130177","0.0-6.0-0.61","FAMI","2","m","rechts","22","","fixation","","","",""
"1148","img/60_30.png","74","image-keyboard-response","129","131337","0.0-6.0-1.61","FAMI","2","m","rechts","22","","","self","j","60","true"
"null","<div style=""font-size:60px;"">+</div>","null","html-keyboard-response","130","131645","0.0-6.0-0.62","FAMI","2","m","rechts","22","","fixation","","","",""
"995","img/L60_180.png","70","image-keyboard-response","131","132653","0.0-6.0-1.62","FAMI","2","m","rechts","22","","","self","f","60","true"
"null","<div style=""font-size:60px;"">+</div>","null","html-keyboard-response","132","133160","0.0-6.0-0.63","FAMI","2","m","rechts","22","","fixation","","","",""
"1047","img/30_90.png","74","image-keyboard-response","133","134216","0.0-6.0-1.63","FAMI","2","m","rechts","22","","","self","j","30","true"
"null","<div style=""font-size:60px;"">+</div>","null","html-keyboard-response","134","134584","0.0-6.0-0.64","FAMI","2","m","rechts","22","","fixation","","","",""
"970","img/120_30.png","70","image-keyboard-response","135","135565","0.0-6.0-1.64","FAMI","2","m","rechts","22","","","self","j","120","false"
"null","<div style=""font-size:60px;"">+</div>","null","html-keyboard-response","136","136022","0.0-6.0-0.65","FAMI","2","m","rechts","22","","fixation","","","",""
"1029","img/150_180.png","74","image-keyboard-response","137","137064","0.0-6.0-1.65","FAMI","2","m","rechts","22","","","self","j","150","true"
"null","<div style=""font-size:60px;"">+</div>","null","html-keyboard-response","138","137428","0.0-6.0-0.66","FAMI","2","m","rechts","22","","fixation","","","",""
"611","img/0_90.png","74","image-keyboard-response","139","138052","0.0-6.0-1.66","FAMI","2","m","rechts","22","","","self","j","0","true"
"null","<div style=""font-size:60px;"">+</div>","null","html-keyboard-response","140","138523","0.0-6.0-0.67","FAMI","2","m","rechts","22","","fixation","","","",""
"905","img/60_180.png","74","image-keyboard-response","141","139437","0.0-6.0-1.67","FAMI","2","m","rechts","22","","","self","j","60","true"
"null","<div style=""font-size:60px;"">+</div>","null","html-keyboard-response","142","139849","0.0-6.0-0.68","FAMI","2","m","rechts","22","","fixation","","","",""
"1128","img/120_90.png","70","image-keyboard-response","143","140990","0.0-6.0-1.68","FAMI","2","m","rechts","22","","","self","f","120","true"
"null","<div style=""font-size:60px;"">+</div>","null","html-keyboard-response","144","141398","0.0-6.0-0.69","FAMI","2","m","rechts","22","","fixation","","","",""
"955","img/120_150.png","70","image-keyboard-response","145","142363","0.0-6.0-1.69","FAMI","2","m","rechts","22","","","self","f","120","true"
"null","<div style=""font-size:60px;"">+</div>","null","html-keyboard-response","146","142663","0.0-6.0-0.70","FAMI","2","m","rechts","22","","fixation","","","",""
"844","img/120_180.png","74","image-keyboard-response","147","143520","0.0-6.0-1.70","FAMI","2","m","rechts","22","","","self","j","120","true"
"null","<div style=""font-size:60px;"">+</div>","null","html-keyboard-response","148","143899","0.0-6.0-0.71","FAMI","2","m","rechts","22","","fixation","","","",""
"987","img/90_180.png","74","image-keyboard-response","149","144894","0.0-6.0-1.71","FAMI","2","m","rechts","22","","","self","j","90","true"
"null","<div style=""font-size:60px;"">+</div>","null","html-keyboard-response","150","145211","0.0-6.0-0.72","FAMI","2","m","rechts","22","","fixation","","","",""
"1244","img/90_60.png","74","image-keyboard-response","151","146467","0.0-6.0-1.72","FAMI","2","m","rechts","22","","","self","j","90","true"
"null","<div style=""font-size:60px;"">+</div>","null","html-keyboard-response","152","146883","0.0-6.0-0.73","FAMI","2","m","rechts","22","","fixation","","","",""
"1085","img/L150_180.png","70","image-keyboard-response","153","147977","0.0-6.0-1.73","FAMI","2","m","rechts","22","","","self","f","150","true"
"null","<div style=""font-size:60px;"">+</div>","null","html-keyboard-response","154","148288","0.0-6.0-0.74","FAMI","2","m","rechts","22","","fixation","","","",""
"1168","img/60_150.png","70","image-keyboard-response","155","149462","0.0-6.0-1.74","FAMI","2","m","rechts","22","","","self","f","60","true"
"null","<div style=""font-size:60px;"">+</div>","null","html-keyboard-response","156","149883","0.0-6.0-0.75","FAMI","2","m","rechts","22","","fixation","","","",""
"1040","img/90_300.png","70","image-keyboard-response","157","150935","0.0-6.0-1.75","FAMI","2","m","rechts","22","","","self","f","90","true"
"null","<div style=""font-size:60px;"">+</div>","null","html-keyboard-response","158","151363","0.0-6.0-0.76","FAMI","2","m","rechts","22","","fixation","","","",""
"731","img/0_60.png","74","image-keyboard-response","159","152104","0.0-6.0-1.76","FAMI","2","m","rechts","22","","","self","j","0","true"
"null","<div style=""font-size:60px;"">+</div>","null","html-keyboard-response","160","152474","0.0-6.0-0.77","FAMI","2","m","rechts","22","","fixation","","","",""
"856","img/90_30.png","70","image-keyboard-response","161","153341","0.0-6.0-1.77","FAMI","2","m","rechts","22","","","self","j","90","false"
"null","<div style=""font-size:60px;"">+</div>","null","html-keyboard-response","162","153848","0.0-6.0-0.78","FAMI","2","m","rechts","22","","fixation","","","",""
"606","img/0_330.png","70","image-keyboard-response","163","154467","0.0-6.0-1.78","FAMI","2","m","rechts","22","","","self","f","0","true"
"null","<div style=""font-size:60px;"">+</div>","null","html-keyboard-response","164","154848","0.0-6.0-0.79","FAMI","2","m","rechts","22","","fixation","","","",""
"854","img/90_150.png","70","image-keyboard-response","165","155717","0.0-6.0-1.79","FAMI","2","m","rechts","22","","","self","f","90","true"
"null","<div style=""font-size:60px;"">+</div>","null","html-keyboard-response","166","156146","0.0-6.0-0.80","FAMI","2","m","rechts","22","","fixation","","","",""
"848","img/150_270.png","74","image-keyboard-response","167","157008","0.0-6.0-1.80","FAMI","2","m","rechts","22","","","self","j","150","true"
"null","<div style=""font-size:60px;"">+</div>","null","html-keyboard-response","168","157364","0.0-6.0-0.81","FAMI","2","m","rechts","22","","fixation","","","",""
"894","img/L120_180.png","70","image-keyboard-response","169","158272","0.0-6.0-1.81","FAMI","2","m","rechts","22","","","self","f","120","true"
"null","<div style=""font-size:60px;"">+</div>","null","html-keyboard-response","170","158738","0.0-6.0-0.82","FAMI","2","m","rechts","22","","fixation","","","",""
"1591","img/150_120.png","70","image-keyboard-response","171","160340","0.0-6.0-1.82","FAMI","2","m","rechts","22","","","self","f","150","true"
"null","<div style=""font-size:60px;"">+</div>","null","html-keyboard-response","172","160644","0.0-6.0-0.83","FAMI","2","m","rechts","22","","fixation","","","",""
"1112","img/90_120.png","70","image-keyboard-response","173","161770","0.0-6.0-1.83","FAMI","2","m","rechts","22","","","self","f","90","true"
"null","<div style=""font-size:60px;"">+</div>","null","html-keyboard-response","174","162273","0.0-6.0-0.84","FAMI","2","m","rechts","22","","fixation","","","",""
"609","img/0_300.png","70","image-keyboard-response","175","162894","0.0-6.0-1.84","FAMI","2","m","rechts","22","","","self","f","0","true"
"null","<div style=""font-size:60px;"">+</div>","null","html-keyboard-response","176","163211","0.0-6.0-0.85","FAMI","2","m","rechts","22","","fixation","","","",""
"1247","img/60_330.png","70","image-keyboard-response","177","164468","0.0-6.0-1.85","FAMI","2","m","rechts","22","","","self","f","60","true"
"null","<div style=""font-size:60px;"">+</div>","null","html-keyboard-response","178","164883","0.0-6.0-0.86","FAMI","2","m","rechts","22","","fixation","","","",""
"856","img/0_30.png","74","image-keyboard-response","179","165752","0.0-6.0-1.86","FAMI","2","m","rechts","22","","","self","j","0","true"
"null","<div style=""font-size:60px;"">+</div>","null","html-keyboard-response","180","166054","0.0-6.0-0.87","FAMI","2","m","rechts","22","","fixation","","","",""
"639","img/0_270.png","70","image-keyboard-response","181","166706","0.0-6.0-1.87","FAMI","2","m","rechts","22","","","self","f","0","true"
"null","<div style=""font-size:60px;"">+</div>","null","html-keyboard-response","182","167069","0.0-6.0-0.88","FAMI","2","m","rechts","22","","fixation","","","",""
"577","img/0_210.png","70","image-keyboard-response","183","167663","0.0-6.0-1.88","FAMI","2","m","rechts","22","","","self","f","0","true"
"null","<div style=""font-size:60px;"">+</div>","null","html-keyboard-response","184","168038","0.0-6.0-0.89","FAMI","2","m","rechts","22","","fixation","","","",""
"1772","img/30_120.png","74","image-keyboard-response","185","169823","0.0-6.0-1.89","FAMI","2","m","rechts","22","","","self","j","30","true"
"null","<div style=""font-size:60px;"">+</div>","null","html-keyboard-response","186","170178","0.0-6.0-0.90","FAMI","2","m","rechts","22","","fixation","","","",""
"642","img/0_240.png","70","image-keyboard-response","187","170836","0.0-6.0-1.90","FAMI","2","m","rechts","22","","","self","f","0","true"
"null","<div style=""font-size:60px;"">+</div>","null","html-keyboard-response","188","171208","0.0-6.0-0.91","FAMI","2","m","rechts","22","","fixation","","","",""
"980","img/150_300.png","74","image-keyboard-response","189","172198","0.0-6.0-1.91","FAMI","2","m","rechts","22","","","self","j","150","true"
"null","<div style=""font-size:60px;"">+</div>","null","html-keyboard-response","190","172568","0.0-6.0-0.92","FAMI","2","m","rechts","22","","fixation","","","",""
"796","img/150_240.png","74","image-keyboard-response","191","173379","0.0-6.0-1.92","FAMI","2","m","rechts","22","","","self","j","150","true"
"null","<div style=""font-size:60px;"">+</div>","null","html-keyboard-response","192","173803","0.0-6.0-0.93","FAMI","2","m","rechts","22","","fixation","","","",""
"1174","img/30_300.png","70","image-keyboard-response","193","174987","0.0-6.0-1.93","FAMI","2","m","rechts","22","","","self","f","30","true"
"null","<div style=""font-size:60px;"">+</div>","null","html-keyboard-response","194","175412","0.0-6.0-0.94","FAMI","2","m","rechts","22","","fixation","","","",""
"924","img/120_270.png","74","image-keyboard-response","195","176349","0.0-6.0-1.94","FAMI","2","m","rechts","22","","","self","j","120","true"
"null","<div style=""font-size:60px;"">+</div>","null","html-keyboard-response","196","176725","0.0-6.0-0.95","FAMI","2","m","rechts","22","","fixation","","","",""
"1217","img/60_90.png","74","image-keyboard-response","197","177957","0.0-6.0-1.95","FAMI","2","m","rechts","22","","","self","j","60","true"
"null","<div style=""font-size:60px;"">+</div>","null","html-keyboard-response","198","178320","0.0-6.0-0.96","FAMI","2","m","rechts","22","","fixation","","","",""
"996","img/90_240.png","74","image-keyboard-response","199","179329","0.0-6.0-1.96","FAMI","2","m","rechts","22","","","self","j","90","true"
"null","<div style=""font-size:60px;"">+</div>","null","html-keyboard-response","200","179757","0.0-6.0-0.97","FAMI","2","m","rechts","22","","fixation","","","",""
"931","img/60_270.png","70","image-keyboard-response","201","180701","0.0-6.0-1.97","FAMI","2","m","rechts","22","","","self","f","60","true"
"null","<div style=""font-size:60px;"">+</div>","null","html-keyboard-response","202","181151","0.0-6.0-0.98","FAMI","2","m","rechts","22","","fixation","","","",""
"962","img/L90_180.png","70","image-keyboard-response","203","182130","0.0-6.0-1.98","FAMI","2","m","rechts","22","","","self","f","90","true"
"null","<div style=""font-size:60px;"">+</div>","null","html-keyboard-response","204","182494","0.0-6.0-0.99","FAMI","2","m","rechts","22","","fixation","","","",""
"1582","img/90_330.png","70","image-keyboard-response","205","184090","0.0-6.0-1.99","FAMI","2","m","rechts","22","","","self","f","90","true"
"null","<div style=""font-size:60px;"">+</div>","null","html-keyboard-response","206","184602","0.0-6.0-0.100","FAMI","2","m","rechts","22","","fixation","","","",""
"1146","img/30_60.png","74","image-keyboard-response","207","185765","0.0-6.0-1.100","FAMI","2","m","rechts","22","","","self","j","30","true"
"null","<div style=""font-size:60px;"">+</div>","null","html-keyboard-response","208","186225","0.0-6.0-0.101","FAMI","2","m","rechts","22","","fixation","","","",""
"961","img/150_90.png","70","image-keyboard-response","209","187195","0.0-6.0-1.101","FAMI","2","m","rechts","22","","","self","f","150","true"
"null","<div style=""font-size:60px;"">+</div>","null","html-keyboard-response","210","187562","0.0-6.0-0.102","FAMI","2","m","rechts","22","","fixation","","","",""
"2412","img/120_330.png","70","image-keyboard-response","211","189988","0.0-6.0-1.102","FAMI","2","m","rechts","22","","","self","f","120","true"
"null","<div style=""font-size:60px;"">+</div>","null","html-keyboard-response","212","190392","0.0-6.0-0.103","FAMI","2","m","rechts","22","","fixation","","","",""
"1244","img/30_180.png","74","image-keyboard-response","213","191649","0.0-6.0-1.103","FAMI","2","m","rechts","22","","","self","j","30","true"
"null","<div style=""font-size:60px;"">+</div>","null","html-keyboard-response","214","192173","0.0-6.0-0.104","FAMI","2","m","rechts","22","","fixation","","","",""
"1613","img/120_30.png","74","image-keyboard-response","215","193799","0.0-6.0-1.104","FAMI","2","m","rechts","22","","","self","j","120","true"
"null","<div style=""font-size:60px;"">+</div>","null","html-keyboard-response","216","194220","0.0-6.0-0.105","FAMI","2","m","rechts","22","","fixation","","","",""
"962","img/90_180.png","74","image-keyboard-response","217","195191","0.0-6.0-1.105","FAMI","2","m","rechts","22","","","self","j","90","true"
"null","<div style=""font-size:60px;"">+</div>","null","html-keyboard-response","218","195708","0.0-6.0-0.106","FAMI","2","m","rechts","22","","fixation","","","",""
"732","img/0_30.png","74","image-keyboard-response","219","196453","0.0-6.0-1.106","FAMI","2","m","rechts","22","","","self","j","0","true"
"null","<div style=""font-size:60px;"">+</div>","null","html-keyboard-response","220","196969","0.0-6.0-0.107","FAMI","2","m","rechts","22","","fixation","","","",""
"572","img/0_120.png","74","image-keyboard-response","221","197554","0.0-6.0-1.107","FAMI","2","m","rechts","22","","","self","j","0","true"
"null","<div style=""font-size:60px;"">+</div>","null","html-keyboard-response","222","197923","0.0-6.0-0.108","FAMI","2","m","rechts","22","","fixation","","","",""
"979","img/60_30.png","74","image-keyboard-response","223","198917","0.0-6.0-1.108","FAMI","2","m","rechts","22","","","self","j","60","true"
"null","<div style=""font-size:60px;"">+</div>","null","html-keyboard-response","224","199298","0.0-6.0-0.109","FAMI","2","m","rechts","22","","fixation","","","",""
"1427","img/90_330.png","70","image-keyboard-response","225","200739","0.0-6.0-1.109","FAMI","2","m","rechts","22","","","self","f","90","true"
"null","<div style=""font-size:60px;"">+</div>","null","html-keyboard-response","226","201095","0.0-6.0-0.110","FAMI","2","m","rechts","22","","fixation","","","",""
"1454","img/150_60.png","70","image-keyboard-response","227","202563","0.0-6.0-1.110","FAMI","2","m","rechts","22","","","self","f","150","true"
"null","<div style=""font-size:60px;"">+</div>","null","html-keyboard-response","228","202926","0.0-6.0-0.111","FAMI","2","m","rechts","22","","fixation","","","",""
"1116","img/150_180.png","74","image-keyboard-response","229","204054","0.0-6.0-1.111","FAMI","2","m","rechts","22","","","self","j","150","true"
"null","<div style=""font-size:60px;"">+</div>","null","html-keyboard-response","230","204566","0.0-6.0-0.112","FAMI","2","m","rechts","22","","fixation","","","",""
"1043","img/L60_180.png","70","image-keyboard-response","231","205622","0.0-6.0-1.112","FAMI","2","m","rechts","22","","","self","f","60","true"
"null","<div style=""font-size:60px;"">+</div>","null","html-keyboard-response","232","206098","0.0-6.0-0.113","FAMI","2","m","rechts","22","","fixation","","","",""
"1016","img/150_90.png","70","image-keyboard-response","233","207130","0.0-6.0-1.113","FAMI","2","m","rechts","22","","","self","f","150","true"
"null","<div style=""font-size:60px;"">+</div>","null","html-keyboard-response","234","207645","0.0-6.0-0.114","FAMI","2","m","rechts","22","","fixation","","","",""
"755","img/0_210.png","70","image-keyboard-response","235","208412","0.0-6.0-1.114","FAMI","2","m","rechts","22","","","self","f","0","true"
"null","<div style=""font-size:60px;"">+</div>","null","html-keyboard-response","236","208926","0.0-6.0-0.115","FAMI","2","m","rechts","22","","fixation","","","",""
"824","img/L90_180.png","70","image-keyboard-response","237","209762","0.0-6.0-1.115","FAMI","2","m","rechts","22","","","self","f","90","true"
"null","<div style=""font-size:60px;"">+</div>","null","html-keyboard-response","238","210082","0.0-6.0-0.116","FAMI","2","m","rechts","22","","fixation","","","",""
"1118","img/60_180.png","74","image-keyboard-response","239","211213","0.0-6.0-1.116","FAMI","2","m","rechts","22","","","self","j","60","true"
"null","<div style=""font-size:60px;"">+</div>","null","html-keyboard-response","240","211723","0.0-6.0-0.117","FAMI","2","m","rechts","22","","fixation","","","",""
"779","img/L120_180.png","70","image-keyboard-response","241","212516","0.0-6.0-1.117","FAMI","2","m","rechts","22","","","self","f","120","true"
"null","<div style=""font-size:60px;"">+</div>","null","html-keyboard-response","242","212848","0.0-6.0-0.118","FAMI","2","m","rechts","22","","fixation","","","",""
"1177","img/30_300.png","70","image-keyboard-response","243","214038","0.0-6.0-1.118","FAMI","2","m","rechts","22","","","self","f","30","true"
"null","<div style=""font-size:60px;"">+</div>","null","html-keyboard-response","244","214351","0.0-6.0-0.119","FAMI","2","m","rechts","22","","fixation","","","",""
"966","img/60_150.png","70","image-keyboard-response","245","215329","0.0-6.0-1.119","FAMI","2","m","rechts","22","","","self","f","60","true"
"null","<div style=""font-size:60px;"">+</div>","null","html-keyboard-response","246","215805","0.0-6.0-0.120","FAMI","2","m","rechts","22","","fixation","","","",""
"830","img/120_180.png","74","image-keyboard-response","247","216648","0.0-6.0-1.120","FAMI","2","m","rechts","22","","","self","j","120","true"
"null","<div style=""font-size:60px;"">+</div>","null","html-keyboard-response","248","217054","0.0-6.0-0.121","FAMI","2","m","rechts","22","","fixation","","","",""
"862","img/120_210.png","74","image-keyboard-response","249","217929","0.0-6.0-1.121","FAMI","2","m","rechts","22","","","self","j","120","true"
"null","<div style=""font-size:60px;"">+</div>","null","html-keyboard-response","250","218340","0.0-6.0-0.122","FAMI","2","m","rechts","22","","fixation","","","",""
"770","img/30_270.png","70","image-keyboard-response","251","219122","0.0-6.0-1.122","FAMI","2","m","rechts","22","","","self","f","30","true"
"null","<div style=""font-size:60px;"">+</div>","null","html-keyboard-response","252","219531","0.0-6.0-0.123","FAMI","2","m","rechts","22","","fixation","","","",""
"658","img/0_300.png","70","image-keyboard-response","253","220202","0.0-6.0-1.123","FAMI","2","m","rechts","22","","","self","f","0","true"
"null","<div style=""font-size:60px;"">+</div>","null","html-keyboard-response","254","220607","0.0-6.0-0.124","FAMI","2","m","rechts","22","","fixation","","","",""
"617","img/0_240.png","70","image-keyboard-response","255","221237","0.0-6.0-1.124","FAMI","2","m","rechts","22","","","self","f","0","true"
"null","<div style=""font-size:60px;"">+</div>","null","html-keyboard-response","256","221656","0.0-6.0-0.125","FAMI","2","m","rechts","22","","fixation","","","",""
"634","img/0_60.png","70","image-keyboard-response","257","222303","0.0-6.0-1.125","FAMI","2","m","rechts","22","","","self","j","0","false"
"null","<div style=""font-size:60px;"">+</div>","null","html-keyboard-response","258","222718","0.0-6.0-0.126","FAMI","2","m","rechts","22","","fixation","","","",""
"1769","img/60_90.png","74","image-keyboard-response","259","224500","0.0-6.0-1.126","FAMI","2","m","rechts","22","","","self","j","60","true"
"null","<div style=""font-size:60px;"">+</div>","null","html-keyboard-response","260","224813","0.0-6.0-0.127","FAMI","2","m","rechts","22","","fixation","","","",""
"1123","img/120_90.png","70","image-keyboard-response","261","225951","0.0-6.0-1.127","FAMI","2","m","rechts","22","","","self","f","120","true"
"null","<div style=""font-size:60px;"">+</div>","null","html-keyboard-response","262","226265","0.0-6.0-0.128","FAMI","2","m","rechts","22","","fixation","","","",""
"2381","img/L150_180.png","70","image-keyboard-response","263","228657","0.0-6.0-1.128","FAMI","2","m","rechts","22","","","self","f","150","true"
"null","<div style=""font-size:60px;"">+</div>","null","html-keyboard-response","264","229057","0.0-6.0-0.129","FAMI","2","m","rechts","22","","fixation","","","",""
"1055","img/90_30.png","74","image-keyboard-response","265","230125","0.0-6.0-1.129","FAMI","2","m","rechts","22","","","self","j","90","true"
"null","<div style=""font-size:60px;"">+</div>","null","html-keyboard-response","266","230433","0.0-6.0-0.130","FAMI","2","m","rechts","22","","fixation","","","",""
"917","img/60_210.png","74","image-keyboard-response","267","231363","0.0-6.0-1.130","FAMI","2","m","rechts","22","","","self","j","60","true"
"null","<div style=""font-size:60px;"">+</div>","null","html-keyboard-response","268","231870","0.0-6.0-0.131","FAMI","2","m","rechts","22","","fixation","","","",""
"1174","img/30_60.png","74","image-keyboard-response","269","233059","0.0-6.0-1.131","FAMI","2","m","rechts","22","","","self","j","30","true"
"null","<div style=""font-size:60px;"">+</div>","null","html-keyboard-response","270","233438","0.0-6.0-0.132","FAMI","2","m","rechts","22","","fixation","","","",""
"1060","img/90_300.png","70","image-keyboard-response","271","234511","0.0-6.0-1.132","FAMI","2","m","rechts","22","","","self","f","90","true"
"null","<div style=""font-size:60px;"">+</div>","null","html-keyboard-response","272","234969","0.0-6.0-0.133","FAMI","2","m","rechts","22","","fixation","","","",""
"766","img/30_90.png","74","image-keyboard-response","273","235749","0.0-6.0-1.133","FAMI","2","m","rechts","22","","","self","j","30","true"
"null","<div style=""font-size:60px;"">+</div>","null","html-keyboard-response","274","236125","0.0-6.0-0.134","FAMI","2","m","rechts","22","","fixation","","","",""
"961","img/150_270.png","70","image-keyboard-response","275","237100","0.0-6.0-1.134","FAMI","2","m","rechts","22","","","self","j","150","false"
"null","<div style=""font-size:60px;"">+</div>","null","html-keyboard-response","276","237581","0.0-6.0-0.135","FAMI","2","m","rechts","22","","fixation","","","",""
"743","img/150_300.png","74","image-keyboard-response","277","238337","0.0-6.0-1.135","FAMI","2","m","rechts","22","","","self","j","150","true"
"null","<div style=""font-size:60px;"">+</div>","null","html-keyboard-response","278","238661","0.0-6.0-0.136","FAMI","2","m","rechts","22","","fixation","","","",""
"1620","img/30_120.png","74","image-keyboard-response","279","240294","0.0-6.0-1.136","FAMI","2","m","rechts","22","","","self","j","30","true"
"null","<div style=""font-size:60px;"">+</div>","null","html-keyboard-response","280","240614","0.0-6.0-0.137","FAMI","2","m","rechts","22","","fixation","","","",""
"984","img/90_240.png","70","image-keyboard-response","281","241611","0.0-6.0-1.137","FAMI","2","m","rechts","22","","","self","j","90","false"
"null","<div style=""font-size:60px;"">+</div>","null","html-keyboard-response","282","241942","0.0-6.0-0.138","FAMI","2","m","rechts","22","","fixation","","","",""
"994","img/90_60.png","74","image-keyboard-response","283","242949","0.0-6.0-1.138","FAMI","2","m","rechts","22","","","self","j","90","true"
"null","<div style=""font-size:60px;"">+</div>","null","html-keyboard-response","284","243411","0.0-6.0-0.139","FAMI","2","m","rechts","22","","fixation","","","",""
"1562","img/90_150.png","70","image-keyboard-response","285","244987","0.0-6.0-1.139","FAMI","2","m","rechts","22","","","self","f","90","true"
"null","<div style=""font-size:60px;"">+</div>","null","html-keyboard-response","286","245488","0.0-6.0-0.140","FAMI","2","m","rechts","22","","fixation","","","",""
"856","img/120_150.png","70","image-keyboard-response","287","246359","0.0-6.0-1.140","FAMI","2","m","rechts","22","","","self","f","120","true"
"null","<div style=""font-size:60px;"">+</div>","null","html-keyboard-response","288","246691","0.0-6.0-0.141","FAMI","2","m","rechts","22","","fixation","","","",""
"2390","img/60_330.png","70","image-keyboard-response","289","249096","0.0-6.0-1.141","FAMI","2","m","rechts","22","","","self","f","60","true"
"null","<div style=""font-size:60px;"">+</div>","null","html-keyboard-response","290","249498","0.0-6.0-0.142","FAMI","2","m","rechts","22","","fixation","","","",""
"987","img/150_240.png","74","image-keyboard-response","291","250498","0.0-6.0-1.142","FAMI","2","m","rechts","22","","","self","j","150","true"
"null","<div style=""font-size:60px;"">+</div>","null","html-keyboard-response","292","250810","0.0-6.0-0.143","FAMI","2","m","rechts","22","","fixation","","","",""
"1970","img/120_270.png","74","image-keyboard-response","293","252795","0.0-6.0-1.143","FAMI","2","m","rechts","22","","","self","j","120","true"
"null","<div style=""font-size:60px;"">+</div>","null","html-keyboard-response","294","253254","0.0-6.0-0.144","FAMI","2","m","rechts","22","","fixation","","","",""
"1010","img/60_270.png","70","image-keyboard-response","295","254277","0.0-6.0-1.144","FAMI","2","m","rechts","22","","","self","f","60","true"
"null","<div style=""font-size:60px;"">+</div>","null","html-keyboard-response","296","254581","0.0-6.0-0.145","FAMI","2","m","rechts","22","","fixation","","","",""
"2723","img/120_330.png","70","image-keyboard-response","297","257319","0.0-6.0-1.145","FAMI","2","m","rechts","22","","","self","f","120","true"
"null","<div style=""font-size:60px;"">+</div>","null","html-keyboard-response","298","257848","0.0-6.0-0.146","FAMI","2","m","rechts","22","","fixation","","","",""
"1108","img/150_120.png","70","image-keyboard-response","299","258969","0.0-6.0-1.146","FAMI","2","m","rechts","22","","","self","f","150","true"
"null","<div style=""font-size:60px;"">+</div>","null","html-keyboard-response","300","259290","0.0-6.0-0.147","FAMI","2","m","rechts","22","","fixation","","","",""
"1951","img/90_120.png","70","image-keyboard-response","301","261255","0.0-6.0-1.147","FAMI","2","m","rechts","22","","","self","f","90","true"
"null","<div style=""font-size:60px;"">+</div>","null","html-keyboard-response","302","261714","0.0-6.0-0.148","FAMI","2","m","rechts","22","","fixation","","","",""
"1256","img/30_240.png","70","image-keyboard-response","303","262987","0.0-6.0-1.148","FAMI","2","m","rechts","22","","","self","f","30","true"
"null","<div style=""font-size:60px;"">+</div>","null","html-keyboard-response","304","263290","0.0-6.0-0.149","FAMI","2","m","rechts","22","","fixation","","","",""
"910","img/0_90.png","74","image-keyboard-response","305","264213","0.0-6.0-1.149","FAMI","2","m","rechts","22","","","self","j","0","true"
"null","<div style=""font-size:60px;"">+</div>","null","html-keyboard-response","306","264682","0.0-6.0-0.150","FAMI","2","m","rechts","22","","fixation","","","",""
"1768","img/30_180.png","74","image-keyboard-response","307","266463","0.0-6.0-1.150","FAMI","2","m","rechts","22","","","self","j","30","true"
"null","<div style=""font-size:60px;"">+</div>","null","html-keyboard-response","308","266775","0.0-6.0-0.151","FAMI","2","m","rechts","22","","fixation","","","",""
"893","img/0_330.png","70","image-keyboard-response","309","267678","0.0-6.0-1.151","FAMI","2","m","rechts","22","","","self","f","0","true"
"null","<div style=""font-size:60px;"">+</div>","null","html-keyboard-response","310","267995","0.0-6.0-0.152","FAMI","2","m","rechts","22","","fixation","","","",""
"715","img/0_150.png","74","image-keyboard-response","311","268723","0.0-6.0-1.152","FAMI","2","m","rechts","22","","","self","j","0","true"
"null","<div style=""font-size:60px;"">+</div>","null","html-keyboard-response","312","269229","0.0-6.0-0.153","FAMI","2","m","rechts","22","","fixation","","","",""
"1035","img/L30_180.png","70","image-keyboard-response","313","270277","0.0-6.0-1.153","FAMI","2","m","rechts","22","","","self","f","30","true"
"null","<div style=""font-size:60px;"">+</div>","null","html-keyboard-response","314","270636","0.0-6.0-0.154","FAMI","2","m","rechts","22","","fixation","","","",""
"1044","img/90_210.png","74","image-keyboard-response","315","271695","0.0-6.0-1.154","FAMI","2","m","rechts","22","","","self","j","90","true"
"null","<div style=""font-size:60px;"">+</div>","null","html-keyboard-response","316","271995","0.0-6.0-0.155","FAMI","2","m","rechts","22","","fixation","","","",""
"641","img/0_270.png","70","image-keyboard-response","317","272649","0.0-6.0-1.155","FAMI","2","m","rechts","22","","","self","f","0","true"
"null","<div style=""font-size:60px;"">+</div>","null","html-keyboard-response","318","273026","0.0-6.0-0.156","FAMI","2","m","rechts","22","","fixation","","","",""
"1278","img/120_150.png","70","image-keyboard-response","319","274315","0.0-6.0-1.156","FAMI","2","m","rechts","22","","","self","f","120","true"
"null","<div style=""font-size:60px;"">+</div>","null","html-keyboard-response","320","274778","0.0-6.0-0.157","FAMI","2","m","rechts","22","","fixation","","","",""
"1467","img/30_90.png","74","image-keyboard-response","321","276262","0.0-6.0-1.157","FAMI","2","m","rechts","22","","","self","j","30","true"
"null","<div style=""font-size:60px;"">+</div>","null","html-keyboard-response","322","276728","0.0-6.0-0.158","FAMI","2","m","rechts","22","","fixation","","","",""
"1296","img/120_30.png","74","image-keyboard-response","323","278039","0.0-6.0-1.158","FAMI","2","m","rechts","22","","","self","j","120","true"
"null","<div style=""font-size:60px;"">+</div>","null","html-keyboard-response","324","278496","0.0-6.0-0.159","FAMI","2","m","rechts","22","","fixation","","","",""
"1018","img/90_30.png","74","image-keyboard-response","325","279524","0.0-6.0-1.159","FAMI","2","m","rechts","22","","","self","j","90","true"
"null","<div style=""font-size:60px;"">+</div>","null","html-keyboard-response","326","279887","0.0-6.0-0.160","FAMI","2","m","rechts","22","","fixation","","","",""
"1243","img/60_150.png","74","image-keyboard-response","327","281143","0.0-6.0-1.160","FAMI","2","m","rechts","22","","","self","f","60","false"
"null","<div style=""font-size:60px;"">+</div>","null","html-keyboard-response","328","281666","0.0-6.0-0.161","FAMI","2","m","rechts","22","","fixation","","","",""
"1524","img/30_300.png","70","image-keyboard-response","329","283203","0.0-6.0-1.161","FAMI","2","m","rechts","22","","","self","f","30","true"
"null","<div style=""font-size:60px;"">+</div>","null","html-keyboard-response","330","283654","0.0-6.0-0.162","FAMI","2","m","rechts","22","","fixation","","","",""
"685","img/0_270.png","70","image-keyboard-response","331","284350","0.0-6.0-1.162","FAMI","2","m","rechts","22","","","self","f","0","true"
"null","<div style=""font-size:60px;"">+</div>","null","html-keyboard-response","332","284654","0.0-6.0-0.163","FAMI","2","m","rechts","22","","fixation","","","",""
"530","img/0_330.png","70","image-keyboard-response","333","285194","0.0-6.0-1.163","FAMI","2","m","rechts","22","","","self","f","0","true"
"null","<div style=""font-size:60px;"">+</div>","null","html-keyboard-response","334","285497","0.0-6.0-0.164","FAMI","2","m","rechts","22","","fixation","","","",""
"1351","img/120_330.png","70","image-keyboard-response","335","286858","0.0-6.0-1.164","FAMI","2","m","rechts","22","","","self","f","120","true"
"null","<div style=""font-size:60px;"">+</div>","null","html-keyboard-response","336","287169","0.0-6.0-0.165","FAMI","2","m","rechts","22","","fixation","","","",""
"1325","img/L30_180.png","70","image-keyboard-response","337","288502","0.0-6.0-1.165","FAMI","2","m","rechts","22","","","self","f","30","true"
"null","<div style=""font-size:60px;"">+</div>","null","html-keyboard-response","338","288930","0.0-6.0-0.166","FAMI","2","m","rechts","22","","fixation","","","",""
"1335","img/L120_180.png","70","image-keyboard-response","339","290280","0.0-6.0-1.166","FAMI","2","m","rechts","22","","","self","f","120","true"
"null","<div style=""font-size:60px;"">+</div>","null","html-keyboard-response","340","290584","0.0-6.0-0.167","FAMI","2","m","rechts","22","","fixation","","","",""
"662","img/0_30.png","74","image-keyboard-response","341","291259","0.0-6.0-1.167","FAMI","2","m","rechts","22","","","self","j","0","true"
"null","<div style=""font-size:60px;"">+</div>","null","html-keyboard-response","342","291788","0.0-6.0-0.168","FAMI","2","m","rechts","22","","fixation","","","",""
"1022","img/30_60.png","74","image-keyboard-response","343","292822","0.0-6.0-1.168","FAMI","2","m","rechts","22","","","self","j","30","true"
"null","<div style=""font-size:60px;"">+</div>","null","html-keyboard-response","344","293342","0.0-6.0-0.169","FAMI","2","m","rechts","22","","fixation","","","",""
"957","img/90_150.png","70","image-keyboard-response","345","294307","0.0-6.0-1.169","FAMI","2","m","rechts","22","","","self","f","90","true"
"null","<div style=""font-size:60px;"">+</div>","null","html-keyboard-response","346","294732","0.0-6.0-0.170","FAMI","2","m","rechts","22","","fixation","","","",""
"1060","img/150_120.png","70","image-keyboard-response","347","295803","0.0-6.0-1.170","FAMI","2","m","rechts","22","","","self","f","150","true"
"null","<div style=""font-size:60px;"">+</div>","null","html-keyboard-response","348","296233","0.0-6.0-0.171","FAMI","2","m","rechts","22","","fixation","","","",""
"1243","img/120_90.png","70","image-keyboard-response","349","297490","0.0-6.0-1.171","FAMI","2","m","rechts","22","","","self","f","120","true"
"null","<div style=""font-size:60px;"">+</div>","null","html-keyboard-response","350","297905","0.0-6.0-0.172","FAMI","2","m","rechts","22","","fixation","","","",""
"1337","img/60_330.png","70","image-keyboard-response","351","299255","0.0-6.0-1.172","FAMI","2","m","rechts","22","","","self","f","60","true"
"null","<div style=""font-size:60px;"">+</div>","null","html-keyboard-response","352","299780","0.0-6.0-0.173","FAMI","2","m","rechts","22","","fixation","","","",""
"969","img/90_330.png","70","image-keyboard-response","353","300762","0.0-6.0-1.173","FAMI","2","m","rechts","22","","","self","f","90","true"
"null","<div style=""font-size:60px;"">+</div>","null","html-keyboard-response","354","301172","0.0-6.0-0.174","FAMI","2","m","rechts","22","","fixation","","","",""
"681","img/0_240.png","70","image-keyboard-response","355","301866","0.0-6.0-1.174","FAMI","2","m","rechts","22","","","self","f","0","true"
"null","<div style=""font-size:60px;"">+</div>","null","html-keyboard-response","356","302173","0.0-6.0-0.175","FAMI","2","m","rechts","22","","fixation","","","",""
"1451","img/30_120.png","74","image-keyboard-response","357","303633","0.0-6.0-1.175","FAMI","2","m","rechts","22","","","self","j","30","true"
"null","<div style=""font-size:60px;"">+</div>","null","html-keyboard-response","358","304158","0.0-6.0-0.176","FAMI","2","m","rechts","22","","fixation","","","",""
"658","img/0_150.png","74","image-keyboard-response","359","304825","0.0-6.0-1.176","FAMI","2","m","rechts","22","","","self","j","0","true"
"null","<div style=""font-size:60px;"">+</div>","null","html-keyboard-response","360","305282","0.0-6.0-0.177","FAMI","2","m","rechts","22","","fixation","","","",""
"592","img/0_90.png","74","image-keyboard-response","361","305883","0.0-6.0-1.177","FAMI","2","m","rechts","22","","","self","j","0","true"
"null","<div style=""font-size:60px;"">+</div>","null","html-keyboard-response","362","306203","0.0-6.0-0.178","FAMI","2","m","rechts","22","","fixation","","","",""
"1144","img/150_300.png","70","image-keyboard-response","363","307357","0.0-6.0-1.178","FAMI","2","m","rechts","22","","","self","j","150","false"
"null","<div style=""font-size:60px;"">+</div>","null","html-keyboard-response","364","307719","0.0-6.0-0.179","FAMI","2","m","rechts","22","","fixation","","","",""
"1099","img/150_60.png","70","image-keyboard-response","365","308831","0.0-6.0-1.179","FAMI","2","m","rechts","22","","","self","f","150","true"
"null","<div style=""font-size:60px;"">+</div>","null","html-keyboard-response","366","309359","0.0-6.0-0.180","FAMI","2","m","rechts","22","","fixation","","","",""
"1053","img/30_270.png","70","image-keyboard-response","367","310428","0.0-6.0-1.180","FAMI","2","m","rechts","22","","","self","f","30","true"
"null","<div style=""font-size:60px;"">+</div>","null","html-keyboard-response","368","310736","0.0-6.0-0.181","FAMI","2","m","rechts","22","","fixation","","","",""
"649","img/30_240.png","70","image-keyboard-response","369","311393","0.0-6.0-1.181","FAMI","2","m","rechts","22","","","self","f","30","true"
"null","<div style=""font-size:60px;"">+</div>","null","html-keyboard-response","370","311766","0.0-6.0-0.182","FAMI","2","m","rechts","22","","fixation","","","",""
"628","img/0_300.png","70","image-keyboard-response","371","312407","0.0-6.0-1.182","FAMI","2","m","rechts","22","","","self","f","0","true"
"null","<div style=""font-size:60px;"">+</div>","null","html-keyboard-response","372","312814","0.0-6.0-0.183","FAMI","2","m","rechts","22","","fixation","","","",""
"1033","img/120_210.png","74","image-keyboard-response","373","313861","0.0-6.0-1.183","FAMI","2","m","rechts","22","","","self","j","120","true"
"null","<div style=""font-size:60px;"">+</div>","null","html-keyboard-response","374","314189","0.0-6.0-0.184","FAMI","2","m","rechts","22","","fixation","","","",""
"578","img/0_60.png","74","image-keyboard-response","375","314782","0.0-6.0-1.184","FAMI","2","m","rechts","22","","","self","j","0","true"
"null","<div style=""font-size:60px;"">+</div>","null","html-keyboard-response","376","315203","0.0-6.0-0.185","FAMI","2","m","rechts","22","","fixation","","","",""
"1039","img/150_90.png","70","image-keyboard-response","377","316256","0.0-6.0-1.185","FAMI","2","m","rechts","22","","","self","f","150","true"
"null","<div style=""font-size:60px;"">+</div>","null","html-keyboard-response","378","316688","0.0-6.0-0.186","FAMI","2","m","rechts","22","","fixation","","","",""
"998","img/30_180.png","74","image-keyboard-response","379","317696","0.0-6.0-1.186","FAMI","2","m","rechts","22","","","self","j","30","true"
"null","<div style=""font-size:60px;"">+</div>","null","html-keyboard-response","380","318161","0.0-6.0-0.187","FAMI","2","m","rechts","22","","fixation","","","",""
"850","img/90_180.png","74","image-keyboard-response","381","319024","0.0-6.0-1.187","FAMI","2","m","rechts","22","","","self","j","90","true"
"null","<div style=""font-size:60px;"">+</div>","null","html-keyboard-response","382","319345","0.0-6.0-0.188","FAMI","2","m","rechts","22","","fixation","","","",""
"782","img/90_210.png","74","image-keyboard-response","383","320137","0.0-6.0-1.188","FAMI","2","m","rechts","22","","","self","j","90","true"
"null","<div style=""font-size:60px;"">+</div>","null","html-keyboard-response","384","320591","0.0-6.0-0.189","FAMI","2","m","rechts","22","","fixation","","","",""
"949","img/90_240.png","74","image-keyboard-response","385","321554","0.0-6.0-1.189","FAMI","2","m","rechts","22","","","self","j","90","true"
"null","<div style=""font-size:60px;"">+</div>","null","html-keyboard-response","386","321935","0.0-6.0-0.190","FAMI","2","m","rechts","22","","fixation","","","",""
"973","img/150_240.png","74","image-keyboard-response","387","322917","0.0-6.0-1.190","FAMI","2","m","rechts","22","","","self","j","150","true"
"null","<div style=""font-size:60px;"">+</div>","null","html-keyboard-response","388","323226","0.0-6.0-0.191","FAMI","2","m","rechts","22","","fixation","","","",""
"1051","img/L90_180.png","70","image-keyboard-response","389","324290","0.0-6.0-1.191","FAMI","2","m","rechts","22","","","self","f","90","true"
"null","<div style=""font-size:60px;"">+</div>","null","html-keyboard-response","390","324757","0.0-6.0-0.192","FAMI","2","m","rechts","22","","fixation","","","",""
"769","img/90_120.png","70","image-keyboard-response","391","325537","0.0-6.0-1.192","FAMI","2","m","rechts","22","","","self","f","90","true"
"null","<div style=""font-size:60px;"">+</div>","null","html-keyboard-response","392","326007","0.0-6.0-0.193","FAMI","2","m","rechts","22","","fixation","","","",""
"1824","img/90_300.png","70","image-keyboard-response","393","327844","0.0-6.0-1.193","FAMI","2","m","rechts","22","","","self","f","90","true"
"null","<div style=""font-size:60px;"">+</div>","null","html-keyboard-response","394","328319","0.0-6.0-0.194","FAMI","2","m","rechts","22","","fixation","","","",""
"1224","img/60_270.png","70","image-keyboard-response","395","329553","0.0-6.0-1.194","FAMI","2","m","rechts","22","","","self","f","60","true"
"null","<div style=""font-size:60px;"">+</div>","null","html-keyboard-response","396","330022","0.0-6.0-0.195","FAMI","2","m","rechts","22","","fixation","","","",""
"857","img/150_180.png","74","image-keyboard-response","397","330892","0.0-6.0-1.195","FAMI","2","m","rechts","22","","","self","j","150","true"
"null","<div style=""font-size:60px;"">+</div>","null","html-keyboard-response","398","331210","0.0-6.0-0.196","FAMI","2","m","rechts","22","","fixation","","","",""
"904","img/120_180.png","74","image-keyboard-response","399","332129","0.0-6.0-1.196","FAMI","2","m","rechts","22","","","self","j","120","true"
"null","<div style=""font-size:60px;"">+</div>","null","html-keyboard-response","400","332446","0.0-6.0-0.197","FAMI","2","m","rechts","22","","fixation","","","",""
"762","img/L150_180.png","70","image-keyboard-response","401","333221","0.0-6.0-1.197","FAMI","2","m","rechts","22","","","self","f","150","true"
"null","<div style=""font-size:60px;"">+</div>","null","html-keyboard-response","402","333680","0.0-6.0-0.198","FAMI","2","m","rechts","22","","fixation","","","",""
"1260","img/60_30.png","74","image-keyboard-response","403","334953","0.0-6.0-1.198","FAMI","2","m","rechts","22","","","self","j","60","true"
"null","<div style=""font-size:60px;"">+</div>","null","html-keyboard-response","404","335320","0.0-6.0-0.199","FAMI","2","m","rechts","22","","fixation","","","",""
"1004","img/120_270.png","74","image-keyboard-response","405","336337","0.0-6.0-1.199","FAMI","2","m","rechts","22","","","self","j","120","true"
"null","<div style=""font-size:60px;"">+</div>","null","html-keyboard-response","406","336656","0.0-6.0-0.200","FAMI","2","m","rechts","22","","fixation","","","",""
"827","img/150_270.png","74","image-keyboard-response","407","337496","0.0-6.0-1.200","FAMI","2","m","rechts","22","","","self","j","150","true"
"null","<div style=""font-size:60px;"">+</div>","null","html-keyboard-response","408","337874","0.0-6.0-0.201","FAMI","2","m","rechts","22","","fixation","","","",""
"1183","img/60_180.png","74","image-keyboard-response","409","339072","0.0-6.0-1.201","FAMI","2","m","rechts","22","","","self","j","60","true"
"null","<div style=""font-size:60px;"">+</div>","null","html-keyboard-response","410","339436","0.0-6.0-0.202","FAMI","2","m","rechts","22","","fixation","","","",""
"922","img/0_210.png","70","image-keyboard-response","411","340363","0.0-6.0-1.202","FAMI","2","m","rechts","22","","","self","f","0","true"
"null","<div style=""font-size:60px;"">+</div>","null","html-keyboard-response","412","340779","0.0-6.0-0.203","FAMI","2","m","rechts","22","","fixation","","","",""
"956","img/60_90.png","74","image-keyboard-response","413","341749","0.0-6.0-1.203","FAMI","2","m","rechts","22","","","self","j","60","true"
"null","<div style=""font-size:60px;"">+</div>","null","html-keyboard-response","414","342156","0.0-6.0-0.204","FAMI","2","m","rechts","22","","fixation","","","",""
"623","img/0_120.png","74","image-keyboard-response","415","342792","0.0-6.0-1.204","FAMI","2","m","rechts","22","","","self","j","0","true"
"null","<div style=""font-size:60px;"">+</div>","null","html-keyboard-response","416","343203","0.0-6.0-0.205","FAMI","2","m","rechts","22","","fixation","","","",""
"813","img/60_210.png","74","image-keyboard-response","417","344030","0.0-6.0-1.205","FAMI","2","m","rechts","22","","","self","j","60","true"
"null","<div style=""font-size:60px;"">+</div>","null","html-keyboard-response","418","344390","0.0-6.0-0.206","FAMI","2","m","rechts","22","","fixation","","","",""
"896","img/90_60.png","74","image-keyboard-response","419","345303","0.0-6.0-1.206","FAMI","2","m","rechts","22","","","self","j","90","true"
"null","<div style=""font-size:60px;"">+</div>","null","html-keyboard-response","420","345708","0.0-6.0-0.207","FAMI","2","m","rechts","22","","fixation","","","",""
"1412","img/L60_180.png","70","image-keyboard-response","421","347138","0.0-6.0-1.207","FAMI","2","m","rechts","22","","","self","f","60","true"
"16446","<p>Du hast in 93% der Versuche korrekt entschieden.</p><p>Deine durchschnittliche Reaktionszeit war  1101ms.</p><p>Dr&uuml;cke eine beliebige Taste, um die Session zu beenden. Vielen Dank!</p>","32","html-keyboard-response","422","363589","0.0-7.0","FAMI","2","m","rechts","22","","","","","",""
