"rt","stimulus","key_press","trial_type","trial_index","time_elapsed","internal_node_id","subject","session","sex","handedness","age","responses","test_part","condition","correct_response","angle","correct"
"1150","<p>Mental Rotation Experiment.</p> <p>Dr&uuml;cke eine beliebige Taste, um anzufangen.</p>","13","html-keyboard-response","0","1163","0.0-0.0","FAMI","1","m","rechts","22","","","","","",""
"4139","","","survey-text","1","5303","0.0-1.0","FAMI","1","m","rechts","22","{""Q0"":""FAMI""}","","","","",""
"3354","","","survey-text","2","8659","0.0-2.0","FAMI","1","m","rechts","22","{""Q0"":""1""}","","","","",""
"1934","","","survey-multi-choice","3","10605","0.0-3.0","FAMI","1","m","rechts","22","{""Q0"":""m"",""Q1"":""rechts""}","","","","",""
"2107","","","survey-text","4","12716","0.0-4.0","FAMI","1","m","rechts","22","{""Q0"":""22""}","","","","",""
"22924","<p> Stell dir vor, dass du vor einem runden Tisch stehst, auf dem sich ein blauer Ball am Tischrand befindet. Entlang des Tischrands ist jeweils ein verschieden langer Pfeil. Nun bewegst du dich entlang dieses Pfeils bis an seine Spitze. Wenn du am Ende des Pfeils angekommen bist, schau zur Tischmitte. </p> <img src='img/90_180.png'></img> <br> <p>Entscheide dann, ob der Ball von deiner neuen (vorgestellten) Position links oder rechts von dir liegt.</p> <p>Dr&uuml;cke die <strong>'f'</strong>-Taste f&uuml;r links, die <strong>'j'</strong>-Taste f&uuml;r rechts.</p> <br><p> Das Bild wird jeweils 1 Sekunde lang pr&auml;sentiert. Du hast 3 Sekunden Zeit eine Entscheidung zu treffen.</p>","74","html-keyboard-response","5","35651","0.0-5.0","FAMI","1","m","rechts","22","","","","","",""
"null","<div style=""font-size:60px;"">+</div>","null","html-keyboard-response","6","37125","0.0-6.0-0.0","FAMI","1","m","rechts","22","","fixation","","","",""
"1249","img/60_150.png","70","image-keyboard-response","7","38395","0.0-6.0-1.0","FAMI","1","m","rechts","22","","","self","f","60","true"
"null","<div style=""font-size:60px;"">+</div>","null","html-keyboard-response","8","38812","0.0-6.0-0.1","FAMI","1","m","rechts","22","","fixation","","","",""
"1013","img/90_120.png","70","image-keyboard-response","9","39842","0.0-6.0-1.1","FAMI","1","m","rechts","22","","","self","f","90","true"
"null","<div style=""font-size:60px;"">+</div>","null","html-keyboard-response","10","40146","0.0-6.0-0.2","FAMI","1","m","rechts","22","","fixation","","","",""
"1231","img/L90_180.png","70","image-keyboard-response","11","41395","0.0-6.0-1.2","FAMI","1","m","rechts","22","","","self","f","90","true"
"null","<div style=""font-size:60px;"">+</div>","null","html-keyboard-response","12","41876","0.0-6.0-0.3","FAMI","1","m","rechts","22","","fixation","","","",""
"1249","img/120_150.png","70","image-keyboard-response","13","43136","0.0-6.0-1.3","FAMI","1","m","rechts","22","","","self","f","120","true"
"null","<div style=""font-size:60px;"">+</div>","null","html-keyboard-response","14","43640","0.0-6.0-0.4","FAMI","1","m","rechts","22","","fixation","","","",""
"1233","img/30_60.png","74","image-keyboard-response","15","44891","0.0-6.0-1.4","FAMI","1","m","rechts","22","","","self","j","30","true"
"null","<div style=""font-size:60px;"">+</div>","null","html-keyboard-response","16","45408","0.0-6.0-0.5","FAMI","1","m","rechts","22","","fixation","","","",""
"1671","img/30_270.png","70","image-keyboard-response","17","47097","0.0-6.0-1.5","FAMI","1","m","rechts","22","","","self","f","30","true"
"null","<div style=""font-size:60px;"">+</div>","null","html-keyboard-response","18","47453","0.0-6.0-0.6","FAMI","1","m","rechts","22","","fixation","","","",""
"2073","img/120_30.png","74","image-keyboard-response","19","49543","0.0-6.0-1.6","FAMI","1","m","rechts","22","","","self","j","120","true"
"null","<div style=""font-size:60px;"">+</div>","null","html-keyboard-response","20","49898","0.0-6.0-0.7","FAMI","1","m","rechts","22","","fixation","","","",""
"1148","img/60_330.png","70","image-keyboard-response","21","51058","0.0-6.0-1.7","FAMI","1","m","rechts","22","","","self","f","60","true"
"null","<div style=""font-size:60px;"">+</div>","null","html-keyboard-response","22","51517","0.0-6.0-0.8","FAMI","1","m","rechts","22","","fixation","","","",""
"1558","img/150_120.png","70","image-keyboard-response","23","53094","0.0-6.0-1.8","FAMI","1","m","rechts","22","","","self","f","150","true"
"null","<div style=""font-size:60px;"">+</div>","null","html-keyboard-response","24","53462","0.0-6.0-0.9","FAMI","1","m","rechts","22","","fixation","","","",""
"1234","img/120_210.png","74","image-keyboard-response","25","54712","0.0-6.0-1.9","FAMI","1","m","rechts","22","","","self","j","120","true"
"null","<div style=""font-size:60px;"">+</div>","null","html-keyboard-response","26","55219","0.0-6.0-0.10","FAMI","1","m","rechts","22","","fixation","","","",""
"1342","img/60_270.png","70","image-keyboard-response","27","56579","0.0-6.0-1.10","FAMI","1","m","rechts","22","","","self","f","60","true"
"null","<div style=""font-size:60px;"">+</div>","null","html-keyboard-response","28","56954","0.0-6.0-0.11","FAMI","1","m","rechts","22","","fixation","","","",""
"936","img/0_150.png","74","image-keyboard-response","29","57907","0.0-6.0-1.11","FAMI","1","m","rechts","22","","","self","j","0","true"
"null","<div style=""font-size:60px;"">+</div>","null","html-keyboard-response","30","58423","0.0-6.0-0.12","FAMI","1","m","rechts","22","","fixation","","","",""
"1149","img/60_90.png","74","image-keyboard-response","31","59584","0.0-6.0-1.12","FAMI","1","m","rechts","22","","","self","j","60","true"
"null","<div style=""font-size:60px;"">+</div>","null","html-keyboard-response","32","59890","0.0-6.0-0.13","FAMI","1","m","rechts","22","","fixation","","","",""
"1707","img/150_180.png","74","image-keyboard-response","33","61609","0.0-6.0-1.13","FAMI","1","m","rechts","22","","","self","j","150","true"
"null","<div style=""font-size:60px;"">+</div>","null","html-keyboard-response","34","61972","0.0-6.0-0.14","FAMI","1","m","rechts","22","","fixation","","","",""
"1293","img/L120_180.png","70","image-keyboard-response","35","63285","0.0-6.0-1.14","FAMI","1","m","rechts","22","","","self","f","120","true"
"null","<div style=""font-size:60px;"">+</div>","null","html-keyboard-response","36","63649","0.0-6.0-0.15","FAMI","1","m","rechts","22","","fixation","","","",""
"1283","img/90_30.png","74","image-keyboard-response","37","64951","0.0-6.0-1.15","FAMI","1","m","rechts","22","","","self","j","90","true"
"null","<div style=""font-size:60px;"">+</div>","null","html-keyboard-response","38","65414","0.0-6.0-0.16","FAMI","1","m","rechts","22","","fixation","","","",""
"1157","img/30_240.png","70","image-keyboard-response","39","66591","0.0-6.0-1.16","FAMI","1","m","rechts","22","","","self","f","30","true"
"null","<div style=""font-size:60px;"">+</div>","null","html-keyboard-response","40","67102","0.0-6.0-0.17","FAMI","1","m","rechts","22","","fixation","","","",""
"1465","img/150_240.png","74","image-keyboard-response","41","68584","0.0-6.0-1.17","FAMI","1","m","rechts","22","","","self","j","150","true"
"null","<div style=""font-size:60px;"">+</div>","null","html-keyboard-response","42","68913","0.0-6.0-0.18","FAMI","1","m","rechts","22","","fixation","","","",""
"1126","img/120_270.png","74","image-keyboard-response","43","70058","0.0-6.0-1.18","FAMI","1","m","rechts","22","","","self","j","120","true"
"null","<div style=""font-size:60px;"">+</div>","null","html-keyboard-response","44","70431","0.0-6.0-0.19","FAMI","1","m","rechts","22","","fixation","","","",""
"721","img/0_90.png","74","image-keyboard-response","45","71171","0.0-6.0-1.19","FAMI","1","m","rechts","22","","","self","j","0","true"
"null","<div style=""font-size:60px;"">+</div>","null","html-keyboard-response","46","71634","0.0-6.0-0.20","FAMI","1","m","rechts","22","","fixation","","","",""
"1197","img/90_240.png","74","image-keyboard-response","47","72848","0.0-6.0-1.20","FAMI","1","m","rechts","22","","","self","j","90","true"
"null","<div style=""font-size:60px;"">+</div>","null","html-keyboard-response","48","73365","0.0-6.0-0.21","FAMI","1","m","rechts","22","","fixation","","","",""
"1228","img/90_180.png","74","image-keyboard-response","49","74604","0.0-6.0-1.21","FAMI","1","m","rechts","22","","","self","j","90","true"
"null","<div style=""font-size:60px;"">+</div>","null","html-keyboard-response","50","74911","0.0-6.0-0.22","FAMI","1","m","rechts","22","","fixation","","","",""
"671","img/0_60.png","74","image-keyboard-response","51","75591","0.0-6.0-1.22","FAMI","1","m","rechts","22","","","self","j","0","true"
"null","<div style=""font-size:60px;"">+</div>","null","html-keyboard-response","52","76051","0.0-6.0-0.23","FAMI","1","m","rechts","22","","fixation","","","",""
"661","img/0_300.png","70","image-keyboard-response","53","76730","0.0-6.0-1.23","FAMI","1","m","rechts","22","","","self","f","0","true"
"null","<div style=""font-size:60px;"">+</div>","null","html-keyboard-response","54","77209","0.0-6.0-0.24","FAMI","1","m","rechts","22","","fixation","","","",""
"1336","img/90_330.png","70","image-keyboard-response","55","78562","0.0-6.0-1.24","FAMI","1","m","rechts","22","","","self","f","90","true"
"null","<div style=""font-size:60px;"">+</div>","null","html-keyboard-response","56","78941","0.0-6.0-0.25","FAMI","1","m","rechts","22","","fixation","","","",""
"1403","img/120_90.png","70","image-keyboard-response","57","80362","0.0-6.0-1.25","FAMI","1","m","rechts","22","","","self","f","120","true"
"null","<div style=""font-size:60px;"">+</div>","null","html-keyboard-response","58","80694","0.0-6.0-0.26","FAMI","1","m","rechts","22","","fixation","","","",""
"1745","img/30_300.png","70","image-keyboard-response","59","82457","0.0-6.0-1.26","FAMI","1","m","rechts","22","","","self","f","30","true"
"null","<div style=""font-size:60px;"">+</div>","null","html-keyboard-response","60","82820","0.0-6.0-0.27","FAMI","1","m","rechts","22","","fixation","","","",""
"1329","img/L60_180.png","70","image-keyboard-response","61","84167","0.0-6.0-1.27","FAMI","1","m","rechts","22","","","self","f","60","true"
"null","<div style=""font-size:60px;"">+</div>","null","html-keyboard-response","62","84475","0.0-6.0-0.28","FAMI","1","m","rechts","22","","fixation","","","",""
"1181","img/150_270.png","74","image-keyboard-response","63","85674","0.0-6.0-1.28","FAMI","1","m","rechts","22","","","self","j","150","true"
"null","<div style=""font-size:60px;"">+</div>","null","html-keyboard-response","64","86177","0.0-6.0-0.29","FAMI","1","m","rechts","22","","fixation","","","",""
"1154","img/120_180.png","74","image-keyboard-response","65","87352","0.0-6.0-1.29","FAMI","1","m","rechts","22","","","self","j","120","true"
"null","<div style=""font-size:60px;"">+</div>","null","html-keyboard-response","66","87725","0.0-6.0-0.30","FAMI","1","m","rechts","22","","fixation","","","",""
"1914","img/90_300.png","70","image-keyboard-response","67","89657","0.0-6.0-1.30","FAMI","1","m","rechts","22","","","self","f","90","true"
"null","<div style=""font-size:60px;"">+</div>","null","html-keyboard-response","68","90068","0.0-6.0-0.31","FAMI","1","m","rechts","22","","fixation","","","",""
"897","img/0_210.png","70","image-keyboard-response","69","90984","0.0-6.0-1.31","FAMI","1","m","rechts","22","","","self","f","0","true"
"null","<div style=""font-size:60px;"">+</div>","null","html-keyboard-response","70","91398","0.0-6.0-0.32","FAMI","1","m","rechts","22","","fixation","","","",""
"1877","img/30_120.png","70","image-keyboard-response","71","93292","0.0-6.0-1.32","FAMI","1","m","rechts","22","","","self","j","30","false"
"null","<div style=""font-size:60px;"">+</div>","null","html-keyboard-response","72","93820","0.0-6.0-0.33","FAMI","1","m","rechts","22","","fixation","","","",""
"1229","img/L30_180.png","70","image-keyboard-response","73","95067","0.0-6.0-1.33","FAMI","1","m","rechts","22","","","self","f","30","true"
"null","<div style=""font-size:60px;"">+</div>","null","html-keyboard-response","74","95419","0.0-6.0-0.34","FAMI","1","m","rechts","22","","fixation","","","",""
"721","img/0_120.png","74","image-keyboard-response","75","96159","0.0-6.0-1.34","FAMI","1","m","rechts","22","","","self","j","0","true"
"null","<div style=""font-size:60px;"">+</div>","null","html-keyboard-response","76","96483","0.0-6.0-0.35","FAMI","1","m","rechts","22","","fixation","","","",""
"1032","img/90_150.png","74","image-keyboard-response","77","97532","0.0-6.0-1.35","FAMI","1","m","rechts","22","","","self","f","90","false"
"null","<div style=""font-size:60px;"">+</div>","null","html-keyboard-response","78","97857","0.0-6.0-0.36","FAMI","1","m","rechts","22","","fixation","","","",""
"1286","img/150_300.png","74","image-keyboard-response","79","99163","0.0-6.0-1.36","FAMI","1","m","rechts","22","","","self","j","150","true"
"null","<div style=""font-size:60px;"">+</div>","null","html-keyboard-response","80","99577","0.0-6.0-0.37","FAMI","1","m","rechts","22","","fixation","","","",""
"1071","img/90_210.png","74","image-keyboard-response","81","100670","0.0-6.0-1.37","FAMI","1","m","rechts","22","","","self","j","90","true"
"null","<div style=""font-size:60px;"">+</div>","null","html-keyboard-response","82","101088","0.0-6.0-0.38","FAMI","1","m","rechts","22","","fixation","","","",""
"880","img/0_30.png","74","image-keyboard-response","83","101988","0.0-6.0-1.38","FAMI","1","m","rechts","22","","","self","j","0","true"
"null","<div style=""font-size:60px;"">+</div>","null","html-keyboard-response","84","102495","0.0-6.0-0.39","FAMI","1","m","rechts","22","","fixation","","","",""
"1183","img/120_330.png","70","image-keyboard-response","85","103698","0.0-6.0-1.39","FAMI","1","m","rechts","22","","","self","f","120","true"
"null","<div style=""font-size:60px;"">+</div>","null","html-keyboard-response","86","104150","0.0-6.0-0.40","FAMI","1","m","rechts","22","","fixation","","","",""
"1857","img/L150_180.png","70","image-keyboard-response","87","106025","0.0-6.0-1.40","FAMI","1","m","rechts","22","","","self","f","150","true"
"null","<div style=""font-size:60px;"">+</div>","null","html-keyboard-response","88","106484","0.0-6.0-0.41","FAMI","1","m","rechts","22","","fixation","","","",""
"1199","img/150_60.png","70","image-keyboard-response","89","107701","0.0-6.0-1.41","FAMI","1","m","rechts","22","","","self","f","150","true"
"null","<div style=""font-size:60px;"">+</div>","null","html-keyboard-response","90","108219","0.0-6.0-0.42","FAMI","1","m","rechts","22","","fixation","","","",""
"714","img/0_240.png","70","image-keyboard-response","91","108950","0.0-6.0-1.42","FAMI","1","m","rechts","22","","","self","f","0","true"
"null","<div style=""font-size:60px;"">+</div>","null","html-keyboard-response","92","109452","0.0-6.0-0.43","FAMI","1","m","rechts","22","","fixation","","","",""
"1948","img/30_90.png","74","image-keyboard-response","93","111418","0.0-6.0-1.43","FAMI","1","m","rechts","22","","","self","j","30","true"
"null","<div style=""font-size:60px;"">+</div>","null","html-keyboard-response","94","111883","0.0-6.0-0.44","FAMI","1","m","rechts","22","","fixation","","","",""
"1143","img/30_180.png","74","image-keyboard-response","95","113045","0.0-6.0-1.44","FAMI","1","m","rechts","22","","","self","j","30","true"
"null","<div style=""font-size:60px;"">+</div>","null","html-keyboard-response","96","113571","0.0-6.0-0.45","FAMI","1","m","rechts","22","","fixation","","","",""
"717","img/0_330.png","70","image-keyboard-response","97","114306","0.0-6.0-1.45","FAMI","1","m","rechts","22","","","self","f","0","true"
"null","<div style=""font-size:60px;"">+</div>","null","html-keyboard-response","98","114617","0.0-6.0-0.46","FAMI","1","m","rechts","22","","fixation","","","",""
"1234","img/150_90.png","70","image-keyboard-response","99","115859","0.0-6.0-1.46","FAMI","1","m","rechts","22","","","self","f","150","true"
"null","<div style=""font-size:60px;"">+</div>","null","html-keyboard-response","100","116227","0.0-6.0-0.47","FAMI","1","m","rechts","22","","fixation","","","",""
"1256","img/60_180.png","74","image-keyboard-response","101","117501","0.0-6.0-1.47","FAMI","1","m","rechts","22","","","self","j","60","true"
"null","<div style=""font-size:60px;"">+</div>","null","html-keyboard-response","102","117977","0.0-6.0-0.48","FAMI","1","m","rechts","22","","fixation","","","",""
"662","img/0_270.png","70","image-keyboard-response","103","118660","0.0-6.0-1.48","FAMI","1","m","rechts","22","","","self","f","0","true"
"null","<div style=""font-size:60px;"">+</div>","null","html-keyboard-response","104","119071","0.0-6.0-0.49","FAMI","1","m","rechts","22","","fixation","","","",""
"1303","img/90_60.png","74","image-keyboard-response","105","120392","0.0-6.0-1.49","FAMI","1","m","rechts","22","","","self","j","90","true"
"null","<div style=""font-size:60px;"">+</div>","null","html-keyboard-response","106","120869","0.0-6.0-0.50","FAMI","1","m","rechts","22","","fixation","","","",""
"1201","img/60_30.png","74","image-keyboard-response","107","122090","0.0-6.0-1.50","FAMI","1","m","rechts","22","","","self","j","60","true"
"null","<div style=""font-size:60px;"">+</div>","null","html-keyboard-response","108","122400","0.0-6.0-0.51","FAMI","1","m","rechts","22","","fixation","","","",""
"1762","img/60_210.png","74","image-keyboard-response","109","124184","0.0-6.0-1.51","FAMI","1","m","rechts","22","","","self","j","60","true"
"null","<div style=""font-size:60px;"">+</div>","null","html-keyboard-response","110","124696","0.0-6.0-0.52","FAMI","1","m","rechts","22","","fixation","","","",""
"1206","img/150_270.png","74","image-keyboard-response","111","125913","0.0-6.0-1.52","FAMI","1","m","rechts","22","","","self","j","150","true"
"null","<div style=""font-size:60px;"">+</div>","null","html-keyboard-response","112","126344","0.0-6.0-0.53","FAMI","1","m","rechts","22","","fixation","","","",""
"1475","img/60_30.png","74","image-keyboard-response","113","127829","0.0-6.0-1.53","FAMI","1","m","rechts","22","","","self","j","60","true"
"null","<div style=""font-size:60px;"">+</div>","null","html-keyboard-response","114","128236","0.0-6.0-0.54","FAMI","1","m","rechts","22","","fixation","","","",""
"695","img/0_30.png","74","image-keyboard-response","115","128941","0.0-6.0-1.54","FAMI","1","m","rechts","22","","","self","j","0","true"
"null","<div style=""font-size:60px;"">+</div>","null","html-keyboard-response","116","129266","0.0-6.0-0.55","FAMI","1","m","rechts","22","","fixation","","","",""
"1792","img/90_300.png","70","image-keyboard-response","117","131068","0.0-6.0-1.55","FAMI","1","m","rechts","22","","","self","f","90","true"
"null","<div style=""font-size:60px;"">+</div>","null","html-keyboard-response","118","131484","0.0-6.0-0.56","FAMI","1","m","rechts","22","","fixation","","","",""
"1180","img/60_330.png","70","image-keyboard-response","119","132677","0.0-6.0-1.56","FAMI","1","m","rechts","22","","","self","f","60","true"
"null","<div style=""font-size:60px;"">+</div>","null","html-keyboard-response","120","133105","0.0-6.0-0.57","FAMI","1","m","rechts","22","","fixation","","","",""
"1173","img/60_180.png","74","image-keyboard-response","121","134288","0.0-6.0-1.57","FAMI","1","m","rechts","22","","","self","j","60","true"
"null","<div style=""font-size:60px;"">+</div>","null","html-keyboard-response","122","134760","0.0-6.0-0.58","FAMI","1","m","rechts","22","","fixation","","","",""
"1053","img/150_120.png","70","image-keyboard-response","123","135826","0.0-6.0-1.58","FAMI","1","m","rechts","22","","","self","f","150","true"
"null","<div style=""font-size:60px;"">+</div>","null","html-keyboard-response","124","136205","0.0-6.0-0.59","FAMI","1","m","rechts","22","","fixation","","","",""
"736","img/0_330.png","70","image-keyboard-response","125","136950","0.0-6.0-1.59","FAMI","1","m","rechts","22","","","self","f","0","true"
"null","<div style=""font-size:60px;"">+</div>","null","html-keyboard-response","126","137408","0.0-6.0-0.60","FAMI","1","m","rechts","22","","fixation","","","",""
"917","img/30_180.png","74","image-keyboard-response","127","138336","0.0-6.0-1.60","FAMI","1","m","rechts","22","","","self","j","30","true"
"null","<div style=""font-size:60px;"">+</div>","null","html-keyboard-response","128","138751","0.0-6.0-0.61","FAMI","1","m","rechts","22","","fixation","","","",""
"1281","img/120_150.png","70","image-keyboard-response","129","140047","0.0-6.0-1.61","FAMI","1","m","rechts","22","","","self","f","120","true"
"null","<div style=""font-size:60px;"">+</div>","null","html-keyboard-response","130","140408","0.0-6.0-0.62","FAMI","1","m","rechts","22","","fixation","","","",""
"977","img/150_180.png","74","image-keyboard-response","131","141396","0.0-6.0-1.62","FAMI","1","m","rechts","22","","","self","j","150","true"
"null","<div style=""font-size:60px;"">+</div>","null","html-keyboard-response","132","141860","0.0-6.0-0.63","FAMI","1","m","rechts","22","","fixation","","","",""
"1156","img/90_30.png","74","image-keyboard-response","133","143028","0.0-6.0-1.63","FAMI","1","m","rechts","22","","","self","j","90","true"
"null","<div style=""font-size:60px;"">+</div>","null","html-keyboard-response","134","143453","0.0-6.0-0.64","FAMI","1","m","rechts","22","","fixation","","","",""
"1035","img/120_90.png","70","image-keyboard-response","135","144501","0.0-6.0-1.64","FAMI","1","m","rechts","22","","","self","f","120","true"
"null","<div style=""font-size:60px;"">+</div>","null","html-keyboard-response","136","144860","0.0-6.0-0.65","FAMI","1","m","rechts","22","","fixation","","","",""
"1050","img/150_90.png","70","image-keyboard-response","137","145920","0.0-6.0-1.65","FAMI","1","m","rechts","22","","","self","f","150","true"
"null","<div style=""font-size:60px;"">+</div>","null","html-keyboard-response","138","146422","0.0-6.0-0.66","FAMI","1","m","rechts","22","","fixation","","","",""
"1250","img/120_30.png","74","image-keyboard-response","139","147685","0.0-6.0-1.66","FAMI","1","m","rechts","22","","","self","j","120","true"
"null","<div style=""font-size:60px;"">+</div>","null","html-keyboard-response","140","148047","0.0-6.0-0.67","FAMI","1","m","rechts","22","","fixation","","","",""
"1661","img/30_240.png","70","image-keyboard-response","141","149721","0.0-6.0-1.67","FAMI","1","m","rechts","22","","","self","f","30","true"
"null","<div style=""font-size:60px;"">+</div>","null","html-keyboard-response","142","150189","0.0-6.0-0.68","FAMI","1","m","rechts","22","","fixation","","","",""
"1117","img/120_210.png","74","image-keyboard-response","143","151318","0.0-6.0-1.68","FAMI","1","m","rechts","22","","","self","j","120","true"
"null","<div style=""font-size:60px;"">+</div>","null","html-keyboard-response","144","151738","0.0-6.0-0.69","FAMI","1","m","rechts","22","","fixation","","","",""
"1616","img/90_240.png","74","image-keyboard-response","145","153367","0.0-6.0-1.69","FAMI","1","m","rechts","22","","","self","j","90","true"
"null","<div style=""font-size:60px;"">+</div>","null","html-keyboard-response","146","153782","0.0-6.0-0.70","FAMI","1","m","rechts","22","","fixation","","","",""
"813","img/0_240.png","70","image-keyboard-response","147","154604","0.0-6.0-1.70","FAMI","1","m","rechts","22","","","self","f","0","true"
"null","<div style=""font-size:60px;"">+</div>","null","html-keyboard-response","148","155032","0.0-6.0-0.71","FAMI","1","m","rechts","22","","fixation","","","",""
"688","img/0_120.png","74","image-keyboard-response","149","155729","0.0-6.0-1.71","FAMI","1","m","rechts","22","","","self","j","0","true"
"null","<div style=""font-size:60px;"">+</div>","null","html-keyboard-response","150","156094","0.0-6.0-0.72","FAMI","1","m","rechts","22","","fixation","","","",""
"1786","img/30_120.png","74","image-keyboard-response","151","157889","0.0-6.0-1.72","FAMI","1","m","rechts","22","","","self","j","30","true"
"null","<div style=""font-size:60px;"">+</div>","null","html-keyboard-response","152","158201","0.0-6.0-0.73","FAMI","1","m","rechts","22","","fixation","","","",""
"1169","img/L60_180.png","70","image-keyboard-response","153","159383","0.0-6.0-1.73","FAMI","1","m","rechts","22","","","self","f","60","true"
"null","<div style=""font-size:60px;"">+</div>","null","html-keyboard-response","154","159795","0.0-6.0-0.74","FAMI","1","m","rechts","22","","fixation","","","",""
"1332","img/120_270.png","74","image-keyboard-response","155","161140","0.0-6.0-1.74","FAMI","1","m","rechts","22","","","self","j","120","true"
"null","<div style=""font-size:60px;"">+</div>","null","html-keyboard-response","156","161551","0.0-6.0-0.75","FAMI","1","m","rechts","22","","fixation","","","",""
"1347","img/90_60.png","74","image-keyboard-response","157","162908","0.0-6.0-1.75","FAMI","1","m","rechts","22","","","self","j","90","true"
"null","<div style=""font-size:60px;"">+</div>","null","html-keyboard-response","158","163418","0.0-6.0-0.76","FAMI","1","m","rechts","22","","fixation","","","",""
"1197","img/150_300.png","74","image-keyboard-response","159","164629","0.0-6.0-1.76","FAMI","1","m","rechts","22","","","self","j","150","true"
"null","<div style=""font-size:60px;"">+</div>","null","html-keyboard-response","160","165086","0.0-6.0-0.77","FAMI","1","m","rechts","22","","fixation","","","",""
"1028","img/150_60.png","70","image-keyboard-response","161","166123","0.0-6.0-1.77","FAMI","1","m","rechts","22","","","self","f","150","true"
"null","<div style=""font-size:60px;"">+</div>","null","html-keyboard-response","162","166478","0.0-6.0-0.78","FAMI","1","m","rechts","22","","fixation","","","",""
"1333","img/90_120.png","70","image-keyboard-response","163","167822","0.0-6.0-1.78","FAMI","1","m","rechts","22","","","self","f","90","true"
"null","<div style=""font-size:60px;"">+</div>","null","html-keyboard-response","164","168336","0.0-6.0-0.79","FAMI","1","m","rechts","22","","fixation","","","",""
"722","img/0_90.png","74","image-keyboard-response","165","169071","0.0-6.0-1.79","FAMI","1","m","rechts","22","","","self","j","0","true"
"null","<div style=""font-size:60px;"">+</div>","null","html-keyboard-response","166","169586","0.0-6.0-0.80","FAMI","1","m","rechts","22","","fixation","","","",""
"913","img/30_60.png","74","image-keyboard-response","167","170512","0.0-6.0-1.80","FAMI","1","m","rechts","22","","","self","j","30","true"
"null","<div style=""font-size:60px;"">+</div>","null","html-keyboard-response","168","170932","0.0-6.0-0.81","FAMI","1","m","rechts","22","","fixation","","","",""
"1011","img/L120_180.png","70","image-keyboard-response","169","171950","0.0-6.0-1.81","FAMI","1","m","rechts","22","","","self","f","120","true"
"null","<div style=""font-size:60px;"">+</div>","null","html-keyboard-response","170","172463","0.0-6.0-0.82","FAMI","1","m","rechts","22","","fixation","","","",""
"956","img/90_150.png","70","image-keyboard-response","171","173436","0.0-6.0-1.82","FAMI","1","m","rechts","22","","","self","f","90","true"
"null","<div style=""font-size:60px;"">+</div>","null","html-keyboard-response","172","173854","0.0-6.0-0.83","FAMI","1","m","rechts","22","","fixation","","","",""
"990","img/60_210.png","74","image-keyboard-response","173","174855","0.0-6.0-1.83","FAMI","1","m","rechts","22","","","self","j","60","true"
"null","<div style=""font-size:60px;"">+</div>","null","html-keyboard-response","174","175228","0.0-6.0-0.84","FAMI","1","m","rechts","22","","fixation","","","",""
"1404","img/90_210.png","74","image-keyboard-response","175","176643","0.0-6.0-1.84","FAMI","1","m","rechts","22","","","self","j","90","true"
"null","<div style=""font-size:60px;"">+</div>","null","html-keyboard-response","176","177010","0.0-6.0-0.85","FAMI","1","m","rechts","22","","fixation","","","",""
"1149","img/120_180.png","74","image-keyboard-response","177","178172","0.0-6.0-1.85","FAMI","1","m","rechts","22","","","self","j","120","true"
"null","<div style=""font-size:60px;"">+</div>","null","html-keyboard-response","178","178493","0.0-6.0-0.86","FAMI","1","m","rechts","22","","fixation","","","",""
"689","img/0_60.png","74","image-keyboard-response","179","179197","0.0-6.0-1.86","FAMI","1","m","rechts","22","","","self","j","0","true"
"null","<div style=""font-size:60px;"">+</div>","null","html-keyboard-response","180","179618","0.0-6.0-0.87","FAMI","1","m","rechts","22","","fixation","","","",""
"836","img/L30_180.png","70","image-keyboard-response","181","180467","0.0-6.0-1.87","FAMI","1","m","rechts","22","","","self","f","30","true"
"null","<div style=""font-size:60px;"">+</div>","null","html-keyboard-response","182","180977","0.0-6.0-0.88","FAMI","1","m","rechts","22","","fixation","","","",""
"914","img/30_90.png","74","image-keyboard-response","183","181900","0.0-6.0-1.88","FAMI","1","m","rechts","22","","","self","j","30","true"
"null","<div style=""font-size:60px;"">+</div>","null","html-keyboard-response","184","182369","0.0-6.0-0.89","FAMI","1","m","rechts","22","","fixation","","","",""
"955","img/L90_180.png","70","image-keyboard-response","185","183336","0.0-6.0-1.89","FAMI","1","m","rechts","22","","","self","f","90","true"
"null","<div style=""font-size:60px;"">+</div>","null","html-keyboard-response","186","183665","0.0-6.0-0.90","FAMI","1","m","rechts","22","","fixation","","","",""
"961","img/60_90.png","74","image-keyboard-response","187","184642","0.0-6.0-1.90","FAMI","1","m","rechts","22","","","self","j","60","true"
"null","<div style=""font-size:60px;"">+</div>","null","html-keyboard-response","188","184946","0.0-6.0-0.91","FAMI","1","m","rechts","22","","fixation","","","",""
"828","img/0_210.png","70","image-keyboard-response","189","185778","0.0-6.0-1.91","FAMI","1","m","rechts","22","","","self","f","0","true"
"null","<div style=""font-size:60px;"">+</div>","null","html-keyboard-response","190","186245","0.0-6.0-0.92","FAMI","1","m","rechts","22","","fixation","","","",""
"859","img/60_150.png","70","image-keyboard-response","191","187116","0.0-6.0-1.92","FAMI","1","m","rechts","22","","","self","f","60","true"
"null","<div style=""font-size:60px;"">+</div>","null","html-keyboard-response","192","187623","0.0-6.0-0.93","FAMI","1","m","rechts","22","","fixation","","","",""
"630","img/0_270.png","70","image-keyboard-response","193","188263","0.0-6.0-1.93","FAMI","1","m","rechts","22","","","self","f","0","true"
"null","<div style=""font-size:60px;"">+</div>","null","html-keyboard-response","194","188591","0.0-6.0-0.94","FAMI","1","m","rechts","22","","fixation","","","",""
"841","img/90_330.png","74","image-keyboard-response","195","189445","0.0-6.0-1.94","FAMI","1","m","rechts","22","","","self","f","90","false"
"null","<div style=""font-size:60px;"">+</div>","null","html-keyboard-response","196","189748","0.0-6.0-0.95","FAMI","1","m","rechts","22","","fixation","","","",""
"1406","img/30_270.png","74","image-keyboard-response","197","191167","0.0-6.0-1.95","FAMI","1","m","rechts","22","","","self","f","30","false"
"null","<div style=""font-size:60px;"">+</div>","null","html-keyboard-response","198","191543","0.0-6.0-0.96","FAMI","1","m","rechts","22","","fixation","","","",""
"2686","img/120_330.png","70","image-keyboard-response","199","194242","0.0-6.0-1.96","FAMI","1","m","rechts","22","","","self","f","120","true"
"null","<div style=""font-size:60px;"">+</div>","null","html-keyboard-response","200","194599","0.0-6.0-0.97","FAMI","1","m","rechts","22","","fixation","","","",""
"1424","img/30_300.png","70","image-keyboard-response","201","196036","0.0-6.0-1.97","FAMI","1","m","rechts","22","","","self","f","30","true"
"null","<div style=""font-size:60px;"">+</div>","null","html-keyboard-response","202","196496","0.0-6.0-0.98","FAMI","1","m","rechts","22","","fixation","","","",""
"1094","img/60_270.png","70","image-keyboard-response","203","197603","0.0-6.0-1.98","FAMI","1","m","rechts","22","","","self","f","60","true"
"null","<div style=""font-size:60px;"">+</div>","null","html-keyboard-response","204","198115","0.0-6.0-0.99","FAMI","1","m","rechts","22","","fixation","","","",""
"1048","img/90_180.png","74","image-keyboard-response","205","199176","0.0-6.0-1.99","FAMI","1","m","rechts","22","","","self","j","90","true"
"null","<div style=""font-size:60px;"">+</div>","null","html-keyboard-response","206","199692","0.0-6.0-0.100","FAMI","1","m","rechts","22","","fixation","","","",""
"699","img/0_150.png","74","image-keyboard-response","207","200404","0.0-6.0-1.100","FAMI","1","m","rechts","22","","","self","j","0","true"
"null","<div style=""font-size:60px;"">+</div>","null","html-keyboard-response","208","200778","0.0-6.0-0.101","FAMI","1","m","rechts","22","","fixation","","","",""
"985","img/150_240.png","74","image-keyboard-response","209","201776","0.0-6.0-1.101","FAMI","1","m","rechts","22","","","self","j","150","true"
"null","<div style=""font-size:60px;"">+</div>","null","html-keyboard-response","210","202279","0.0-6.0-0.102","FAMI","1","m","rechts","22","","fixation","","","",""
"664","img/0_300.png","70","image-keyboard-response","211","202956","0.0-6.0-1.102","FAMI","1","m","rechts","22","","","self","f","0","true"
"null","<div style=""font-size:60px;"">+</div>","null","html-keyboard-response","212","203418","0.0-6.0-0.103","FAMI","1","m","rechts","22","","fixation","","","",""
"2498","img/L150_180.png","70","image-keyboard-response","213","205930","0.0-6.0-1.103","FAMI","1","m","rechts","22","","","self","f","150","true"
"null","<div style=""font-size:60px;"">+</div>","null","html-keyboard-response","214","206288","0.0-6.0-0.104","FAMI","1","m","rechts","22","","fixation","","","",""
"1285","img/30_300.png","70","image-keyboard-response","215","207581","0.0-6.0-1.104","FAMI","1","m","rechts","22","","","self","f","30","true"
"null","<div style=""font-size:60px;"">+</div>","null","html-keyboard-response","216","208084","0.0-6.0-0.105","FAMI","1","m","rechts","22","","fixation","","","",""
"1148","img/150_270.png","74","image-keyboard-response","217","209246","0.0-6.0-1.105","FAMI","1","m","rechts","22","","","self","j","150","true"
"null","<div style=""font-size:60px;"">+</div>","null","html-keyboard-response","218","209616","0.0-6.0-0.106","FAMI","1","m","rechts","22","","fixation","","","",""
"1287","img/L150_180.png","70","image-keyboard-response","219","210911","0.0-6.0-1.106","FAMI","1","m","rechts","22","","","self","f","150","true"
"null","<div style=""font-size:60px;"">+</div>","null","html-keyboard-response","220","211233","0.0-6.0-0.107","FAMI","1","m","rechts","22","","fixation","","","",""
"731","img/0_330.png","70","image-keyboard-response","221","211976","0.0-6.0-1.107","FAMI","1","m","rechts","22","","","self","f","0","true"
"null","<div style=""font-size:60px;"">+</div>","null","html-keyboard-response","222","212435","0.0-6.0-0.108","FAMI","1","m","rechts","22","","fixation","","","",""
"1858","img/30_120.png","74","image-keyboard-response","223","214307","0.0-6.0-1.108","FAMI","1","m","rechts","22","","","self","j","30","true"
"null","<div style=""font-size:60px;"">+</div>","null","html-keyboard-response","224","214811","0.0-6.0-0.109","FAMI","1","m","rechts","22","","fixation","","","",""
"1321","img/90_180.png","74","image-keyboard-response","225","216141","0.0-6.0-1.109","FAMI","1","m","rechts","22","","","self","j","90","true"
"null","<div style=""font-size:60px;"">+</div>","null","html-keyboard-response","226","216545","0.0-6.0-0.110","FAMI","1","m","rechts","22","","fixation","","","",""
"1091","img/0_120.png","74","image-keyboard-response","227","217649","0.0-6.0-1.110","FAMI","1","m","rechts","22","","","self","j","0","true"
"null","<div style=""font-size:60px;"">+</div>","null","html-keyboard-response","228","218154","0.0-6.0-0.111","FAMI","1","m","rechts","22","","fixation","","","",""
"1316","img/90_30.png","70","image-keyboard-response","229","219483","0.0-6.0-1.111","FAMI","1","m","rechts","22","","","self","j","90","false"
"null","<div style=""font-size:60px;"">+</div>","null","html-keyboard-response","230","219904","0.0-6.0-0.112","FAMI","1","m","rechts","22","","fixation","","","",""
"1537","img/60_90.png","74","image-keyboard-response","231","221453","0.0-6.0-1.112","FAMI","1","m","rechts","22","","","self","j","60","true"
"null","<div style=""font-size:60px;"">+</div>","null","html-keyboard-response","232","221828","0.0-6.0-0.113","FAMI","1","m","rechts","22","","fixation","","","",""
"705","img/0_150.png","74","image-keyboard-response","233","222543","0.0-6.0-1.113","FAMI","1","m","rechts","22","","","self","j","0","true"
"null","<div style=""font-size:60px;"">+</div>","null","html-keyboard-response","234","222962","0.0-6.0-0.114","FAMI","1","m","rechts","22","","fixation","","","",""
"701","img/0_300.png","70","image-keyboard-response","235","223669","0.0-6.0-1.114","FAMI","1","m","rechts","22","","","self","f","0","true"
"null","<div style=""font-size:60px;"">+</div>","null","html-keyboard-response","236","223981","0.0-6.0-0.115","FAMI","1","m","rechts","22","","fixation","","","",""
"1512","img/120_30.png","74","image-keyboard-response","237","225502","0.0-6.0-1.115","FAMI","1","m","rechts","22","","","self","j","120","true"
"null","<div style=""font-size:60px;"">+</div>","null","html-keyboard-response","238","225860","0.0-6.0-0.116","FAMI","1","m","rechts","22","","fixation","","","",""
"2103","img/120_330.png","70","image-keyboard-response","239","227972","0.0-6.0-1.116","FAMI","1","m","rechts","22","","","self","f","120","true"
"null","<div style=""font-size:60px;"">+</div>","null","html-keyboard-response","240","228343","0.0-6.0-0.117","FAMI","1","m","rechts","22","","fixation","","","",""
"1267","img/90_330.png","70","image-keyboard-response","241","229620","0.0-6.0-1.117","FAMI","1","m","rechts","22","","","self","f","90","true"
"null","<div style=""font-size:60px;"">+</div>","null","html-keyboard-response","242","230028","0.0-6.0-0.118","FAMI","1","m","rechts","22","","fixation","","","",""
"2040","img/150_90.png","70","image-keyboard-response","243","232077","0.0-6.0-1.118","FAMI","1","m","rechts","22","","","self","f","150","true"
"null","<div style=""font-size:60px;"">+</div>","null","html-keyboard-response","244","232543","0.0-6.0-0.119","FAMI","1","m","rechts","22","","fixation","","","",""
"1576","img/120_90.png","70","image-keyboard-response","245","234132","0.0-6.0-1.119","FAMI","1","m","rechts","22","","","self","f","120","true"
"null","<div style=""font-size:60px;"">+</div>","null","html-keyboard-response","246","234635","0.0-6.0-0.120","FAMI","1","m","rechts","22","","fixation","","","",""
"1076","img/120_150.png","70","image-keyboard-response","247","235717","0.0-6.0-1.120","FAMI","1","m","rechts","22","","","self","f","120","true"
"null","<div style=""font-size:60px;"">+</div>","null","html-keyboard-response","248","236236","0.0-6.0-0.121","FAMI","1","m","rechts","22","","fixation","","","",""
"1053","img/120_270.png","74","image-keyboard-response","249","237305","0.0-6.0-1.121","FAMI","1","m","rechts","22","","","self","j","120","true"
"null","<div style=""font-size:60px;"">+</div>","null","html-keyboard-response","250","237768","0.0-6.0-0.122","FAMI","1","m","rechts","22","","fixation","","","",""
"707","img/0_270.png","70","image-keyboard-response","251","238484","0.0-6.0-1.122","FAMI","1","m","rechts","22","","","self","f","0","true"
"null","<div style=""font-size:60px;"">+</div>","null","html-keyboard-response","252","238891","0.0-6.0-0.123","FAMI","1","m","rechts","22","","fixation","","","",""
"984","img/120_210.png","74","image-keyboard-response","253","239890","0.0-6.0-1.123","FAMI","1","m","rechts","22","","","self","j","120","true"
"null","<div style=""font-size:60px;"">+</div>","null","html-keyboard-response","254","240205","0.0-6.0-0.124","FAMI","1","m","rechts","22","","fixation","","","",""
"1233","img/90_120.png","70","image-keyboard-response","255","241444","0.0-6.0-1.124","FAMI","1","m","rechts","22","","","self","f","90","true"
"null","<div style=""font-size:60px;"">+</div>","null","html-keyboard-response","256","241860","0.0-6.0-0.125","FAMI","1","m","rechts","22","","fixation","","","",""
"2409","img/60_330.png","70","image-keyboard-response","257","244283","0.0-6.0-1.125","FAMI","1","m","rechts","22","","","self","f","60","true"
"null","<div style=""font-size:60px;"">+</div>","null","html-keyboard-response","258","244795","0.0-6.0-0.126","FAMI","1","m","rechts","22","","fixation","","","",""
"695","img/0_240.png","70","image-keyboard-response","259","245505","0.0-6.0-1.126","FAMI","1","m","rechts","22","","","self","f","0","true"
"null","<div style=""font-size:60px;"">+</div>","null","html-keyboard-response","260","246017","0.0-6.0-0.127","FAMI","1","m","rechts","22","","fixation","","","",""
"1843","img/L90_180.png","70","image-keyboard-response","261","247867","0.0-6.0-1.127","FAMI","1","m","rechts","22","","","self","f","90","true"
"null","<div style=""font-size:60px;"">+</div>","null","html-keyboard-response","262","248331","0.0-6.0-0.128","FAMI","1","m","rechts","22","","fixation","","","",""
"1040","img/L120_180.png","70","image-keyboard-response","263","249387","0.0-6.0-1.128","FAMI","1","m","rechts","22","","","self","f","120","true"
"null","<div style=""font-size:60px;"">+</div>","null","html-keyboard-response","264","249846","0.0-6.0-0.129","FAMI","1","m","rechts","22","","fixation","","","",""
"979","img/120_180.png","74","image-keyboard-response","265","250838","0.0-6.0-1.129","FAMI","1","m","rechts","22","","","self","j","120","true"
"null","<div style=""font-size:60px;"">+</div>","null","html-keyboard-response","266","251142","0.0-6.0-0.130","FAMI","1","m","rechts","22","","fixation","","","",""
"1853","img/60_210.png","74","image-keyboard-response","267","253010","0.0-6.0-1.130","FAMI","1","m","rechts","22","","","self","j","60","true"
"null","<div style=""font-size:60px;"">+</div>","null","html-keyboard-response","268","253517","0.0-6.0-0.131","FAMI","1","m","rechts","22","","fixation","","","",""
"1238","img/150_240.png","74","image-keyboard-response","269","254764","0.0-6.0-1.131","FAMI","1","m","rechts","22","","","self","j","150","true"
"null","<div style=""font-size:60px;"">+</div>","null","html-keyboard-response","270","255287","0.0-6.0-0.132","FAMI","1","m","rechts","22","","fixation","","","",""
"2190","img/30_60.png","74","image-keyboard-response","271","257488","0.0-6.0-1.132","FAMI","1","m","rechts","22","","","self","j","30","true"
"null","<div style=""font-size:60px;"">+</div>","null","html-keyboard-response","272","257968","0.0-6.0-0.133","FAMI","1","m","rechts","22","","fixation","","","",""
"1246","img/90_150.png","70","image-keyboard-response","273","259228","0.0-6.0-1.133","FAMI","1","m","rechts","22","","","self","f","90","true"
"null","<div style=""font-size:60px;"">+</div>","null","html-keyboard-response","274","259709","0.0-6.0-0.134","FAMI","1","m","rechts","22","","fixation","","","",""
"699","img/0_60.png","74","image-keyboard-response","275","260423","0.0-6.0-1.134","FAMI","1","m","rechts","22","","","self","j","0","true"
"null","<div style=""font-size:60px;"">+</div>","null","html-keyboard-response","276","260750","0.0-6.0-0.135","FAMI","1","m","rechts","22","","fixation","","","",""
"1388","img/90_60.png","70","image-keyboard-response","277","262145","0.0-6.0-1.135","FAMI","1","m","rechts","22","","","self","j","90","false"
"null","<div style=""font-size:60px;"">+</div>","null","html-keyboard-response","278","262597","0.0-6.0-0.136","FAMI","1","m","rechts","22","","fixation","","","",""
"1604","img/60_30.png","74","image-keyboard-response","279","264214","0.0-6.0-1.136","FAMI","1","m","rechts","22","","","self","j","60","true"
"null","<div style=""font-size:60px;"">+</div>","null","html-keyboard-response","280","264582","0.0-6.0-0.137","FAMI","1","m","rechts","22","","fixation","","","",""
"1554","img/150_180.png","74","image-keyboard-response","281","266149","0.0-6.0-1.137","FAMI","1","m","rechts","22","","","self","j","150","true"
"null","<div style=""font-size:60px;"">+</div>","null","html-keyboard-response","282","266612","0.0-6.0-0.138","FAMI","1","m","rechts","22","","fixation","","","",""
"1684","img/90_300.png","70","image-keyboard-response","283","268309","0.0-6.0-1.138","FAMI","1","m","rechts","22","","","self","f","90","true"
"null","<div style=""font-size:60px;"">+</div>","null","html-keyboard-response","284","268765","0.0-6.0-0.139","FAMI","1","m","rechts","22","","fixation","","","",""
"1523","img/150_60.png","70","image-keyboard-response","285","270301","0.0-6.0-1.139","FAMI","1","m","rechts","22","","","self","f","150","true"
"null","<div style=""font-size:60px;"">+</div>","null","html-keyboard-response","286","270829","0.0-6.0-0.140","FAMI","1","m","rechts","22","","fixation","","","",""
"1415","img/L30_180.png","70","image-keyboard-response","287","272257","0.0-6.0-1.140","FAMI","1","m","rechts","22","","","self","f","30","true"
"null","<div style=""font-size:60px;"">+</div>","null","html-keyboard-response","288","272765","0.0-6.0-0.141","FAMI","1","m","rechts","22","","fixation","","","",""
"1321","img/30_270.png","70","image-keyboard-response","289","274102","0.0-6.0-1.141","FAMI","1","m","rechts","22","","","self","f","30","true"
"null","<div style=""font-size:60px;"">+</div>","null","html-keyboard-response","290","274453","0.0-6.0-0.142","FAMI","1","m","rechts","22","","fixation","","","",""
"749","img/0_90.png","74","image-keyboard-response","291","275215","0.0-6.0-1.142","FAMI","1","m","rechts","22","","","self","j","0","true"
"null","<div style=""font-size:60px;"">+</div>","null","html-keyboard-response","292","275721","0.0-6.0-0.143","FAMI","1","m","rechts","22","","fixation","","","",""
"640","img/0_210.png","70","image-keyboard-response","293","276374","0.0-6.0-1.143","FAMI","1","m","rechts","22","","","self","f","0","true"
"null","<div style=""font-size:60px;"">+</div>","null","html-keyboard-response","294","276752","0.0-6.0-0.144","FAMI","1","m","rechts","22","","fixation","","","",""
"1074","img/90_210.png","74","image-keyboard-response","295","277838","0.0-6.0-1.144","FAMI","1","m","rechts","22","","","self","j","90","true"
"null","<div style=""font-size:60px;"">+</div>","null","html-keyboard-response","296","278300","0.0-6.0-0.145","FAMI","1","m","rechts","22","","fixation","","","",""
"987","img/60_180.png","74","image-keyboard-response","297","279300","0.0-6.0-1.145","FAMI","1","m","rechts","22","","","self","j","60","true"
"null","<div style=""font-size:60px;"">+</div>","null","html-keyboard-response","298","279768","0.0-6.0-0.146","FAMI","1","m","rechts","22","","fixation","","","",""
"1264","img/150_300.png","74","image-keyboard-response","299","281045","0.0-6.0-1.146","FAMI","1","m","rechts","22","","","self","j","150","true"
"null","<div style=""font-size:60px;"">+</div>","null","html-keyboard-response","300","281454","0.0-6.0-0.147","FAMI","1","m","rechts","22","","fixation","","","",""
"1231","img/150_120.png","70","image-keyboard-response","301","282698","0.0-6.0-1.147","FAMI","1","m","rechts","22","","","self","f","150","true"
"null","<div style=""font-size:60px;"">+</div>","null","html-keyboard-response","302","283158","0.0-6.0-0.148","FAMI","1","m","rechts","22","","fixation","","","",""
"629","img/0_30.png","74","image-keyboard-response","303","283802","0.0-6.0-1.148","FAMI","1","m","rechts","22","","","self","j","0","true"
"null","<div style=""font-size:60px;"">+</div>","null","html-keyboard-response","304","284211","0.0-6.0-0.149","FAMI","1","m","rechts","22","","fixation","","","",""
"1006","img/L60_180.png","70","image-keyboard-response","305","285231","0.0-6.0-1.149","FAMI","1","m","rechts","22","","","self","f","60","true"
"null","<div style=""font-size:60px;"">+</div>","null","html-keyboard-response","306","285534","0.0-6.0-0.150","FAMI","1","m","rechts","22","","fixation","","","",""
"1132","img/60_270.png","74","image-keyboard-response","307","286681","0.0-6.0-1.150","FAMI","1","m","rechts","22","","","self","f","60","false"
"null","<div style=""font-size:60px;"">+</div>","null","html-keyboard-response","308","287032","0.0-6.0-0.151","FAMI","1","m","rechts","22","","fixation","","","",""
"1286","img/60_150.png","70","image-keyboard-response","309","288335","0.0-6.0-1.151","FAMI","1","m","rechts","22","","","self","f","60","true"
"null","<div style=""font-size:60px;"">+</div>","null","html-keyboard-response","310","288861","0.0-6.0-0.152","FAMI","1","m","rechts","22","","fixation","","","",""
"990","img/90_240.png","74","image-keyboard-response","311","289864","0.0-6.0-1.152","FAMI","1","m","rechts","22","","","self","j","90","true"
"null","<div style=""font-size:60px;"">+</div>","null","html-keyboard-response","312","290173","0.0-6.0-0.153","FAMI","1","m","rechts","22","","fixation","","","",""
"1973","img/30_90.png","70","image-keyboard-response","313","292160","0.0-6.0-1.153","FAMI","1","m","rechts","22","","","self","j","30","false"
"null","<div style=""font-size:60px;"">+</div>","null","html-keyboard-response","314","292612","0.0-6.0-0.154","FAMI","1","m","rechts","22","","fixation","","","",""
"1606","img/30_240.png","70","image-keyboard-response","315","294231","0.0-6.0-1.154","FAMI","1","m","rechts","22","","","self","f","30","true"
"null","<div style=""font-size:60px;"">+</div>","null","html-keyboard-response","316","294696","0.0-6.0-0.155","FAMI","1","m","rechts","22","","fixation","","","",""
"942","img/30_180.png","74","image-keyboard-response","317","295655","0.0-6.0-1.155","FAMI","1","m","rechts","22","","","self","j","30","true"
"null","<div style=""font-size:60px;"">+</div>","null","html-keyboard-response","318","296071","0.0-6.0-0.156","FAMI","1","m","rechts","22","","fixation","","","",""
"696","img/0_210.png","70","image-keyboard-response","319","296773","0.0-6.0-1.156","FAMI","1","m","rechts","22","","","self","f","0","true"
"null","<div style=""font-size:60px;"">+</div>","null","html-keyboard-response","320","297134","0.0-6.0-0.157","FAMI","1","m","rechts","22","","fixation","","","",""
"1023","img/90_210.png","74","image-keyboard-response","321","298167","0.0-6.0-1.157","FAMI","1","m","rechts","22","","","self","j","90","true"
"null","<div style=""font-size:60px;"">+</div>","null","html-keyboard-response","322","298682","0.0-6.0-0.158","FAMI","1","m","rechts","22","","fixation","","","",""
"1288","img/30_90.png","74","image-keyboard-response","323","299978","0.0-6.0-1.158","FAMI","1","m","rechts","22","","","self","j","30","true"
"null","<div style=""font-size:60px;"">+</div>","null","html-keyboard-response","324","300400","0.0-6.0-0.159","FAMI","1","m","rechts","22","","fixation","","","",""
"1155","img/L120_180.png","70","image-keyboard-response","325","301565","0.0-6.0-1.159","FAMI","1","m","rechts","22","","","self","f","120","true"
"null","<div style=""font-size:60px;"">+</div>","null","html-keyboard-response","326","301932","0.0-6.0-0.160","FAMI","1","m","rechts","22","","fixation","","","",""
"1306","img/L150_180.png","70","image-keyboard-response","327","303253","0.0-6.0-1.160","FAMI","1","m","rechts","22","","","self","f","150","true"
"null","<div style=""font-size:60px;"">+</div>","null","html-keyboard-response","328","303677","0.0-6.0-0.161","FAMI","1","m","rechts","22","","fixation","","","",""
"1128","img/30_180.png","74","image-keyboard-response","329","304816","0.0-6.0-1.161","FAMI","1","m","rechts","22","","","self","j","30","true"
"null","<div style=""font-size:60px;"">+</div>","null","html-keyboard-response","330","305340","0.0-6.0-0.162","FAMI","1","m","rechts","22","","fixation","","","",""
"723","img/0_240.png","70","image-keyboard-response","331","306075","0.0-6.0-1.162","FAMI","1","m","rechts","22","","","self","f","0","true"
"null","<div style=""font-size:60px;"">+</div>","null","html-keyboard-response","332","306480","0.0-6.0-0.163","FAMI","1","m","rechts","22","","fixation","","","",""
"554","img/0_300.png","70","image-keyboard-response","333","307053","0.0-6.0-1.163","FAMI","1","m","rechts","22","","","self","f","0","true"
"null","<div style=""font-size:60px;"">+</div>","null","html-keyboard-response","334","307510","0.0-6.0-0.164","FAMI","1","m","rechts","22","","fixation","","","",""
"1109","img/30_60.png","74","image-keyboard-response","335","308630","0.0-6.0-1.164","FAMI","1","m","rechts","22","","","self","j","30","true"
"null","<div style=""font-size:60px;"">+</div>","null","html-keyboard-response","336","309150","0.0-6.0-0.165","FAMI","1","m","rechts","22","","fixation","","","",""
"566","img/0_150.png","74","image-keyboard-response","337","309730","0.0-6.0-1.165","FAMI","1","m","rechts","22","","","self","j","0","true"
"null","<div style=""font-size:60px;"">+</div>","null","html-keyboard-response","338","310089","0.0-6.0-0.166","FAMI","1","m","rechts","22","","fixation","","","",""
"1092","img/150_240.png","74","image-keyboard-response","339","311194","0.0-6.0-1.166","FAMI","1","m","rechts","22","","","self","j","150","true"
"null","<div style=""font-size:60px;"">+</div>","null","html-keyboard-response","340","311573","0.0-6.0-0.167","FAMI","1","m","rechts","22","","fixation","","","",""
"827","img/L30_180.png","70","image-keyboard-response","341","312409","0.0-6.0-1.167","FAMI","1","m","rechts","22","","","self","f","30","true"
"null","<div style=""font-size:60px;"">+</div>","null","html-keyboard-response","342","312869","0.0-6.0-0.168","FAMI","1","m","rechts","22","","fixation","","","",""
"858","img/30_270.png","74","image-keyboard-response","343","313739","0.0-6.0-1.168","FAMI","1","m","rechts","22","","","self","f","30","false"
"null","<div style=""font-size:60px;"">+</div>","null","html-keyboard-response","344","314103","0.0-6.0-0.169","FAMI","1","m","rechts","22","","fixation","","","",""
"1427","img/150_120.png","70","image-keyboard-response","345","315536","0.0-6.0-1.169","FAMI","1","m","rechts","22","","","self","f","150","true"
"null","<div style=""font-size:60px;"">+</div>","null","html-keyboard-response","346","316043","0.0-6.0-0.170","FAMI","1","m","rechts","22","","fixation","","","",""
"1773","img/120_30.png","74","image-keyboard-response","347","317833","0.0-6.0-1.170","FAMI","1","m","rechts","22","","","self","j","120","true"
"null","<div style=""font-size:60px;"">+</div>","null","html-keyboard-response","348","318340","0.0-6.0-0.171","FAMI","1","m","rechts","22","","fixation","","","",""
"966","img/120_180.png","74","image-keyboard-response","349","319318","0.0-6.0-1.171","FAMI","1","m","rechts","22","","","self","j","120","true"
"null","<div style=""font-size:60px;"">+</div>","null","html-keyboard-response","350","319677","0.0-6.0-0.172","FAMI","1","m","rechts","22","","fixation","","","",""
"1200","img/30_300.png","70","image-keyboard-response","351","320890","0.0-6.0-1.172","FAMI","1","m","rechts","22","","","self","f","30","true"
"null","<div style=""font-size:60px;"">+</div>","null","html-keyboard-response","352","321209","0.0-6.0-0.173","FAMI","1","m","rechts","22","","fixation","","","",""
"1113","img/60_270.png","70","image-keyboard-response","353","322331","0.0-6.0-1.173","FAMI","1","m","rechts","22","","","self","f","60","true"
"null","<div style=""font-size:60px;"">+</div>","null","html-keyboard-response","354","322694","0.0-6.0-0.174","FAMI","1","m","rechts","22","","fixation","","","",""
"853","img/90_30.png","74","image-keyboard-response","355","323560","0.0-6.0-1.174","FAMI","1","m","rechts","22","","","self","j","90","true"
"null","<div style=""font-size:60px;"">+</div>","null","html-keyboard-response","356","323864","0.0-6.0-0.175","FAMI","1","m","rechts","22","","fixation","","","",""
"1042","img/60_210.png","74","image-keyboard-response","357","324920","0.0-6.0-1.175","FAMI","1","m","rechts","22","","","self","j","60","true"
"null","<div style=""font-size:60px;"">+</div>","null","html-keyboard-response","358","325280","0.0-6.0-0.176","FAMI","1","m","rechts","22","","fixation","","","",""
"978","img/120_330.png","70","image-keyboard-response","359","326270","0.0-6.0-1.176","FAMI","1","m","rechts","22","","","self","f","120","true"
"null","<div style=""font-size:60px;"">+</div>","null","html-keyboard-response","360","326779","0.0-6.0-0.177","FAMI","1","m","rechts","22","","fixation","","","",""
"950","img/150_270.png","74","image-keyboard-response","361","327743","0.0-6.0-1.177","FAMI","1","m","rechts","22","","","self","j","150","true"
"null","<div style=""font-size:60px;"">+</div>","null","html-keyboard-response","362","328154","0.0-6.0-0.178","FAMI","1","m","rechts","22","","fixation","","","",""
"793","img/150_180.png","74","image-keyboard-response","363","328958","0.0-6.0-1.178","FAMI","1","m","rechts","22","","","self","j","150","true"
"null","<div style=""font-size:60px;"">+</div>","null","html-keyboard-response","364","329279","0.0-6.0-0.179","FAMI","1","m","rechts","22","","fixation","","","",""
"935","img/120_150.png","70","image-keyboard-response","365","330227","0.0-6.0-1.179","FAMI","1","m","rechts","22","","","self","f","120","true"
"null","<div style=""font-size:60px;"">+</div>","null","html-keyboard-response","366","330656","0.0-6.0-0.180","FAMI","1","m","rechts","22","","fixation","","","",""
"879","img/90_300.png","74","image-keyboard-response","367","331547","0.0-6.0-1.180","FAMI","1","m","rechts","22","","","self","f","90","false"
"null","<div style=""font-size:60px;"">+</div>","null","html-keyboard-response","368","331860","0.0-6.0-0.181","FAMI","1","m","rechts","22","","fixation","","","",""
"778","img/60_150.png","74","image-keyboard-response","369","332648","0.0-6.0-1.181","FAMI","1","m","rechts","22","","","self","f","60","false"
"null","<div style=""font-size:60px;"">+</div>","null","html-keyboard-response","370","333063","0.0-6.0-0.182","FAMI","1","m","rechts","22","","fixation","","","",""
"646","img/0_270.png","70","image-keyboard-response","371","333717","0.0-6.0-1.182","FAMI","1","m","rechts","22","","","self","f","0","true"
"null","<div style=""font-size:60px;"">+</div>","null","html-keyboard-response","372","334141","0.0-6.0-0.183","FAMI","1","m","rechts","22","","fixation","","","",""
"714","img/60_180.png","74","image-keyboard-response","373","334864","0.0-6.0-1.183","FAMI","1","m","rechts","22","","","self","j","60","true"
"null","<div style=""font-size:60px;"">+</div>","null","html-keyboard-response","374","335218","0.0-6.0-0.184","FAMI","1","m","rechts","22","","fixation","","","",""
"792","img/L90_180.png","70","image-keyboard-response","375","336024","0.0-6.0-1.184","FAMI","1","m","rechts","22","","","self","f","90","true"
"null","<div style=""font-size:60px;"">+</div>","null","html-keyboard-response","376","336437","0.0-6.0-0.185","FAMI","1","m","rechts","22","","fixation","","","",""
"621","img/0_90.png","74","image-keyboard-response","377","337068","0.0-6.0-1.185","FAMI","1","m","rechts","22","","","self","j","0","true"
"null","<div style=""font-size:60px;"">+</div>","null","html-keyboard-response","378","337531","0.0-6.0-0.186","FAMI","1","m","rechts","22","","fixation","","","",""
"823","img/150_300.png","74","image-keyboard-response","379","338365","0.0-6.0-1.186","FAMI","1","m","rechts","22","","","self","j","150","true"
"null","<div style=""font-size:60px;"">+</div>","null","html-keyboard-response","380","338798","0.0-6.0-0.187","FAMI","1","m","rechts","22","","fixation","","","",""
"665","img/0_60.png","74","image-keyboard-response","381","339476","0.0-6.0-1.187","FAMI","1","m","rechts","22","","","self","j","0","true"
"null","<div style=""font-size:60px;"">+</div>","null","html-keyboard-response","382","339781","0.0-6.0-0.188","FAMI","1","m","rechts","22","","fixation","","","",""
"526","img/0_120.png","74","image-keyboard-response","383","340320","0.0-6.0-1.188","FAMI","1","m","rechts","22","","","self","j","0","true"
"null","<div style=""font-size:60px;"">+</div>","null","html-keyboard-response","384","340829","0.0-6.0-0.189","FAMI","1","m","rechts","22","","fixation","","","",""
"908","img/60_90.png","70","image-keyboard-response","385","341750","0.0-6.0-1.189","FAMI","1","m","rechts","22","","","self","j","60","false"
"null","<div style=""font-size:60px;"">+</div>","null","html-keyboard-response","386","342158","0.0-6.0-0.190","FAMI","1","m","rechts","22","","fixation","","","",""
"917","img/120_90.png","74","image-keyboard-response","387","343088","0.0-6.0-1.190","FAMI","1","m","rechts","22","","","self","f","120","false"
"null","<div style=""font-size:60px;"">+</div>","null","html-keyboard-response","388","343594","0.0-6.0-0.191","FAMI","1","m","rechts","22","","fixation","","","",""
"1733","img/30_120.png","74","image-keyboard-response","389","345337","0.0-6.0-1.191","FAMI","1","m","rechts","22","","","self","j","30","true"
"null","<div style=""font-size:60px;"">+</div>","null","html-keyboard-response","390","345752","0.0-6.0-0.192","FAMI","1","m","rechts","22","","fixation","","","",""
"966","img/120_210.png","74","image-keyboard-response","391","346734","0.0-6.0-1.192","FAMI","1","m","rechts","22","","","self","j","120","true"
"null","<div style=""font-size:60px;"">+</div>","null","html-keyboard-response","392","347050","0.0-6.0-0.193","FAMI","1","m","rechts","22","","fixation","","","",""
"1809","img/90_330.png","70","image-keyboard-response","393","348872","0.0-6.0-1.193","FAMI","1","m","rechts","22","","","self","f","90","true"
"null","<div style=""font-size:60px;"">+</div>","null","html-keyboard-response","394","349253","0.0-6.0-0.194","FAMI","1","m","rechts","22","","fixation","","","",""
"797","img/90_120.png","74","image-keyboard-response","395","350063","0.0-6.0-1.194","FAMI","1","m","rechts","22","","","self","f","90","false"
"null","<div style=""font-size:60px;"">+</div>","null","html-keyboard-response","396","350522","0.0-6.0-0.195","FAMI","1","m","rechts","22","","fixation","","","",""
"1184","img/30_240.png","70","image-keyboard-response","397","351718","0.0-6.0-1.195","FAMI","1","m","rechts","22","","","self","f","30","true"
"null","<div style=""font-size:60px;"">+</div>","null","html-keyboard-response","398","352226","0.0-6.0-0.196","FAMI","1","m","rechts","22","","fixation","","","",""
"1179","img/L60_180.png","70","image-keyboard-response","399","353415","0.0-6.0-1.196","FAMI","1","m","rechts","22","","","self","f","60","true"
"null","<div style=""font-size:60px;"">+</div>","null","html-keyboard-response","400","353820","0.0-6.0-0.197","FAMI","1","m","rechts","22","","fixation","","","",""
"2693","img/60_330.png","70","image-keyboard-response","401","356526","0.0-6.0-1.197","FAMI","1","m","rechts","22","","","self","f","60","true"
"null","<div style=""font-size:60px;"">+</div>","null","html-keyboard-response","402","356898","0.0-6.0-0.198","FAMI","1","m","rechts","22","","fixation","","","",""
"633","img/0_330.png","70","image-keyboard-response","403","357544","0.0-6.0-1.198","FAMI","1","m","rechts","22","","","self","f","0","true"
"null","<div style=""font-size:60px;"">+</div>","null","html-keyboard-response","404","357859","0.0-6.0-0.199","FAMI","1","m","rechts","22","","fixation","","","",""
"797","img/90_180.png","74","image-keyboard-response","405","358670","0.0-6.0-1.199","FAMI","1","m","rechts","22","","","self","j","90","true"
"null","<div style=""font-size:60px;"">+</div>","null","html-keyboard-response","406","359124","0.0-6.0-0.200","FAMI","1","m","rechts","22","","fixation","","","",""
"1153","img/60_30.png","74","image-keyboard-response","407","360291","0.0-6.0-1.200","FAMI","1","m","rechts","22","","","self","j","60","true"
"null","<div style=""font-size:60px;"">+</div>","null","html-keyboard-response","408","360796","0.0-6.0-0.201","FAMI","1","m","rechts","22","","fixation","","","",""
"973","img/150_90.png","70","image-keyboard-response","409","361786","0.0-6.0-1.201","FAMI","1","m","rechts","22","","","self","f","150","true"
"null","<div style=""font-size:60px;"">+</div>","null","html-keyboard-response","410","362093","0.0-6.0-0.202","FAMI","1","m","rechts","22","","fixation","","","",""
"910","img/150_60.png","70","image-keyboard-response","411","363012","0.0-6.0-1.202","FAMI","1","m","rechts","22","","","self","f","150","true"
"null","<div style=""font-size:60px;"">+</div>","null","html-keyboard-response","412","363517","0.0-6.0-0.203","FAMI","1","m","rechts","22","","fixation","","","",""
"742","img/0_30.png","74","image-keyboard-response","413","364274","0.0-6.0-1.203","FAMI","1","m","rechts","22","","","self","j","0","true"
"null","<div style=""font-size:60px;"">+</div>","null","html-keyboard-response","414","364703","0.0-6.0-0.204","FAMI","1","m","rechts","22","","fixation","","","",""
"929","img/120_270.png","74","image-keyboard-response","415","365646","0.0-6.0-1.204","FAMI","1","m","rechts","22","","","self","j","120","true"
"null","<div style=""font-size:60px;"">+</div>","null","html-keyboard-response","416","365955","0.0-6.0-0.205","FAMI","1","m","rechts","22","","fixation","","","",""
"881","img/90_240.png","74","image-keyboard-response","417","366850","0.0-6.0-1.205","FAMI","1","m","rechts","22","","","self","j","90","true"
"null","<div style=""font-size:60px;"">+</div>","null","html-keyboard-response","418","367376","0.0-6.0-0.206","FAMI","1","m","rechts","22","","fixation","","","",""
"737","img/90_150.png","70","image-keyboard-response","419","368129","0.0-6.0-1.206","FAMI","1","m","rechts","22","","","self","f","90","true"
"null","<div style=""font-size:60px;"">+</div>","null","html-keyboard-response","420","368595","0.0-6.0-0.207","FAMI","1","m","rechts","22","","fixation","","","",""
"951","img/90_60.png","74","image-keyboard-response","421","369560","0.0-6.0-1.207","FAMI","1","m","rechts","22","","","self","j","90","true"
"13573","<p>Du hast in 91% der Versuche korrekt entschieden.</p><p>Deine durchschnittliche Reaktionszeit war  1167ms.</p><p>Dr&uuml;cke eine beliebige Taste, um die Session zu beenden. Vielen Dank!</p>","32","html-keyboard-response","422","383141","0.0-7.0","FAMI","1","m","rechts","22","","","","","",""
