"rt","stimulus","key_press","trial_type","trial_index","time_elapsed","internal_node_id","subject","session","sex","handedness","age","responses","test_part","condition","correct_response","angle","correct"
"1385","<p>Mental Rotation Experiment.</p> <p>Dr&uuml;cke eine beliebige Taste, um anzufangen.</p>","32","html-keyboard-response","0","1390","0.0-0.0","FAHU","4","m","rechts","23","","","","","",""
"8225","","","survey-text","1","9617","0.0-1.0","FAHU","4","m","rechts","23","{""Q0"":""FAHU""}","","","","",""
"3906","","","survey-text","2","13524","0.0-2.0","FAHU","4","m","rechts","23","{""Q0"":""4""}","","","","",""
"4980","","","survey-multi-choice","3","18507","0.0-3.0","FAHU","4","m","rechts","23","{""Q0"":""m"",""Q1"":""rechts""}","","","","",""
"2643","","","survey-text","4","21150","0.0-4.0","FAHU","4","m","rechts","23","{""Q0"":""23""}","","","","",""
"10119","<p> Stell dir vor, dass du vor einem runden Tisch stehst, auf dem sich ein blauer Ball am Tischrand befindet. Entlang des Tischrands ist jeweils ein verschieden langer Pfeil. Nun bewegst du dich entlang dieses Pfeils bis an seine Spitze. Wenn du am Ende des Pfeils angekommen bist, schau zur Tischmitte. </p> <img src='img/90_180.png'></img> <br> <p>Entscheide dann, ob der Ball von deiner neuen (vorgestellten) Position links oder rechts von dir liegt.</p> <p>Dr&uuml;cke die <strong>'f'</strong>-Taste f&uuml;r links, die <strong>'j'</strong>-Taste f&uuml;r rechts.</p> <br><p> Das Bild wird jeweils 1 Sekunde lang pr&auml;sentiert. Du hast 3 Sekunden Zeit eine Entscheidung zu treffen.</p>","32","html-keyboard-response","5","31270","0.0-5.0","FAHU","4","m","rechts","23","","","","","",""
"null","<div style=""font-size:60px;"">+</div>","null","html-keyboard-response","6","32578","0.0-6.0-0.0","FAHU","4","m","rechts","23","","fixation","","","",""
"966","img/90_120.png","70","image-keyboard-response","7","33547","0.0-6.0-1.0","FAHU","4","m","rechts","23","","","self","f","90","true"
"null","<div style=""font-size:60px;"">+</div>","null","html-keyboard-response","8","34053","0.0-6.0-0.1","FAHU","4","m","rechts","23","","fixation","","","",""
"578","img/150_120.png","70","image-keyboard-response","9","34631","0.0-6.0-1.1","FAHU","4","m","rechts","23","","","self","f","150","true"
"null","<div style=""font-size:60px;"">+</div>","null","html-keyboard-response","10","35037","0.0-6.0-0.2","FAHU","4","m","rechts","23","","fixation","","","",""
"627","img/120_90.png","70","image-keyboard-response","11","35664","0.0-6.0-1.2","FAHU","4","m","rechts","23","","","self","f","120","true"
"null","<div style=""font-size:60px;"">+</div>","null","html-keyboard-response","12","35968","0.0-6.0-0.3","FAHU","4","m","rechts","23","","fixation","","","",""
"538","img/0_120.png","74","image-keyboard-response","13","36506","0.0-6.0-1.3","FAHU","4","m","rechts","23","","","self","j","0","true"
"null","<div style=""font-size:60px;"">+</div>","null","html-keyboard-response","14","36861","0.0-6.0-0.4","FAHU","4","m","rechts","23","","fixation","","","",""
"756","img/90_30.png","74","image-keyboard-response","15","37617","0.0-6.0-1.4","FAHU","4","m","rechts","23","","","self","j","90","true"
"null","<div style=""font-size:60px;"">+</div>","null","html-keyboard-response","16","38119","0.0-6.0-0.5","FAHU","4","m","rechts","23","","fixation","","","",""
"667","img/0_90.png","74","image-keyboard-response","17","38789","0.0-6.0-1.5","FAHU","4","m","rechts","23","","","self","j","0","true"
"null","<div style=""font-size:60px;"">+</div>","null","html-keyboard-response","18","39240","0.0-6.0-0.6","FAHU","4","m","rechts","23","","fixation","","","",""
"723","img/60_180.png","74","image-keyboard-response","19","39965","0.0-6.0-1.6","FAHU","4","m","rechts","23","","","self","j","60","true"
"null","<div style=""font-size:60px;"">+</div>","null","html-keyboard-response","20","40266","0.0-6.0-0.7","FAHU","4","m","rechts","23","","fixation","","","",""
"565","img/0_60.png","74","image-keyboard-response","21","40831","0.0-6.0-1.7","FAHU","4","m","rechts","23","","","self","j","0","true"
"null","<div style=""font-size:60px;"">+</div>","null","html-keyboard-response","22","41336","0.0-6.0-0.8","FAHU","4","m","rechts","23","","fixation","","","",""
"641","img/60_30.png","74","image-keyboard-response","23","41977","0.0-6.0-1.8","FAHU","4","m","rechts","23","","","self","j","60","true"
"null","<div style=""font-size:60px;"">+</div>","null","html-keyboard-response","24","42329","0.0-6.0-0.9","FAHU","4","m","rechts","23","","fixation","","","",""
"462","img/0_30.png","74","image-keyboard-response","25","42791","0.0-6.0-1.9","FAHU","4","m","rechts","23","","","self","j","0","true"
"null","<div style=""font-size:60px;"">+</div>","null","html-keyboard-response","26","43247","0.0-6.0-0.10","FAHU","4","m","rechts","23","","fixation","","","",""
"1030","img/150_60.png","70","image-keyboard-response","27","44277","0.0-6.0-1.10","FAHU","4","m","rechts","23","","","self","f","150","true"
"null","<div style=""font-size:60px;"">+</div>","null","html-keyboard-response","28","44581","0.0-6.0-0.11","FAHU","4","m","rechts","23","","fixation","","","",""
"581","img/150_90.png","70","image-keyboard-response","29","45162","0.0-6.0-1.11","FAHU","4","m","rechts","23","","","self","f","150","true"
"null","<div style=""font-size:60px;"">+</div>","null","html-keyboard-response","30","45618","0.0-6.0-0.12","FAHU","4","m","rechts","23","","fixation","","","",""
"618","img/120_330.png","70","image-keyboard-response","31","46238","0.0-6.0-1.12","FAHU","4","m","rechts","23","","","self","f","120","true"
"null","<div style=""font-size:60px;"">+</div>","null","html-keyboard-response","32","46693","0.0-6.0-0.13","FAHU","4","m","rechts","23","","fixation","","","",""
"800","img/60_270.png","70","image-keyboard-response","33","47495","0.0-6.0-1.13","FAHU","4","m","rechts","23","","","self","f","60","true"
"null","<div style=""font-size:60px;"">+</div>","null","html-keyboard-response","34","47849","0.0-6.0-0.14","FAHU","4","m","rechts","23","","fixation","","","",""
"511","img/30_270.png","70","image-keyboard-response","35","48360","0.0-6.0-1.14","FAHU","4","m","rechts","23","","","self","f","30","true"
"null","<div style=""font-size:60px;"">+</div>","null","html-keyboard-response","36","48713","0.0-6.0-0.15","FAHU","4","m","rechts","23","","fixation","","","",""
"716","img/90_240.png","74","image-keyboard-response","37","49429","0.0-6.0-1.15","FAHU","4","m","rechts","23","","","self","j","90","true"
"null","<div style=""font-size:60px;"">+</div>","null","html-keyboard-response","38","49834","0.0-6.0-0.16","FAHU","4","m","rechts","23","","fixation","","","",""
"514","img/150_240.png","74","image-keyboard-response","39","50349","0.0-6.0-1.16","FAHU","4","m","rechts","23","","","self","j","150","true"
"null","<div style=""font-size:60px;"">+</div>","null","html-keyboard-response","40","50852","0.0-6.0-0.17","FAHU","4","m","rechts","23","","fixation","","","",""
"518","img/0_270.png","70","image-keyboard-response","41","51372","0.0-6.0-1.17","FAHU","4","m","rechts","23","","","self","f","0","true"
"null","<div style=""font-size:60px;"">+</div>","null","html-keyboard-response","42","51726","0.0-6.0-0.18","FAHU","4","m","rechts","23","","fixation","","","",""
"650","img/150_180.png","74","image-keyboard-response","43","52377","0.0-6.0-1.18","FAHU","4","m","rechts","23","","","self","j","150","true"
"null","<div style=""font-size:60px;"">+</div>","null","html-keyboard-response","44","52782","0.0-6.0-0.19","FAHU","4","m","rechts","23","","fixation","","","",""
"565","img/L120_180.png","70","image-keyboard-response","45","53347","0.0-6.0-1.19","FAHU","4","m","rechts","23","","","self","f","120","true"
"null","<div style=""font-size:60px;"">+</div>","null","html-keyboard-response","46","53700","0.0-6.0-0.20","FAHU","4","m","rechts","23","","fixation","","","",""
"654","img/90_180.png","74","image-keyboard-response","47","54354","0.0-6.0-1.20","FAHU","4","m","rechts","23","","","self","j","90","true"
"null","<div style=""font-size:60px;"">+</div>","null","html-keyboard-response","48","54757","0.0-6.0-0.21","FAHU","4","m","rechts","23","","fixation","","","",""
"576","img/120_180.png","74","image-keyboard-response","49","55334","0.0-6.0-1.21","FAHU","4","m","rechts","23","","","self","j","120","true"
"null","<div style=""font-size:60px;"">+</div>","null","html-keyboard-response","50","55836","0.0-6.0-0.22","FAHU","4","m","rechts","23","","fixation","","","",""
"493","img/0_330.png","70","image-keyboard-response","51","56330","0.0-6.0-1.22","FAHU","4","m","rechts","23","","","self","f","0","true"
"null","<div style=""font-size:60px;"">+</div>","null","html-keyboard-response","52","56835","0.0-6.0-0.23","FAHU","4","m","rechts","23","","fixation","","","",""
"605","img/60_90.png","74","image-keyboard-response","53","57441","0.0-6.0-1.23","FAHU","4","m","rechts","23","","","self","j","60","true"
"null","<div style=""font-size:60px;"">+</div>","null","html-keyboard-response","54","57798","0.0-6.0-0.24","FAHU","4","m","rechts","23","","fixation","","","",""
"711","img/60_330.png","70","image-keyboard-response","55","58509","0.0-6.0-1.24","FAHU","4","m","rechts","23","","","self","f","60","true"
"null","<div style=""font-size:60px;"">+</div>","null","html-keyboard-response","56","59015","0.0-6.0-0.25","FAHU","4","m","rechts","23","","fixation","","","",""
"530","img/0_300.png","70","image-keyboard-response","57","59546","0.0-6.0-1.25","FAHU","4","m","rechts","23","","","self","f","0","true"
"null","<div style=""font-size:60px;"">+</div>","null","html-keyboard-response","58","59899","0.0-6.0-0.26","FAHU","4","m","rechts","23","","fixation","","","",""
"789","img/150_270.png","74","image-keyboard-response","59","60689","0.0-6.0-1.26","FAHU","4","m","rechts","23","","","self","j","150","true"
"null","<div style=""font-size:60px;"">+</div>","null","html-keyboard-response","60","61044","0.0-6.0-0.27","FAHU","4","m","rechts","23","","fixation","","","",""
"896","img/90_60.png","74","image-keyboard-response","61","61941","0.0-6.0-1.27","FAHU","4","m","rechts","23","","","self","j","90","true"
"null","<div style=""font-size:60px;"">+</div>","null","html-keyboard-response","62","62342","0.0-6.0-0.28","FAHU","4","m","rechts","23","","fixation","","","",""
"615","img/L60_180.png","70","image-keyboard-response","63","62958","0.0-6.0-1.28","FAHU","4","m","rechts","23","","","self","f","60","true"
"null","<div style=""font-size:60px;"">+</div>","null","html-keyboard-response","64","63309","0.0-6.0-0.29","FAHU","4","m","rechts","23","","fixation","","","",""
"564","img/30_240.png","70","image-keyboard-response","65","63873","0.0-6.0-1.29","FAHU","4","m","rechts","23","","","self","f","30","true"
"null","<div style=""font-size:60px;"">+</div>","null","html-keyboard-response","66","64177","0.0-6.0-0.30","FAHU","4","m","rechts","23","","fixation","","","",""
"781","img/120_270.png","74","image-keyboard-response","67","64960","0.0-6.0-1.30","FAHU","4","m","rechts","23","","","self","j","120","true"
"null","<div style=""font-size:60px;"">+</div>","null","html-keyboard-response","68","65413","0.0-6.0-0.31","FAHU","4","m","rechts","23","","fixation","","","",""
"494","img/0_210.png","70","image-keyboard-response","69","65912","0.0-6.0-1.31","FAHU","4","m","rechts","23","","","self","f","0","true"
"null","<div style=""font-size:60px;"">+</div>","null","html-keyboard-response","70","66213","0.0-6.0-0.32","FAHU","4","m","rechts","23","","fixation","","","",""
"566","img/L30_180.png","70","image-keyboard-response","71","66779","0.0-6.0-1.32","FAHU","4","m","rechts","23","","","self","f","30","true"
"null","<div style=""font-size:60px;"">+</div>","null","html-keyboard-response","72","67084","0.0-6.0-0.33","FAHU","4","m","rechts","23","","fixation","","","",""
"452","img/0_240.png","70","image-keyboard-response","73","67537","0.0-6.0-1.33","FAHU","4","m","rechts","23","","","self","f","0","true"
"null","<div style=""font-size:60px;"">+</div>","null","html-keyboard-response","74","68041","0.0-6.0-0.34","FAHU","4","m","rechts","23","","fixation","","","",""
"532","img/L90_180.png","70","image-keyboard-response","75","68573","0.0-6.0-1.34","FAHU","4","m","rechts","23","","","self","f","90","true"
"null","<div style=""font-size:60px;"">+</div>","null","html-keyboard-response","76","68879","0.0-6.0-0.35","FAHU","4","m","rechts","23","","fixation","","","",""
"697","img/90_210.png","74","image-keyboard-response","77","69577","0.0-6.0-1.35","FAHU","4","m","rechts","23","","","self","j","90","true"
"null","<div style=""font-size:60px;"">+</div>","null","html-keyboard-response","78","69979","0.0-6.0-0.36","FAHU","4","m","rechts","23","","fixation","","","",""
"418","img/L150_180.png","70","image-keyboard-response","79","70398","0.0-6.0-1.36","FAHU","4","m","rechts","23","","","self","f","150","true"
"null","<div style=""font-size:60px;"">+</div>","null","html-keyboard-response","80","70852","0.0-6.0-0.37","FAHU","4","m","rechts","23","","fixation","","","",""
"640","img/120_150.png","70","image-keyboard-response","81","71493","0.0-6.0-1.37","FAHU","4","m","rechts","23","","","self","f","120","true"
"null","<div style=""font-size:60px;"">+</div>","null","html-keyboard-response","82","71996","0.0-6.0-0.38","FAHU","4","m","rechts","23","","fixation","","","",""
"847","img/30_120.png","74","image-keyboard-response","83","72843","0.0-6.0-1.38","FAHU","4","m","rechts","23","","","self","j","30","true"
"null","<div style=""font-size:60px;"">+</div>","null","html-keyboard-response","84","73248","0.0-6.0-0.39","FAHU","4","m","rechts","23","","fixation","","","",""
"878","img/30_60.png","74","image-keyboard-response","85","74127","0.0-6.0-1.39","FAHU","4","m","rechts","23","","","self","j","30","true"
"null","<div style=""font-size:60px;"">+</div>","null","html-keyboard-response","86","74480","0.0-6.0-0.40","FAHU","4","m","rechts","23","","fixation","","","",""
"812","img/90_330.png","70","image-keyboard-response","87","75292","0.0-6.0-1.40","FAHU","4","m","rechts","23","","","self","f","90","true"
"null","<div style=""font-size:60px;"">+</div>","null","html-keyboard-response","88","75698","0.0-6.0-0.41","FAHU","4","m","rechts","23","","fixation","","","",""
"791","img/150_300.png","74","image-keyboard-response","89","76491","0.0-6.0-1.41","FAHU","4","m","rechts","23","","","self","j","150","true"
"null","<div style=""font-size:60px;"">+</div>","null","html-keyboard-response","90","76797","0.0-6.0-0.42","FAHU","4","m","rechts","23","","fixation","","","",""
"635","img/30_300.png","70","image-keyboard-response","91","77432","0.0-6.0-1.42","FAHU","4","m","rechts","23","","","self","f","30","true"
"null","<div style=""font-size:60px;"">+</div>","null","html-keyboard-response","92","77734","0.0-6.0-0.43","FAHU","4","m","rechts","23","","fixation","","","",""
"880","img/120_30.png","74","image-keyboard-response","93","78615","0.0-6.0-1.43","FAHU","4","m","rechts","23","","","self","j","120","true"
"null","<div style=""font-size:60px;"">+</div>","null","html-keyboard-response","94","78971","0.0-6.0-0.44","FAHU","4","m","rechts","23","","fixation","","","",""
"751","img/60_210.png","74","image-keyboard-response","95","79724","0.0-6.0-1.44","FAHU","4","m","rechts","23","","","self","j","60","true"
"null","<div style=""font-size:60px;"">+</div>","null","html-keyboard-response","96","80229","0.0-6.0-0.45","FAHU","4","m","rechts","23","","fixation","","","",""
"640","img/90_300.png","70","image-keyboard-response","97","80870","0.0-6.0-1.45","FAHU","4","m","rechts","23","","","self","f","90","true"
"null","<div style=""font-size:60px;"">+</div>","null","html-keyboard-response","98","81225","0.0-6.0-0.46","FAHU","4","m","rechts","23","","fixation","","","",""
"569","img/90_150.png","70","image-keyboard-response","99","81794","0.0-6.0-1.46","FAHU","4","m","rechts","23","","","self","f","90","true"
"null","<div style=""font-size:60px;"">+</div>","null","html-keyboard-response","100","82200","0.0-6.0-0.47","FAHU","4","m","rechts","23","","fixation","","","",""
"602","img/120_210.png","74","image-keyboard-response","101","82802","0.0-6.0-1.47","FAHU","4","m","rechts","23","","","self","j","120","true"
"null","<div style=""font-size:60px;"">+</div>","null","html-keyboard-response","102","83308","0.0-6.0-0.48","FAHU","4","m","rechts","23","","fixation","","","",""
"665","img/0_150.png","74","image-keyboard-response","103","83974","0.0-6.0-1.48","FAHU","4","m","rechts","23","","","self","j","0","true"
"null","<div style=""font-size:60px;"">+</div>","null","html-keyboard-response","104","84380","0.0-6.0-0.49","FAHU","4","m","rechts","23","","fixation","","","",""
"507","img/60_150.png","70","image-keyboard-response","105","84887","0.0-6.0-1.49","FAHU","4","m","rechts","23","","","self","f","60","true"
"null","<div style=""font-size:60px;"">+</div>","null","html-keyboard-response","106","85241","0.0-6.0-0.50","FAHU","4","m","rechts","23","","fixation","","","",""
"679","img/30_180.png","74","image-keyboard-response","107","85920","0.0-6.0-1.50","FAHU","4","m","rechts","23","","","self","j","30","true"
"null","<div style=""font-size:60px;"">+</div>","null","html-keyboard-response","108","86326","0.0-6.0-0.51","FAHU","4","m","rechts","23","","fixation","","","",""
"583","img/30_90.png","74","image-keyboard-response","109","86909","0.0-6.0-1.51","FAHU","4","m","rechts","23","","","self","j","30","true"
"null","<div style=""font-size:60px;"">+</div>","null","html-keyboard-response","110","87363","0.0-6.0-0.52","FAHU","4","m","rechts","23","","fixation","","","",""
"814","img/150_240.png","74","image-keyboard-response","111","88178","0.0-6.0-1.52","FAHU","4","m","rechts","23","","","self","j","150","true"
"null","<div style=""font-size:60px;"">+</div>","null","html-keyboard-response","112","88630","0.0-6.0-0.53","FAHU","4","m","rechts","23","","fixation","","","",""
"869","img/120_330.png","70","image-keyboard-response","113","89500","0.0-6.0-1.53","FAHU","4","m","rechts","23","","","self","f","120","true"
"null","<div style=""font-size:60px;"">+</div>","null","html-keyboard-response","114","89902","0.0-6.0-0.54","FAHU","4","m","rechts","23","","fixation","","","",""
"743","img/120_150.png","70","image-keyboard-response","115","90647","0.0-6.0-1.54","FAHU","4","m","rechts","23","","","self","f","120","true"
"null","<div style=""font-size:60px;"">+</div>","null","html-keyboard-response","116","91000","0.0-6.0-0.55","FAHU","4","m","rechts","23","","fixation","","","",""
"565","img/150_180.png","74","image-keyboard-response","117","91566","0.0-6.0-1.55","FAHU","4","m","rechts","23","","","self","j","150","true"
"null","<div style=""font-size:60px;"">+</div>","null","html-keyboard-response","118","92019","0.0-6.0-0.56","FAHU","4","m","rechts","23","","fixation","","","",""
"519","img/30_270.png","70","image-keyboard-response","119","92538","0.0-6.0-1.56","FAHU","4","m","rechts","23","","","self","f","30","true"
"null","<div style=""font-size:60px;"">+</div>","null","html-keyboard-response","120","93042","0.0-6.0-0.57","FAHU","4","m","rechts","23","","fixation","","","",""
"557","img/60_330.png","70","image-keyboard-response","121","93600","0.0-6.0-1.57","FAHU","4","m","rechts","23","","","self","f","60","true"
"null","<div style=""font-size:60px;"">+</div>","null","html-keyboard-response","122","93905","0.0-6.0-0.58","FAHU","4","m","rechts","23","","fixation","","","",""
"699","img/90_30.png","74","image-keyboard-response","123","94604","0.0-6.0-1.58","FAHU","4","m","rechts","23","","","self","j","90","true"
"null","<div style=""font-size:60px;"">+</div>","null","html-keyboard-response","124","94909","0.0-6.0-0.59","FAHU","4","m","rechts","23","","fixation","","","",""
"675","img/90_180.png","74","image-keyboard-response","125","95585","0.0-6.0-1.59","FAHU","4","m","rechts","23","","","self","j","90","true"
"null","<div style=""font-size:60px;"">+</div>","null","html-keyboard-response","126","95991","0.0-6.0-0.60","FAHU","4","m","rechts","23","","fixation","","","",""
"535","img/0_300.png","70","image-keyboard-response","127","96526","0.0-6.0-1.60","FAHU","4","m","rechts","23","","","self","f","0","true"
"null","<div style=""font-size:60px;"">+</div>","null","html-keyboard-response","128","96932","0.0-6.0-0.61","FAHU","4","m","rechts","23","","fixation","","","",""
"529","img/150_270.png","74","image-keyboard-response","129","97463","0.0-6.0-1.61","FAHU","4","m","rechts","23","","","self","j","150","true"
"null","<div style=""font-size:60px;"">+</div>","null","html-keyboard-response","130","97817","0.0-6.0-0.62","FAHU","4","m","rechts","23","","fixation","","","",""
"677","img/90_210.png","74","image-keyboard-response","131","98494","0.0-6.0-1.62","FAHU","4","m","rechts","23","","","self","j","90","true"
"null","<div style=""font-size:60px;"">+</div>","null","html-keyboard-response","132","98800","0.0-6.0-0.63","FAHU","4","m","rechts","23","","fixation","","","",""
"738","img/150_60.png","70","image-keyboard-response","133","99539","0.0-6.0-1.63","FAHU","4","m","rechts","23","","","self","f","150","true"
"null","<div style=""font-size:60px;"">+</div>","null","html-keyboard-response","134","100042","0.0-6.0-0.64","FAHU","4","m","rechts","23","","fixation","","","",""
"631","img/90_330.png","70","image-keyboard-response","135","100674","0.0-6.0-1.64","FAHU","4","m","rechts","23","","","self","f","90","true"
"null","<div style=""font-size:60px;"">+</div>","null","html-keyboard-response","136","101079","0.0-6.0-0.65","FAHU","4","m","rechts","23","","fixation","","","",""
"596","img/L30_180.png","70","image-keyboard-response","137","101676","0.0-6.0-1.65","FAHU","4","m","rechts","23","","","self","f","30","true"
"null","<div style=""font-size:60px;"">+</div>","null","html-keyboard-response","138","102032","0.0-6.0-0.66","FAHU","4","m","rechts","23","","fixation","","","",""
"539","img/60_150.png","70","image-keyboard-response","139","102571","0.0-6.0-1.66","FAHU","4","m","rechts","23","","","self","f","60","true"
"null","<div style=""font-size:60px;"">+</div>","null","html-keyboard-response","140","102972","0.0-6.0-0.67","FAHU","4","m","rechts","23","","fixation","","","",""
"646","img/120_210.png","74","image-keyboard-response","141","103619","0.0-6.0-1.67","FAHU","4","m","rechts","23","","","self","j","120","true"
"null","<div style=""font-size:60px;"">+</div>","null","html-keyboard-response","142","104123","0.0-6.0-0.68","FAHU","4","m","rechts","23","","fixation","","","",""
"538","img/60_90.png","74","image-keyboard-response","143","104662","0.0-6.0-1.68","FAHU","4","m","rechts","23","","","self","j","60","true"
"null","<div style=""font-size:60px;"">+</div>","null","html-keyboard-response","144","104965","0.0-6.0-0.69","FAHU","4","m","rechts","23","","fixation","","","",""
"524","img/30_240.png","74","image-keyboard-response","145","105490","0.0-6.0-1.69","FAHU","4","m","rechts","23","","","self","f","30","false"
"null","<div style=""font-size:60px;"">+</div>","null","html-keyboard-response","146","105794","0.0-6.0-0.70","FAHU","4","m","rechts","23","","fixation","","","",""
"568","img/90_240.png","74","image-keyboard-response","147","106363","0.0-6.0-1.70","FAHU","4","m","rechts","23","","","self","j","90","true"
"null","<div style=""font-size:60px;"">+</div>","null","html-keyboard-response","148","106816","0.0-6.0-0.71","FAHU","4","m","rechts","23","","fixation","","","",""
"579","img/0_90.png","74","image-keyboard-response","149","107396","0.0-6.0-1.71","FAHU","4","m","rechts","23","","","self","j","0","true"
"null","<div style=""font-size:60px;"">+</div>","null","html-keyboard-response","150","107750","0.0-6.0-0.72","FAHU","4","m","rechts","23","","fixation","","","",""
"526","img/0_240.png","70","image-keyboard-response","151","108276","0.0-6.0-1.72","FAHU","4","m","rechts","23","","","self","f","0","true"
"null","<div style=""font-size:60px;"">+</div>","null","html-keyboard-response","152","108581","0.0-6.0-0.73","FAHU","4","m","rechts","23","","fixation","","","",""
"646","img/60_30.png","74","image-keyboard-response","153","109228","0.0-6.0-1.73","FAHU","4","m","rechts","23","","","self","j","60","true"
"null","<div style=""font-size:60px;"">+</div>","null","html-keyboard-response","154","109733","0.0-6.0-0.74","FAHU","4","m","rechts","23","","fixation","","","",""
"521","img/90_60.png","74","image-keyboard-response","155","110254","0.0-6.0-1.74","FAHU","4","m","rechts","23","","","self","j","90","true"
"null","<div style=""font-size:60px;"">+</div>","null","html-keyboard-response","156","110658","0.0-6.0-0.75","FAHU","4","m","rechts","23","","fixation","","","",""
"605","img/L60_180.png","70","image-keyboard-response","157","111266","0.0-6.0-1.75","FAHU","4","m","rechts","23","","","self","f","60","true"
"null","<div style=""font-size:60px;"">+</div>","null","html-keyboard-response","158","111569","0.0-6.0-0.76","FAHU","4","m","rechts","23","","fixation","","","",""
"501","img/0_120.png","74","image-keyboard-response","159","112071","0.0-6.0-1.76","FAHU","4","m","rechts","23","","","self","j","0","true"
"null","<div style=""font-size:60px;"">+</div>","null","html-keyboard-response","160","112375","0.0-6.0-0.77","FAHU","4","m","rechts","23","","fixation","","","",""
"643","img/30_180.png","74","image-keyboard-response","161","113019","0.0-6.0-1.77","FAHU","4","m","rechts","23","","","self","j","30","true"
"null","<div style=""font-size:60px;"">+</div>","null","html-keyboard-response","162","113323","0.0-6.0-0.78","FAHU","4","m","rechts","23","","fixation","","","",""
"1016","img/120_270.png","74","image-keyboard-response","163","114340","0.0-6.0-1.78","FAHU","4","m","rechts","23","","","self","j","120","true"
"null","<div style=""font-size:60px;"">+</div>","null","html-keyboard-response","164","114791","0.0-6.0-0.79","FAHU","4","m","rechts","23","","fixation","","","",""
"684","img/120_180.png","74","image-keyboard-response","165","115477","0.0-6.0-1.79","FAHU","4","m","rechts","23","","","self","j","120","true"
"null","<div style=""font-size:60px;"">+</div>","null","html-keyboard-response","166","115882","0.0-6.0-0.80","FAHU","4","m","rechts","23","","fixation","","","",""
"644","img/L150_180.png","70","image-keyboard-response","167","116527","0.0-6.0-1.80","FAHU","4","m","rechts","23","","","self","f","150","true"
"null","<div style=""font-size:60px;"">+</div>","null","html-keyboard-response","168","116832","0.0-6.0-0.81","FAHU","4","m","rechts","23","","fixation","","","",""
"911","img/60_210.png","74","image-keyboard-response","169","117744","0.0-6.0-1.81","FAHU","4","m","rechts","23","","","self","j","60","true"
"null","<div style=""font-size:60px;"">+</div>","null","html-keyboard-response","170","118199","0.0-6.0-0.82","FAHU","4","m","rechts","23","","fixation","","","",""
"621","img/0_210.png","70","image-keyboard-response","171","118820","0.0-6.0-1.82","FAHU","4","m","rechts","23","","","self","f","0","true"
"null","<div style=""font-size:60px;"">+</div>","null","html-keyboard-response","172","119225","0.0-6.0-0.83","FAHU","4","m","rechts","23","","fixation","","","",""
"540","img/0_30.png","74","image-keyboard-response","173","119765","0.0-6.0-1.83","FAHU","4","m","rechts","23","","","self","j","0","true"
"null","<div style=""font-size:60px;"">+</div>","null","html-keyboard-response","174","120120","0.0-6.0-0.84","FAHU","4","m","rechts","23","","fixation","","","",""
"597","img/90_120.png","70","image-keyboard-response","175","120717","0.0-6.0-1.84","FAHU","4","m","rechts","23","","","self","f","90","true"
"null","<div style=""font-size:60px;"">+</div>","null","html-keyboard-response","176","121071","0.0-6.0-0.85","FAHU","4","m","rechts","23","","fixation","","","",""
"546","img/0_150.png","74","image-keyboard-response","177","121617","0.0-6.0-1.85","FAHU","4","m","rechts","23","","","self","j","0","true"
"null","<div style=""font-size:60px;"">+</div>","null","html-keyboard-response","178","121971","0.0-6.0-0.86","FAHU","4","m","rechts","23","","fixation","","","",""
"496","img/0_60.png","74","image-keyboard-response","179","122468","0.0-6.0-1.86","FAHU","4","m","rechts","23","","","self","j","0","true"
"null","<div style=""font-size:60px;"">+</div>","null","html-keyboard-response","180","122974","0.0-6.0-0.87","FAHU","4","m","rechts","23","","fixation","","","",""
"416","img/150_120.png","70","image-keyboard-response","181","123390","0.0-6.0-1.87","FAHU","4","m","rechts","23","","","self","f","150","true"
"null","<div style=""font-size:60px;"">+</div>","null","html-keyboard-response","182","123845","0.0-6.0-0.88","FAHU","4","m","rechts","23","","fixation","","","",""
"489","img/150_90.png","70","image-keyboard-response","183","124335","0.0-6.0-1.88","FAHU","4","m","rechts","23","","","self","f","150","true"
"null","<div style=""font-size:60px;"">+</div>","null","html-keyboard-response","184","124739","0.0-6.0-0.89","FAHU","4","m","rechts","23","","fixation","","","",""
"452","img/0_270.png","70","image-keyboard-response","185","125191","0.0-6.0-1.89","FAHU","4","m","rechts","23","","","self","f","0","true"
"null","<div style=""font-size:60px;"">+</div>","null","html-keyboard-response","186","125696","0.0-6.0-0.90","FAHU","4","m","rechts","23","","fixation","","","",""
"493","img/60_180.png","74","image-keyboard-response","187","126189","0.0-6.0-1.90","FAHU","4","m","rechts","23","","","self","j","60","true"
"null","<div style=""font-size:60px;"">+</div>","null","html-keyboard-response","188","126592","0.0-6.0-0.91","FAHU","4","m","rechts","23","","fixation","","","",""
"732","img/30_60.png","74","image-keyboard-response","189","127324","0.0-6.0-1.91","FAHU","4","m","rechts","23","","","self","j","30","true"
"null","<div style=""font-size:60px;"">+</div>","null","html-keyboard-response","190","127780","0.0-6.0-0.92","FAHU","4","m","rechts","23","","fixation","","","",""
"498","img/90_150.png","70","image-keyboard-response","191","128278","0.0-6.0-1.92","FAHU","4","m","rechts","23","","","self","f","90","true"
"null","<div style=""font-size:60px;"">+</div>","null","html-keyboard-response","192","128733","0.0-6.0-0.93","FAHU","4","m","rechts","23","","fixation","","","",""
"688","img/90_300.png","70","image-keyboard-response","193","129422","0.0-6.0-1.93","FAHU","4","m","rechts","23","","","self","f","90","true"
"null","<div style=""font-size:60px;"">+</div>","null","html-keyboard-response","194","129723","0.0-6.0-0.94","FAHU","4","m","rechts","23","","fixation","","","",""
"720","img/120_30.png","74","image-keyboard-response","195","130444","0.0-6.0-1.94","FAHU","4","m","rechts","23","","","self","j","120","true"
"null","<div style=""font-size:60px;"">+</div>","null","html-keyboard-response","196","130950","0.0-6.0-0.95","FAHU","4","m","rechts","23","","fixation","","","",""
"1081","img/150_300.png","74","image-keyboard-response","197","132031","0.0-6.0-1.95","FAHU","4","m","rechts","23","","","self","j","150","true"
"null","<div style=""font-size:60px;"">+</div>","null","html-keyboard-response","198","132385","0.0-6.0-0.96","FAHU","4","m","rechts","23","","fixation","","","",""
"622","img/30_90.png","74","image-keyboard-response","199","133008","0.0-6.0-1.96","FAHU","4","m","rechts","23","","","self","j","30","true"
"null","<div style=""font-size:60px;"">+</div>","null","html-keyboard-response","200","133312","0.0-6.0-0.97","FAHU","4","m","rechts","23","","fixation","","","",""
"490","img/30_120.png","74","image-keyboard-response","201","133804","0.0-6.0-1.97","FAHU","4","m","rechts","23","","","self","j","30","true"
"null","<div style=""font-size:60px;"">+</div>","null","html-keyboard-response","202","134109","0.0-6.0-0.98","FAHU","4","m","rechts","23","","fixation","","","",""
"571","img/30_300.png","70","image-keyboard-response","203","134680","0.0-6.0-1.98","FAHU","4","m","rechts","23","","","self","f","30","true"
"null","<div style=""font-size:60px;"">+</div>","null","html-keyboard-response","204","135086","0.0-6.0-0.99","FAHU","4","m","rechts","23","","fixation","","","",""
"473","img/60_270.png","70","image-keyboard-response","205","135560","0.0-6.0-1.99","FAHU","4","m","rechts","23","","","self","f","60","true"
"null","<div style=""font-size:60px;"">+</div>","null","html-keyboard-response","206","136064","0.0-6.0-0.100","FAHU","4","m","rechts","23","","fixation","","","",""
"468","img/L90_180.png","70","image-keyboard-response","207","136532","0.0-6.0-1.100","FAHU","4","m","rechts","23","","","self","f","90","true"
"null","<div style=""font-size:60px;"">+</div>","null","html-keyboard-response","208","136988","0.0-6.0-0.101","FAHU","4","m","rechts","23","","fixation","","","",""
"442","img/L120_180.png","70","image-keyboard-response","209","137430","0.0-6.0-1.101","FAHU","4","m","rechts","23","","","self","f","120","true"
"null","<div style=""font-size:60px;"">+</div>","null","html-keyboard-response","210","137735","0.0-6.0-0.102","FAHU","4","m","rechts","23","","fixation","","","",""
"596","img/0_330.png","70","image-keyboard-response","211","138331","0.0-6.0-1.102","FAHU","4","m","rechts","23","","","self","f","0","true"
"null","<div style=""font-size:60px;"">+</div>","null","html-keyboard-response","212","138837","0.0-6.0-0.103","FAHU","4","m","rechts","23","","fixation","","","",""
"720","img/120_90.png","70","image-keyboard-response","213","139557","0.0-6.0-1.103","FAHU","4","m","rechts","23","","","self","f","120","true"
"null","<div style=""font-size:60px;"">+</div>","null","html-keyboard-response","214","140062","0.0-6.0-0.104","FAHU","4","m","rechts","23","","fixation","","","",""
"1143","img/120_30.png","74","image-keyboard-response","215","141205","0.0-6.0-1.104","FAHU","4","m","rechts","23","","","self","j","120","true"
"null","<div style=""font-size:60px;"">+</div>","null","html-keyboard-response","216","141607","0.0-6.0-0.105","FAHU","4","m","rechts","23","","fixation","","","",""
"1322","img/150_300.png","74","image-keyboard-response","217","142930","0.0-6.0-1.105","FAHU","4","m","rechts","23","","","self","j","150","true"
"null","<div style=""font-size:60px;"">+</div>","null","html-keyboard-response","218","143336","0.0-6.0-0.106","FAHU","4","m","rechts","23","","fixation","","","",""
"589","img/30_90.png","74","image-keyboard-response","219","143925","0.0-6.0-1.106","FAHU","4","m","rechts","23","","","self","j","30","true"
"null","<div style=""font-size:60px;"">+</div>","null","html-keyboard-response","220","144330","0.0-6.0-0.107","FAHU","4","m","rechts","23","","fixation","","","",""
"781","img/150_240.png","74","image-keyboard-response","221","145112","0.0-6.0-1.107","FAHU","4","m","rechts","23","","","self","j","150","true"
"null","<div style=""font-size:60px;"">+</div>","null","html-keyboard-response","222","145513","0.0-6.0-0.108","FAHU","4","m","rechts","23","","fixation","","","",""
"562","img/0_270.png","70","image-keyboard-response","223","146076","0.0-6.0-1.108","FAHU","4","m","rechts","23","","","self","f","0","true"
"null","<div style=""font-size:60px;"">+</div>","null","html-keyboard-response","224","146482","0.0-6.0-0.109","FAHU","4","m","rechts","23","","fixation","","","",""
"551","img/30_180.png","74","image-keyboard-response","225","147033","0.0-6.0-1.109","FAHU","4","m","rechts","23","","","self","j","30","true"
"null","<div style=""font-size:60px;"">+</div>","null","html-keyboard-response","226","147435","0.0-6.0-0.110","FAHU","4","m","rechts","23","","fixation","","","",""
"444","img/0_30.png","74","image-keyboard-response","227","147879","0.0-6.0-1.110","FAHU","4","m","rechts","23","","","self","j","0","true"
"null","<div style=""font-size:60px;"">+</div>","null","html-keyboard-response","228","148281","0.0-6.0-0.111","FAHU","4","m","rechts","23","","fixation","","","",""
"559","img/60_180.png","74","image-keyboard-response","229","148841","0.0-6.0-1.111","FAHU","4","m","rechts","23","","","self","j","60","true"
"null","<div style=""font-size:60px;"">+</div>","null","html-keyboard-response","230","149246","0.0-6.0-0.112","FAHU","4","m","rechts","23","","fixation","","","",""
"611","img/L120_180.png","70","image-keyboard-response","231","149858","0.0-6.0-1.112","FAHU","4","m","rechts","23","","","self","f","120","true"
"null","<div style=""font-size:60px;"">+</div>","null","html-keyboard-response","232","150312","0.0-6.0-0.113","FAHU","4","m","rechts","23","","fixation","","","",""
"691","img/150_90.png","70","image-keyboard-response","233","151004","0.0-6.0-1.113","FAHU","4","m","rechts","23","","","self","f","150","true"
"null","<div style=""font-size:60px;"">+</div>","null","html-keyboard-response","234","151409","0.0-6.0-0.114","FAHU","4","m","rechts","23","","fixation","","","",""
"829","img/30_60.png","74","image-keyboard-response","235","152239","0.0-6.0-1.114","FAHU","4","m","rechts","23","","","self","j","30","true"
"null","<div style=""font-size:60px;"">+</div>","null","html-keyboard-response","236","152541","0.0-6.0-0.115","FAHU","4","m","rechts","23","","fixation","","","",""
"779","img/60_210.png","74","image-keyboard-response","237","153321","0.0-6.0-1.115","FAHU","4","m","rechts","23","","","self","j","60","true"
"null","<div style=""font-size:60px;"">+</div>","null","html-keyboard-response","238","153772","0.0-6.0-0.116","FAHU","4","m","rechts","23","","fixation","","","",""
"494","img/90_180.png","74","image-keyboard-response","239","154268","0.0-6.0-1.116","FAHU","4","m","rechts","23","","","self","j","90","true"
"null","<div style=""font-size:60px;"">+</div>","null","html-keyboard-response","240","154673","0.0-6.0-0.117","FAHU","4","m","rechts","23","","fixation","","","",""
"635","img/90_30.png","74","image-keyboard-response","241","155309","0.0-6.0-1.117","FAHU","4","m","rechts","23","","","self","j","90","true"
"null","<div style=""font-size:60px;"">+</div>","null","html-keyboard-response","242","155613","0.0-6.0-0.118","FAHU","4","m","rechts","23","","fixation","","","",""
"624","img/0_210.png","70","image-keyboard-response","243","156237","0.0-6.0-1.118","FAHU","4","m","rechts","23","","","self","f","0","true"
"null","<div style=""font-size:60px;"">+</div>","null","html-keyboard-response","244","156688","0.0-6.0-0.119","FAHU","4","m","rechts","23","","fixation","","","",""
"615","img/90_210.png","74","image-keyboard-response","245","157305","0.0-6.0-1.119","FAHU","4","m","rechts","23","","","self","j","90","true"
"null","<div style=""font-size:60px;"">+</div>","null","html-keyboard-response","246","157608","0.0-6.0-0.120","FAHU","4","m","rechts","23","","fixation","","","",""
"1062","img/150_60.png","70","image-keyboard-response","247","158670","0.0-6.0-1.120","FAHU","4","m","rechts","23","","","self","f","150","true"
"null","<div style=""font-size:60px;"">+</div>","null","html-keyboard-response","248","159125","0.0-6.0-0.121","FAHU","4","m","rechts","23","","fixation","","","",""
"522","img/90_120.png","70","image-keyboard-response","249","159648","0.0-6.0-1.121","FAHU","4","m","rechts","23","","","self","f","90","true"
"null","<div style=""font-size:60px;"">+</div>","null","html-keyboard-response","250","160104","0.0-6.0-0.122","FAHU","4","m","rechts","23","","fixation","","","",""
"490","img/120_90.png","70","image-keyboard-response","251","160594","0.0-6.0-1.122","FAHU","4","m","rechts","23","","","self","f","120","true"
"null","<div style=""font-size:60px;"">+</div>","null","html-keyboard-response","252","160946","0.0-6.0-0.123","FAHU","4","m","rechts","23","","fixation","","","",""
"520","img/150_120.png","70","image-keyboard-response","253","161467","0.0-6.0-1.123","FAHU","4","m","rechts","23","","","self","f","150","true"
"null","<div style=""font-size:60px;"">+</div>","null","html-keyboard-response","254","161871","0.0-6.0-0.124","FAHU","4","m","rechts","23","","fixation","","","",""
"2131","img/30_240.png","70","image-keyboard-response","255","164002","0.0-6.0-1.124","FAHU","4","m","rechts","23","","","self","f","30","true"
"null","<div style=""font-size:60px;"">+</div>","null","html-keyboard-response","256","164355","0.0-6.0-0.125","FAHU","4","m","rechts","23","","fixation","","","",""
"637","img/90_240.png","74","image-keyboard-response","257","164993","0.0-6.0-1.125","FAHU","4","m","rechts","23","","","self","j","90","true"
"null","<div style=""font-size:60px;"">+</div>","null","html-keyboard-response","258","165400","0.0-6.0-0.126","FAHU","4","m","rechts","23","","fixation","","","",""
"811","img/0_120.png","74","image-keyboard-response","259","166211","0.0-6.0-1.126","FAHU","4","m","rechts","23","","","self","j","0","true"
"null","<div style=""font-size:60px;"">+</div>","null","html-keyboard-response","260","166514","0.0-6.0-0.127","FAHU","4","m","rechts","23","","fixation","","","",""
"721","img/30_300.png","70","image-keyboard-response","261","167235","0.0-6.0-1.127","FAHU","4","m","rechts","23","","","self","f","30","true"
"null","<div style=""font-size:60px;"">+</div>","null","html-keyboard-response","262","167739","0.0-6.0-0.128","FAHU","4","m","rechts","23","","fixation","","","",""
"691","img/120_180.png","74","image-keyboard-response","263","168431","0.0-6.0-1.128","FAHU","4","m","rechts","23","","","self","j","120","true"
"null","<div style=""font-size:60px;"">+</div>","null","html-keyboard-response","264","168783","0.0-6.0-0.129","FAHU","4","m","rechts","23","","fixation","","","",""
"619","img/60_30.png","74","image-keyboard-response","265","169403","0.0-6.0-1.129","FAHU","4","m","rechts","23","","","self","j","60","true"
"null","<div style=""font-size:60px;"">+</div>","null","html-keyboard-response","266","169858","0.0-6.0-0.130","FAHU","4","m","rechts","23","","fixation","","","",""
"580","img/60_270.png","70","image-keyboard-response","267","170438","0.0-6.0-1.130","FAHU","4","m","rechts","23","","","self","f","60","true"
"null","<div style=""font-size:60px;"">+</div>","null","html-keyboard-response","268","170844","0.0-6.0-0.131","FAHU","4","m","rechts","23","","fixation","","","",""
"553","img/0_240.png","70","image-keyboard-response","269","171397","0.0-6.0-1.131","FAHU","4","m","rechts","23","","","self","f","0","true"
"null","<div style=""font-size:60px;"">+</div>","null","html-keyboard-response","270","171750","0.0-6.0-0.132","FAHU","4","m","rechts","23","","fixation","","","",""
"682","img/60_150.png","70","image-keyboard-response","271","172432","0.0-6.0-1.132","FAHU","4","m","rechts","23","","","self","f","60","true"
"null","<div style=""font-size:60px;"">+</div>","null","html-keyboard-response","272","172938","0.0-6.0-0.133","FAHU","4","m","rechts","23","","fixation","","","",""
"466","img/L30_180.png","70","image-keyboard-response","273","173404","0.0-6.0-1.133","FAHU","4","m","rechts","23","","","self","f","30","true"
"null","<div style=""font-size:60px;"">+</div>","null","html-keyboard-response","274","173759","0.0-6.0-0.134","FAHU","4","m","rechts","23","","fixation","","","",""
"618","img/120_330.png","70","image-keyboard-response","275","174377","0.0-6.0-1.134","FAHU","4","m","rechts","23","","","self","f","120","true"
"null","<div style=""font-size:60px;"">+</div>","null","html-keyboard-response","276","174780","0.0-6.0-0.135","FAHU","4","m","rechts","23","","fixation","","","",""
"680","img/60_90.png","70","image-keyboard-response","277","175462","0.0-6.0-1.135","FAHU","4","m","rechts","23","","","self","j","60","false"
"null","<div style=""font-size:60px;"">+</div>","null","html-keyboard-response","278","175916","0.0-6.0-0.136","FAHU","4","m","rechts","23","","fixation","","","",""
"565","img/90_330.png","70","image-keyboard-response","279","176481","0.0-6.0-1.136","FAHU","4","m","rechts","23","","","self","f","90","true"
"null","<div style=""font-size:60px;"">+</div>","null","html-keyboard-response","280","176984","0.0-6.0-0.137","FAHU","4","m","rechts","23","","fixation","","","",""
"566","img/120_210.png","70","image-keyboard-response","281","177550","0.0-6.0-1.137","FAHU","4","m","rechts","23","","","self","j","120","false"
"null","<div style=""font-size:60px;"">+</div>","null","html-keyboard-response","282","178060","0.0-6.0-0.138","FAHU","4","m","rechts","23","","fixation","","","",""
"565","img/0_300.png","70","image-keyboard-response","283","178625","0.0-6.0-1.138","FAHU","4","m","rechts","23","","","self","f","0","true"
"null","<div style=""font-size:60px;"">+</div>","null","html-keyboard-response","284","178980","0.0-6.0-0.139","FAHU","4","m","rechts","23","","fixation","","","",""
"560","img/150_180.png","74","image-keyboard-response","285","179541","0.0-6.0-1.139","FAHU","4","m","rechts","23","","","self","j","150","true"
"null","<div style=""font-size:60px;"">+</div>","null","html-keyboard-response","286","180045","0.0-6.0-0.140","FAHU","4","m","rechts","23","","fixation","","","",""
"580","img/30_120.png","74","image-keyboard-response","287","180625","0.0-6.0-1.140","FAHU","4","m","rechts","23","","","self","j","30","true"
"null","<div style=""font-size:60px;"">+</div>","null","html-keyboard-response","288","181076","0.0-6.0-0.141","FAHU","4","m","rechts","23","","fixation","","","",""
"534","img/0_150.png","74","image-keyboard-response","289","181611","0.0-6.0-1.141","FAHU","4","m","rechts","23","","","self","j","0","true"
"null","<div style=""font-size:60px;"">+</div>","null","html-keyboard-response","290","181912","0.0-6.0-0.142","FAHU","4","m","rechts","23","","fixation","","","",""
"571","img/L60_180.png","70","image-keyboard-response","291","182484","0.0-6.0-1.142","FAHU","4","m","rechts","23","","","self","f","60","true"
"null","<div style=""font-size:60px;"">+</div>","null","html-keyboard-response","292","182788","0.0-6.0-0.143","FAHU","4","m","rechts","23","","fixation","","","",""
"467","img/L150_180.png","70","image-keyboard-response","293","183255","0.0-6.0-1.143","FAHU","4","m","rechts","23","","","self","f","150","true"
"null","<div style=""font-size:60px;"">+</div>","null","html-keyboard-response","294","183658","0.0-6.0-0.144","FAHU","4","m","rechts","23","","fixation","","","",""
"541","img/0_90.png","74","image-keyboard-response","295","184200","0.0-6.0-1.144","FAHU","4","m","rechts","23","","","self","j","0","true"
"null","<div style=""font-size:60px;"">+</div>","null","html-keyboard-response","296","184653","0.0-6.0-0.145","FAHU","4","m","rechts","23","","fixation","","","",""
"531","img/120_150.png","70","image-keyboard-response","297","185184","0.0-6.0-1.145","FAHU","4","m","rechts","23","","","self","f","120","true"
"null","<div style=""font-size:60px;"">+</div>","null","html-keyboard-response","298","185588","0.0-6.0-0.146","FAHU","4","m","rechts","23","","fixation","","","",""
"596","img/90_300.png","70","image-keyboard-response","299","186184","0.0-6.0-1.146","FAHU","4","m","rechts","23","","","self","f","90","true"
"null","<div style=""font-size:60px;"">+</div>","null","html-keyboard-response","300","186640","0.0-6.0-0.147","FAHU","4","m","rechts","23","","fixation","","","",""
"469","img/150_270.png","70","image-keyboard-response","301","187111","0.0-6.0-1.147","FAHU","4","m","rechts","23","","","self","j","150","false"
"null","<div style=""font-size:60px;"">+</div>","null","html-keyboard-response","302","187567","0.0-6.0-0.148","FAHU","4","m","rechts","23","","fixation","","","",""
"765","img/90_60.png","74","image-keyboard-response","303","188333","0.0-6.0-1.148","FAHU","4","m","rechts","23","","","self","j","90","true"
"null","<div style=""font-size:60px;"">+</div>","null","html-keyboard-response","304","188687","0.0-6.0-0.149","FAHU","4","m","rechts","23","","fixation","","","",""
"517","img/L90_180.png","70","image-keyboard-response","305","189205","0.0-6.0-1.149","FAHU","4","m","rechts","23","","","self","f","90","true"
"null","<div style=""font-size:60px;"">+</div>","null","html-keyboard-response","306","189610","0.0-6.0-0.150","FAHU","4","m","rechts","23","","fixation","","","",""
"502","img/0_60.png","74","image-keyboard-response","307","190113","0.0-6.0-1.150","FAHU","4","m","rechts","23","","","self","j","0","true"
"null","<div style=""font-size:60px;"">+</div>","null","html-keyboard-response","308","190565","0.0-6.0-0.151","FAHU","4","m","rechts","23","","fixation","","","",""
"514","img/60_330.png","70","image-keyboard-response","309","191079","0.0-6.0-1.151","FAHU","4","m","rechts","23","","","self","f","60","true"
"null","<div style=""font-size:60px;"">+</div>","null","html-keyboard-response","310","191581","0.0-6.0-0.152","FAHU","4","m","rechts","23","","fixation","","","",""
"520","img/0_330.png","70","image-keyboard-response","311","192101","0.0-6.0-1.152","FAHU","4","m","rechts","23","","","self","f","0","true"
"null","<div style=""font-size:60px;"">+</div>","null","html-keyboard-response","312","192406","0.0-6.0-0.153","FAHU","4","m","rechts","23","","fixation","","","",""
"513","img/30_270.png","70","image-keyboard-response","313","192920","0.0-6.0-1.153","FAHU","4","m","rechts","23","","","self","f","30","true"
"null","<div style=""font-size:60px;"">+</div>","null","html-keyboard-response","314","193273","0.0-6.0-0.154","FAHU","4","m","rechts","23","","fixation","","","",""
"592","img/120_270.png","74","image-keyboard-response","315","193866","0.0-6.0-1.154","FAHU","4","m","rechts","23","","","self","j","120","true"
"null","<div style=""font-size:60px;"">+</div>","null","html-keyboard-response","316","194369","0.0-6.0-0.155","FAHU","4","m","rechts","23","","fixation","","","",""
"771","img/90_150.png","70","image-keyboard-response","317","195141","0.0-6.0-1.155","FAHU","4","m","rechts","23","","","self","f","90","true"
"null","<div style=""font-size:60px;"">+</div>","null","html-keyboard-response","318","195645","0.0-6.0-0.156","FAHU","4","m","rechts","23","","fixation","","","",""
"534","img/L60_180.png","70","image-keyboard-response","319","196179","0.0-6.0-1.156","FAHU","4","m","rechts","23","","","self","f","60","true"
"null","<div style=""font-size:60px;"">+</div>","null","html-keyboard-response","320","196534","0.0-6.0-0.157","FAHU","4","m","rechts","23","","fixation","","","",""
"593","img/90_330.png","70","image-keyboard-response","321","197127","0.0-6.0-1.157","FAHU","4","m","rechts","23","","","self","f","90","true"
"null","<div style=""font-size:60px;"">+</div>","null","html-keyboard-response","322","197532","0.0-6.0-0.158","FAHU","4","m","rechts","23","","fixation","","","",""
"578","img/0_150.png","74","image-keyboard-response","323","198113","0.0-6.0-1.158","FAHU","4","m","rechts","23","","","self","j","0","true"
"null","<div style=""font-size:60px;"">+</div>","null","html-keyboard-response","324","198466","0.0-6.0-0.159","FAHU","4","m","rechts","23","","fixation","","","",""
"510","img/30_120.png","74","image-keyboard-response","325","198977","0.0-6.0-1.159","FAHU","4","m","rechts","23","","","self","j","30","true"
"null","<div style=""font-size:60px;"">+</div>","null","html-keyboard-response","326","199480","0.0-6.0-0.160","FAHU","4","m","rechts","23","","fixation","","","",""
"569","img/150_90.png","70","image-keyboard-response","327","200050","0.0-6.0-1.160","FAHU","4","m","rechts","23","","","self","f","150","true"
"null","<div style=""font-size:60px;"">+</div>","null","html-keyboard-response","328","200352","0.0-6.0-0.161","FAHU","4","m","rechts","23","","fixation","","","",""
"637","img/90_300.png","70","image-keyboard-response","329","200990","0.0-6.0-1.161","FAHU","4","m","rechts","23","","","self","f","90","true"
"null","<div style=""font-size:60px;"">+</div>","null","html-keyboard-response","330","201294","0.0-6.0-0.162","FAHU","4","m","rechts","23","","fixation","","","",""
"596","img/0_90.png","74","image-keyboard-response","331","201890","0.0-6.0-1.162","FAHU","4","m","rechts","23","","","self","j","0","true"
"null","<div style=""font-size:60px;"">+</div>","null","html-keyboard-response","332","202247","0.0-6.0-0.163","FAHU","4","m","rechts","23","","fixation","","","",""
"701","img/90_210.png","74","image-keyboard-response","333","202948","0.0-6.0-1.163","FAHU","4","m","rechts","23","","","self","j","90","true"
"null","<div style=""font-size:60px;"">+</div>","null","html-keyboard-response","334","203401","0.0-6.0-0.164","FAHU","4","m","rechts","23","","fixation","","","",""
"732","img/90_60.png","74","image-keyboard-response","335","204134","0.0-6.0-1.164","FAHU","4","m","rechts","23","","","self","j","90","true"
"null","<div style=""font-size:60px;"">+</div>","null","html-keyboard-response","336","204590","0.0-6.0-0.165","FAHU","4","m","rechts","23","","fixation","","","",""
"786","img/150_270.png","74","image-keyboard-response","337","205378","0.0-6.0-1.165","FAHU","4","m","rechts","23","","","self","j","150","true"
"null","<div style=""font-size:60px;"">+</div>","null","html-keyboard-response","338","205780","0.0-6.0-0.166","FAHU","4","m","rechts","23","","fixation","","","",""
"571","img/120_180.png","74","image-keyboard-response","339","206352","0.0-6.0-1.166","FAHU","4","m","rechts","23","","","self","j","120","true"
"null","<div style=""font-size:60px;"">+</div>","null","html-keyboard-response","340","206707","0.0-6.0-0.167","FAHU","4","m","rechts","23","","fixation","","","",""
"538","img/0_30.png","74","image-keyboard-response","341","207246","0.0-6.0-1.167","FAHU","4","m","rechts","23","","","self","j","0","true"
"null","<div style=""font-size:60px;"">+</div>","null","html-keyboard-response","342","207602","0.0-6.0-0.168","FAHU","4","m","rechts","23","","fixation","","","",""
"639","img/0_270.png","70","image-keyboard-response","343","208241","0.0-6.0-1.168","FAHU","4","m","rechts","23","","","self","f","0","true"
"null","<div style=""font-size:60px;"">+</div>","null","html-keyboard-response","344","208544","0.0-6.0-0.169","FAHU","4","m","rechts","23","","fixation","","","",""
"531","img/0_60.png","74","image-keyboard-response","345","209076","0.0-6.0-1.169","FAHU","4","m","rechts","23","","","self","j","0","true"
"null","<div style=""font-size:60px;"">+</div>","null","html-keyboard-response","346","209582","0.0-6.0-0.170","FAHU","4","m","rechts","23","","fixation","","","",""
"532","img/30_90.png","74","image-keyboard-response","347","210114","0.0-6.0-1.170","FAHU","4","m","rechts","23","","","self","j","30","true"
"null","<div style=""font-size:60px;"">+</div>","null","html-keyboard-response","348","210619","0.0-6.0-0.171","FAHU","4","m","rechts","23","","fixation","","","",""
"669","img/120_270.png","74","image-keyboard-response","349","211290","0.0-6.0-1.171","FAHU","4","m","rechts","23","","","self","j","120","true"
"null","<div style=""font-size:60px;"">+</div>","null","html-keyboard-response","350","211741","0.0-6.0-0.172","FAHU","4","m","rechts","23","","fixation","","","",""
"624","img/120_150.png","70","image-keyboard-response","351","212367","0.0-6.0-1.172","FAHU","4","m","rechts","23","","","self","f","120","true"
"null","<div style=""font-size:60px;"">+</div>","null","html-keyboard-response","352","212722","0.0-6.0-0.173","FAHU","4","m","rechts","23","","fixation","","","",""
"1084","img/120_90.png","70","image-keyboard-response","353","213806","0.0-6.0-1.173","FAHU","4","m","rechts","23","","","self","f","120","true"
"null","<div style=""font-size:60px;"">+</div>","null","html-keyboard-response","354","214209","0.0-6.0-0.174","FAHU","4","m","rechts","23","","fixation","","","",""
"549","img/90_150.png","70","image-keyboard-response","355","214758","0.0-6.0-1.174","FAHU","4","m","rechts","23","","","self","f","90","true"
"null","<div style=""font-size:60px;"">+</div>","null","html-keyboard-response","356","215165","0.0-6.0-0.175","FAHU","4","m","rechts","23","","fixation","","","",""
"506","img/0_240.png","70","image-keyboard-response","357","215671","0.0-6.0-1.175","FAHU","4","m","rechts","23","","","self","f","0","true"
"null","<div style=""font-size:60px;"">+</div>","null","html-keyboard-response","358","215977","0.0-6.0-0.176","FAHU","4","m","rechts","23","","fixation","","","",""
"546","img/150_180.png","74","image-keyboard-response","359","216524","0.0-6.0-1.176","FAHU","4","m","rechts","23","","","self","j","150","true"
"null","<div style=""font-size:60px;"">+</div>","null","html-keyboard-response","360","216978","0.0-6.0-0.177","FAHU","4","m","rechts","23","","fixation","","","",""
"622","img/150_240.png","74","image-keyboard-response","361","217600","0.0-6.0-1.177","FAHU","4","m","rechts","23","","","self","j","150","true"
"null","<div style=""font-size:60px;"">+</div>","null","html-keyboard-response","362","217953","0.0-6.0-0.178","FAHU","4","m","rechts","23","","fixation","","","",""
"617","img/120_210.png","74","image-keyboard-response","363","218571","0.0-6.0-1.178","FAHU","4","m","rechts","23","","","self","j","120","true"
"null","<div style=""font-size:60px;"">+</div>","null","html-keyboard-response","364","219073","0.0-6.0-0.179","FAHU","4","m","rechts","23","","fixation","","","",""
"548","img/L30_180.png","70","image-keyboard-response","365","219623","0.0-6.0-1.179","FAHU","4","m","rechts","23","","","self","f","30","true"
"null","<div style=""font-size:60px;"">+</div>","null","html-keyboard-response","366","220024","0.0-6.0-0.180","FAHU","4","m","rechts","23","","fixation","","","",""
"496","img/30_300.png","70","image-keyboard-response","367","220521","0.0-6.0-1.180","FAHU","4","m","rechts","23","","","self","f","30","true"
"null","<div style=""font-size:60px;"">+</div>","null","html-keyboard-response","368","220975","0.0-6.0-0.181","FAHU","4","m","rechts","23","","fixation","","","",""
"421","img/60_270.png","70","image-keyboard-response","369","221397","0.0-6.0-1.181","FAHU","4","m","rechts","23","","","self","f","60","true"
"null","<div style=""font-size:60px;"">+</div>","null","html-keyboard-response","370","221700","0.0-6.0-0.182","FAHU","4","m","rechts","23","","fixation","","","",""
"509","img/0_120.png","74","image-keyboard-response","371","222210","0.0-6.0-1.182","FAHU","4","m","rechts","23","","","self","j","0","true"
"null","<div style=""font-size:60px;"">+</div>","null","html-keyboard-response","372","222711","0.0-6.0-0.183","FAHU","4","m","rechts","23","","fixation","","","",""
"456","img/0_330.png","70","image-keyboard-response","373","223167","0.0-6.0-1.183","FAHU","4","m","rechts","23","","","self","f","0","true"
"null","<div style=""font-size:60px;"">+</div>","null","html-keyboard-response","374","223471","0.0-6.0-0.184","FAHU","4","m","rechts","23","","fixation","","","",""
"478","img/60_30.png","70","image-keyboard-response","375","223949","0.0-6.0-1.184","FAHU","4","m","rechts","23","","","self","j","60","false"
"null","<div style=""font-size:60px;"">+</div>","null","html-keyboard-response","376","224302","0.0-6.0-0.185","FAHU","4","m","rechts","23","","fixation","","","",""
"681","img/90_120.png","70","image-keyboard-response","377","224984","0.0-6.0-1.185","FAHU","4","m","rechts","23","","","self","f","90","true"
"null","<div style=""font-size:60px;"">+</div>","null","html-keyboard-response","378","225335","0.0-6.0-0.186","FAHU","4","m","rechts","23","","fixation","","","",""
"549","img/L150_180.png","70","image-keyboard-response","379","225885","0.0-6.0-1.186","FAHU","4","m","rechts","23","","","self","f","150","true"
"null","<div style=""font-size:60px;"">+</div>","null","html-keyboard-response","380","226338","0.0-6.0-0.187","FAHU","4","m","rechts","23","","fixation","","","",""
"580","img/90_180.png","74","image-keyboard-response","381","226918","0.0-6.0-1.187","FAHU","4","m","rechts","23","","","self","j","90","true"
"null","<div style=""font-size:60px;"">+</div>","null","html-keyboard-response","382","227424","0.0-6.0-0.188","FAHU","4","m","rechts","23","","fixation","","","",""
"711","img/60_180.png","74","image-keyboard-response","383","228135","0.0-6.0-1.188","FAHU","4","m","rechts","23","","","self","j","60","true"
"null","<div style=""font-size:60px;"">+</div>","null","html-keyboard-response","384","228488","0.0-6.0-0.189","FAHU","4","m","rechts","23","","fixation","","","",""
"737","img/120_330.png","70","image-keyboard-response","385","229225","0.0-6.0-1.189","FAHU","4","m","rechts","23","","","self","f","120","true"
"null","<div style=""font-size:60px;"">+</div>","null","html-keyboard-response","386","229678","0.0-6.0-0.190","FAHU","4","m","rechts","23","","fixation","","","",""
"990","img/150_60.png","70","image-keyboard-response","387","230668","0.0-6.0-1.190","FAHU","4","m","rechts","23","","","self","f","150","true"
"null","<div style=""font-size:60px;"">+</div>","null","html-keyboard-response","388","231123","0.0-6.0-0.191","FAHU","4","m","rechts","23","","fixation","","","",""
"518","img/L90_180.png","70","image-keyboard-response","389","231642","0.0-6.0-1.191","FAHU","4","m","rechts","23","","","self","f","90","true"
"null","<div style=""font-size:60px;"">+</div>","null","html-keyboard-response","390","231946","0.0-6.0-0.192","FAHU","4","m","rechts","23","","fixation","","","",""
"731","img/120_30.png","74","image-keyboard-response","391","232679","0.0-6.0-1.192","FAHU","4","m","rechts","23","","","self","j","120","true"
"null","<div style=""font-size:60px;"">+</div>","null","html-keyboard-response","392","232984","0.0-6.0-0.193","FAHU","4","m","rechts","23","","fixation","","","",""
"542","img/90_30.png","74","image-keyboard-response","393","233526","0.0-6.0-1.193","FAHU","4","m","rechts","23","","","self","j","90","true"
"null","<div style=""font-size:60px;"">+</div>","null","html-keyboard-response","394","233879","0.0-6.0-0.194","FAHU","4","m","rechts","23","","fixation","","","",""
"1045","img/150_300.png","74","image-keyboard-response","395","234925","0.0-6.0-1.194","FAHU","4","m","rechts","23","","","self","j","150","true"
"null","<div style=""font-size:60px;"">+</div>","null","html-keyboard-response","396","235329","0.0-6.0-0.195","FAHU","4","m","rechts","23","","fixation","","","",""
"554","img/60_210.png","74","image-keyboard-response","397","235884","0.0-6.0-1.195","FAHU","4","m","rechts","23","","","self","j","60","true"
"null","<div style=""font-size:60px;"">+</div>","null","html-keyboard-response","398","236386","0.0-6.0-0.196","FAHU","4","m","rechts","23","","fixation","","","",""
"808","img/60_90.png","74","image-keyboard-response","399","237194","0.0-6.0-1.196","FAHU","4","m","rechts","23","","","self","j","60","true"
"null","<div style=""font-size:60px;"">+</div>","null","html-keyboard-response","400","237549","0.0-6.0-0.197","FAHU","4","m","rechts","23","","fixation","","","",""
"712","img/30_60.png","74","image-keyboard-response","401","238262","0.0-6.0-1.197","FAHU","4","m","rechts","23","","","self","j","30","true"
"null","<div style=""font-size:60px;"">+</div>","null","html-keyboard-response","402","238617","0.0-6.0-0.198","FAHU","4","m","rechts","23","","fixation","","","",""
"567","img/0_300.png","70","image-keyboard-response","403","239184","0.0-6.0-1.198","FAHU","4","m","rechts","23","","","self","f","0","true"
"null","<div style=""font-size:60px;"">+</div>","null","html-keyboard-response","404","239690","0.0-6.0-0.199","FAHU","4","m","rechts","23","","fixation","","","",""
"589","img/30_270.png","74","image-keyboard-response","405","240280","0.0-6.0-1.199","FAHU","4","m","rechts","23","","","self","f","30","false"
"null","<div style=""font-size:60px;"">+</div>","null","html-keyboard-response","406","240683","0.0-6.0-0.200","FAHU","4","m","rechts","23","","fixation","","","",""
"839","img/60_150.png","70","image-keyboard-response","407","241522","0.0-6.0-1.200","FAHU","4","m","rechts","23","","","self","f","60","true"
"null","<div style=""font-size:60px;"">+</div>","null","html-keyboard-response","408","241925","0.0-6.0-0.201","FAHU","4","m","rechts","23","","fixation","","","",""
"847","img/90_240.png","74","image-keyboard-response","409","242772","0.0-6.0-1.201","FAHU","4","m","rechts","23","","","self","j","90","true"
"null","<div style=""font-size:60px;"">+</div>","null","html-keyboard-response","410","243276","0.0-6.0-0.202","FAHU","4","m","rechts","23","","fixation","","","",""
"881","img/150_120.png","70","image-keyboard-response","411","244158","0.0-6.0-1.202","FAHU","4","m","rechts","23","","","self","f","150","true"
"null","<div style=""font-size:60px;"">+</div>","null","html-keyboard-response","412","244514","0.0-6.0-0.203","FAHU","4","m","rechts","23","","fixation","","","",""
"588","img/0_210.png","70","image-keyboard-response","413","245103","0.0-6.0-1.203","FAHU","4","m","rechts","23","","","self","f","0","true"
"null","<div style=""font-size:60px;"">+</div>","null","html-keyboard-response","414","245457","0.0-6.0-0.204","FAHU","4","m","rechts","23","","fixation","","","",""
"661","img/30_180.png","74","image-keyboard-response","415","246118","0.0-6.0-1.204","FAHU","4","m","rechts","23","","","self","j","30","true"
"null","<div style=""font-size:60px;"">+</div>","null","html-keyboard-response","416","246574","0.0-6.0-0.205","FAHU","4","m","rechts","23","","fixation","","","",""
"617","img/30_240.png","74","image-keyboard-response","417","247191","0.0-6.0-1.205","FAHU","4","m","rechts","23","","","self","f","30","false"
"null","<div style=""font-size:60px;"">+</div>","null","html-keyboard-response","418","247497","0.0-6.0-0.206","FAHU","4","m","rechts","23","","fixation","","","",""
"947","img/L120_180.png","70","image-keyboard-response","419","248445","0.0-6.0-1.206","FAHU","4","m","rechts","23","","","self","f","120","true"
"null","<div style=""font-size:60px;"">+</div>","null","html-keyboard-response","420","248895","0.0-6.0-0.207","FAHU","4","m","rechts","23","","fixation","","","",""
"578","img/60_330.png","70","image-keyboard-response","421","249473","0.0-6.0-1.207","FAHU","4","m","rechts","23","","","self","f","60","true"
"43115","<p>Du hast in 94% der Versuche korrekt entschieden.</p><p>Deine durchschnittliche Reaktionszeit war  645ms.</p><p>Dr&uuml;cke eine beliebige Taste, um die Session zu beenden. Vielen Dank!</p>","32","html-keyboard-response","422","292590","0.0-7.0","FAHU","4","m","rechts","23","","","","","",""
