"rt","stimulus","key_press","trial_type","trial_index","time_elapsed","internal_node_id","subject","session","sex","handedness","age","responses","test_part","condition","correct_response","angle","correct"
"30944","<p>Mental Rotation Experiment.</p> <p>Dr&uuml;cke eine beliebige Taste, um anzufangen.</p>","32","html-keyboard-response","0","30956","0.0-0.0","FAHU","1","m","rechts","23","","","","","",""
"3606","","","survey-text","1","34565","0.0-1.0","FAHU","1","m","rechts","23","{""Q0"":""FAHU""}","","","","",""
"5035","","","survey-text","2","39602","0.0-2.0","FAHU","1","m","rechts","23","{""Q0"":""1""}","","","","",""
"20224","","","survey-multi-choice","3","59830","0.0-3.0","FAHU","1","m","rechts","23","{""Q0"":""m"",""Q1"":""rechts""}","","","","",""
"5861","","","survey-text","4","65692","0.0-4.0","FAHU","1","m","rechts","23","{""Q0"":""23""}","","","","",""
"382736","<p> Stell dir vor, dass du vor einem runden Tisch stehst, auf dem sich ein blauer Ball am Tischrand befindet. Entlang des Tischrands ist jeweils ein verschieden langer Pfeil. Nun bewegst du dich entlang dieses Pfeils bis an seine Spitze. Wenn du am Ende des Pfeils angekommen bist, schau zur Tischmitte. </p> <img src='img/90_180.png'></img> <br> <p>Entscheide dann, ob der Ball von deiner neuen (vorgestellten) Position links oder rechts von dir liegt.</p> <p>Dr&uuml;cke die <strong>'f'</strong>-Taste f&uuml;r links, die <strong>'j'</strong>-Taste f&uuml;r rechts.</p> <br><p> Das Bild wird jeweils 1 Sekunde lang pr&auml;sentiert. Du hast 3 Sekunden Zeit eine Entscheidung zu treffen.</p>","32","html-keyboard-response","5","448428","0.0-5.0","FAHU","1","m","rechts","23","","","","","",""
"null","<div style=""font-size:60px;"">+</div>","null","html-keyboard-response","6","449938","0.0-6.0-0.0","FAHU","1","m","rechts","23","","fixation","","","",""
"1299","img/60_150.png","70","image-keyboard-response","7","451240","0.0-6.0-1.0","FAHU","1","m","rechts","23","","","self","f","60","true"
"null","<div style=""font-size:60px;"">+</div>","null","html-keyboard-response","8","451594","0.0-6.0-0.1","FAHU","1","m","rechts","23","","fixation","","","",""
"836","img/120_210.png","74","image-keyboard-response","9","452431","0.0-6.0-1.1","FAHU","1","m","rechts","23","","","self","j","120","true"
"null","<div style=""font-size:60px;"">+</div>","null","html-keyboard-response","10","452883","0.0-6.0-0.2","FAHU","1","m","rechts","23","","fixation","","","",""
"927","img/150_300.png","74","image-keyboard-response","11","453810","0.0-6.0-1.2","FAHU","1","m","rechts","23","","","self","j","150","true"
"null","<div style=""font-size:60px;"">+</div>","null","html-keyboard-response","12","454264","0.0-6.0-0.3","FAHU","1","m","rechts","23","","fixation","","","",""
"1163","img/120_330.png","70","image-keyboard-response","13","455428","0.0-6.0-1.3","FAHU","1","m","rechts","23","","","self","f","120","true"
"null","<div style=""font-size:60px;"">+</div>","null","html-keyboard-response","14","455734","0.0-6.0-0.4","FAHU","1","m","rechts","23","","fixation","","","",""
"869","img/120_270.png","74","image-keyboard-response","15","456603","0.0-6.0-1.4","FAHU","1","m","rechts","23","","","self","j","120","true"
"null","<div style=""font-size:60px;"">+</div>","null","html-keyboard-response","16","457004","0.0-6.0-0.5","FAHU","1","m","rechts","23","","fixation","","","",""
"1516","img/30_90.png","70","image-keyboard-response","17","458521","0.0-6.0-1.5","FAHU","1","m","rechts","23","","","self","j","30","false"
"null","<div style=""font-size:60px;"">+</div>","null","html-keyboard-response","18","458925","0.0-6.0-0.6","FAHU","1","m","rechts","23","","fixation","","","",""
"898","img/30_120.png","70","image-keyboard-response","19","459825","0.0-6.0-1.6","FAHU","1","m","rechts","23","","","self","j","30","false"
"null","<div style=""font-size:60px;"">+</div>","null","html-keyboard-response","20","460329","0.0-6.0-0.7","FAHU","1","m","rechts","23","","fixation","","","",""
"1010","img/90_120.png","70","image-keyboard-response","21","461340","0.0-6.0-1.7","FAHU","1","m","rechts","23","","","self","f","90","true"
"null","<div style=""font-size:60px;"">+</div>","null","html-keyboard-response","22","461793","0.0-6.0-0.8","FAHU","1","m","rechts","23","","fixation","","","",""
"715","img/L120_180.png","70","image-keyboard-response","23","462509","0.0-6.0-1.8","FAHU","1","m","rechts","23","","","self","f","120","true"
"null","<div style=""font-size:60px;"">+</div>","null","html-keyboard-response","24","462865","0.0-6.0-0.9","FAHU","1","m","rechts","23","","fixation","","","",""
"1269","img/60_270.png","70","image-keyboard-response","25","464134","0.0-6.0-1.9","FAHU","1","m","rechts","23","","","self","f","60","true"
"null","<div style=""font-size:60px;"">+</div>","null","html-keyboard-response","26","464537","0.0-6.0-0.10","FAHU","1","m","rechts","23","","fixation","","","",""
"929","img/30_180.png","74","image-keyboard-response","27","465467","0.0-6.0-1.10","FAHU","1","m","rechts","23","","","self","j","30","true"
"null","<div style=""font-size:60px;"">+</div>","null","html-keyboard-response","28","465920","0.0-6.0-0.11","FAHU","1","m","rechts","23","","fixation","","","",""
"1611","img/90_30.png","70","image-keyboard-response","29","467531","0.0-6.0-1.11","FAHU","1","m","rechts","23","","","self","j","90","false"
"null","<div style=""font-size:60px;"">+</div>","null","html-keyboard-response","30","467835","0.0-6.0-0.12","FAHU","1","m","rechts","23","","fixation","","","",""
"975","img/0_240.png","70","image-keyboard-response","31","468812","0.0-6.0-1.12","FAHU","1","m","rechts","23","","","self","f","0","true"
"null","<div style=""font-size:60px;"">+</div>","null","html-keyboard-response","32","469317","0.0-6.0-0.13","FAHU","1","m","rechts","23","","fixation","","","",""
"555","img/0_270.png","70","image-keyboard-response","33","469873","0.0-6.0-1.13","FAHU","1","m","rechts","23","","","self","f","0","true"
"null","<div style=""font-size:60px;"">+</div>","null","html-keyboard-response","34","470325","0.0-6.0-0.14","FAHU","1","m","rechts","23","","fixation","","","",""
"1216","img/30_60.png","74","image-keyboard-response","35","471541","0.0-6.0-1.14","FAHU","1","m","rechts","23","","","self","j","30","true"
"null","<div style=""font-size:60px;"">+</div>","null","html-keyboard-response","36","471997","0.0-6.0-0.15","FAHU","1","m","rechts","23","","fixation","","","",""
"898","img/0_30.png","74","image-keyboard-response","37","472895","0.0-6.0-1.15","FAHU","1","m","rechts","23","","","self","j","0","true"
"null","<div style=""font-size:60px;"">+</div>","null","html-keyboard-response","38","473349","0.0-6.0-0.16","FAHU","1","m","rechts","23","","fixation","","","",""
"874","img/60_210.png","74","image-keyboard-response","39","474223","0.0-6.0-1.16","FAHU","1","m","rechts","23","","","self","j","60","true"
"null","<div style=""font-size:60px;"">+</div>","null","html-keyboard-response","40","474627","0.0-6.0-0.17","FAHU","1","m","rechts","23","","fixation","","","",""
"746","img/L150_180.png","70","image-keyboard-response","41","475373","0.0-6.0-1.17","FAHU","1","m","rechts","23","","","self","f","150","true"
"null","<div style=""font-size:60px;"">+</div>","null","html-keyboard-response","42","475730","0.0-6.0-0.18","FAHU","1","m","rechts","23","","fixation","","","",""
"882","img/L60_180.png","70","image-keyboard-response","43","476613","0.0-6.0-1.18","FAHU","1","m","rechts","23","","","self","f","60","true"
"null","<div style=""font-size:60px;"">+</div>","null","html-keyboard-response","44","477018","0.0-6.0-0.19","FAHU","1","m","rechts","23","","fixation","","","",""
"702","img/150_180.png","74","image-keyboard-response","45","477721","0.0-6.0-1.19","FAHU","1","m","rechts","23","","","self","j","150","true"
"null","<div style=""font-size:60px;"">+</div>","null","html-keyboard-response","46","478074","0.0-6.0-0.20","FAHU","1","m","rechts","23","","fixation","","","",""
"985","img/150_120.png","70","image-keyboard-response","47","479059","0.0-6.0-1.20","FAHU","1","m","rechts","23","","","self","f","150","true"
"null","<div style=""font-size:60px;"">+</div>","null","html-keyboard-response","48","479465","0.0-6.0-0.21","FAHU","1","m","rechts","23","","fixation","","","",""
"1291","img/120_90.png","70","image-keyboard-response","49","480756","0.0-6.0-1.21","FAHU","1","m","rechts","23","","","self","f","120","true"
"null","<div style=""font-size:60px;"">+</div>","null","html-keyboard-response","50","481161","0.0-6.0-0.22","FAHU","1","m","rechts","23","","fixation","","","",""
"1111","img/30_300.png","70","image-keyboard-response","51","482273","0.0-6.0-1.22","FAHU","1","m","rechts","23","","","self","f","30","true"
"null","<div style=""font-size:60px;"">+</div>","null","html-keyboard-response","52","482629","0.0-6.0-0.23","FAHU","1","m","rechts","23","","fixation","","","",""
"1561","img/60_330.png","70","image-keyboard-response","53","484191","0.0-6.0-1.23","FAHU","1","m","rechts","23","","","self","f","60","true"
"null","<div style=""font-size:60px;"">+</div>","null","html-keyboard-response","54","484494","0.0-6.0-0.24","FAHU","1","m","rechts","23","","fixation","","","",""
"964","img/0_120.png","74","image-keyboard-response","55","485458","0.0-6.0-1.24","FAHU","1","m","rechts","23","","","self","j","0","true"
"null","<div style=""font-size:60px;"">+</div>","null","html-keyboard-response","56","485864","0.0-6.0-0.25","FAHU","1","m","rechts","23","","fixation","","","",""
"836","img/60_180.png","74","image-keyboard-response","57","486700","0.0-6.0-1.25","FAHU","1","m","rechts","23","","","self","j","60","true"
"null","<div style=""font-size:60px;"">+</div>","null","html-keyboard-response","58","487205","0.0-6.0-0.26","FAHU","1","m","rechts","23","","fixation","","","",""
"764","img/0_330.png","70","image-keyboard-response","59","487969","0.0-6.0-1.26","FAHU","1","m","rechts","23","","","self","f","0","true"
"null","<div style=""font-size:60px;"">+</div>","null","html-keyboard-response","60","488423","0.0-6.0-0.27","FAHU","1","m","rechts","23","","fixation","","","",""
"933","img/30_270.png","74","image-keyboard-response","61","489356","0.0-6.0-1.27","FAHU","1","m","rechts","23","","","self","f","30","false"
"null","<div style=""font-size:60px;"">+</div>","null","html-keyboard-response","62","489712","0.0-6.0-0.28","FAHU","1","m","rechts","23","","fixation","","","",""
"1075","img/60_30.png","70","image-keyboard-response","63","490787","0.0-6.0-1.28","FAHU","1","m","rechts","23","","","self","j","60","false"
"null","<div style=""font-size:60px;"">+</div>","null","html-keyboard-response","64","491192","0.0-6.0-0.29","FAHU","1","m","rechts","23","","fixation","","","",""
"871","img/L30_180.png","70","image-keyboard-response","65","492063","0.0-6.0-1.29","FAHU","1","m","rechts","23","","","self","f","30","true"
"null","<div style=""font-size:60px;"">+</div>","null","html-keyboard-response","66","492364","0.0-6.0-0.30","FAHU","1","m","rechts","23","","fixation","","","",""
"905","img/120_180.png","74","image-keyboard-response","67","493270","0.0-6.0-1.30","FAHU","1","m","rechts","23","","","self","j","120","true"
"null","<div style=""font-size:60px;"">+</div>","null","html-keyboard-response","68","493625","0.0-6.0-0.31","FAHU","1","m","rechts","23","","fixation","","","",""
"922","img/150_90.png","70","image-keyboard-response","69","494551","0.0-6.0-1.31","FAHU","1","m","rechts","23","","","self","f","150","true"
"null","<div style=""font-size:60px;"">+</div>","null","html-keyboard-response","70","494854","0.0-6.0-0.32","FAHU","1","m","rechts","23","","fixation","","","",""
"1125","img/90_150.png","70","image-keyboard-response","71","495981","0.0-6.0-1.32","FAHU","1","m","rechts","23","","","self","f","90","true"
"null","<div style=""font-size:60px;"">+</div>","null","html-keyboard-response","72","496433","0.0-6.0-0.33","FAHU","1","m","rechts","23","","fixation","","","",""
"683","img/0_60.png","74","image-keyboard-response","73","497116","0.0-6.0-1.33","FAHU","1","m","rechts","23","","","self","j","0","true"
"null","<div style=""font-size:60px;"">+</div>","null","html-keyboard-response","74","497622","0.0-6.0-0.34","FAHU","1","m","rechts","23","","fixation","","","",""
"628","img/0_300.png","70","image-keyboard-response","75","498251","0.0-6.0-1.34","FAHU","1","m","rechts","23","","","self","f","0","true"
"null","<div style=""font-size:60px;"">+</div>","null","html-keyboard-response","76","498755","0.0-6.0-0.35","FAHU","1","m","rechts","23","","fixation","","","",""
"588","img/120_150.png","70","image-keyboard-response","77","499343","0.0-6.0-1.35","FAHU","1","m","rechts","23","","","self","f","120","true"
"null","<div style=""font-size:60px;"">+</div>","null","html-keyboard-response","78","499646","0.0-6.0-0.36","FAHU","1","m","rechts","23","","fixation","","","",""
"788","img/150_60.png","70","image-keyboard-response","79","500434","0.0-6.0-1.36","FAHU","1","m","rechts","23","","","self","f","150","true"
"null","<div style=""font-size:60px;"">+</div>","null","html-keyboard-response","80","500740","0.0-6.0-0.37","FAHU","1","m","rechts","23","","fixation","","","",""
"559","img/90_60.png","70","image-keyboard-response","81","501299","0.0-6.0-1.37","FAHU","1","m","rechts","23","","","self","j","90","false"
"null","<div style=""font-size:60px;"">+</div>","null","html-keyboard-response","82","501704","0.0-6.0-0.38","FAHU","1","m","rechts","23","","fixation","","","",""
"575","img/90_300.png","74","image-keyboard-response","83","502280","0.0-6.0-1.38","FAHU","1","m","rechts","23","","","self","f","90","false"
"null","<div style=""font-size:60px;"">+</div>","null","html-keyboard-response","84","502633","0.0-6.0-0.39","FAHU","1","m","rechts","23","","fixation","","","",""
"705","img/0_210.png","70","image-keyboard-response","85","503339","0.0-6.0-1.39","FAHU","1","m","rechts","23","","","self","f","0","true"
"null","<div style=""font-size:60px;"">+</div>","null","html-keyboard-response","86","503742","0.0-6.0-0.40","FAHU","1","m","rechts","23","","fixation","","","",""
"544","img/60_90.png","70","image-keyboard-response","87","504286","0.0-6.0-1.40","FAHU","1","m","rechts","23","","","self","j","60","false"
"null","<div style=""font-size:60px;"">+</div>","null","html-keyboard-response","88","504739","0.0-6.0-0.41","FAHU","1","m","rechts","23","","fixation","","","",""
"791","img/30_240.png","74","image-keyboard-response","89","505531","0.0-6.0-1.41","FAHU","1","m","rechts","23","","","self","f","30","false"
"null","<div style=""font-size:60px;"">+</div>","null","html-keyboard-response","90","505836","0.0-6.0-0.42","FAHU","1","m","rechts","23","","fixation","","","",""
"669","img/L90_180.png","70","image-keyboard-response","91","506505","0.0-6.0-1.42","FAHU","1","m","rechts","23","","","self","f","90","true"
"null","<div style=""font-size:60px;"">+</div>","null","html-keyboard-response","92","506961","0.0-6.0-0.43","FAHU","1","m","rechts","23","","fixation","","","",""
"601","img/150_240.png","74","image-keyboard-response","93","507563","0.0-6.0-1.43","FAHU","1","m","rechts","23","","","self","j","150","true"
"null","<div style=""font-size:60px;"">+</div>","null","html-keyboard-response","94","507869","0.0-6.0-0.44","FAHU","1","m","rechts","23","","fixation","","","",""
"617","img/120_30.png","70","image-keyboard-response","95","508486","0.0-6.0-1.44","FAHU","1","m","rechts","23","","","self","j","120","false"
"null","<div style=""font-size:60px;"">+</div>","null","html-keyboard-response","96","508890","0.0-6.0-0.45","FAHU","1","m","rechts","23","","fixation","","","",""
"609","img/90_240.png","74","image-keyboard-response","97","509499","0.0-6.0-1.45","FAHU","1","m","rechts","23","","","self","j","90","true"
"null","<div style=""font-size:60px;"">+</div>","null","html-keyboard-response","98","509955","0.0-6.0-0.46","FAHU","1","m","rechts","23","","fixation","","","",""
"1122","img/90_180.png","74","image-keyboard-response","99","511078","0.0-6.0-1.46","FAHU","1","m","rechts","23","","","self","j","90","true"
"null","<div style=""font-size:60px;"">+</div>","null","html-keyboard-response","100","511380","0.0-6.0-0.47","FAHU","1","m","rechts","23","","fixation","","","",""
"583","img/0_90.png","74","image-keyboard-response","101","511964","0.0-6.0-1.47","FAHU","1","m","rechts","23","","","self","j","0","true"
"null","<div style=""font-size:60px;"">+</div>","null","html-keyboard-response","102","512466","0.0-6.0-0.48","FAHU","1","m","rechts","23","","fixation","","","",""
"549","img/0_150.png","74","image-keyboard-response","103","513015","0.0-6.0-1.48","FAHU","1","m","rechts","23","","","self","j","0","true"
"null","<div style=""font-size:60px;"">+</div>","null","html-keyboard-response","104","513318","0.0-6.0-0.49","FAHU","1","m","rechts","23","","fixation","","","",""
"1057","img/150_270.png","74","image-keyboard-response","105","514375","0.0-6.0-1.49","FAHU","1","m","rechts","23","","","self","j","150","true"
"null","<div style=""font-size:60px;"">+</div>","null","html-keyboard-response","106","514827","0.0-6.0-0.50","FAHU","1","m","rechts","23","","fixation","","","",""
"902","img/90_210.png","74","image-keyboard-response","107","515730","0.0-6.0-1.50","FAHU","1","m","rechts","23","","","self","j","90","true"
"null","<div style=""font-size:60px;"">+</div>","null","html-keyboard-response","108","516034","0.0-6.0-0.51","FAHU","1","m","rechts","23","","fixation","","","",""
"1469","img/90_330.png","70","image-keyboard-response","109","517503","0.0-6.0-1.51","FAHU","1","m","rechts","23","","","self","f","90","true"
"null","<div style=""font-size:60px;"">+</div>","null","html-keyboard-response","110","517905","0.0-6.0-0.52","FAHU","1","m","rechts","23","","fixation","","","",""
"827","img/0_60.png","74","image-keyboard-response","111","518732","0.0-6.0-1.52","FAHU","1","m","rechts","23","","","self","j","0","true"
"null","<div style=""font-size:60px;"">+</div>","null","html-keyboard-response","112","519233","0.0-6.0-0.53","FAHU","1","m","rechts","23","","fixation","","","",""
"718","img/150_300.png","74","image-keyboard-response","113","519951","0.0-6.0-1.53","FAHU","1","m","rechts","23","","","self","j","150","true"
"null","<div style=""font-size:60px;"">+</div>","null","html-keyboard-response","114","520255","0.0-6.0-0.54","FAHU","1","m","rechts","23","","fixation","","","",""
"1942","img/60_90.png","70","image-keyboard-response","115","522198","0.0-6.0-1.54","FAHU","1","m","rechts","23","","","self","j","60","false"
"null","<div style=""font-size:60px;"">+</div>","null","html-keyboard-response","116","522704","0.0-6.0-0.55","FAHU","1","m","rechts","23","","fixation","","","",""
"787","img/0_120.png","74","image-keyboard-response","117","523492","0.0-6.0-1.55","FAHU","1","m","rechts","23","","","self","j","0","true"
"null","<div style=""font-size:60px;"">+</div>","null","html-keyboard-response","118","523993","0.0-6.0-0.56","FAHU","1","m","rechts","23","","fixation","","","",""
"797","img/60_210.png","74","image-keyboard-response","119","524790","0.0-6.0-1.56","FAHU","1","m","rechts","23","","","self","j","60","true"
"null","<div style=""font-size:60px;"">+</div>","null","html-keyboard-response","120","525241","0.0-6.0-0.57","FAHU","1","m","rechts","23","","fixation","","","",""
"775","img/90_150.png","70","image-keyboard-response","121","526017","0.0-6.0-1.57","FAHU","1","m","rechts","23","","","self","f","90","true"
"null","<div style=""font-size:60px;"">+</div>","null","html-keyboard-response","122","526368","0.0-6.0-0.58","FAHU","1","m","rechts","23","","fixation","","","",""
"668","img/150_270.png","74","image-keyboard-response","123","527036","0.0-6.0-1.58","FAHU","1","m","rechts","23","","","self","j","150","true"
"null","<div style=""font-size:60px;"">+</div>","null","html-keyboard-response","124","527341","0.0-6.0-0.59","FAHU","1","m","rechts","23","","fixation","","","",""
"834","img/30_120.png","70","image-keyboard-response","125","528177","0.0-6.0-1.59","FAHU","1","m","rechts","23","","","self","j","30","false"
"null","<div style=""font-size:60px;"">+</div>","null","html-keyboard-response","126","528480","0.0-6.0-0.60","FAHU","1","m","rechts","23","","fixation","","","",""
"770","img/150_120.png","70","image-keyboard-response","127","529250","0.0-6.0-1.60","FAHU","1","m","rechts","23","","","self","f","150","true"
"null","<div style=""font-size:60px;"">+</div>","null","html-keyboard-response","128","529605","0.0-6.0-0.61","FAHU","1","m","rechts","23","","fixation","","","",""
"536","img/150_60.png","70","image-keyboard-response","129","530143","0.0-6.0-1.61","FAHU","1","m","rechts","23","","","self","f","150","true"
"null","<div style=""font-size:60px;"">+</div>","null","html-keyboard-response","130","530499","0.0-6.0-0.62","FAHU","1","m","rechts","23","","fixation","","","",""
"744","img/60_150.png","70","image-keyboard-response","131","531245","0.0-6.0-1.62","FAHU","1","m","rechts","23","","","self","f","60","true"
"null","<div style=""font-size:60px;"">+</div>","null","html-keyboard-response","132","531700","0.0-6.0-0.63","FAHU","1","m","rechts","23","","fixation","","","",""
"517","img/90_30.png","70","image-keyboard-response","133","532218","0.0-6.0-1.63","FAHU","1","m","rechts","23","","","self","j","90","false"
"null","<div style=""font-size:60px;"">+</div>","null","html-keyboard-response","134","532572","0.0-6.0-0.64","FAHU","1","m","rechts","23","","fixation","","","",""
"489","img/90_240.png","74","image-keyboard-response","135","533062","0.0-6.0-1.64","FAHU","1","m","rechts","23","","","self","j","90","true"
"null","<div style=""font-size:60px;"">+</div>","null","html-keyboard-response","136","533565","0.0-6.0-0.65","FAHU","1","m","rechts","23","","fixation","","","",""
"772","img/30_60.png","70","image-keyboard-response","137","534338","0.0-6.0-1.65","FAHU","1","m","rechts","23","","","self","j","30","false"
"null","<div style=""font-size:60px;"">+</div>","null","html-keyboard-response","138","534842","0.0-6.0-0.66","FAHU","1","m","rechts","23","","fixation","","","",""
"748","img/L90_180.png","70","image-keyboard-response","139","535590","0.0-6.0-1.66","FAHU","1","m","rechts","23","","","self","f","90","true"
"null","<div style=""font-size:60px;"">+</div>","null","html-keyboard-response","140","536046","0.0-6.0-0.67","FAHU","1","m","rechts","23","","fixation","","","",""
"664","img/0_210.png","70","image-keyboard-response","141","536711","0.0-6.0-1.67","FAHU","1","m","rechts","23","","","self","f","0","true"
"null","<div style=""font-size:60px;"">+</div>","null","html-keyboard-response","142","537117","0.0-6.0-0.68","FAHU","1","m","rechts","23","","fixation","","","",""
"764","img/60_180.png","74","image-keyboard-response","143","537881","0.0-6.0-1.68","FAHU","1","m","rechts","23","","","self","j","60","true"
"null","<div style=""font-size:60px;"">+</div>","null","html-keyboard-response","144","538237","0.0-6.0-0.69","FAHU","1","m","rechts","23","","fixation","","","",""
"569","img/60_30.png","70","image-keyboard-response","145","538807","0.0-6.0-1.69","FAHU","1","m","rechts","23","","","self","j","60","false"
"null","<div style=""font-size:60px;"">+</div>","null","html-keyboard-response","146","539310","0.0-6.0-0.70","FAHU","1","m","rechts","23","","fixation","","","",""
"689","img/0_90.png","74","image-keyboard-response","147","540001","0.0-6.0-1.70","FAHU","1","m","rechts","23","","","self","j","0","true"
"null","<div style=""font-size:60px;"">+</div>","null","html-keyboard-response","148","540454","0.0-6.0-0.71","FAHU","1","m","rechts","23","","fixation","","","",""
"1073","img/60_270.png","74","image-keyboard-response","149","541528","0.0-6.0-1.71","FAHU","1","m","rechts","23","","","self","f","60","false"
"null","<div style=""font-size:60px;"">+</div>","null","html-keyboard-response","150","541830","0.0-6.0-0.72","FAHU","1","m","rechts","23","","fixation","","","",""
"872","img/150_90.png","70","image-keyboard-response","151","542703","0.0-6.0-1.72","FAHU","1","m","rechts","23","","","self","f","150","true"
"null","<div style=""font-size:60px;"">+</div>","null","html-keyboard-response","152","543205","0.0-6.0-0.73","FAHU","1","m","rechts","23","","fixation","","","",""
"720","img/0_300.png","70","image-keyboard-response","153","543925","0.0-6.0-1.73","FAHU","1","m","rechts","23","","","self","f","0","true"
"null","<div style=""font-size:60px;"">+</div>","null","html-keyboard-response","154","544331","0.0-6.0-0.74","FAHU","1","m","rechts","23","","fixation","","","",""
"692","img/90_180.png","74","image-keyboard-response","155","545025","0.0-6.0-1.74","FAHU","1","m","rechts","23","","","self","j","90","true"
"null","<div style=""font-size:60px;"">+</div>","null","html-keyboard-response","156","545431","0.0-6.0-0.75","FAHU","1","m","rechts","23","","fixation","","","",""
"712","img/L60_180.png","70","image-keyboard-response","157","546143","0.0-6.0-1.75","FAHU","1","m","rechts","23","","","self","f","60","true"
"null","<div style=""font-size:60px;"">+</div>","null","html-keyboard-response","158","546548","0.0-6.0-0.76","FAHU","1","m","rechts","23","","fixation","","","",""
"1335","img/90_330.png","74","image-keyboard-response","159","547884","0.0-6.0-1.76","FAHU","1","m","rechts","23","","","self","f","90","false"
"null","<div style=""font-size:60px;"">+</div>","null","html-keyboard-response","160","548238","0.0-6.0-0.77","FAHU","1","m","rechts","23","","fixation","","","",""
"888","img/120_270.png","74","image-keyboard-response","161","549127","0.0-6.0-1.77","FAHU","1","m","rechts","23","","","self","j","120","true"
"null","<div style=""font-size:60px;"">+</div>","null","html-keyboard-response","162","549483","0.0-6.0-0.78","FAHU","1","m","rechts","23","","fixation","","","",""
"741","img/0_30.png","74","image-keyboard-response","163","550224","0.0-6.0-1.78","FAHU","1","m","rechts","23","","","self","j","0","true"
"null","<div style=""font-size:60px;"">+</div>","null","html-keyboard-response","164","550727","0.0-6.0-0.79","FAHU","1","m","rechts","23","","fixation","","","",""
"1976","img/30_300.png","70","image-keyboard-response","165","552703","0.0-6.0-1.79","FAHU","1","m","rechts","23","","","self","f","30","true"
"null","<div style=""font-size:60px;"">+</div>","null","html-keyboard-response","166","553056","0.0-6.0-0.80","FAHU","1","m","rechts","23","","fixation","","","",""
"741","img/0_330.png","70","image-keyboard-response","167","553797","0.0-6.0-1.80","FAHU","1","m","rechts","23","","","self","f","0","true"
"null","<div style=""font-size:60px;"">+</div>","null","html-keyboard-response","168","554304","0.0-6.0-0.81","FAHU","1","m","rechts","23","","fixation","","","",""
"1721","img/30_90.png","74","image-keyboard-response","169","556026","0.0-6.0-1.81","FAHU","1","m","rechts","23","","","self","j","30","true"
"null","<div style=""font-size:60px;"">+</div>","null","html-keyboard-response","170","556381","0.0-6.0-0.82","FAHU","1","m","rechts","23","","fixation","","","",""
"1129","img/L150_180.png","70","image-keyboard-response","171","557512","0.0-6.0-1.82","FAHU","1","m","rechts","23","","","self","f","150","true"
"null","<div style=""font-size:60px;"">+</div>","null","html-keyboard-response","172","557814","0.0-6.0-0.83","FAHU","1","m","rechts","23","","fixation","","","",""
"1398","img/60_330.png","70","image-keyboard-response","173","559214","0.0-6.0-1.83","FAHU","1","m","rechts","23","","","self","f","60","true"
"null","<div style=""font-size:60px;"">+</div>","null","html-keyboard-response","174","559666","0.0-6.0-0.84","FAHU","1","m","rechts","23","","fixation","","","",""
"744","img/150_180.png","74","image-keyboard-response","175","560411","0.0-6.0-1.84","FAHU","1","m","rechts","23","","","self","j","150","true"
"null","<div style=""font-size:60px;"">+</div>","null","html-keyboard-response","176","560865","0.0-6.0-0.85","FAHU","1","m","rechts","23","","fixation","","","",""
"1713","img/90_300.png","74","image-keyboard-response","177","562578","0.0-6.0-1.85","FAHU","1","m","rechts","23","","","self","f","90","false"
"null","<div style=""font-size:60px;"">+</div>","null","html-keyboard-response","178","563034","0.0-6.0-0.86","FAHU","1","m","rechts","23","","fixation","","","",""
"747","img/0_150.png","74","image-keyboard-response","179","563781","0.0-6.0-1.86","FAHU","1","m","rechts","23","","","self","j","0","true"
"null","<div style=""font-size:60px;"">+</div>","null","html-keyboard-response","180","564084","0.0-6.0-0.87","FAHU","1","m","rechts","23","","fixation","","","",""
"1348","img/150_240.png","74","image-keyboard-response","181","565432","0.0-6.0-1.87","FAHU","1","m","rechts","23","","","self","j","150","true"
"null","<div style=""font-size:60px;"">+</div>","null","html-keyboard-response","182","565936","0.0-6.0-0.88","FAHU","1","m","rechts","23","","fixation","","","",""
"835","img/90_210.png","74","image-keyboard-response","183","566772","0.0-6.0-1.88","FAHU","1","m","rechts","23","","","self","j","90","true"
"null","<div style=""font-size:60px;"">+</div>","null","html-keyboard-response","184","567177","0.0-6.0-0.89","FAHU","1","m","rechts","23","","fixation","","","",""
"806","img/120_210.png","74","image-keyboard-response","185","567984","0.0-6.0-1.89","FAHU","1","m","rechts","23","","","self","j","120","true"
"null","<div style=""font-size:60px;"">+</div>","null","html-keyboard-response","186","568286","0.0-6.0-0.90","FAHU","1","m","rechts","23","","fixation","","","",""
"673","img/0_270.png","70","image-keyboard-response","187","568960","0.0-6.0-1.90","FAHU","1","m","rechts","23","","","self","f","0","true"
"null","<div style=""font-size:60px;"">+</div>","null","html-keyboard-response","188","569366","0.0-6.0-0.91","FAHU","1","m","rechts","23","","fixation","","","",""
"1468","img/120_30.png","74","image-keyboard-response","189","570834","0.0-6.0-1.91","FAHU","1","m","rechts","23","","","self","j","120","true"
"null","<div style=""font-size:60px;"">+</div>","null","html-keyboard-response","190","571188","0.0-6.0-0.92","FAHU","1","m","rechts","23","","fixation","","","",""
"1096","img/90_120.png","70","image-keyboard-response","191","572285","0.0-6.0-1.92","FAHU","1","m","rechts","23","","","self","f","90","true"
"null","<div style=""font-size:60px;"">+</div>","null","html-keyboard-response","192","572685","0.0-6.0-0.93","FAHU","1","m","rechts","23","","fixation","","","",""
"694","img/L30_180.png","70","image-keyboard-response","193","573380","0.0-6.0-1.93","FAHU","1","m","rechts","23","","","self","f","30","true"
"null","<div style=""font-size:60px;"">+</div>","null","html-keyboard-response","194","573881","0.0-6.0-0.94","FAHU","1","m","rechts","23","","fixation","","","",""
"663","img/120_150.png","70","image-keyboard-response","195","574546","0.0-6.0-1.94","FAHU","1","m","rechts","23","","","self","f","120","true"
"null","<div style=""font-size:60px;"">+</div>","null","html-keyboard-response","196","574952","0.0-6.0-0.95","FAHU","1","m","rechts","23","","fixation","","","",""
"1312","img/30_270.png","70","image-keyboard-response","197","576265","0.0-6.0-1.95","FAHU","1","m","rechts","23","","","self","f","30","true"
"null","<div style=""font-size:60px;"">+</div>","null","html-keyboard-response","198","576621","0.0-6.0-0.96","FAHU","1","m","rechts","23","","fixation","","","",""
"1262","img/90_60.png","74","image-keyboard-response","199","577883","0.0-6.0-1.96","FAHU","1","m","rechts","23","","","self","j","90","true"
"null","<div style=""font-size:60px;"">+</div>","null","html-keyboard-response","200","578189","0.0-6.0-0.97","FAHU","1","m","rechts","23","","fixation","","","",""
"1343","img/120_330.png","70","image-keyboard-response","201","579533","0.0-6.0-1.97","FAHU","1","m","rechts","23","","","self","f","120","true"
"null","<div style=""font-size:60px;"">+</div>","null","html-keyboard-response","202","579837","0.0-6.0-0.98","FAHU","1","m","rechts","23","","fixation","","","",""
"1383","img/120_90.png","70","image-keyboard-response","203","581221","0.0-6.0-1.98","FAHU","1","m","rechts","23","","","self","f","120","true"
"null","<div style=""font-size:60px;"">+</div>","null","html-keyboard-response","204","581572","0.0-6.0-0.99","FAHU","1","m","rechts","23","","fixation","","","",""
"1493","img/30_240.png","70","image-keyboard-response","205","583066","0.0-6.0-1.99","FAHU","1","m","rechts","23","","","self","f","30","true"
"null","<div style=""font-size:60px;"">+</div>","null","html-keyboard-response","206","583473","0.0-6.0-0.100","FAHU","1","m","rechts","23","","fixation","","","",""
"1786","img/L120_180.png","70","image-keyboard-response","207","585259","0.0-6.0-1.100","FAHU","1","m","rechts","23","","","self","f","120","true"
"null","<div style=""font-size:60px;"">+</div>","null","html-keyboard-response","208","585711","0.0-6.0-0.101","FAHU","1","m","rechts","23","","fixation","","","",""
"1230","img/0_240.png","70","image-keyboard-response","209","586941","0.0-6.0-1.101","FAHU","1","m","rechts","23","","","self","f","0","true"
"null","<div style=""font-size:60px;"">+</div>","null","html-keyboard-response","210","587295","0.0-6.0-0.102","FAHU","1","m","rechts","23","","fixation","","","",""
"1119","img/30_180.png","74","image-keyboard-response","211","588415","0.0-6.0-1.102","FAHU","1","m","rechts","23","","","self","j","30","true"
"null","<div style=""font-size:60px;"">+</div>","null","html-keyboard-response","212","588870","0.0-6.0-0.103","FAHU","1","m","rechts","23","","fixation","","","",""
"1005","img/120_180.png","74","image-keyboard-response","213","589875","0.0-6.0-1.103","FAHU","1","m","rechts","23","","","self","j","120","true"
"null","<div style=""font-size:60px;"">+</div>","null","html-keyboard-response","214","590279","0.0-6.0-0.104","FAHU","1","m","rechts","23","","fixation","","","",""
"1162","img/60_330.png","70","image-keyboard-response","215","591442","0.0-6.0-1.104","FAHU","1","m","rechts","23","","","self","f","60","true"
"null","<div style=""font-size:60px;"">+</div>","null","html-keyboard-response","216","591847","0.0-6.0-0.105","FAHU","1","m","rechts","23","","fixation","","","",""
"1268","img/30_270.png","70","image-keyboard-response","217","593116","0.0-6.0-1.105","FAHU","1","m","rechts","23","","","self","f","30","true"
"null","<div style=""font-size:60px;"">+</div>","null","html-keyboard-response","218","593470","0.0-6.0-0.106","FAHU","1","m","rechts","23","","fixation","","","",""
"868","img/L90_180.png","70","image-keyboard-response","219","594338","0.0-6.0-1.106","FAHU","1","m","rechts","23","","","self","f","90","true"
"null","<div style=""font-size:60px;"">+</div>","null","html-keyboard-response","220","594845","0.0-6.0-0.107","FAHU","1","m","rechts","23","","fixation","","","",""
"1125","img/30_240.png","70","image-keyboard-response","221","595970","0.0-6.0-1.107","FAHU","1","m","rechts","23","","","self","f","30","true"
"null","<div style=""font-size:60px;"">+</div>","null","html-keyboard-response","222","596376","0.0-6.0-0.108","FAHU","1","m","rechts","23","","fixation","","","",""
"1077","img/L30_180.png","70","image-keyboard-response","223","597454","0.0-6.0-1.108","FAHU","1","m","rechts","23","","","self","f","30","true"
"null","<div style=""font-size:60px;"">+</div>","null","html-keyboard-response","224","597808","0.0-6.0-0.109","FAHU","1","m","rechts","23","","fixation","","","",""
"1272","img/90_60.png","74","image-keyboard-response","225","599081","0.0-6.0-1.109","FAHU","1","m","rechts","23","","","self","j","90","true"
"null","<div style=""font-size:60px;"">+</div>","null","html-keyboard-response","226","599433","0.0-6.0-0.110","FAHU","1","m","rechts","23","","fixation","","","",""
"968","img/120_150.png","70","image-keyboard-response","227","600401","0.0-6.0-1.110","FAHU","1","m","rechts","23","","","self","f","120","true"
"null","<div style=""font-size:60px;"">+</div>","null","html-keyboard-response","228","600857","0.0-6.0-0.111","FAHU","1","m","rechts","23","","fixation","","","",""
"1588","img/30_120.png","74","image-keyboard-response","229","602445","0.0-6.0-1.111","FAHU","1","m","rechts","23","","","self","j","30","true"
"null","<div style=""font-size:60px;"">+</div>","null","html-keyboard-response","230","602899","0.0-6.0-0.112","FAHU","1","m","rechts","23","","fixation","","","",""
"1109","img/30_90.png","74","image-keyboard-response","231","604009","0.0-6.0-1.112","FAHU","1","m","rechts","23","","","self","j","30","true"
"null","<div style=""font-size:60px;"">+</div>","null","html-keyboard-response","232","604413","0.0-6.0-0.113","FAHU","1","m","rechts","23","","fixation","","","",""
"856","img/60_30.png","74","image-keyboard-response","233","605271","0.0-6.0-1.113","FAHU","1","m","rechts","23","","","self","j","60","true"
"null","<div style=""font-size:60px;"">+</div>","null","html-keyboard-response","234","605677","0.0-6.0-0.114","FAHU","1","m","rechts","23","","fixation","","","",""
"835","img/90_300.png","70","image-keyboard-response","235","606512","0.0-6.0-1.114","FAHU","1","m","rechts","23","","","self","f","90","true"
"null","<div style=""font-size:60px;"">+</div>","null","html-keyboard-response","236","606863","0.0-6.0-0.115","FAHU","1","m","rechts","23","","fixation","","","",""
"712","img/0_330.png","70","image-keyboard-response","237","607575","0.0-6.0-1.115","FAHU","1","m","rechts","23","","","self","f","0","true"
"null","<div style=""font-size:60px;"">+</div>","null","html-keyboard-response","238","608076","0.0-6.0-0.116","FAHU","1","m","rechts","23","","fixation","","","",""
"969","img/0_210.png","70","image-keyboard-response","239","609045","0.0-6.0-1.116","FAHU","1","m","rechts","23","","","self","f","0","true"
"null","<div style=""font-size:60px;"">+</div>","null","html-keyboard-response","240","609451","0.0-6.0-0.117","FAHU","1","m","rechts","23","","fixation","","","",""
"1102","img/90_120.png","70","image-keyboard-response","241","610553","0.0-6.0-1.117","FAHU","1","m","rechts","23","","","self","f","90","true"
"null","<div style=""font-size:60px;"">+</div>","null","html-keyboard-response","242","610955","0.0-6.0-0.118","FAHU","1","m","rechts","23","","fixation","","","",""
"628","img/0_60.png","74","image-keyboard-response","243","611585","0.0-6.0-1.118","FAHU","1","m","rechts","23","","","self","j","0","true"
"null","<div style=""font-size:60px;"">+</div>","null","html-keyboard-response","244","612086","0.0-6.0-0.119","FAHU","1","m","rechts","23","","fixation","","","",""
"788","img/60_210.png","74","image-keyboard-response","245","612875","0.0-6.0-1.119","FAHU","1","m","rechts","23","","","self","j","60","true"
"null","<div style=""font-size:60px;"">+</div>","null","html-keyboard-response","246","613381","0.0-6.0-0.120","FAHU","1","m","rechts","23","","fixation","","","",""
"711","img/0_150.png","74","image-keyboard-response","247","614093","0.0-6.0-1.120","FAHU","1","m","rechts","23","","","self","j","0","true"
"null","<div style=""font-size:60px;"">+</div>","null","html-keyboard-response","248","614496","0.0-6.0-0.121","FAHU","1","m","rechts","23","","fixation","","","",""
"540","img/0_30.png","74","image-keyboard-response","249","615037","0.0-6.0-1.121","FAHU","1","m","rechts","23","","","self","j","0","true"
"null","<div style=""font-size:60px;"">+</div>","null","html-keyboard-response","250","615338","0.0-6.0-0.122","FAHU","1","m","rechts","23","","fixation","","","",""
"672","img/L120_180.png","70","image-keyboard-response","251","616010","0.0-6.0-1.122","FAHU","1","m","rechts","23","","","self","f","120","true"
"null","<div style=""font-size:60px;"">+</div>","null","html-keyboard-response","252","616513","0.0-6.0-0.123","FAHU","1","m","rechts","23","","fixation","","","",""
"653","img/0_240.png","70","image-keyboard-response","253","617166","0.0-6.0-1.123","FAHU","1","m","rechts","23","","","self","f","0","true"
"null","<div style=""font-size:60px;"">+</div>","null","html-keyboard-response","254","617516","0.0-6.0-0.124","FAHU","1","m","rechts","23","","fixation","","","",""
"982","img/90_330.png","70","image-keyboard-response","255","618499","0.0-6.0-1.124","FAHU","1","m","rechts","23","","","self","f","90","true"
"null","<div style=""font-size:60px;"">+</div>","null","html-keyboard-response","256","618802","0.0-6.0-0.125","FAHU","1","m","rechts","23","","fixation","","","",""
"1081","img/60_90.png","74","image-keyboard-response","257","619884","0.0-6.0-1.125","FAHU","1","m","rechts","23","","","self","j","60","true"
"null","<div style=""font-size:60px;"">+</div>","null","html-keyboard-response","258","620240","0.0-6.0-0.126","FAHU","1","m","rechts","23","","fixation","","","",""
"708","img/30_60.png","74","image-keyboard-response","259","620948","0.0-6.0-1.126","FAHU","1","m","rechts","23","","","self","j","30","true"
"null","<div style=""font-size:60px;"">+</div>","null","html-keyboard-response","260","621403","0.0-6.0-0.127","FAHU","1","m","rechts","23","","fixation","","","",""
"718","img/60_180.png","74","image-keyboard-response","261","622122","0.0-6.0-1.127","FAHU","1","m","rechts","23","","","self","j","60","true"
"null","<div style=""font-size:60px;"">+</div>","null","html-keyboard-response","262","622477","0.0-6.0-0.128","FAHU","1","m","rechts","23","","fixation","","","",""
"780","img/90_150.png","70","image-keyboard-response","263","623258","0.0-6.0-1.128","FAHU","1","m","rechts","23","","","self","f","90","true"
"null","<div style=""font-size:60px;"">+</div>","null","html-keyboard-response","264","623562","0.0-6.0-0.129","FAHU","1","m","rechts","23","","fixation","","","",""
"947","img/150_270.png","74","image-keyboard-response","265","624510","0.0-6.0-1.129","FAHU","1","m","rechts","23","","","self","j","150","true"
"null","<div style=""font-size:60px;"">+</div>","null","html-keyboard-response","266","625013","0.0-6.0-0.130","FAHU","1","m","rechts","23","","fixation","","","",""
"1410","img/90_30.png","74","image-keyboard-response","267","626424","0.0-6.0-1.130","FAHU","1","m","rechts","23","","","self","j","90","true"
"null","<div style=""font-size:60px;"">+</div>","null","html-keyboard-response","268","626929","0.0-6.0-0.131","FAHU","1","m","rechts","23","","fixation","","","",""
"1715","img/150_180.png","74","image-keyboard-response","269","628645","0.0-6.0-1.131","FAHU","1","m","rechts","23","","","self","j","150","true"
"null","<div style=""font-size:60px;"">+</div>","null","html-keyboard-response","270","629150","0.0-6.0-0.132","FAHU","1","m","rechts","23","","fixation","","","",""
"1168","img/90_180.png","74","image-keyboard-response","271","630319","0.0-6.0-1.132","FAHU","1","m","rechts","23","","","self","j","90","true"
"null","<div style=""font-size:60px;"">+</div>","null","html-keyboard-response","272","630771","0.0-6.0-0.133","FAHU","1","m","rechts","23","","fixation","","","",""
"881","img/L150_180.png","70","image-keyboard-response","273","631652","0.0-6.0-1.133","FAHU","1","m","rechts","23","","","self","f","150","true"
"null","<div style=""font-size:60px;"">+</div>","null","html-keyboard-response","274","631955","0.0-6.0-0.134","FAHU","1","m","rechts","23","","fixation","","","",""
"1393","img/120_30.png","74","image-keyboard-response","275","633348","0.0-6.0-1.134","FAHU","1","m","rechts","23","","","self","j","120","true"
"null","<div style=""font-size:60px;"">+</div>","null","html-keyboard-response","276","633703","0.0-6.0-0.135","FAHU","1","m","rechts","23","","fixation","","","",""
"713","img/0_120.png","74","image-keyboard-response","277","634417","0.0-6.0-1.135","FAHU","1","m","rechts","23","","","self","j","0","true"
"null","<div style=""font-size:60px;"">+</div>","null","html-keyboard-response","278","634921","0.0-6.0-0.136","FAHU","1","m","rechts","23","","fixation","","","",""
"680","img/150_240.png","74","image-keyboard-response","279","635601","0.0-6.0-1.136","FAHU","1","m","rechts","23","","","self","j","150","true"
"null","<div style=""font-size:60px;"">+</div>","null","html-keyboard-response","280","636107","0.0-6.0-0.137","FAHU","1","m","rechts","23","","fixation","","","",""
"1738","img/150_300.png","74","image-keyboard-response","281","637847","0.0-6.0-1.137","FAHU","1","m","rechts","23","","","self","j","150","true"
"null","<div style=""font-size:60px;"">+</div>","null","html-keyboard-response","282","638353","0.0-6.0-0.138","FAHU","1","m","rechts","23","","fixation","","","",""
"684","img/0_300.png","70","image-keyboard-response","283","639038","0.0-6.0-1.138","FAHU","1","m","rechts","23","","","self","f","0","true"
"null","<div style=""font-size:60px;"">+</div>","null","html-keyboard-response","284","639489","0.0-6.0-0.139","FAHU","1","m","rechts","23","","fixation","","","",""
"1014","img/L60_180.png","70","image-keyboard-response","285","640503","0.0-6.0-1.139","FAHU","1","m","rechts","23","","","self","f","60","true"
"null","<div style=""font-size:60px;"">+</div>","null","html-keyboard-response","286","640958","0.0-6.0-0.140","FAHU","1","m","rechts","23","","fixation","","","",""
"855","img/60_270.png","70","image-keyboard-response","287","641814","0.0-6.0-1.140","FAHU","1","m","rechts","23","","","self","f","60","true"
"null","<div style=""font-size:60px;"">+</div>","null","html-keyboard-response","288","642119","0.0-6.0-0.141","FAHU","1","m","rechts","23","","fixation","","","",""
"823","img/90_240.png","74","image-keyboard-response","289","642943","0.0-6.0-1.141","FAHU","1","m","rechts","23","","","self","j","90","true"
"null","<div style=""font-size:60px;"">+</div>","null","html-keyboard-response","290","643396","0.0-6.0-0.142","FAHU","1","m","rechts","23","","fixation","","","",""
"615","img/0_90.png","74","image-keyboard-response","291","644011","0.0-6.0-1.142","FAHU","1","m","rechts","23","","","self","j","0","true"
"null","<div style=""font-size:60px;"">+</div>","null","html-keyboard-response","292","644312","0.0-6.0-0.143","FAHU","1","m","rechts","23","","fixation","","","",""
"703","img/90_210.png","74","image-keyboard-response","293","645016","0.0-6.0-1.143","FAHU","1","m","rechts","23","","","self","j","90","true"
"null","<div style=""font-size:60px;"">+</div>","null","html-keyboard-response","294","645469","0.0-6.0-0.144","FAHU","1","m","rechts","23","","fixation","","","",""
"1320","img/120_90.png","70","image-keyboard-response","295","646789","0.0-6.0-1.144","FAHU","1","m","rechts","23","","","self","f","120","true"
"null","<div style=""font-size:60px;"">+</div>","null","html-keyboard-response","296","647244","0.0-6.0-0.145","FAHU","1","m","rechts","23","","fixation","","","",""
"1084","img/120_330.png","74","image-keyboard-response","297","648329","0.0-6.0-1.145","FAHU","1","m","rechts","23","","","self","f","120","false"
"null","<div style=""font-size:60px;"">+</div>","null","html-keyboard-response","298","648683","0.0-6.0-0.146","FAHU","1","m","rechts","23","","fixation","","","",""
"1079","img/150_120.png","70","image-keyboard-response","299","649763","0.0-6.0-1.146","FAHU","1","m","rechts","23","","","self","f","150","true"
"null","<div style=""font-size:60px;"">+</div>","null","html-keyboard-response","300","650218","0.0-6.0-0.147","FAHU","1","m","rechts","23","","fixation","","","",""
"1083","img/30_180.png","74","image-keyboard-response","301","651302","0.0-6.0-1.147","FAHU","1","m","rechts","23","","","self","j","30","true"
"null","<div style=""font-size:60px;"">+</div>","null","html-keyboard-response","302","651655","0.0-6.0-0.148","FAHU","1","m","rechts","23","","fixation","","","",""
"1047","img/150_90.png","70","image-keyboard-response","303","652703","0.0-6.0-1.148","FAHU","1","m","rechts","23","","","self","f","150","true"
"null","<div style=""font-size:60px;"">+</div>","null","html-keyboard-response","304","653054","0.0-6.0-0.149","FAHU","1","m","rechts","23","","fixation","","","",""
"997","img/60_150.png","70","image-keyboard-response","305","654052","0.0-6.0-1.149","FAHU","1","m","rechts","23","","","self","f","60","true"
"null","<div style=""font-size:60px;"">+</div>","null","html-keyboard-response","306","654453","0.0-6.0-0.150","FAHU","1","m","rechts","23","","fixation","","","",""
"665","img/0_270.png","70","image-keyboard-response","307","655118","0.0-6.0-1.150","FAHU","1","m","rechts","23","","","self","f","0","true"
"null","<div style=""font-size:60px;"">+</div>","null","html-keyboard-response","308","655471","0.0-6.0-0.151","FAHU","1","m","rechts","23","","fixation","","","",""
"834","img/30_300.png","70","image-keyboard-response","309","656306","0.0-6.0-1.151","FAHU","1","m","rechts","23","","","self","f","30","true"
"null","<div style=""font-size:60px;"">+</div>","null","html-keyboard-response","310","656763","0.0-6.0-0.152","FAHU","1","m","rechts","23","","fixation","","","",""
"1271","img/120_210.png","74","image-keyboard-response","311","658035","0.0-6.0-1.152","FAHU","1","m","rechts","23","","","self","j","120","true"
"null","<div style=""font-size:60px;"">+</div>","null","html-keyboard-response","312","658389","0.0-6.0-0.153","FAHU","1","m","rechts","23","","fixation","","","",""
"1087","img/120_270.png","74","image-keyboard-response","313","659477","0.0-6.0-1.153","FAHU","1","m","rechts","23","","","self","j","120","true"
"null","<div style=""font-size:60px;"">+</div>","null","html-keyboard-response","314","659883","0.0-6.0-0.154","FAHU","1","m","rechts","23","","fixation","","","",""
"757","img/120_180.png","74","image-keyboard-response","315","660641","0.0-6.0-1.154","FAHU","1","m","rechts","23","","","self","j","120","true"
"null","<div style=""font-size:60px;"">+</div>","null","html-keyboard-response","316","661093","0.0-6.0-0.155","FAHU","1","m","rechts","23","","fixation","","","",""
"1254","img/150_60.png","70","image-keyboard-response","317","662348","0.0-6.0-1.155","FAHU","1","m","rechts","23","","","self","f","150","true"
"null","<div style=""font-size:60px;"">+</div>","null","html-keyboard-response","318","662753","0.0-6.0-0.156","FAHU","1","m","rechts","23","","fixation","","","",""
"1009","img/L60_180.png","70","image-keyboard-response","319","663763","0.0-6.0-1.156","FAHU","1","m","rechts","23","","","self","f","60","true"
"null","<div style=""font-size:60px;"">+</div>","null","html-keyboard-response","320","664169","0.0-6.0-0.157","FAHU","1","m","rechts","23","","fixation","","","",""
"979","img/90_330.png","70","image-keyboard-response","321","665149","0.0-6.0-1.157","FAHU","1","m","rechts","23","","","self","f","90","true"
"null","<div style=""font-size:60px;"">+</div>","null","html-keyboard-response","322","665554","0.0-6.0-0.158","FAHU","1","m","rechts","23","","fixation","","","",""
"788","img/60_180.png","74","image-keyboard-response","323","666344","0.0-6.0-1.158","FAHU","1","m","rechts","23","","","self","j","60","true"
"null","<div style=""font-size:60px;"">+</div>","null","html-keyboard-response","324","666649","0.0-6.0-0.159","FAHU","1","m","rechts","23","","fixation","","","",""
"1185","img/120_180.png","74","image-keyboard-response","325","667835","0.0-6.0-1.159","FAHU","1","m","rechts","23","","","self","j","120","true"
"null","<div style=""font-size:60px;"">+</div>","null","html-keyboard-response","326","668338","0.0-6.0-0.160","FAHU","1","m","rechts","23","","fixation","","","",""
"1068","img/90_300.png","70","image-keyboard-response","327","669406","0.0-6.0-1.160","FAHU","1","m","rechts","23","","","self","f","90","true"
"null","<div style=""font-size:60px;"">+</div>","null","html-keyboard-response","328","669708","0.0-6.0-0.161","FAHU","1","m","rechts","23","","fixation","","","",""
"803","img/30_300.png","70","image-keyboard-response","329","670512","0.0-6.0-1.161","FAHU","1","m","rechts","23","","","self","f","30","true"
"null","<div style=""font-size:60px;"">+</div>","null","html-keyboard-response","330","670968","0.0-6.0-0.162","FAHU","1","m","rechts","23","","fixation","","","",""
"707","img/0_300.png","70","image-keyboard-response","331","671675","0.0-6.0-1.162","FAHU","1","m","rechts","23","","","self","f","0","true"
"null","<div style=""font-size:60px;"">+</div>","null","html-keyboard-response","332","672075","0.0-6.0-0.163","FAHU","1","m","rechts","23","","fixation","","","",""
"1200","img/L150_180.png","70","image-keyboard-response","333","673275","0.0-6.0-1.163","FAHU","1","m","rechts","23","","","self","f","150","true"
"null","<div style=""font-size:60px;"">+</div>","null","html-keyboard-response","334","673677","0.0-6.0-0.164","FAHU","1","m","rechts","23","","fixation","","","",""
"854","img/150_120.png","70","image-keyboard-response","335","674534","0.0-6.0-1.164","FAHU","1","m","rechts","23","","","self","f","150","true"
"null","<div style=""font-size:60px;"">+</div>","null","html-keyboard-response","336","674937","0.0-6.0-0.165","FAHU","1","m","rechts","23","","fixation","","","",""
"714","img/0_270.png","70","image-keyboard-response","337","675652","0.0-6.0-1.165","FAHU","1","m","rechts","23","","","self","f","0","true"
"null","<div style=""font-size:60px;"">+</div>","null","html-keyboard-response","338","676005","0.0-6.0-0.166","FAHU","1","m","rechts","23","","fixation","","","",""
"668","img/0_60.png","74","image-keyboard-response","339","676673","0.0-6.0-1.166","FAHU","1","m","rechts","23","","","self","j","0","true"
"null","<div style=""font-size:60px;"">+</div>","null","html-keyboard-response","340","677080","0.0-6.0-0.167","FAHU","1","m","rechts","23","","fixation","","","",""
"757","img/60_330.png","70","image-keyboard-response","341","677837","0.0-6.0-1.167","FAHU","1","m","rechts","23","","","self","f","60","true"
"null","<div style=""font-size:60px;"">+</div>","null","html-keyboard-response","342","678194","0.0-6.0-0.168","FAHU","1","m","rechts","23","","fixation","","","",""
"921","img/120_210.png","74","image-keyboard-response","343","679116","0.0-6.0-1.168","FAHU","1","m","rechts","23","","","self","j","120","true"
"null","<div style=""font-size:60px;"">+</div>","null","html-keyboard-response","344","679470","0.0-6.0-0.169","FAHU","1","m","rechts","23","","fixation","","","",""
"930","img/0_210.png","70","image-keyboard-response","345","680401","0.0-6.0-1.169","FAHU","1","m","rechts","23","","","self","f","0","true"
"null","<div style=""font-size:60px;"">+</div>","null","html-keyboard-response","346","680753","0.0-6.0-0.170","FAHU","1","m","rechts","23","","fixation","","","",""
"1253","img/30_60.png","74","image-keyboard-response","347","682007","0.0-6.0-1.170","FAHU","1","m","rechts","23","","","self","j","30","true"
"null","<div style=""font-size:60px;"">+</div>","null","html-keyboard-response","348","682511","0.0-6.0-0.171","FAHU","1","m","rechts","23","","fixation","","","",""
"1072","img/60_30.png","74","image-keyboard-response","349","683584","0.0-6.0-1.171","FAHU","1","m","rechts","23","","","self","j","60","true"
"null","<div style=""font-size:60px;"">+</div>","null","html-keyboard-response","350","684040","0.0-6.0-0.172","FAHU","1","m","rechts","23","","fixation","","","",""
"1085","img/150_270.png","70","image-keyboard-response","351","685127","0.0-6.0-1.172","FAHU","1","m","rechts","23","","","self","j","150","false"
"null","<div style=""font-size:60px;"">+</div>","null","html-keyboard-response","352","685431","0.0-6.0-0.173","FAHU","1","m","rechts","23","","fixation","","","",""
"994","img/30_240.png","70","image-keyboard-response","353","686427","0.0-6.0-1.173","FAHU","1","m","rechts","23","","","self","f","30","true"
"null","<div style=""font-size:60px;"">+</div>","null","html-keyboard-response","354","686732","0.0-6.0-0.174","FAHU","1","m","rechts","23","","fixation","","","",""
"1373","img/30_90.png","74","image-keyboard-response","355","688106","0.0-6.0-1.174","FAHU","1","m","rechts","23","","","self","j","30","true"
"null","<div style=""font-size:60px;"">+</div>","null","html-keyboard-response","356","688508","0.0-6.0-0.175","FAHU","1","m","rechts","23","","fixation","","","",""
"946","img/120_30.png","74","image-keyboard-response","357","689456","0.0-6.0-1.175","FAHU","1","m","rechts","23","","","self","j","120","true"
"null","<div style=""font-size:60px;"">+</div>","null","html-keyboard-response","358","689761","0.0-6.0-0.176","FAHU","1","m","rechts","23","","fixation","","","",""
"778","img/60_270.png","70","image-keyboard-response","359","690539","0.0-6.0-1.176","FAHU","1","m","rechts","23","","","self","f","60","true"
"null","<div style=""font-size:60px;"">+</div>","null","html-keyboard-response","360","690894","0.0-6.0-0.177","FAHU","1","m","rechts","23","","fixation","","","",""
"879","img/0_120.png","74","image-keyboard-response","361","691773","0.0-6.0-1.177","FAHU","1","m","rechts","23","","","self","j","0","true"
"null","<div style=""font-size:60px;"">+</div>","null","html-keyboard-response","362","692176","0.0-6.0-0.178","FAHU","1","m","rechts","23","","fixation","","","",""
"925","img/30_180.png","74","image-keyboard-response","363","693103","0.0-6.0-1.178","FAHU","1","m","rechts","23","","","self","j","30","true"
"null","<div style=""font-size:60px;"">+</div>","null","html-keyboard-response","364","693557","0.0-6.0-0.179","FAHU","1","m","rechts","23","","fixation","","","",""
"941","img/60_210.png","74","image-keyboard-response","365","694499","0.0-6.0-1.179","FAHU","1","m","rechts","23","","","self","j","60","true"
"null","<div style=""font-size:60px;"">+</div>","null","html-keyboard-response","366","694803","0.0-6.0-0.180","FAHU","1","m","rechts","23","","fixation","","","",""
"1702","img/150_240.png","74","image-keyboard-response","367","696506","0.0-6.0-1.180","FAHU","1","m","rechts","23","","","self","j","150","true"
"null","<div style=""font-size:60px;"">+</div>","null","html-keyboard-response","368","696960","0.0-6.0-0.181","FAHU","1","m","rechts","23","","fixation","","","",""
"1203","img/30_120.png","74","image-keyboard-response","369","698163","0.0-6.0-1.181","FAHU","1","m","rechts","23","","","self","j","30","true"
"null","<div style=""font-size:60px;"">+</div>","null","html-keyboard-response","370","698567","0.0-6.0-0.182","FAHU","1","m","rechts","23","","fixation","","","",""
"1633","img/120_270.png","74","image-keyboard-response","371","700201","0.0-6.0-1.182","FAHU","1","m","rechts","23","","","self","j","120","true"
"null","<div style=""font-size:60px;"">+</div>","null","html-keyboard-response","372","700703","0.0-6.0-0.183","FAHU","1","m","rechts","23","","fixation","","","",""
"1428","img/120_90.png","70","image-keyboard-response","373","702131","0.0-6.0-1.183","FAHU","1","m","rechts","23","","","self","f","120","true"
"null","<div style=""font-size:60px;"">+</div>","null","html-keyboard-response","374","702636","0.0-6.0-0.184","FAHU","1","m","rechts","23","","fixation","","","",""
"925","img/120_330.png","70","image-keyboard-response","375","703561","0.0-6.0-1.184","FAHU","1","m","rechts","23","","","self","f","120","true"
"null","<div style=""font-size:60px;"">+</div>","null","html-keyboard-response","376","703966","0.0-6.0-0.185","FAHU","1","m","rechts","23","","fixation","","","",""
"1081","img/90_30.png","74","image-keyboard-response","377","705047","0.0-6.0-1.185","FAHU","1","m","rechts","23","","","self","j","90","true"
"null","<div style=""font-size:60px;"">+</div>","null","html-keyboard-response","378","705399","0.0-6.0-0.186","FAHU","1","m","rechts","23","","fixation","","","",""
"670","img/0_330.png","70","image-keyboard-response","379","706069","0.0-6.0-1.186","FAHU","1","m","rechts","23","","","self","f","0","true"
"null","<div style=""font-size:60px;"">+</div>","null","html-keyboard-response","380","706373","0.0-6.0-0.187","FAHU","1","m","rechts","23","","fixation","","","",""
"696","img/0_150.png","74","image-keyboard-response","381","707070","0.0-6.0-1.187","FAHU","1","m","rechts","23","","","self","j","0","true"
"null","<div style=""font-size:60px;"">+</div>","null","html-keyboard-response","382","707524","0.0-6.0-0.188","FAHU","1","m","rechts","23","","fixation","","","",""
"1354","img/150_60.png","70","image-keyboard-response","383","708878","0.0-6.0-1.188","FAHU","1","m","rechts","23","","","self","f","150","true"
"null","<div style=""font-size:60px;"">+</div>","null","html-keyboard-response","384","709334","0.0-6.0-0.189","FAHU","1","m","rechts","23","","fixation","","","",""
"1151","img/60_90.png","74","image-keyboard-response","385","710486","0.0-6.0-1.189","FAHU","1","m","rechts","23","","","self","j","60","true"
"null","<div style=""font-size:60px;"">+</div>","null","html-keyboard-response","386","710988","0.0-6.0-0.190","FAHU","1","m","rechts","23","","fixation","","","",""
"1176","img/90_120.png","70","image-keyboard-response","387","712164","0.0-6.0-1.190","FAHU","1","m","rechts","23","","","self","f","90","true"
"null","<div style=""font-size:60px;"">+</div>","null","html-keyboard-response","388","712567","0.0-6.0-0.191","FAHU","1","m","rechts","23","","fixation","","","",""
"1096","img/120_150.png","70","image-keyboard-response","389","713664","0.0-6.0-1.191","FAHU","1","m","rechts","23","","","self","f","120","true"
"null","<div style=""font-size:60px;"">+</div>","null","html-keyboard-response","390","714021","0.0-6.0-0.192","FAHU","1","m","rechts","23","","fixation","","","",""
"1129","img/60_150.png","70","image-keyboard-response","391","715151","0.0-6.0-1.192","FAHU","1","m","rechts","23","","","self","f","60","true"
"null","<div style=""font-size:60px;"">+</div>","null","html-keyboard-response","392","715457","0.0-6.0-0.193","FAHU","1","m","rechts","23","","fixation","","","",""
"797","img/0_240.png","70","image-keyboard-response","393","716255","0.0-6.0-1.193","FAHU","1","m","rechts","23","","","self","f","0","true"
"null","<div style=""font-size:60px;"">+</div>","null","html-keyboard-response","394","716561","0.0-6.0-0.194","FAHU","1","m","rechts","23","","fixation","","","",""
"1286","img/90_210.png","74","image-keyboard-response","395","717848","0.0-6.0-1.194","FAHU","1","m","rechts","23","","","self","j","90","true"
"null","<div style=""font-size:60px;"">+</div>","null","html-keyboard-response","396","718250","0.0-6.0-0.195","FAHU","1","m","rechts","23","","fixation","","","",""
"913","img/30_270.png","70","image-keyboard-response","397","719164","0.0-6.0-1.195","FAHU","1","m","rechts","23","","","self","f","30","true"
"null","<div style=""font-size:60px;"">+</div>","null","html-keyboard-response","398","719515","0.0-6.0-0.196","FAHU","1","m","rechts","23","","fixation","","","",""
"1132","img/90_150.png","70","image-keyboard-response","399","720649","0.0-6.0-1.196","FAHU","1","m","rechts","23","","","self","f","90","true"
"null","<div style=""font-size:60px;"">+</div>","null","html-keyboard-response","400","721054","0.0-6.0-0.197","FAHU","1","m","rechts","23","","fixation","","","",""
"683","img/0_90.png","74","image-keyboard-response","401","721737","0.0-6.0-1.197","FAHU","1","m","rechts","23","","","self","j","0","true"
"null","<div style=""font-size:60px;"">+</div>","null","html-keyboard-response","402","722192","0.0-6.0-0.198","FAHU","1","m","rechts","23","","fixation","","","",""
"1077","img/L90_180.png","70","image-keyboard-response","403","723270","0.0-6.0-1.198","FAHU","1","m","rechts","23","","","self","f","90","true"
"null","<div style=""font-size:60px;"">+</div>","null","html-keyboard-response","404","723625","0.0-6.0-0.199","FAHU","1","m","rechts","23","","fixation","","","",""
"812","img/90_60.png","74","image-keyboard-response","405","724437","0.0-6.0-1.199","FAHU","1","m","rechts","23","","","self","j","90","true"
"null","<div style=""font-size:60px;"">+</div>","null","html-keyboard-response","406","724939","0.0-6.0-0.200","FAHU","1","m","rechts","23","","fixation","","","",""
"730","img/L30_180.png","70","image-keyboard-response","407","725670","0.0-6.0-1.200","FAHU","1","m","rechts","23","","","self","f","30","true"
"null","<div style=""font-size:60px;"">+</div>","null","html-keyboard-response","408","726025","0.0-6.0-0.201","FAHU","1","m","rechts","23","","fixation","","","",""
"835","img/L120_180.png","70","image-keyboard-response","409","726862","0.0-6.0-1.201","FAHU","1","m","rechts","23","","","self","f","120","true"
"null","<div style=""font-size:60px;"">+</div>","null","html-keyboard-response","410","727167","0.0-6.0-0.202","FAHU","1","m","rechts","23","","fixation","","","",""
"1014","img/150_180.png","74","image-keyboard-response","411","728183","0.0-6.0-1.202","FAHU","1","m","rechts","23","","","self","j","150","true"
"null","<div style=""font-size:60px;"">+</div>","null","html-keyboard-response","412","728535","0.0-6.0-0.203","FAHU","1","m","rechts","23","","fixation","","","",""
"1589","img/150_300.png","74","image-keyboard-response","413","730126","0.0-6.0-1.203","FAHU","1","m","rechts","23","","","self","j","150","true"
"null","<div style=""font-size:60px;"">+</div>","null","html-keyboard-response","414","730627","0.0-6.0-0.204","FAHU","1","m","rechts","23","","fixation","","","",""
"1386","img/150_90.png","70","image-keyboard-response","415","732013","0.0-6.0-1.204","FAHU","1","m","rechts","23","","","self","f","150","true"
"null","<div style=""font-size:60px;"">+</div>","null","html-keyboard-response","416","732418","0.0-6.0-0.205","FAHU","1","m","rechts","23","","fixation","","","",""
"722","img/0_30.png","74","image-keyboard-response","417","733141","0.0-6.0-1.205","FAHU","1","m","rechts","23","","","self","j","0","true"
"null","<div style=""font-size:60px;"">+</div>","null","html-keyboard-response","418","733445","0.0-6.0-0.206","FAHU","1","m","rechts","23","","fixation","","","",""
"1553","img/90_240.png","74","image-keyboard-response","419","734999","0.0-6.0-1.206","FAHU","1","m","rechts","23","","","self","j","90","true"
"null","<div style=""font-size:60px;"">+</div>","null","html-keyboard-response","420","735303","0.0-6.0-0.207","FAHU","1","m","rechts","23","","fixation","","","",""
"797","img/90_180.png","74","image-keyboard-response","421","736101","0.0-6.0-1.207","FAHU","1","m","rechts","23","","","self","j","90","true"
"7417","<p>Du hast in 88% der Versuche korrekt entschieden.</p><p>Deine durchschnittliche Reaktionszeit war  973ms.</p><p>Dr&uuml;cke eine beliebige Taste, um die Session zu beenden. Vielen Dank!</p>","32","html-keyboard-response","422","743522","0.0-7.0","FAHU","1","m","rechts","23","","","","","",""
