"rt","stimulus","key_press","trial_type","trial_index","time_elapsed","internal_node_id","subject","session","sex","handedness","age","responses","test_part","condition","correct_response","angle","correct"
"2714","<p>Mental Rotation Experiment.</p> <p>Dr&uuml;cke eine beliebige Taste, um anzufangen.</p>","32","html-keyboard-response","0","2718","0.0-0.0","FAHU","2","m","rechts","23","","","","","",""
"4142","","","survey-text","1","6863","0.0-1.0","FAHU","2","m","rechts","23","{""Q0"":""FAHU""}","","","","",""
"3163","","","survey-text","2","10026","0.0-2.0","FAHU","2","m","rechts","23","{""Q0"":""2""}","","","","",""
"4638","","","survey-multi-choice","3","14667","0.0-3.0","FAHU","2","m","rechts","23","{""Q0"":""m"",""Q1"":""rechts""}","","","","",""
"3068","","","survey-text","4","17735","0.0-4.0","FAHU","2","m","rechts","23","{""Q0"":""23""}","","","","",""
"4011","<p> Stell dir vor, dass du vor einem runden Tisch stehst, auf dem sich ein blauer Ball am Tischrand befindet. Entlang des Tischrands ist jeweils ein verschieden langer Pfeil. Nun bewegst du dich entlang dieses Pfeils bis an seine Spitze. Wenn du am Ende des Pfeils angekommen bist, schau zur Tischmitte. </p> <img src='img/90_180.png'></img> <br> <p>Entscheide dann, ob der Ball von deiner neuen (vorgestellten) Position links oder rechts von dir liegt.</p> <p>Dr&uuml;cke die <strong>'f'</strong>-Taste f&uuml;r links, die <strong>'j'</strong>-Taste f&uuml;r rechts.</p> <br><p> Das Bild wird jeweils 1 Sekunde lang pr&auml;sentiert. Du hast 3 Sekunden Zeit eine Entscheidung zu treffen.</p>","32","html-keyboard-response","5","21747","0.0-5.0","FAHU","2","m","rechts","23","","","","","",""
"null","<div style=""font-size:60px;"">+</div>","null","html-keyboard-response","6","23255","0.0-6.0-0.0","FAHU","2","m","rechts","23","","fixation","","","",""
"1144","img/120_30.png","74","image-keyboard-response","7","24400","0.0-6.0-1.0","FAHU","2","m","rechts","23","","","self","j","120","true"
"null","<div style=""font-size:60px;"">+</div>","null","html-keyboard-response","8","24701","0.0-6.0-0.1","FAHU","2","m","rechts","23","","fixation","","","",""
"896","img/90_300.png","70","image-keyboard-response","9","25597","0.0-6.0-1.1","FAHU","2","m","rechts","23","","","self","f","90","true"
"null","<div style=""font-size:60px;"">+</div>","null","html-keyboard-response","10","26001","0.0-6.0-0.2","FAHU","2","m","rechts","23","","fixation","","","",""
"1229","img/60_90.png","74","image-keyboard-response","11","27231","0.0-6.0-1.2","FAHU","2","m","rechts","23","","","self","j","60","true"
"null","<div style=""font-size:60px;"">+</div>","null","html-keyboard-response","12","27737","0.0-6.0-0.3","FAHU","2","m","rechts","23","","fixation","","","",""
"709","img/0_60.png","74","image-keyboard-response","13","28446","0.0-6.0-1.3","FAHU","2","m","rechts","23","","","self","j","0","true"
"null","<div style=""font-size:60px;"">+</div>","null","html-keyboard-response","14","28951","0.0-6.0-0.4","FAHU","2","m","rechts","23","","fixation","","","",""
"765","img/90_120.png","70","image-keyboard-response","15","29716","0.0-6.0-1.4","FAHU","2","m","rechts","23","","","self","f","90","true"
"null","<div style=""font-size:60px;"">+</div>","null","html-keyboard-response","16","30119","0.0-6.0-0.5","FAHU","2","m","rechts","23","","fixation","","","",""
"619","img/60_150.png","70","image-keyboard-response","17","30738","0.0-6.0-1.5","FAHU","2","m","rechts","23","","","self","f","60","true"
"null","<div style=""font-size:60px;"">+</div>","null","html-keyboard-response","18","31243","0.0-6.0-0.6","FAHU","2","m","rechts","23","","fixation","","","",""
"445","img/L60_180.png","70","image-keyboard-response","19","31688","0.0-6.0-1.6","FAHU","2","m","rechts","23","","","self","f","60","true"
"null","<div style=""font-size:60px;"">+</div>","null","html-keyboard-response","20","32192","0.0-6.0-0.7","FAHU","2","m","rechts","23","","fixation","","","",""
"720","img/120_270.png","74","image-keyboard-response","21","32912","0.0-6.0-1.7","FAHU","2","m","rechts","23","","","self","j","120","true"
"null","<div style=""font-size:60px;"">+</div>","null","html-keyboard-response","22","33216","0.0-6.0-0.8","FAHU","2","m","rechts","23","","fixation","","","",""
"678","img/150_180.png","74","image-keyboard-response","23","33894","0.0-6.0-1.8","FAHU","2","m","rechts","23","","","self","j","150","true"
"null","<div style=""font-size:60px;"">+</div>","null","html-keyboard-response","24","34396","0.0-6.0-0.9","FAHU","2","m","rechts","23","","fixation","","","",""
"899","img/60_30.png","74","image-keyboard-response","25","35296","0.0-6.0-1.9","FAHU","2","m","rechts","23","","","self","j","60","true"
"null","<div style=""font-size:60px;"">+</div>","null","html-keyboard-response","26","35797","0.0-6.0-0.10","FAHU","2","m","rechts","23","","fixation","","","",""
"870","img/30_180.png","74","image-keyboard-response","27","36667","0.0-6.0-1.10","FAHU","2","m","rechts","23","","","self","j","30","true"
"null","<div style=""font-size:60px;"">+</div>","null","html-keyboard-response","28","37119","0.0-6.0-0.11","FAHU","2","m","rechts","23","","fixation","","","",""
"719","img/90_330.png","70","image-keyboard-response","29","37838","0.0-6.0-1.11","FAHU","2","m","rechts","23","","","self","f","90","true"
"null","<div style=""font-size:60px;"">+</div>","null","html-keyboard-response","30","38344","0.0-6.0-0.12","FAHU","2","m","rechts","23","","fixation","","","",""
"658","img/30_300.png","70","image-keyboard-response","31","39002","0.0-6.0-1.12","FAHU","2","m","rechts","23","","","self","f","30","true"
"null","<div style=""font-size:60px;"">+</div>","null","html-keyboard-response","32","39308","0.0-6.0-0.13","FAHU","2","m","rechts","23","","fixation","","","",""
"1010","img/90_210.png","74","image-keyboard-response","33","40320","0.0-6.0-1.13","FAHU","2","m","rechts","23","","","self","j","90","true"
"null","<div style=""font-size:60px;"">+</div>","null","html-keyboard-response","34","40821","0.0-6.0-0.14","FAHU","2","m","rechts","23","","fixation","","","",""
"1420","img/150_240.png","74","image-keyboard-response","35","42242","0.0-6.0-1.14","FAHU","2","m","rechts","23","","","self","j","150","true"
"null","<div style=""font-size:60px;"">+</div>","null","html-keyboard-response","36","42547","0.0-6.0-0.15","FAHU","2","m","rechts","23","","fixation","","","",""
"736","img/30_270.png","70","image-keyboard-response","37","43284","0.0-6.0-1.15","FAHU","2","m","rechts","23","","","self","f","30","true"
"null","<div style=""font-size:60px;"">+</div>","null","html-keyboard-response","38","43637","0.0-6.0-0.16","FAHU","2","m","rechts","23","","fixation","","","",""
"712","img/60_270.png","70","image-keyboard-response","39","44349","0.0-6.0-1.16","FAHU","2","m","rechts","23","","","self","f","60","true"
"null","<div style=""font-size:60px;"">+</div>","null","html-keyboard-response","40","44851","0.0-6.0-0.17","FAHU","2","m","rechts","23","","fixation","","","",""
"635","img/0_120.png","74","image-keyboard-response","41","45486","0.0-6.0-1.17","FAHU","2","m","rechts","23","","","self","j","0","true"
"null","<div style=""font-size:60px;"">+</div>","null","html-keyboard-response","42","45839","0.0-6.0-0.18","FAHU","2","m","rechts","23","","fixation","","","",""
"803","img/150_120.png","70","image-keyboard-response","43","46643","0.0-6.0-1.18","FAHU","2","m","rechts","23","","","self","f","150","true"
"null","<div style=""font-size:60px;"">+</div>","null","html-keyboard-response","44","47045","0.0-6.0-0.19","FAHU","2","m","rechts","23","","fixation","","","",""
"669","img/90_150.png","70","image-keyboard-response","45","47714","0.0-6.0-1.19","FAHU","2","m","rechts","23","","","self","f","90","true"
"null","<div style=""font-size:60px;"">+</div>","null","html-keyboard-response","46","48118","0.0-6.0-0.20","FAHU","2","m","rechts","23","","fixation","","","",""
"694","img/0_150.png","74","image-keyboard-response","47","48814","0.0-6.0-1.20","FAHU","2","m","rechts","23","","","self","j","0","true"
"null","<div style=""font-size:60px;"">+</div>","null","html-keyboard-response","48","49215","0.0-6.0-0.21","FAHU","2","m","rechts","23","","fixation","","","",""
"597","img/L90_180.png","70","image-keyboard-response","49","49812","0.0-6.0-1.21","FAHU","2","m","rechts","23","","","self","f","90","true"
"null","<div style=""font-size:60px;"">+</div>","null","html-keyboard-response","50","50115","0.0-6.0-0.22","FAHU","2","m","rechts","23","","fixation","","","",""
"602","img/120_150.png","70","image-keyboard-response","51","50717","0.0-6.0-1.22","FAHU","2","m","rechts","23","","","self","f","120","true"
"null","<div style=""font-size:60px;"">+</div>","null","html-keyboard-response","52","51020","0.0-6.0-0.23","FAHU","2","m","rechts","23","","fixation","","","",""
"702","img/30_60.png","74","image-keyboard-response","53","51723","0.0-6.0-1.23","FAHU","2","m","rechts","23","","","self","j","30","true"
"null","<div style=""font-size:60px;"">+</div>","null","html-keyboard-response","54","52128","0.0-6.0-0.24","FAHU","2","m","rechts","23","","fixation","","","",""
"907","img/30_120.png","74","image-keyboard-response","55","53035","0.0-6.0-1.24","FAHU","2","m","rechts","23","","","self","j","30","true"
"null","<div style=""font-size:60px;"">+</div>","null","html-keyboard-response","56","53488","0.0-6.0-0.25","FAHU","2","m","rechts","23","","fixation","","","",""
"832","img/60_330.png","70","image-keyboard-response","57","54320","0.0-6.0-1.25","FAHU","2","m","rechts","23","","","self","f","60","true"
"null","<div style=""font-size:60px;"">+</div>","null","html-keyboard-response","58","54676","0.0-6.0-0.26","FAHU","2","m","rechts","23","","fixation","","","",""
"646","img/30_90.png","74","image-keyboard-response","59","55323","0.0-6.0-1.26","FAHU","2","m","rechts","23","","","self","j","30","true"
"null","<div style=""font-size:60px;"">+</div>","null","html-keyboard-response","60","55676","0.0-6.0-0.27","FAHU","2","m","rechts","23","","fixation","","","",""
"731","img/120_330.png","70","image-keyboard-response","61","56409","0.0-6.0-1.27","FAHU","2","m","rechts","23","","","self","f","120","true"
"null","<div style=""font-size:60px;"">+</div>","null","html-keyboard-response","62","56714","0.0-6.0-0.28","FAHU","2","m","rechts","23","","fixation","","","",""
"631","img/0_330.png","70","image-keyboard-response","63","57346","0.0-6.0-1.28","FAHU","2","m","rechts","23","","","self","f","0","true"
"null","<div style=""font-size:60px;"">+</div>","null","html-keyboard-response","64","57850","0.0-6.0-0.29","FAHU","2","m","rechts","23","","fixation","","","",""
"722","img/150_270.png","74","image-keyboard-response","65","58573","0.0-6.0-1.29","FAHU","2","m","rechts","23","","","self","j","150","true"
"null","<div style=""font-size:60px;"">+</div>","null","html-keyboard-response","66","58979","0.0-6.0-0.30","FAHU","2","m","rechts","23","","fixation","","","",""
"712","img/0_90.png","74","image-keyboard-response","67","59692","0.0-6.0-1.30","FAHU","2","m","rechts","23","","","self","j","0","true"
"null","<div style=""font-size:60px;"">+</div>","null","html-keyboard-response","68","60145","0.0-6.0-0.31","FAHU","2","m","rechts","23","","fixation","","","",""
"560","img/0_240.png","70","image-keyboard-response","69","60710","0.0-6.0-1.31","FAHU","2","m","rechts","23","","","self","f","0","true"
"null","<div style=""font-size:60px;"">+</div>","null","html-keyboard-response","70","61112","0.0-6.0-0.32","FAHU","2","m","rechts","23","","fixation","","","",""
"535","img/0_30.png","74","image-keyboard-response","71","61647","0.0-6.0-1.32","FAHU","2","m","rechts","23","","","self","j","0","true"
"null","<div style=""font-size:60px;"">+</div>","null","html-keyboard-response","72","62147","0.0-6.0-0.33","FAHU","2","m","rechts","23","","fixation","","","",""
"428","img/0_300.png","70","image-keyboard-response","73","62576","0.0-6.0-1.33","FAHU","2","m","rechts","23","","","self","f","0","true"
"null","<div style=""font-size:60px;"">+</div>","null","html-keyboard-response","74","63080","0.0-6.0-0.34","FAHU","2","m","rechts","23","","fixation","","","",""
"610","img/L120_180.png","70","image-keyboard-response","75","63691","0.0-6.0-1.34","FAHU","2","m","rechts","23","","","self","f","120","true"
"null","<div style=""font-size:60px;"">+</div>","null","html-keyboard-response","76","63997","0.0-6.0-0.35","FAHU","2","m","rechts","23","","fixation","","","",""
"946","img/150_60.png","70","image-keyboard-response","77","64944","0.0-6.0-1.35","FAHU","2","m","rechts","23","","","self","f","150","true"
"null","<div style=""font-size:60px;"">+</div>","null","html-keyboard-response","78","65299","0.0-6.0-0.36","FAHU","2","m","rechts","23","","fixation","","","",""
"571","img/L150_180.png","70","image-keyboard-response","79","65871","0.0-6.0-1.36","FAHU","2","m","rechts","23","","","self","f","150","true"
"null","<div style=""font-size:60px;"">+</div>","null","html-keyboard-response","80","66273","0.0-6.0-0.37","FAHU","2","m","rechts","23","","fixation","","","",""
"547","img/120_90.png","70","image-keyboard-response","81","66820","0.0-6.0-1.37","FAHU","2","m","rechts","23","","","self","f","120","true"
"null","<div style=""font-size:60px;"">+</div>","null","html-keyboard-response","82","67126","0.0-6.0-0.38","FAHU","2","m","rechts","23","","fixation","","","",""
"924","img/150_300.png","74","image-keyboard-response","83","68050","0.0-6.0-1.38","FAHU","2","m","rechts","23","","","self","j","150","true"
"null","<div style=""font-size:60px;"">+</div>","null","html-keyboard-response","84","68406","0.0-6.0-0.39","FAHU","2","m","rechts","23","","fixation","","","",""
"701","img/90_180.png","74","image-keyboard-response","85","69108","0.0-6.0-1.39","FAHU","2","m","rechts","23","","","self","j","90","true"
"null","<div style=""font-size:60px;"">+</div>","null","html-keyboard-response","86","69564","0.0-6.0-0.40","FAHU","2","m","rechts","23","","fixation","","","",""
"935","img/90_60.png","74","image-keyboard-response","87","70499","0.0-6.0-1.40","FAHU","2","m","rechts","23","","","self","j","90","true"
"null","<div style=""font-size:60px;"">+</div>","null","html-keyboard-response","88","70953","0.0-6.0-0.41","FAHU","2","m","rechts","23","","fixation","","","",""
"871","img/120_180.png","74","image-keyboard-response","89","71824","0.0-6.0-1.41","FAHU","2","m","rechts","23","","","self","j","120","true"
"null","<div style=""font-size:60px;"">+</div>","null","html-keyboard-response","90","72230","0.0-6.0-0.42","FAHU","2","m","rechts","23","","fixation","","","",""
"788","img/60_210.png","74","image-keyboard-response","91","73018","0.0-6.0-1.42","FAHU","2","m","rechts","23","","","self","j","60","true"
"null","<div style=""font-size:60px;"">+</div>","null","html-keyboard-response","92","73471","0.0-6.0-0.43","FAHU","2","m","rechts","23","","fixation","","","",""
"658","img/90_30.png","74","image-keyboard-response","93","74130","0.0-6.0-1.43","FAHU","2","m","rechts","23","","","self","j","90","true"
"null","<div style=""font-size:60px;"">+</div>","null","html-keyboard-response","94","74482","0.0-6.0-0.44","FAHU","2","m","rechts","23","","fixation","","","",""
"907","img/30_240.png","70","image-keyboard-response","95","75389","0.0-6.0-1.44","FAHU","2","m","rechts","23","","","self","f","30","true"
"null","<div style=""font-size:60px;"">+</div>","null","html-keyboard-response","96","75695","0.0-6.0-0.45","FAHU","2","m","rechts","23","","fixation","","","",""
"726","img/0_270.png","70","image-keyboard-response","97","76423","0.0-6.0-1.45","FAHU","2","m","rechts","23","","","self","f","0","true"
"null","<div style=""font-size:60px;"">+</div>","null","html-keyboard-response","98","76823","0.0-6.0-0.46","FAHU","2","m","rechts","23","","fixation","","","",""
"670","img/60_180.png","74","image-keyboard-response","99","77495","0.0-6.0-1.46","FAHU","2","m","rechts","23","","","self","j","60","true"
"null","<div style=""font-size:60px;"">+</div>","null","html-keyboard-response","100","77849","0.0-6.0-0.47","FAHU","2","m","rechts","23","","fixation","","","",""
"672","img/150_90.png","70","image-keyboard-response","101","78522","0.0-6.0-1.47","FAHU","2","m","rechts","23","","","self","f","150","true"
"null","<div style=""font-size:60px;"">+</div>","null","html-keyboard-response","102","78975","0.0-6.0-0.48","FAHU","2","m","rechts","23","","fixation","","","",""
"537","img/L30_180.png","70","image-keyboard-response","103","79512","0.0-6.0-1.48","FAHU","2","m","rechts","23","","","self","f","30","true"
"null","<div style=""font-size:60px;"">+</div>","null","html-keyboard-response","104","79868","0.0-6.0-0.49","FAHU","2","m","rechts","23","","fixation","","","",""
"555","img/0_210.png","70","image-keyboard-response","105","80423","0.0-6.0-1.49","FAHU","2","m","rechts","23","","","self","f","0","true"
"null","<div style=""font-size:60px;"">+</div>","null","html-keyboard-response","106","80729","0.0-6.0-0.50","FAHU","2","m","rechts","23","","fixation","","","",""
"768","img/90_240.png","74","image-keyboard-response","107","81497","0.0-6.0-1.50","FAHU","2","m","rechts","23","","","self","j","90","true"
"null","<div style=""font-size:60px;"">+</div>","null","html-keyboard-response","108","81851","0.0-6.0-0.51","FAHU","2","m","rechts","23","","fixation","","","",""
"555","img/120_210.png","74","image-keyboard-response","109","82407","0.0-6.0-1.51","FAHU","2","m","rechts","23","","","self","j","120","true"
"null","<div style=""font-size:60px;"">+</div>","null","html-keyboard-response","110","82812","0.0-6.0-0.52","FAHU","2","m","rechts","23","","fixation","","","",""
"519","img/60_150.png","70","image-keyboard-response","111","83331","0.0-6.0-1.52","FAHU","2","m","rechts","23","","","self","f","60","true"
"null","<div style=""font-size:60px;"">+</div>","null","html-keyboard-response","112","83832","0.0-6.0-0.53","FAHU","2","m","rechts","23","","fixation","","","",""
"486","img/30_270.png","70","image-keyboard-response","113","84320","0.0-6.0-1.53","FAHU","2","m","rechts","23","","","self","f","30","true"
"null","<div style=""font-size:60px;"">+</div>","null","html-keyboard-response","114","84675","0.0-6.0-0.54","FAHU","2","m","rechts","23","","fixation","","","",""
"701","img/60_210.png","74","image-keyboard-response","115","85377","0.0-6.0-1.54","FAHU","2","m","rechts","23","","","self","j","60","true"
"null","<div style=""font-size:60px;"">+</div>","null","html-keyboard-response","116","85782","0.0-6.0-0.55","FAHU","2","m","rechts","23","","fixation","","","",""
"545","img/120_210.png","74","image-keyboard-response","117","86328","0.0-6.0-1.55","FAHU","2","m","rechts","23","","","self","j","120","true"
"null","<div style=""font-size:60px;"">+</div>","null","html-keyboard-response","118","86734","0.0-6.0-0.56","FAHU","2","m","rechts","23","","fixation","","","",""
"685","img/90_60.png","74","image-keyboard-response","119","87419","0.0-6.0-1.56","FAHU","2","m","rechts","23","","","self","j","90","true"
"null","<div style=""font-size:60px;"">+</div>","null","html-keyboard-response","120","87775","0.0-6.0-0.57","FAHU","2","m","rechts","23","","fixation","","","",""
"639","img/120_180.png","74","image-keyboard-response","121","88415","0.0-6.0-1.57","FAHU","2","m","rechts","23","","","self","j","120","true"
"null","<div style=""font-size:60px;"">+</div>","null","html-keyboard-response","122","88921","0.0-6.0-0.58","FAHU","2","m","rechts","23","","fixation","","","",""
"693","img/L90_180.png","70","image-keyboard-response","123","89615","0.0-6.0-1.58","FAHU","2","m","rechts","23","","","self","f","90","true"
"null","<div style=""font-size:60px;"">+</div>","null","html-keyboard-response","124","89920","0.0-6.0-0.59","FAHU","2","m","rechts","23","","fixation","","","",""
"583","img/0_210.png","70","image-keyboard-response","125","90504","0.0-6.0-1.59","FAHU","2","m","rechts","23","","","self","f","0","true"
"null","<div style=""font-size:60px;"">+</div>","null","html-keyboard-response","126","90909","0.0-6.0-0.60","FAHU","2","m","rechts","23","","fixation","","","",""
"771","img/60_90.png","74","image-keyboard-response","127","91681","0.0-6.0-1.60","FAHU","2","m","rechts","23","","","self","j","60","true"
"null","<div style=""font-size:60px;"">+</div>","null","html-keyboard-response","128","92085","0.0-6.0-0.61","FAHU","2","m","rechts","23","","fixation","","","",""
"668","img/L150_180.png","70","image-keyboard-response","129","92755","0.0-6.0-1.61","FAHU","2","m","rechts","23","","","self","f","150","true"
"null","<div style=""font-size:60px;"">+</div>","null","html-keyboard-response","130","93207","0.0-6.0-0.62","FAHU","2","m","rechts","23","","fixation","","","",""
"521","img/0_270.png","70","image-keyboard-response","131","93729","0.0-6.0-1.62","FAHU","2","m","rechts","23","","","self","f","0","true"
"null","<div style=""font-size:60px;"">+</div>","null","html-keyboard-response","132","94081","0.0-6.0-0.63","FAHU","2","m","rechts","23","","fixation","","","",""
"740","img/120_330.png","70","image-keyboard-response","133","94823","0.0-6.0-1.63","FAHU","2","m","rechts","23","","","self","f","120","true"
"null","<div style=""font-size:60px;"">+</div>","null","html-keyboard-response","134","95128","0.0-6.0-0.64","FAHU","2","m","rechts","23","","fixation","","","",""
"931","img/90_120.png","70","image-keyboard-response","135","96060","0.0-6.0-1.64","FAHU","2","m","rechts","23","","","self","f","90","true"
"null","<div style=""font-size:60px;"">+</div>","null","html-keyboard-response","136","96364","0.0-6.0-0.65","FAHU","2","m","rechts","23","","fixation","","","",""
"670","img/L120_180.png","70","image-keyboard-response","137","97035","0.0-6.0-1.65","FAHU","2","m","rechts","23","","","self","f","120","true"
"null","<div style=""font-size:60px;"">+</div>","null","html-keyboard-response","138","97386","0.0-6.0-0.66","FAHU","2","m","rechts","23","","fixation","","","",""
"634","img/0_60.png","74","image-keyboard-response","139","98020","0.0-6.0-1.66","FAHU","2","m","rechts","23","","","self","j","0","true"
"null","<div style=""font-size:60px;"">+</div>","null","html-keyboard-response","140","98322","0.0-6.0-0.67","FAHU","2","m","rechts","23","","fixation","","","",""
"1212","img/30_120.png","74","image-keyboard-response","141","99535","0.0-6.0-1.67","FAHU","2","m","rechts","23","","","self","j","30","true"
"null","<div style=""font-size:60px;"">+</div>","null","html-keyboard-response","142","99839","0.0-6.0-0.68","FAHU","2","m","rechts","23","","fixation","","","",""
"672","img/L30_180.png","70","image-keyboard-response","143","100512","0.0-6.0-1.68","FAHU","2","m","rechts","23","","","self","f","30","true"
"null","<div style=""font-size:60px;"">+</div>","null","html-keyboard-response","144","101012","0.0-6.0-0.69","FAHU","2","m","rechts","23","","fixation","","","",""
"728","img/120_90.png","70","image-keyboard-response","145","101741","0.0-6.0-1.69","FAHU","2","m","rechts","23","","","self","f","120","true"
"null","<div style=""font-size:60px;"">+</div>","null","html-keyboard-response","146","102246","0.0-6.0-0.70","FAHU","2","m","rechts","23","","fixation","","","",""
"672","img/0_240.png","70","image-keyboard-response","147","102918","0.0-6.0-1.70","FAHU","2","m","rechts","23","","","self","f","0","true"
"null","<div style=""font-size:60px;"">+</div>","null","html-keyboard-response","148","103219","0.0-6.0-0.71","FAHU","2","m","rechts","23","","fixation","","","",""
"592","img/0_90.png","74","image-keyboard-response","149","103812","0.0-6.0-1.71","FAHU","2","m","rechts","23","","","self","j","0","true"
"null","<div style=""font-size:60px;"">+</div>","null","html-keyboard-response","150","104315","0.0-6.0-0.72","FAHU","2","m","rechts","23","","fixation","","","",""
"687","img/150_90.png","70","image-keyboard-response","151","105002","0.0-6.0-1.72","FAHU","2","m","rechts","23","","","self","f","150","true"
"null","<div style=""font-size:60px;"">+</div>","null","html-keyboard-response","152","105407","0.0-6.0-0.73","FAHU","2","m","rechts","23","","fixation","","","",""
"644","img/90_150.png","70","image-keyboard-response","153","106052","0.0-6.0-1.73","FAHU","2","m","rechts","23","","","self","f","90","true"
"null","<div style=""font-size:60px;"">+</div>","null","html-keyboard-response","154","106505","0.0-6.0-0.74","FAHU","2","m","rechts","23","","fixation","","","",""
"586","img/90_180.png","74","image-keyboard-response","155","107091","0.0-6.0-1.74","FAHU","2","m","rechts","23","","","self","j","90","true"
"null","<div style=""font-size:60px;"">+</div>","null","html-keyboard-response","156","107394","0.0-6.0-0.75","FAHU","2","m","rechts","23","","fixation","","","",""
"947","img/60_270.png","70","image-keyboard-response","157","108341","0.0-6.0-1.75","FAHU","2","m","rechts","23","","","self","f","60","true"
"null","<div style=""font-size:60px;"">+</div>","null","html-keyboard-response","158","108693","0.0-6.0-0.76","FAHU","2","m","rechts","23","","fixation","","","",""
"656","img/150_240.png","74","image-keyboard-response","159","109350","0.0-6.0-1.76","FAHU","2","m","rechts","23","","","self","j","150","true"
"null","<div style=""font-size:60px;"">+</div>","null","html-keyboard-response","160","109652","0.0-6.0-0.77","FAHU","2","m","rechts","23","","fixation","","","",""
"644","img/30_180.png","74","image-keyboard-response","161","110296","0.0-6.0-1.77","FAHU","2","m","rechts","23","","","self","j","30","true"
"null","<div style=""font-size:60px;"">+</div>","null","html-keyboard-response","162","110800","0.0-6.0-0.78","FAHU","2","m","rechts","23","","fixation","","","",""
"649","img/90_210.png","74","image-keyboard-response","163","111450","0.0-6.0-1.78","FAHU","2","m","rechts","23","","","self","j","90","true"
"null","<div style=""font-size:60px;"">+</div>","null","html-keyboard-response","164","111956","0.0-6.0-0.79","FAHU","2","m","rechts","23","","fixation","","","",""
"504","img/0_300.png","70","image-keyboard-response","165","112461","0.0-6.0-1.79","FAHU","2","m","rechts","23","","","self","f","0","true"
"null","<div style=""font-size:60px;"">+</div>","null","html-keyboard-response","166","112962","0.0-6.0-0.80","FAHU","2","m","rechts","23","","fixation","","","",""
"811","img/60_30.png","74","image-keyboard-response","167","113775","0.0-6.0-1.80","FAHU","2","m","rechts","23","","","self","j","60","true"
"null","<div style=""font-size:60px;"">+</div>","null","html-keyboard-response","168","114081","0.0-6.0-0.81","FAHU","2","m","rechts","23","","fixation","","","",""
"913","img/150_300.png","70","image-keyboard-response","169","114994","0.0-6.0-1.81","FAHU","2","m","rechts","23","","","self","j","150","false"
"null","<div style=""font-size:60px;"">+</div>","null","html-keyboard-response","170","115299","0.0-6.0-0.82","FAHU","2","m","rechts","23","","fixation","","","",""
"710","img/150_180.png","74","image-keyboard-response","171","116009","0.0-6.0-1.82","FAHU","2","m","rechts","23","","","self","j","150","true"
"null","<div style=""font-size:60px;"">+</div>","null","html-keyboard-response","172","116513","0.0-6.0-0.83","FAHU","2","m","rechts","23","","fixation","","","",""
"1718","img/150_270.png","74","image-keyboard-response","173","118231","0.0-6.0-1.83","FAHU","2","m","rechts","23","","","self","j","150","true"
"null","<div style=""font-size:60px;"">+</div>","null","html-keyboard-response","174","118637","0.0-6.0-0.84","FAHU","2","m","rechts","23","","fixation","","","",""
"804","img/90_30.png","74","image-keyboard-response","175","119442","0.0-6.0-1.84","FAHU","2","m","rechts","23","","","self","j","90","true"
"null","<div style=""font-size:60px;"">+</div>","null","html-keyboard-response","176","119896","0.0-6.0-0.85","FAHU","2","m","rechts","23","","fixation","","","",""
"989","img/L60_180.png","70","image-keyboard-response","177","120885","0.0-6.0-1.85","FAHU","2","m","rechts","23","","","self","f","60","true"
"null","<div style=""font-size:60px;"">+</div>","null","html-keyboard-response","178","121290","0.0-6.0-0.86","FAHU","2","m","rechts","23","","fixation","","","",""
"765","img/0_120.png","74","image-keyboard-response","179","122055","0.0-6.0-1.86","FAHU","2","m","rechts","23","","","self","j","0","true"
"null","<div style=""font-size:60px;"">+</div>","null","html-keyboard-response","180","122357","0.0-6.0-0.87","FAHU","2","m","rechts","23","","fixation","","","",""
"639","img/30_90.png","74","image-keyboard-response","181","122997","0.0-6.0-1.87","FAHU","2","m","rechts","23","","","self","j","30","true"
"null","<div style=""font-size:60px;"">+</div>","null","html-keyboard-response","182","123350","0.0-6.0-0.88","FAHU","2","m","rechts","23","","fixation","","","",""
"705","img/150_120.png","70","image-keyboard-response","183","124055","0.0-6.0-1.88","FAHU","2","m","rechts","23","","","self","f","150","true"
"null","<div style=""font-size:60px;"">+</div>","null","html-keyboard-response","184","124357","0.0-6.0-0.89","FAHU","2","m","rechts","23","","fixation","","","",""
"622","img/60_180.png","74","image-keyboard-response","185","124980","0.0-6.0-1.89","FAHU","2","m","rechts","23","","","self","j","60","true"
"null","<div style=""font-size:60px;"">+</div>","null","html-keyboard-response","186","125485","0.0-6.0-0.90","FAHU","2","m","rechts","23","","fixation","","","",""
"797","img/120_270.png","74","image-keyboard-response","187","126283","0.0-6.0-1.90","FAHU","2","m","rechts","23","","","self","j","120","true"
"null","<div style=""font-size:60px;"">+</div>","null","html-keyboard-response","188","126587","0.0-6.0-0.91","FAHU","2","m","rechts","23","","fixation","","","",""
"730","img/90_330.png","70","image-keyboard-response","189","127317","0.0-6.0-1.91","FAHU","2","m","rechts","23","","","self","f","90","true"
"null","<div style=""font-size:60px;"">+</div>","null","html-keyboard-response","190","127772","0.0-6.0-0.92","FAHU","2","m","rechts","23","","fixation","","","",""
"636","img/0_330.png","70","image-keyboard-response","191","128409","0.0-6.0-1.92","FAHU","2","m","rechts","23","","","self","f","0","true"
"null","<div style=""font-size:60px;"">+</div>","null","html-keyboard-response","192","128714","0.0-6.0-0.93","FAHU","2","m","rechts","23","","fixation","","","",""
"1097","img/150_60.png","70","image-keyboard-response","193","129811","0.0-6.0-1.93","FAHU","2","m","rechts","23","","","self","f","150","true"
"null","<div style=""font-size:60px;"">+</div>","null","html-keyboard-response","194","130116","0.0-6.0-0.94","FAHU","2","m","rechts","23","","fixation","","","",""
"827","img/120_150.png","70","image-keyboard-response","195","130944","0.0-6.0-1.94","FAHU","2","m","rechts","23","","","self","f","120","true"
"null","<div style=""font-size:60px;"">+</div>","null","html-keyboard-response","196","131295","0.0-6.0-0.95","FAHU","2","m","rechts","23","","fixation","","","",""
"813","img/90_240.png","74","image-keyboard-response","197","132109","0.0-6.0-1.95","FAHU","2","m","rechts","23","","","self","j","90","true"
"null","<div style=""font-size:60px;"">+</div>","null","html-keyboard-response","198","132513","0.0-6.0-0.96","FAHU","2","m","rechts","23","","fixation","","","",""
"880","img/120_30.png","74","image-keyboard-response","199","133394","0.0-6.0-1.96","FAHU","2","m","rechts","23","","","self","j","120","true"
"null","<div style=""font-size:60px;"">+</div>","null","html-keyboard-response","200","133749","0.0-6.0-0.97","FAHU","2","m","rechts","23","","fixation","","","",""
"648","img/30_300.png","70","image-keyboard-response","201","134398","0.0-6.0-1.97","FAHU","2","m","rechts","23","","","self","f","30","true"
"null","<div style=""font-size:60px;"">+</div>","null","html-keyboard-response","202","134802","0.0-6.0-0.98","FAHU","2","m","rechts","23","","fixation","","","",""
"580","img/30_60.png","74","image-keyboard-response","203","135384","0.0-6.0-1.98","FAHU","2","m","rechts","23","","","self","j","30","true"
"null","<div style=""font-size:60px;"">+</div>","null","html-keyboard-response","204","135736","0.0-6.0-0.99","FAHU","2","m","rechts","23","","fixation","","","",""
"604","img/0_150.png","74","image-keyboard-response","205","136342","0.0-6.0-1.99","FAHU","2","m","rechts","23","","","self","j","0","true"
"null","<div style=""font-size:60px;"">+</div>","null","html-keyboard-response","206","136845","0.0-6.0-0.100","FAHU","2","m","rechts","23","","fixation","","","",""
"439","img/60_330.png","70","image-keyboard-response","207","137285","0.0-6.0-1.100","FAHU","2","m","rechts","23","","","self","f","60","true"
"null","<div style=""font-size:60px;"">+</div>","null","html-keyboard-response","208","137641","0.0-6.0-0.101","FAHU","2","m","rechts","23","","fixation","","","",""
"742","img/30_240.png","70","image-keyboard-response","209","138383","0.0-6.0-1.101","FAHU","2","m","rechts","23","","","self","f","30","true"
"null","<div style=""font-size:60px;"">+</div>","null","html-keyboard-response","210","138734","0.0-6.0-0.102","FAHU","2","m","rechts","23","","fixation","","","",""
"851","img/90_300.png","70","image-keyboard-response","211","139585","0.0-6.0-1.102","FAHU","2","m","rechts","23","","","self","f","90","true"
"null","<div style=""font-size:60px;"">+</div>","null","html-keyboard-response","212","139890","0.0-6.0-0.103","FAHU","2","m","rechts","23","","fixation","","","",""
"616","img/0_30.png","74","image-keyboard-response","213","140506","0.0-6.0-1.103","FAHU","2","m","rechts","23","","","self","j","0","true"
"null","<div style=""font-size:60px;"">+</div>","null","html-keyboard-response","214","140910","0.0-6.0-0.104","FAHU","2","m","rechts","23","","fixation","","","",""
"487","img/0_30.png","74","image-keyboard-response","215","141399","0.0-6.0-1.104","FAHU","2","m","rechts","23","","","self","j","0","true"
"null","<div style=""font-size:60px;"">+</div>","null","html-keyboard-response","216","141899","0.0-6.0-0.105","FAHU","2","m","rechts","23","","fixation","","","",""
"618","img/60_210.png","74","image-keyboard-response","217","142518","0.0-6.0-1.105","FAHU","2","m","rechts","23","","","self","j","60","true"
"null","<div style=""font-size:60px;"">+</div>","null","html-keyboard-response","218","143023","0.0-6.0-0.106","FAHU","2","m","rechts","23","","fixation","","","",""
"647","img/30_300.png","70","image-keyboard-response","219","143671","0.0-6.0-1.106","FAHU","2","m","rechts","23","","","self","f","30","true"
"null","<div style=""font-size:60px;"">+</div>","null","html-keyboard-response","220","144124","0.0-6.0-0.107","FAHU","2","m","rechts","23","","fixation","","","",""
"532","img/L30_180.png","70","image-keyboard-response","221","144656","0.0-6.0-1.107","FAHU","2","m","rechts","23","","","self","f","30","true"
"null","<div style=""font-size:60px;"">+</div>","null","html-keyboard-response","222","144959","0.0-6.0-0.108","FAHU","2","m","rechts","23","","fixation","","","",""
"757","img/90_210.png","74","image-keyboard-response","223","145717","0.0-6.0-1.108","FAHU","2","m","rechts","23","","","self","j","90","true"
"null","<div style=""font-size:60px;"">+</div>","null","html-keyboard-response","224","146021","0.0-6.0-0.109","FAHU","2","m","rechts","23","","fixation","","","",""
"1202","img/120_330.png","70","image-keyboard-response","225","147223","0.0-6.0-1.109","FAHU","2","m","rechts","23","","","self","f","120","true"
"null","<div style=""font-size:60px;"">+</div>","null","html-keyboard-response","226","147576","0.0-6.0-0.110","FAHU","2","m","rechts","23","","fixation","","","",""
"784","img/0_120.png","74","image-keyboard-response","227","148361","0.0-6.0-1.110","FAHU","2","m","rechts","23","","","self","j","0","true"
"null","<div style=""font-size:60px;"">+</div>","null","html-keyboard-response","228","148667","0.0-6.0-0.111","FAHU","2","m","rechts","23","","fixation","","","",""
"1342","img/150_180.png","74","image-keyboard-response","229","150010","0.0-6.0-1.111","FAHU","2","m","rechts","23","","","self","j","150","true"
"null","<div style=""font-size:60px;"">+</div>","null","html-keyboard-response","230","150462","0.0-6.0-0.112","FAHU","2","m","rechts","23","","fixation","","","",""
"727","img/0_330.png","70","image-keyboard-response","231","151191","0.0-6.0-1.112","FAHU","2","m","rechts","23","","","self","f","0","true"
"null","<div style=""font-size:60px;"">+</div>","null","html-keyboard-response","232","151495","0.0-6.0-0.113","FAHU","2","m","rechts","23","","fixation","","","",""
"1505","img/150_120.png","70","image-keyboard-response","233","153000","0.0-6.0-1.113","FAHU","2","m","rechts","23","","","self","f","150","true"
"null","<div style=""font-size:60px;"">+</div>","null","html-keyboard-response","234","153304","0.0-6.0-0.114","FAHU","2","m","rechts","23","","fixation","","","",""
"1156","img/30_120.png","74","image-keyboard-response","235","154460","0.0-6.0-1.114","FAHU","2","m","rechts","23","","","self","j","30","true"
"null","<div style=""font-size:60px;"">+</div>","null","html-keyboard-response","236","154763","0.0-6.0-0.115","FAHU","2","m","rechts","23","","fixation","","","",""
"602","img/0_240.png","70","image-keyboard-response","237","155365","0.0-6.0-1.115","FAHU","2","m","rechts","23","","","self","f","0","true"
"null","<div style=""font-size:60px;"">+</div>","null","html-keyboard-response","238","155669","0.0-6.0-0.116","FAHU","2","m","rechts","23","","fixation","","","",""
"753","img/150_90.png","70","image-keyboard-response","239","156424","0.0-6.0-1.116","FAHU","2","m","rechts","23","","","self","f","150","true"
"null","<div style=""font-size:60px;"">+</div>","null","html-keyboard-response","240","156829","0.0-6.0-0.117","FAHU","2","m","rechts","23","","fixation","","","",""
"766","img/60_30.png","74","image-keyboard-response","241","157595","0.0-6.0-1.117","FAHU","2","m","rechts","23","","","self","j","60","true"
"null","<div style=""font-size:60px;"">+</div>","null","html-keyboard-response","242","158099","0.0-6.0-0.118","FAHU","2","m","rechts","23","","fixation","","","",""
"1378","img/150_240.png","74","image-keyboard-response","243","159479","0.0-6.0-1.118","FAHU","2","m","rechts","23","","","self","j","150","true"
"null","<div style=""font-size:60px;"">+</div>","null","html-keyboard-response","244","159933","0.0-6.0-0.119","FAHU","2","m","rechts","23","","fixation","","","",""
"875","img/150_300.png","74","image-keyboard-response","245","160809","0.0-6.0-1.119","FAHU","2","m","rechts","23","","","self","j","150","true"
"null","<div style=""font-size:60px;"">+</div>","null","html-keyboard-response","246","161311","0.0-6.0-0.120","FAHU","2","m","rechts","23","","fixation","","","",""
"949","img/90_120.png","70","image-keyboard-response","247","162261","0.0-6.0-1.120","FAHU","2","m","rechts","23","","","self","f","90","true"
"null","<div style=""font-size:60px;"">+</div>","null","html-keyboard-response","248","162767","0.0-6.0-0.121","FAHU","2","m","rechts","23","","fixation","","","",""
"1786","img/30_240.png","70","image-keyboard-response","249","164554","0.0-6.0-1.121","FAHU","2","m","rechts","23","","","self","f","30","true"
"null","<div style=""font-size:60px;"">+</div>","null","html-keyboard-response","250","164955","0.0-6.0-0.122","FAHU","2","m","rechts","23","","fixation","","","",""
"697","img/0_90.png","74","image-keyboard-response","251","165652","0.0-6.0-1.122","FAHU","2","m","rechts","23","","","self","j","0","true"
"null","<div style=""font-size:60px;"">+</div>","null","html-keyboard-response","252","166157","0.0-6.0-0.123","FAHU","2","m","rechts","23","","fixation","","","",""
"580","img/0_270.png","70","image-keyboard-response","253","166738","0.0-6.0-1.123","FAHU","2","m","rechts","23","","","self","f","0","true"
"null","<div style=""font-size:60px;"">+</div>","null","html-keyboard-response","254","167144","0.0-6.0-0.124","FAHU","2","m","rechts","23","","fixation","","","",""
"543","img/30_180.png","74","image-keyboard-response","255","167689","0.0-6.0-1.124","FAHU","2","m","rechts","23","","","self","j","30","true"
"null","<div style=""font-size:60px;"">+</div>","null","html-keyboard-response","256","168043","0.0-6.0-0.125","FAHU","2","m","rechts","23","","fixation","","","",""
"669","img/90_300.png","70","image-keyboard-response","257","168714","0.0-6.0-1.125","FAHU","2","m","rechts","23","","","self","f","90","true"
"null","<div style=""font-size:60px;"">+</div>","null","html-keyboard-response","258","169218","0.0-6.0-0.126","FAHU","2","m","rechts","23","","fixation","","","",""
"600","img/60_180.png","74","image-keyboard-response","259","169818","0.0-6.0-1.126","FAHU","2","m","rechts","23","","","self","j","60","true"
"null","<div style=""font-size:60px;"">+</div>","null","html-keyboard-response","260","170173","0.0-6.0-0.127","FAHU","2","m","rechts","23","","fixation","","","",""
"823","img/60_90.png","74","image-keyboard-response","261","170997","0.0-6.0-1.127","FAHU","2","m","rechts","23","","","self","j","60","true"
"null","<div style=""font-size:60px;"">+</div>","null","html-keyboard-response","262","171451","0.0-6.0-0.128","FAHU","2","m","rechts","23","","fixation","","","",""
"616","img/90_180.png","74","image-keyboard-response","263","172069","0.0-6.0-1.128","FAHU","2","m","rechts","23","","","self","j","90","true"
"null","<div style=""font-size:60px;"">+</div>","null","html-keyboard-response","264","172574","0.0-6.0-0.129","FAHU","2","m","rechts","23","","fixation","","","",""
"659","img/120_210.png","74","image-keyboard-response","265","173234","0.0-6.0-1.129","FAHU","2","m","rechts","23","","","self","j","120","true"
"null","<div style=""font-size:60px;"">+</div>","null","html-keyboard-response","266","173639","0.0-6.0-0.130","FAHU","2","m","rechts","23","","fixation","","","",""
"698","img/30_60.png","74","image-keyboard-response","267","174338","0.0-6.0-1.130","FAHU","2","m","rechts","23","","","self","j","30","true"
"null","<div style=""font-size:60px;"">+</div>","null","html-keyboard-response","268","174742","0.0-6.0-0.131","FAHU","2","m","rechts","23","","fixation","","","",""
"802","img/150_270.png","74","image-keyboard-response","269","175545","0.0-6.0-1.131","FAHU","2","m","rechts","23","","","self","j","150","true"
"null","<div style=""font-size:60px;"">+</div>","null","html-keyboard-response","270","175950","0.0-6.0-0.132","FAHU","2","m","rechts","23","","fixation","","","",""
"809","img/0_150.png","74","image-keyboard-response","271","176759","0.0-6.0-1.132","FAHU","2","m","rechts","23","","","self","j","0","true"
"null","<div style=""font-size:60px;"">+</div>","null","html-keyboard-response","272","177213","0.0-6.0-0.133","FAHU","2","m","rechts","23","","fixation","","","",""
"844","img/120_150.png","70","image-keyboard-response","273","178057","0.0-6.0-1.133","FAHU","2","m","rechts","23","","","self","f","120","true"
"null","<div style=""font-size:60px;"">+</div>","null","html-keyboard-response","274","178411","0.0-6.0-0.134","FAHU","2","m","rechts","23","","fixation","","","",""
"780","img/L90_180.png","70","image-keyboard-response","275","179191","0.0-6.0-1.134","FAHU","2","m","rechts","23","","","self","f","90","true"
"null","<div style=""font-size:60px;"">+</div>","null","html-keyboard-response","276","179698","0.0-6.0-0.135","FAHU","2","m","rechts","23","","fixation","","","",""
"520","img/L60_180.png","70","image-keyboard-response","277","180219","0.0-6.0-1.135","FAHU","2","m","rechts","23","","","self","f","60","true"
"null","<div style=""font-size:60px;"">+</div>","null","html-keyboard-response","278","180523","0.0-6.0-0.136","FAHU","2","m","rechts","23","","fixation","","","",""
"1294","img/120_30.png","74","image-keyboard-response","279","181818","0.0-6.0-1.136","FAHU","2","m","rechts","23","","","self","j","120","true"
"null","<div style=""font-size:60px;"">+</div>","null","html-keyboard-response","280","182172","0.0-6.0-0.137","FAHU","2","m","rechts","23","","fixation","","","",""
"813","img/90_330.png","70","image-keyboard-response","281","182986","0.0-6.0-1.137","FAHU","2","m","rechts","23","","","self","f","90","true"
"null","<div style=""font-size:60px;"">+</div>","null","html-keyboard-response","282","183338","0.0-6.0-0.138","FAHU","2","m","rechts","23","","fixation","","","",""
"593","img/0_60.png","74","image-keyboard-response","283","183933","0.0-6.0-1.138","FAHU","2","m","rechts","23","","","self","j","0","true"
"null","<div style=""font-size:60px;"">+</div>","null","html-keyboard-response","284","184435","0.0-6.0-0.139","FAHU","2","m","rechts","23","","fixation","","","",""
"994","img/150_60.png","70","image-keyboard-response","285","185430","0.0-6.0-1.139","FAHU","2","m","rechts","23","","","self","f","150","true"
"null","<div style=""font-size:60px;"">+</div>","null","html-keyboard-response","286","185833","0.0-6.0-0.140","FAHU","2","m","rechts","23","","fixation","","","",""
"767","img/90_150.png","70","image-keyboard-response","287","186601","0.0-6.0-1.140","FAHU","2","m","rechts","23","","","self","f","90","true"
"null","<div style=""font-size:60px;"">+</div>","null","html-keyboard-response","288","187052","0.0-6.0-0.141","FAHU","2","m","rechts","23","","fixation","","","",""
"771","img/90_60.png","74","image-keyboard-response","289","187823","0.0-6.0-1.141","FAHU","2","m","rechts","23","","","self","j","90","true"
"null","<div style=""font-size:60px;"">+</div>","null","html-keyboard-response","290","188278","0.0-6.0-0.142","FAHU","2","m","rechts","23","","fixation","","","",""
"746","img/30_270.png","70","image-keyboard-response","291","189024","0.0-6.0-1.142","FAHU","2","m","rechts","23","","","self","f","30","true"
"null","<div style=""font-size:60px;"">+</div>","null","html-keyboard-response","292","189479","0.0-6.0-0.143","FAHU","2","m","rechts","23","","fixation","","","",""
"1240","img/120_270.png","74","image-keyboard-response","293","190721","0.0-6.0-1.143","FAHU","2","m","rechts","23","","","self","j","120","true"
"null","<div style=""font-size:60px;"">+</div>","null","html-keyboard-response","294","191175","0.0-6.0-0.144","FAHU","2","m","rechts","23","","fixation","","","",""
"775","img/L120_180.png","70","image-keyboard-response","295","191950","0.0-6.0-1.144","FAHU","2","m","rechts","23","","","self","f","120","true"
"null","<div style=""font-size:60px;"">+</div>","null","html-keyboard-response","296","192352","0.0-6.0-0.145","FAHU","2","m","rechts","23","","fixation","","","",""
"792","img/90_30.png","74","image-keyboard-response","297","193144","0.0-6.0-1.145","FAHU","2","m","rechts","23","","","self","j","90","true"
"null","<div style=""font-size:60px;"">+</div>","null","html-keyboard-response","298","193495","0.0-6.0-0.146","FAHU","2","m","rechts","23","","fixation","","","",""
"731","img/0_300.png","70","image-keyboard-response","299","194229","0.0-6.0-1.146","FAHU","2","m","rechts","23","","","self","f","0","true"
"null","<div style=""font-size:60px;"">+</div>","null","html-keyboard-response","300","194635","0.0-6.0-0.147","FAHU","2","m","rechts","23","","fixation","","","",""
"1112","img/120_90.png","70","image-keyboard-response","301","195747","0.0-6.0-1.147","FAHU","2","m","rechts","23","","","self","f","120","true"
"null","<div style=""font-size:60px;"">+</div>","null","html-keyboard-response","302","196252","0.0-6.0-0.148","FAHU","2","m","rechts","23","","fixation","","","",""
"566","img/0_210.png","70","image-keyboard-response","303","196818","0.0-6.0-1.148","FAHU","2","m","rechts","23","","","self","f","0","true"
"null","<div style=""font-size:60px;"">+</div>","null","html-keyboard-response","304","197222","0.0-6.0-0.149","FAHU","2","m","rechts","23","","fixation","","","",""
"879","img/30_90.png","74","image-keyboard-response","305","198102","0.0-6.0-1.149","FAHU","2","m","rechts","23","","","self","j","30","true"
"null","<div style=""font-size:60px;"">+</div>","null","html-keyboard-response","306","198558","0.0-6.0-0.150","FAHU","2","m","rechts","23","","fixation","","","",""
"700","img/60_330.png","70","image-keyboard-response","307","199259","0.0-6.0-1.150","FAHU","2","m","rechts","23","","","self","f","60","true"
"null","<div style=""font-size:60px;"">+</div>","null","html-keyboard-response","308","199560","0.0-6.0-0.151","FAHU","2","m","rechts","23","","fixation","","","",""
"952","img/120_180.png","74","image-keyboard-response","309","200514","0.0-6.0-1.151","FAHU","2","m","rechts","23","","","self","j","120","true"
"null","<div style=""font-size:60px;"">+</div>","null","html-keyboard-response","310","200816","0.0-6.0-0.152","FAHU","2","m","rechts","23","","fixation","","","",""
"953","img/90_240.png","74","image-keyboard-response","311","201769","0.0-6.0-1.152","FAHU","2","m","rechts","23","","","self","j","90","true"
"null","<div style=""font-size:60px;"">+</div>","null","html-keyboard-response","312","202224","0.0-6.0-0.153","FAHU","2","m","rechts","23","","fixation","","","",""
"815","img/L150_180.png","70","image-keyboard-response","313","203040","0.0-6.0-1.153","FAHU","2","m","rechts","23","","","self","f","150","true"
"null","<div style=""font-size:60px;"">+</div>","null","html-keyboard-response","314","203397","0.0-6.0-0.154","FAHU","2","m","rechts","23","","fixation","","","",""
"791","img/60_270.png","70","image-keyboard-response","315","204190","0.0-6.0-1.154","FAHU","2","m","rechts","23","","","self","f","60","true"
"null","<div style=""font-size:60px;"">+</div>","null","html-keyboard-response","316","204644","0.0-6.0-0.155","FAHU","2","m","rechts","23","","fixation","","","",""
"938","img/60_150.png","70","image-keyboard-response","317","205582","0.0-6.0-1.155","FAHU","2","m","rechts","23","","","self","f","60","true"
"null","<div style=""font-size:60px;"">+</div>","null","html-keyboard-response","318","206037","0.0-6.0-0.156","FAHU","2","m","rechts","23","","fixation","","","",""
"879","img/120_180.png","74","image-keyboard-response","319","206917","0.0-6.0-1.156","FAHU","2","m","rechts","23","","","self","j","120","true"
"null","<div style=""font-size:60px;"">+</div>","null","html-keyboard-response","320","207223","0.0-6.0-0.157","FAHU","2","m","rechts","23","","fixation","","","",""
"1155","img/0_300.png","70","image-keyboard-response","321","208379","0.0-6.0-1.157","FAHU","2","m","rechts","23","","","self","f","0","true"
"null","<div style=""font-size:60px;"">+</div>","null","html-keyboard-response","322","208784","0.0-6.0-0.158","FAHU","2","m","rechts","23","","fixation","","","",""
"936","img/120_30.png","74","image-keyboard-response","323","209722","0.0-6.0-1.158","FAHU","2","m","rechts","23","","","self","j","120","true"
"null","<div style=""font-size:60px;"">+</div>","null","html-keyboard-response","324","210077","0.0-6.0-0.159","FAHU","2","m","rechts","23","","fixation","","","",""
"1480","img/150_120.png","70","image-keyboard-response","325","211557","0.0-6.0-1.159","FAHU","2","m","rechts","23","","","self","f","150","true"
"null","<div style=""font-size:60px;"">+</div>","null","html-keyboard-response","326","212012","0.0-6.0-0.160","FAHU","2","m","rechts","23","","fixation","","","",""
"717","img/150_90.png","70","image-keyboard-response","327","212730","0.0-6.0-1.160","FAHU","2","m","rechts","23","","","self","f","150","true"
"null","<div style=""font-size:60px;"">+</div>","null","html-keyboard-response","328","213136","0.0-6.0-0.161","FAHU","2","m","rechts","23","","fixation","","","",""
"563","img/0_30.png","74","image-keyboard-response","329","213699","0.0-6.0-1.161","FAHU","2","m","rechts","23","","","self","j","0","true"
"null","<div style=""font-size:60px;"">+</div>","null","html-keyboard-response","330","214151","0.0-6.0-0.162","FAHU","2","m","rechts","23","","fixation","","","",""
"743","img/0_270.png","70","image-keyboard-response","331","214896","0.0-6.0-1.162","FAHU","2","m","rechts","23","","","self","f","0","true"
"null","<div style=""font-size:60px;"">+</div>","null","html-keyboard-response","332","215349","0.0-6.0-0.163","FAHU","2","m","rechts","23","","fixation","","","",""
"544","img/0_210.png","70","image-keyboard-response","333","215894","0.0-6.0-1.163","FAHU","2","m","rechts","23","","","self","f","0","true"
"null","<div style=""font-size:60px;"">+</div>","null","html-keyboard-response","334","216247","0.0-6.0-0.164","FAHU","2","m","rechts","23","","fixation","","","",""
"613","img/60_270.png","70","image-keyboard-response","335","216862","0.0-6.0-1.164","FAHU","2","m","rechts","23","","","self","f","60","true"
"null","<div style=""font-size:60px;"">+</div>","null","html-keyboard-response","336","217264","0.0-6.0-0.165","FAHU","2","m","rechts","23","","fixation","","","",""
"675","img/0_90.png","74","image-keyboard-response","337","217940","0.0-6.0-1.165","FAHU","2","m","rechts","23","","","self","j","0","true"
"null","<div style=""font-size:60px;"">+</div>","null","html-keyboard-response","338","218344","0.0-6.0-0.166","FAHU","2","m","rechts","23","","fixation","","","",""
"644","img/0_330.png","70","image-keyboard-response","339","218990","0.0-6.0-1.166","FAHU","2","m","rechts","23","","","self","f","0","true"
"null","<div style=""font-size:60px;"">+</div>","null","html-keyboard-response","340","219295","0.0-6.0-0.167","FAHU","2","m","rechts","23","","fixation","","","",""
"713","img/30_90.png","74","image-keyboard-response","341","220009","0.0-6.0-1.167","FAHU","2","m","rechts","23","","","self","j","30","true"
"null","<div style=""font-size:60px;"">+</div>","null","html-keyboard-response","342","220361","0.0-6.0-0.168","FAHU","2","m","rechts","23","","fixation","","","",""
"729","img/L90_180.png","70","image-keyboard-response","343","221090","0.0-6.0-1.168","FAHU","2","m","rechts","23","","","self","f","90","true"
"null","<div style=""font-size:60px;"">+</div>","null","html-keyboard-response","344","221594","0.0-6.0-0.169","FAHU","2","m","rechts","23","","fixation","","","",""
"940","img/90_30.png","74","image-keyboard-response","345","222534","0.0-6.0-1.169","FAHU","2","m","rechts","23","","","self","j","90","true"
"null","<div style=""font-size:60px;"">+</div>","null","html-keyboard-response","346","222891","0.0-6.0-0.170","FAHU","2","m","rechts","23","","fixation","","","",""
"734","img/L60_180.png","70","image-keyboard-response","347","223625","0.0-6.0-1.170","FAHU","2","m","rechts","23","","","self","f","60","true"
"null","<div style=""font-size:60px;"">+</div>","null","html-keyboard-response","348","224027","0.0-6.0-0.171","FAHU","2","m","rechts","23","","fixation","","","",""
"1071","img/90_60.png","74","image-keyboard-response","349","225099","0.0-6.0-1.171","FAHU","2","m","rechts","23","","","self","j","90","true"
"null","<div style=""font-size:60px;"">+</div>","null","html-keyboard-response","350","225402","0.0-6.0-0.172","FAHU","2","m","rechts","23","","fixation","","","",""
"714","img/90_300.png","70","image-keyboard-response","351","226116","0.0-6.0-1.172","FAHU","2","m","rechts","23","","","self","f","90","true"
"null","<div style=""font-size:60px;"">+</div>","null","html-keyboard-response","352","226572","0.0-6.0-0.173","FAHU","2","m","rechts","23","","fixation","","","",""
"760","img/60_150.png","70","image-keyboard-response","353","227333","0.0-6.0-1.173","FAHU","2","m","rechts","23","","","self","f","60","true"
"null","<div style=""font-size:60px;"">+</div>","null","html-keyboard-response","354","227784","0.0-6.0-0.174","FAHU","2","m","rechts","23","","fixation","","","",""
"599","img/30_300.png","70","image-keyboard-response","355","228384","0.0-6.0-1.174","FAHU","2","m","rechts","23","","","self","f","30","true"
"null","<div style=""font-size:60px;"">+</div>","null","html-keyboard-response","356","228787","0.0-6.0-0.175","FAHU","2","m","rechts","23","","fixation","","","",""
"697","img/L120_180.png","70","image-keyboard-response","357","229484","0.0-6.0-1.175","FAHU","2","m","rechts","23","","","self","f","120","true"
"null","<div style=""font-size:60px;"">+</div>","null","html-keyboard-response","358","229989","0.0-6.0-0.176","FAHU","2","m","rechts","23","","fixation","","","",""
"642","img/30_270.png","70","image-keyboard-response","359","230632","0.0-6.0-1.176","FAHU","2","m","rechts","23","","","self","f","30","true"
"null","<div style=""font-size:60px;"">+</div>","null","html-keyboard-response","360","231086","0.0-6.0-0.177","FAHU","2","m","rechts","23","","fixation","","","",""
"758","img/60_180.png","74","image-keyboard-response","361","231844","0.0-6.0-1.177","FAHU","2","m","rechts","23","","","self","j","60","true"
"null","<div style=""font-size:60px;"">+</div>","null","html-keyboard-response","362","232246","0.0-6.0-0.178","FAHU","2","m","rechts","23","","fixation","","","",""
"634","img/120_150.png","70","image-keyboard-response","363","232882","0.0-6.0-1.178","FAHU","2","m","rechts","23","","","self","f","120","true"
"null","<div style=""font-size:60px;"">+</div>","null","html-keyboard-response","364","233187","0.0-6.0-0.179","FAHU","2","m","rechts","23","","fixation","","","",""
"680","img/120_90.png","70","image-keyboard-response","365","233868","0.0-6.0-1.179","FAHU","2","m","rechts","23","","","self","f","120","true"
"null","<div style=""font-size:60px;"">+</div>","null","html-keyboard-response","366","234323","0.0-6.0-0.180","FAHU","2","m","rechts","23","","fixation","","","",""
"616","img/0_240.png","70","image-keyboard-response","367","234939","0.0-6.0-1.180","FAHU","2","m","rechts","23","","","self","f","0","true"
"null","<div style=""font-size:60px;"">+</div>","null","html-keyboard-response","368","235445","0.0-6.0-0.181","FAHU","2","m","rechts","23","","fixation","","","",""
"522","img/90_180.png","74","image-keyboard-response","369","235967","0.0-6.0-1.181","FAHU","2","m","rechts","23","","","self","j","90","true"
"null","<div style=""font-size:60px;"">+</div>","null","html-keyboard-response","370","236420","0.0-6.0-0.182","FAHU","2","m","rechts","23","","fixation","","","",""
"544","img/60_30.png","70","image-keyboard-response","371","236966","0.0-6.0-1.182","FAHU","2","m","rechts","23","","","self","j","60","false"
"null","<div style=""font-size:60px;"">+</div>","null","html-keyboard-response","372","237469","0.0-6.0-0.183","FAHU","2","m","rechts","23","","fixation","","","",""
"897","img/L150_180.png","70","image-keyboard-response","373","238368","0.0-6.0-1.183","FAHU","2","m","rechts","23","","","self","f","150","true"
"null","<div style=""font-size:60px;"">+</div>","null","html-keyboard-response","374","238771","0.0-6.0-0.184","FAHU","2","m","rechts","23","","fixation","","","",""
"1180","img/150_300.png","70","image-keyboard-response","375","239951","0.0-6.0-1.184","FAHU","2","m","rechts","23","","","self","j","150","false"
"null","<div style=""font-size:60px;"">+</div>","null","html-keyboard-response","376","240307","0.0-6.0-0.185","FAHU","2","m","rechts","23","","fixation","","","",""
"745","img/L30_180.png","70","image-keyboard-response","377","241052","0.0-6.0-1.185","FAHU","2","m","rechts","23","","","self","f","30","true"
"null","<div style=""font-size:60px;"">+</div>","null","html-keyboard-response","378","241557","0.0-6.0-0.186","FAHU","2","m","rechts","23","","fixation","","","",""
"927","img/30_240.png","70","image-keyboard-response","379","242484","0.0-6.0-1.186","FAHU","2","m","rechts","23","","","self","f","30","true"
"null","<div style=""font-size:60px;"">+</div>","null","html-keyboard-response","380","242840","0.0-6.0-0.187","FAHU","2","m","rechts","23","","fixation","","","",""
"657","img/90_150.png","70","image-keyboard-response","381","243498","0.0-6.0-1.187","FAHU","2","m","rechts","23","","","self","f","90","true"
"null","<div style=""font-size:60px;"">+</div>","null","html-keyboard-response","382","243900","0.0-6.0-0.188","FAHU","2","m","rechts","23","","fixation","","","",""
"734","img/90_210.png","74","image-keyboard-response","383","244635","0.0-6.0-1.188","FAHU","2","m","rechts","23","","","self","j","90","true"
"null","<div style=""font-size:60px;"">+</div>","null","html-keyboard-response","384","244990","0.0-6.0-0.189","FAHU","2","m","rechts","23","","fixation","","","",""
"1231","img/150_60.png","70","image-keyboard-response","385","246224","0.0-6.0-1.189","FAHU","2","m","rechts","23","","","self","f","150","true"
"null","<div style=""font-size:60px;"">+</div>","null","html-keyboard-response","386","246530","0.0-6.0-0.190","FAHU","2","m","rechts","23","","fixation","","","",""
"1492","img/120_210.png","74","image-keyboard-response","387","248022","0.0-6.0-1.190","FAHU","2","m","rechts","23","","","self","j","120","true"
"null","<div style=""font-size:60px;"">+</div>","null","html-keyboard-response","388","248492","0.0-6.0-0.191","FAHU","2","m","rechts","23","","fixation","","","",""
"771","img/0_120.png","74","image-keyboard-response","389","249263","0.0-6.0-1.191","FAHU","2","m","rechts","23","","","self","j","0","true"
"null","<div style=""font-size:60px;"">+</div>","null","html-keyboard-response","390","249670","0.0-6.0-0.192","FAHU","2","m","rechts","23","","fixation","","","",""
"1012","img/60_210.png","74","image-keyboard-response","391","250682","0.0-6.0-1.192","FAHU","2","m","rechts","23","","","self","j","60","true"
"null","<div style=""font-size:60px;"">+</div>","null","html-keyboard-response","392","251036","0.0-6.0-0.193","FAHU","2","m","rechts","23","","fixation","","","",""
"1189","img/150_270.png","70","image-keyboard-response","393","252225","0.0-6.0-1.193","FAHU","2","m","rechts","23","","","self","j","150","false"
"null","<div style=""font-size:60px;"">+</div>","null","html-keyboard-response","394","252729","0.0-6.0-0.194","FAHU","2","m","rechts","23","","fixation","","","",""
"1657","img/150_180.png","74","image-keyboard-response","395","254388","0.0-6.0-1.194","FAHU","2","m","rechts","23","","","self","j","150","true"
"null","<div style=""font-size:60px;"">+</div>","null","html-keyboard-response","396","254738","0.0-6.0-0.195","FAHU","2","m","rechts","23","","fixation","","","",""
"968","img/30_120.png","74","image-keyboard-response","397","255707","0.0-6.0-1.195","FAHU","2","m","rechts","23","","","self","j","30","true"
"null","<div style=""font-size:60px;"">+</div>","null","html-keyboard-response","398","256013","0.0-6.0-0.196","FAHU","2","m","rechts","23","","fixation","","","",""
"1990","img/90_240.png","74","image-keyboard-response","399","258003","0.0-6.0-1.196","FAHU","2","m","rechts","23","","","self","j","90","true"
"null","<div style=""font-size:60px;"">+</div>","null","html-keyboard-response","400","258306","0.0-6.0-0.197","FAHU","2","m","rechts","23","","fixation","","","",""
"1437","img/150_240.png","74","image-keyboard-response","401","259744","0.0-6.0-1.197","FAHU","2","m","rechts","23","","","self","j","150","true"
"null","<div style=""font-size:60px;"">+</div>","null","html-keyboard-response","402","260100","0.0-6.0-0.198","FAHU","2","m","rechts","23","","fixation","","","",""
"923","img/30_60.png","74","image-keyboard-response","403","261024","0.0-6.0-1.198","FAHU","2","m","rechts","23","","","self","j","30","true"
"null","<div style=""font-size:60px;"">+</div>","null","html-keyboard-response","404","261478","0.0-6.0-0.199","FAHU","2","m","rechts","23","","fixation","","","",""
"816","img/30_180.png","74","image-keyboard-response","405","262294","0.0-6.0-1.199","FAHU","2","m","rechts","23","","","self","j","30","true"
"null","<div style=""font-size:60px;"">+</div>","null","html-keyboard-response","406","262696","0.0-6.0-0.200","FAHU","2","m","rechts","23","","fixation","","","",""
"751","img/60_90.png","74","image-keyboard-response","407","263449","0.0-6.0-1.200","FAHU","2","m","rechts","23","","","self","j","60","true"
"null","<div style=""font-size:60px;"">+</div>","null","html-keyboard-response","408","263904","0.0-6.0-0.201","FAHU","2","m","rechts","23","","fixation","","","",""
"813","img/90_330.png","70","image-keyboard-response","409","264718","0.0-6.0-1.201","FAHU","2","m","rechts","23","","","self","f","90","true"
"null","<div style=""font-size:60px;"">+</div>","null","html-keyboard-response","410","265220","0.0-6.0-0.202","FAHU","2","m","rechts","23","","fixation","","","",""
"936","img/120_270.png","74","image-keyboard-response","411","266156","0.0-6.0-1.202","FAHU","2","m","rechts","23","","","self","j","120","true"
"null","<div style=""font-size:60px;"">+</div>","null","html-keyboard-response","412","266608","0.0-6.0-0.203","FAHU","2","m","rechts","23","","fixation","","","",""
"955","img/120_330.png","70","image-keyboard-response","413","267563","0.0-6.0-1.203","FAHU","2","m","rechts","23","","","self","f","120","true"
"null","<div style=""font-size:60px;"">+</div>","null","html-keyboard-response","414","267967","0.0-6.0-0.204","FAHU","2","m","rechts","23","","fixation","","","",""
"833","img/60_330.png","70","image-keyboard-response","415","268800","0.0-6.0-1.204","FAHU","2","m","rechts","23","","","self","f","60","true"
"null","<div style=""font-size:60px;"">+</div>","null","html-keyboard-response","416","269203","0.0-6.0-0.205","FAHU","2","m","rechts","23","","fixation","","","",""
"823","img/0_60.png","74","image-keyboard-response","417","270027","0.0-6.0-1.205","FAHU","2","m","rechts","23","","","self","j","0","true"
"null","<div style=""font-size:60px;"">+</div>","null","html-keyboard-response","418","270432","0.0-6.0-0.206","FAHU","2","m","rechts","23","","fixation","","","",""
"951","img/0_150.png","74","image-keyboard-response","419","271383","0.0-6.0-1.206","FAHU","2","m","rechts","23","","","self","j","0","true"
"null","<div style=""font-size:60px;"">+</div>","null","html-keyboard-response","420","271889","0.0-6.0-0.207","FAHU","2","m","rechts","23","","fixation","","","",""
"1087","img/90_120.png","70","image-keyboard-response","421","272977","0.0-6.0-1.207","FAHU","2","m","rechts","23","","","self","f","90","true"
"71045","<p>Du hast in 95% der Versuche korrekt entschieden.</p><p>Deine durchschnittliche Reaktionszeit war  796ms.</p><p>Dr&uuml;cke eine beliebige Taste, um die Session zu beenden. Vielen Dank!</p>","32","html-keyboard-response","422","344023","0.0-7.0","FAHU","2","m","rechts","23","","","","","",""
