"rt","stimulus","key_press","trial_type","trial_index","time_elapsed","internal_node_id","subject","session","sex","handedness","age","responses","test_part","condition","correct_response","angle","correct"
"17308","<p>Mental Rotation Experiment.</p> <p>Dr&uuml;cke eine beliebige Taste, um anzufangen.</p>","32","html-keyboard-response","0","17315","0.0-0.0","FAHU","3","m","rechts","23","","","","","",""
"5201","","","survey-text","1","22516","0.0-1.0","FAHU","3","m","rechts","23","{""Q0"":""FAHU""}","","","","",""
"260473","","","survey-text","2","282989","0.0-2.0","FAHU","3","m","rechts","23","{""Q0"":""3""}","","","","",""
"28680","","","survey-multi-choice","3","311672","0.0-3.0","FAHU","3","m","rechts","23","{""Q0"":""m"",""Q1"":""rechts""}","","","","",""
"5952","","","survey-text","4","317625","0.0-4.0","FAHU","3","m","rechts","23","{""Q0"":""23""}","","","","",""
"26113","<p> Stell dir vor, dass du vor einem runden Tisch stehst, auf dem sich ein blauer Ball am Tischrand befindet. Entlang des Tischrands ist jeweils ein verschieden langer Pfeil. Nun bewegst du dich entlang dieses Pfeils bis an seine Spitze. Wenn du am Ende des Pfeils angekommen bist, schau zur Tischmitte. </p> <img src='img/90_180.png'></img> <br> <p>Entscheide dann, ob der Ball von deiner neuen (vorgestellten) Position links oder rechts von dir liegt.</p> <p>Dr&uuml;cke die <strong>'f'</strong>-Taste f&uuml;r links, die <strong>'j'</strong>-Taste f&uuml;r rechts.</p> <br><p> Das Bild wird jeweils 1 Sekunde lang pr&auml;sentiert. Du hast 3 Sekunden Zeit eine Entscheidung zu treffen.</p>","32","html-keyboard-response","5","343739","0.0-5.0","FAHU","3","m","rechts","23","","","","","",""
"null","<div style=""font-size:60px;"">+</div>","null","html-keyboard-response","6","345045","0.0-6.0-0.0","FAHU","3","m","rechts","23","","fixation","","","",""
"903","img/30_300.png","70","image-keyboard-response","7","345950","0.0-6.0-1.0","FAHU","3","m","rechts","23","","","self","f","30","true"
"null","<div style=""font-size:60px;"">+</div>","null","html-keyboard-response","8","346456","0.0-6.0-0.1","FAHU","3","m","rechts","23","","fixation","","","",""
"814","img/L60_180.png","70","image-keyboard-response","9","347271","0.0-6.0-1.1","FAHU","3","m","rechts","23","","","self","f","60","true"
"null","<div style=""font-size:60px;"">+</div>","null","html-keyboard-response","10","347623","0.0-6.0-0.2","FAHU","3","m","rechts","23","","fixation","","","",""
"742","img/120_210.png","74","image-keyboard-response","11","348366","0.0-6.0-1.2","FAHU","3","m","rechts","23","","","self","j","120","true"
"null","<div style=""font-size:60px;"">+</div>","null","html-keyboard-response","12","348668","0.0-6.0-0.3","FAHU","3","m","rechts","23","","fixation","","","",""
"648","img/90_120.png","70","image-keyboard-response","13","349317","0.0-6.0-1.3","FAHU","3","m","rechts","23","","","self","f","90","true"
"null","<div style=""font-size:60px;"">+</div>","null","html-keyboard-response","14","349819","0.0-6.0-0.4","FAHU","3","m","rechts","23","","fixation","","","",""
"527","img/60_180.png","74","image-keyboard-response","15","350346","0.0-6.0-1.4","FAHU","3","m","rechts","23","","","self","j","60","true"
"null","<div style=""font-size:60px;"">+</div>","null","html-keyboard-response","16","350700","0.0-6.0-0.5","FAHU","3","m","rechts","23","","fixation","","","",""
"597","img/60_90.png","70","image-keyboard-response","17","351297","0.0-6.0-1.5","FAHU","3","m","rechts","23","","","self","j","60","false"
"null","<div style=""font-size:60px;"">+</div>","null","html-keyboard-response","18","351702","0.0-6.0-0.6","FAHU","3","m","rechts","23","","fixation","","","",""
"803","img/150_60.png","70","image-keyboard-response","19","352506","0.0-6.0-1.6","FAHU","3","m","rechts","23","","","self","f","150","true"
"null","<div style=""font-size:60px;"">+</div>","null","html-keyboard-response","20","352961","0.0-6.0-0.7","FAHU","3","m","rechts","23","","fixation","","","",""
"650","img/120_150.png","70","image-keyboard-response","21","353612","0.0-6.0-1.7","FAHU","3","m","rechts","23","","","self","f","120","true"
"null","<div style=""font-size:60px;"">+</div>","null","html-keyboard-response","22","354117","0.0-6.0-0.8","FAHU","3","m","rechts","23","","fixation","","","",""
"568","img/0_150.png","74","image-keyboard-response","23","354686","0.0-6.0-1.8","FAHU","3","m","rechts","23","","","self","j","0","true"
"null","<div style=""font-size:60px;"">+</div>","null","html-keyboard-response","24","355041","0.0-6.0-0.9","FAHU","3","m","rechts","23","","fixation","","","",""
"636","img/60_150.png","70","image-keyboard-response","25","355677","0.0-6.0-1.9","FAHU","3","m","rechts","23","","","self","f","60","true"
"null","<div style=""font-size:60px;"">+</div>","null","html-keyboard-response","26","356182","0.0-6.0-0.10","FAHU","3","m","rechts","23","","fixation","","","",""
"628","img/L30_180.png","70","image-keyboard-response","27","356811","0.0-6.0-1.10","FAHU","3","m","rechts","23","","","self","f","30","true"
"null","<div style=""font-size:60px;"">+</div>","null","html-keyboard-response","28","357165","0.0-6.0-0.11","FAHU","3","m","rechts","23","","fixation","","","",""
"1108","img/90_30.png","70","image-keyboard-response","29","358275","0.0-6.0-1.11","FAHU","3","m","rechts","23","","","self","j","90","false"
"null","<div style=""font-size:60px;"">+</div>","null","html-keyboard-response","30","358731","0.0-6.0-0.12","FAHU","3","m","rechts","23","","fixation","","","",""
"1290","img/L150_180.png","70","image-keyboard-response","31","360021","0.0-6.0-1.12","FAHU","3","m","rechts","23","","","self","f","150","true"
"null","<div style=""font-size:60px;"">+</div>","null","html-keyboard-response","32","360322","0.0-6.0-0.13","FAHU","3","m","rechts","23","","fixation","","","",""
"783","img/30_120.png","74","image-keyboard-response","33","361107","0.0-6.0-1.13","FAHU","3","m","rechts","23","","","self","j","30","true"
"null","<div style=""font-size:60px;"">+</div>","null","html-keyboard-response","34","361558","0.0-6.0-0.14","FAHU","3","m","rechts","23","","fixation","","","",""
"1488","img/150_240.png","74","image-keyboard-response","35","363048","0.0-6.0-1.14","FAHU","3","m","rechts","23","","","self","j","150","true"
"null","<div style=""font-size:60px;"">+</div>","null","html-keyboard-response","36","363453","0.0-6.0-0.15","FAHU","3","m","rechts","23","","fixation","","","",""
"1593","img/120_330.png","70","image-keyboard-response","37","365046","0.0-6.0-1.15","FAHU","3","m","rechts","23","","","self","f","120","true"
"null","<div style=""font-size:60px;"">+</div>","null","html-keyboard-response","38","365551","0.0-6.0-0.16","FAHU","3","m","rechts","23","","fixation","","","",""
"715","img/0_30.png","74","image-keyboard-response","39","366266","0.0-6.0-1.16","FAHU","3","m","rechts","23","","","self","j","0","true"
"null","<div style=""font-size:60px;"">+</div>","null","html-keyboard-response","40","366570","0.0-6.0-0.17","FAHU","3","m","rechts","23","","fixation","","","",""
"716","img/60_330.png","70","image-keyboard-response","41","367287","0.0-6.0-1.17","FAHU","3","m","rechts","23","","","self","f","60","true"
"null","<div style=""font-size:60px;"">+</div>","null","html-keyboard-response","42","367589","0.0-6.0-0.18","FAHU","3","m","rechts","23","","fixation","","","",""
"707","img/30_240.png","70","image-keyboard-response","43","368296","0.0-6.0-1.18","FAHU","3","m","rechts","23","","","self","f","30","true"
"null","<div style=""font-size:60px;"">+</div>","null","html-keyboard-response","44","368797","0.0-6.0-0.19","FAHU","3","m","rechts","23","","fixation","","","",""
"839","img/120_270.png","74","image-keyboard-response","45","369638","0.0-6.0-1.19","FAHU","3","m","rechts","23","","","self","j","120","true"
"null","<div style=""font-size:60px;"">+</div>","null","html-keyboard-response","46","370142","0.0-6.0-0.20","FAHU","3","m","rechts","23","","fixation","","","",""
"632","img/0_90.png","74","image-keyboard-response","47","370776","0.0-6.0-1.20","FAHU","3","m","rechts","23","","","self","j","0","true"
"null","<div style=""font-size:60px;"">+</div>","null","html-keyboard-response","48","371078","0.0-6.0-0.21","FAHU","3","m","rechts","23","","fixation","","","",""
"705","img/90_330.png","70","image-keyboard-response","49","371783","0.0-6.0-1.21","FAHU","3","m","rechts","23","","","self","f","90","true"
"null","<div style=""font-size:60px;"">+</div>","null","html-keyboard-response","50","372140","0.0-6.0-0.22","FAHU","3","m","rechts","23","","fixation","","","",""
"693","img/L90_180.png","70","image-keyboard-response","51","372834","0.0-6.0-1.22","FAHU","3","m","rechts","23","","","self","f","90","true"
"null","<div style=""font-size:60px;"">+</div>","null","html-keyboard-response","52","373336","0.0-6.0-0.23","FAHU","3","m","rechts","23","","fixation","","","",""
"849","img/30_180.png","74","image-keyboard-response","53","374186","0.0-6.0-1.23","FAHU","3","m","rechts","23","","","self","j","30","true"
"null","<div style=""font-size:60px;"">+</div>","null","html-keyboard-response","54","374641","0.0-6.0-0.24","FAHU","3","m","rechts","23","","fixation","","","",""
"746","img/60_30.png","74","image-keyboard-response","55","375388","0.0-6.0-1.24","FAHU","3","m","rechts","23","","","self","j","60","true"
"null","<div style=""font-size:60px;"">+</div>","null","html-keyboard-response","56","375792","0.0-6.0-0.25","FAHU","3","m","rechts","23","","fixation","","","",""
"1896","img/150_270.png","74","image-keyboard-response","57","377688","0.0-6.0-1.25","FAHU","3","m","rechts","23","","","self","j","150","true"
"null","<div style=""font-size:60px;"">+</div>","null","html-keyboard-response","58","378043","0.0-6.0-0.26","FAHU","3","m","rechts","23","","fixation","","","",""
"1336","img/120_90.png","70","image-keyboard-response","59","379379","0.0-6.0-1.26","FAHU","3","m","rechts","23","","","self","f","120","true"
"null","<div style=""font-size:60px;"">+</div>","null","html-keyboard-response","60","379785","0.0-6.0-0.27","FAHU","3","m","rechts","23","","fixation","","","",""
"1262","img/60_210.png","74","image-keyboard-response","61","381047","0.0-6.0-1.27","FAHU","3","m","rechts","23","","","self","j","60","true"
"null","<div style=""font-size:60px;"">+</div>","null","html-keyboard-response","62","381501","0.0-6.0-0.28","FAHU","3","m","rechts","23","","fixation","","","",""
"786","img/90_180.png","74","image-keyboard-response","63","382288","0.0-6.0-1.28","FAHU","3","m","rechts","23","","","self","j","90","true"
"null","<div style=""font-size:60px;"">+</div>","null","html-keyboard-response","64","382594","0.0-6.0-0.29","FAHU","3","m","rechts","23","","fixation","","","",""
"628","img/30_270.png","70","image-keyboard-response","65","383222","0.0-6.0-1.29","FAHU","3","m","rechts","23","","","self","f","30","true"
"null","<div style=""font-size:60px;"">+</div>","null","html-keyboard-response","66","383626","0.0-6.0-0.30","FAHU","3","m","rechts","23","","fixation","","","",""
"801","img/150_180.png","74","image-keyboard-response","67","384427","0.0-6.0-1.30","FAHU","3","m","rechts","23","","","self","j","150","true"
"null","<div style=""font-size:60px;"">+</div>","null","html-keyboard-response","68","384829","0.0-6.0-0.31","FAHU","3","m","rechts","23","","fixation","","","",""
"730","img/30_60.png","74","image-keyboard-response","69","385563","0.0-6.0-1.31","FAHU","3","m","rechts","23","","","self","j","30","true"
"null","<div style=""font-size:60px;"">+</div>","null","html-keyboard-response","70","385967","0.0-6.0-0.32","FAHU","3","m","rechts","23","","fixation","","","",""
"1071","img/90_300.png","70","image-keyboard-response","71","387039","0.0-6.0-1.32","FAHU","3","m","rechts","23","","","self","f","90","true"
"null","<div style=""font-size:60px;"">+</div>","null","html-keyboard-response","72","387342","0.0-6.0-0.33","FAHU","3","m","rechts","23","","fixation","","","",""
"963","img/90_210.png","74","image-keyboard-response","73","388306","0.0-6.0-1.33","FAHU","3","m","rechts","23","","","self","j","90","true"
"null","<div style=""font-size:60px;"">+</div>","null","html-keyboard-response","74","388811","0.0-6.0-0.34","FAHU","3","m","rechts","23","","fixation","","","",""
"1721","img/150_300.png","74","image-keyboard-response","75","390532","0.0-6.0-1.34","FAHU","3","m","rechts","23","","","self","j","150","true"
"null","<div style=""font-size:60px;"">+</div>","null","html-keyboard-response","76","390837","0.0-6.0-0.35","FAHU","3","m","rechts","23","","fixation","","","",""
"1237","img/150_120.png","70","image-keyboard-response","77","392075","0.0-6.0-1.35","FAHU","3","m","rechts","23","","","self","f","150","true"
"null","<div style=""font-size:60px;"">+</div>","null","html-keyboard-response","78","392578","0.0-6.0-0.36","FAHU","3","m","rechts","23","","fixation","","","",""
"634","img/120_30.png","74","image-keyboard-response","79","393212","0.0-6.0-1.36","FAHU","3","m","rechts","23","","","self","j","120","true"
"null","<div style=""font-size:60px;"">+</div>","null","html-keyboard-response","80","393565","0.0-6.0-0.37","FAHU","3","m","rechts","23","","fixation","","","",""
"641","img/60_270.png","70","image-keyboard-response","81","394206","0.0-6.0-1.37","FAHU","3","m","rechts","23","","","self","f","60","true"
"null","<div style=""font-size:60px;"">+</div>","null","html-keyboard-response","82","394708","0.0-6.0-0.38","FAHU","3","m","rechts","23","","fixation","","","",""
"577","img/120_180.png","74","image-keyboard-response","83","395286","0.0-6.0-1.38","FAHU","3","m","rechts","23","","","self","j","120","true"
"null","<div style=""font-size:60px;"">+</div>","null","html-keyboard-response","84","395740","0.0-6.0-0.39","FAHU","3","m","rechts","23","","fixation","","","",""
"869","img/L120_180.png","70","image-keyboard-response","85","396610","0.0-6.0-1.39","FAHU","3","m","rechts","23","","","self","f","120","true"
"null","<div style=""font-size:60px;"">+</div>","null","html-keyboard-response","86","396915","0.0-6.0-0.40","FAHU","3","m","rechts","23","","fixation","","","",""
"637","img/90_150.png","70","image-keyboard-response","87","397552","0.0-6.0-1.40","FAHU","3","m","rechts","23","","","self","f","90","true"
"null","<div style=""font-size:60px;"">+</div>","null","html-keyboard-response","88","398005","0.0-6.0-0.41","FAHU","3","m","rechts","23","","fixation","","","",""
"518","img/0_270.png","70","image-keyboard-response","89","398524","0.0-6.0-1.41","FAHU","3","m","rechts","23","","","self","f","0","true"
"null","<div style=""font-size:60px;"">+</div>","null","html-keyboard-response","90","398928","0.0-6.0-0.42","FAHU","3","m","rechts","23","","fixation","","","",""
"528","img/0_210.png","70","image-keyboard-response","91","399457","0.0-6.0-1.42","FAHU","3","m","rechts","23","","","self","f","0","true"
"null","<div style=""font-size:60px;"">+</div>","null","html-keyboard-response","92","399909","0.0-6.0-0.43","FAHU","3","m","rechts","23","","fixation","","","",""
"510","img/0_120.png","74","image-keyboard-response","93","400419","0.0-6.0-1.43","FAHU","3","m","rechts","23","","","self","j","0","true"
"null","<div style=""font-size:60px;"">+</div>","null","html-keyboard-response","94","400922","0.0-6.0-0.44","FAHU","3","m","rechts","23","","fixation","","","",""
"433","img/0_300.png","70","image-keyboard-response","95","401355","0.0-6.0-1.44","FAHU","3","m","rechts","23","","","self","f","0","true"
"null","<div style=""font-size:60px;"">+</div>","null","html-keyboard-response","96","401708","0.0-6.0-0.45","FAHU","3","m","rechts","23","","fixation","","","",""
"495","img/0_240.png","70","image-keyboard-response","97","402204","0.0-6.0-1.45","FAHU","3","m","rechts","23","","","self","f","0","true"
"null","<div style=""font-size:60px;"">+</div>","null","html-keyboard-response","98","402560","0.0-6.0-0.46","FAHU","3","m","rechts","23","","fixation","","","",""
"495","img/30_90.png","74","image-keyboard-response","99","403055","0.0-6.0-1.46","FAHU","3","m","rechts","23","","","self","j","30","true"
"null","<div style=""font-size:60px;"">+</div>","null","html-keyboard-response","100","403410","0.0-6.0-0.47","FAHU","3","m","rechts","23","","fixation","","","",""
"548","img/150_90.png","70","image-keyboard-response","101","403958","0.0-6.0-1.47","FAHU","3","m","rechts","23","","","self","f","150","true"
"null","<div style=""font-size:60px;"">+</div>","null","html-keyboard-response","102","404411","0.0-6.0-0.48","FAHU","3","m","rechts","23","","fixation","","","",""
"518","img/0_330.png","74","image-keyboard-response","103","404931","0.0-6.0-1.48","FAHU","3","m","rechts","23","","","self","f","0","false"
"null","<div style=""font-size:60px;"">+</div>","null","html-keyboard-response","104","405236","0.0-6.0-0.49","FAHU","3","m","rechts","23","","fixation","","","",""
"652","img/90_240.png","74","image-keyboard-response","105","405889","0.0-6.0-1.49","FAHU","3","m","rechts","23","","","self","j","90","true"
"null","<div style=""font-size:60px;"">+</div>","null","html-keyboard-response","106","406239","0.0-6.0-0.50","FAHU","3","m","rechts","23","","fixation","","","",""
"542","img/90_60.png","74","image-keyboard-response","107","406783","0.0-6.0-1.50","FAHU","3","m","rechts","23","","","self","j","90","true"
"null","<div style=""font-size:60px;"">+</div>","null","html-keyboard-response","108","407238","0.0-6.0-0.51","FAHU","3","m","rechts","23","","fixation","","","",""
"576","img/0_60.png","74","image-keyboard-response","109","407815","0.0-6.0-1.51","FAHU","3","m","rechts","23","","","self","j","0","true"
"null","<div style=""font-size:60px;"">+</div>","null","html-keyboard-response","110","408271","0.0-6.0-0.52","FAHU","3","m","rechts","23","","fixation","","","",""
"664","img/90_300.png","70","image-keyboard-response","111","408935","0.0-6.0-1.52","FAHU","3","m","rechts","23","","","self","f","90","true"
"null","<div style=""font-size:60px;"">+</div>","null","html-keyboard-response","112","409285","0.0-6.0-0.53","FAHU","3","m","rechts","23","","fixation","","","",""
"840","img/150_60.png","70","image-keyboard-response","113","410126","0.0-6.0-1.53","FAHU","3","m","rechts","23","","","self","f","150","true"
"null","<div style=""font-size:60px;"">+</div>","null","html-keyboard-response","114","410530","0.0-6.0-0.54","FAHU","3","m","rechts","23","","fixation","","","",""
"660","img/120_180.png","74","image-keyboard-response","115","411191","0.0-6.0-1.54","FAHU","3","m","rechts","23","","","self","j","120","true"
"null","<div style=""font-size:60px;"">+</div>","null","html-keyboard-response","116","411545","0.0-6.0-0.55","FAHU","3","m","rechts","23","","fixation","","","",""
"588","img/120_210.png","74","image-keyboard-response","117","412134","0.0-6.0-1.55","FAHU","3","m","rechts","23","","","self","j","120","true"
"null","<div style=""font-size:60px;"">+</div>","null","html-keyboard-response","118","412638","0.0-6.0-0.56","FAHU","3","m","rechts","23","","fixation","","","",""
"1235","img/120_90.png","70","image-keyboard-response","119","413874","0.0-6.0-1.56","FAHU","3","m","rechts","23","","","self","f","120","true"
"null","<div style=""font-size:60px;"">+</div>","null","html-keyboard-response","120","414229","0.0-6.0-0.57","FAHU","3","m","rechts","23","","fixation","","","",""
"689","img/150_120.png","70","image-keyboard-response","121","414918","0.0-6.0-1.57","FAHU","3","m","rechts","23","","","self","f","150","true"
"null","<div style=""font-size:60px;"">+</div>","null","html-keyboard-response","122","415323","0.0-6.0-0.58","FAHU","3","m","rechts","23","","fixation","","","",""
"634","img/L90_180.png","70","image-keyboard-response","123","415958","0.0-6.0-1.58","FAHU","3","m","rechts","23","","","self","f","90","true"
"null","<div style=""font-size:60px;"">+</div>","null","html-keyboard-response","124","416313","0.0-6.0-0.59","FAHU","3","m","rechts","23","","fixation","","","",""
"583","img/0_30.png","74","image-keyboard-response","125","416897","0.0-6.0-1.59","FAHU","3","m","rechts","23","","","self","j","0","true"
"null","<div style=""font-size:60px;"">+</div>","null","html-keyboard-response","126","417200","0.0-6.0-0.60","FAHU","3","m","rechts","23","","fixation","","","",""
"523","img/150_90.png","70","image-keyboard-response","127","417724","0.0-6.0-1.60","FAHU","3","m","rechts","23","","","self","f","150","true"
"null","<div style=""font-size:60px;"">+</div>","null","html-keyboard-response","128","418180","0.0-6.0-0.61","FAHU","3","m","rechts","23","","fixation","","","",""
"562","img/0_210.png","70","image-keyboard-response","129","418744","0.0-6.0-1.61","FAHU","3","m","rechts","23","","","self","f","0","true"
"null","<div style=""font-size:60px;"">+</div>","null","html-keyboard-response","130","419196","0.0-6.0-0.62","FAHU","3","m","rechts","23","","fixation","","","",""
"518","img/60_180.png","74","image-keyboard-response","131","419714","0.0-6.0-1.62","FAHU","3","m","rechts","23","","","self","j","60","true"
"null","<div style=""font-size:60px;"">+</div>","null","html-keyboard-response","132","420068","0.0-6.0-0.63","FAHU","3","m","rechts","23","","fixation","","","",""
"717","img/60_210.png","74","image-keyboard-response","133","420786","0.0-6.0-1.63","FAHU","3","m","rechts","23","","","self","j","60","true"
"null","<div style=""font-size:60px;"">+</div>","null","html-keyboard-response","134","421188","0.0-6.0-0.64","FAHU","3","m","rechts","23","","fixation","","","",""
"570","img/L120_180.png","70","image-keyboard-response","135","421758","0.0-6.0-1.64","FAHU","3","m","rechts","23","","","self","f","120","true"
"null","<div style=""font-size:60px;"">+</div>","null","html-keyboard-response","136","422213","0.0-6.0-0.65","FAHU","3","m","rechts","23","","fixation","","","",""
"534","img/0_300.png","70","image-keyboard-response","137","422748","0.0-6.0-1.65","FAHU","3","m","rechts","23","","","self","f","0","true"
"null","<div style=""font-size:60px;"">+</div>","null","html-keyboard-response","138","423253","0.0-6.0-0.66","FAHU","3","m","rechts","23","","fixation","","","",""
"688","img/150_240.png","74","image-keyboard-response","139","423941","0.0-6.0-1.66","FAHU","3","m","rechts","23","","","self","j","150","true"
"null","<div style=""font-size:60px;"">+</div>","null","html-keyboard-response","140","424444","0.0-6.0-0.67","FAHU","3","m","rechts","23","","fixation","","","",""
"853","img/120_30.png","74","image-keyboard-response","141","425298","0.0-6.0-1.67","FAHU","3","m","rechts","23","","","self","j","120","true"
"null","<div style=""font-size:60px;"">+</div>","null","html-keyboard-response","142","425651","0.0-6.0-0.68","FAHU","3","m","rechts","23","","fixation","","","",""
"735","img/30_180.png","74","image-keyboard-response","143","426387","0.0-6.0-1.68","FAHU","3","m","rechts","23","","","self","j","30","true"
"null","<div style=""font-size:60px;"">+</div>","null","html-keyboard-response","144","426691","0.0-6.0-0.69","FAHU","3","m","rechts","23","","fixation","","","",""
"1329","img/60_90.png","74","image-keyboard-response","145","428020","0.0-6.0-1.69","FAHU","3","m","rechts","23","","","self","j","60","true"
"null","<div style=""font-size:60px;"">+</div>","null","html-keyboard-response","146","428326","0.0-6.0-0.70","FAHU","3","m","rechts","23","","fixation","","","",""
"580","img/0_90.png","74","image-keyboard-response","147","428906","0.0-6.0-1.70","FAHU","3","m","rechts","23","","","self","j","0","true"
"null","<div style=""font-size:60px;"">+</div>","null","html-keyboard-response","148","429210","0.0-6.0-0.71","FAHU","3","m","rechts","23","","fixation","","","",""
"569","img/0_330.png","70","image-keyboard-response","149","429781","0.0-6.0-1.71","FAHU","3","m","rechts","23","","","self","f","0","true"
"null","<div style=""font-size:60px;"">+</div>","null","html-keyboard-response","150","430086","0.0-6.0-0.72","FAHU","3","m","rechts","23","","fixation","","","",""
"658","img/60_330.png","70","image-keyboard-response","151","430744","0.0-6.0-1.72","FAHU","3","m","rechts","23","","","self","f","60","true"
"null","<div style=""font-size:60px;"">+</div>","null","html-keyboard-response","152","431198","0.0-6.0-0.73","FAHU","3","m","rechts","23","","fixation","","","",""
"656","img/90_180.png","74","image-keyboard-response","153","431854","0.0-6.0-1.73","FAHU","3","m","rechts","23","","","self","j","90","true"
"null","<div style=""font-size:60px;"">+</div>","null","html-keyboard-response","154","432359","0.0-6.0-0.74","FAHU","3","m","rechts","23","","fixation","","","",""
"568","img/60_270.png","70","image-keyboard-response","155","432927","0.0-6.0-1.74","FAHU","3","m","rechts","23","","","self","f","60","true"
"null","<div style=""font-size:60px;"">+</div>","null","html-keyboard-response","156","433331","0.0-6.0-0.75","FAHU","3","m","rechts","23","","fixation","","","",""
"568","img/0_120.png","74","image-keyboard-response","157","433900","0.0-6.0-1.75","FAHU","3","m","rechts","23","","","self","j","0","true"
"null","<div style=""font-size:60px;"">+</div>","null","html-keyboard-response","158","434304","0.0-6.0-0.76","FAHU","3","m","rechts","23","","fixation","","","",""
"494","img/L30_180.png","70","image-keyboard-response","159","434799","0.0-6.0-1.76","FAHU","3","m","rechts","23","","","self","f","30","true"
"null","<div style=""font-size:60px;"">+</div>","null","html-keyboard-response","160","435101","0.0-6.0-0.77","FAHU","3","m","rechts","23","","fixation","","","",""
"751","img/150_300.png","74","image-keyboard-response","161","435854","0.0-6.0-1.77","FAHU","3","m","rechts","23","","","self","j","150","true"
"null","<div style=""font-size:60px;"">+</div>","null","html-keyboard-response","162","436309","0.0-6.0-0.78","FAHU","3","m","rechts","23","","fixation","","","",""
"620","img/0_240.png","70","image-keyboard-response","163","436929","0.0-6.0-1.78","FAHU","3","m","rechts","23","","","self","f","0","true"
"null","<div style=""font-size:60px;"">+</div>","null","html-keyboard-response","164","437283","0.0-6.0-0.79","FAHU","3","m","rechts","23","","fixation","","","",""
"606","img/30_240.png","70","image-keyboard-response","165","437890","0.0-6.0-1.79","FAHU","3","m","rechts","23","","","self","f","30","true"
"null","<div style=""font-size:60px;"">+</div>","null","html-keyboard-response","166","438241","0.0-6.0-0.80","FAHU","3","m","rechts","23","","fixation","","","",""
"696","img/90_210.png","74","image-keyboard-response","167","438938","0.0-6.0-1.80","FAHU","3","m","rechts","23","","","self","j","90","true"
"null","<div style=""font-size:60px;"">+</div>","null","html-keyboard-response","168","439343","0.0-6.0-0.81","FAHU","3","m","rechts","23","","fixation","","","",""
"555","img/30_270.png","70","image-keyboard-response","169","439899","0.0-6.0-1.81","FAHU","3","m","rechts","23","","","self","f","30","true"
"null","<div style=""font-size:60px;"">+</div>","null","html-keyboard-response","170","440350","0.0-6.0-0.82","FAHU","3","m","rechts","23","","fixation","","","",""
"698","img/30_120.png","74","image-keyboard-response","171","441048","0.0-6.0-1.82","FAHU","3","m","rechts","23","","","self","j","30","true"
"null","<div style=""font-size:60px;"">+</div>","null","html-keyboard-response","172","441553","0.0-6.0-0.83","FAHU","3","m","rechts","23","","fixation","","","",""
"565","img/0_150.png","74","image-keyboard-response","173","442120","0.0-6.0-1.83","FAHU","3","m","rechts","23","","","self","j","0","true"
"null","<div style=""font-size:60px;"">+</div>","null","html-keyboard-response","174","442424","0.0-6.0-0.84","FAHU","3","m","rechts","23","","fixation","","","",""
"514","img/30_60.png","74","image-keyboard-response","175","442939","0.0-6.0-1.84","FAHU","3","m","rechts","23","","","self","j","30","true"
"null","<div style=""font-size:60px;"">+</div>","null","html-keyboard-response","176","443244","0.0-6.0-0.85","FAHU","3","m","rechts","23","","fixation","","","",""
"643","img/90_60.png","74","image-keyboard-response","177","443887","0.0-6.0-1.85","FAHU","3","m","rechts","23","","","self","j","90","true"
"null","<div style=""font-size:60px;"">+</div>","null","html-keyboard-response","178","444289","0.0-6.0-0.86","FAHU","3","m","rechts","23","","fixation","","","",""
"546","img/90_30.png","74","image-keyboard-response","179","444835","0.0-6.0-1.86","FAHU","3","m","rechts","23","","","self","j","90","true"
"null","<div style=""font-size:60px;"">+</div>","null","html-keyboard-response","180","445287","0.0-6.0-0.87","FAHU","3","m","rechts","23","","fixation","","","",""
"680","img/0_270.png","70","image-keyboard-response","181","445967","0.0-6.0-1.87","FAHU","3","m","rechts","23","","","self","f","0","true"
"null","<div style=""font-size:60px;"">+</div>","null","html-keyboard-response","182","446420","0.0-6.0-0.88","FAHU","3","m","rechts","23","","fixation","","","",""
"770","img/30_90.png","74","image-keyboard-response","183","447191","0.0-6.0-1.88","FAHU","3","m","rechts","23","","","self","j","30","true"
"null","<div style=""font-size:60px;"">+</div>","null","html-keyboard-response","184","447497","0.0-6.0-0.89","FAHU","3","m","rechts","23","","fixation","","","",""
"481","img/L60_180.png","70","image-keyboard-response","185","447978","0.0-6.0-1.89","FAHU","3","m","rechts","23","","","self","f","60","true"
"null","<div style=""font-size:60px;"">+</div>","null","html-keyboard-response","186","448480","0.0-6.0-0.90","FAHU","3","m","rechts","23","","fixation","","","",""
"805","img/L150_180.png","70","image-keyboard-response","187","449287","0.0-6.0-1.90","FAHU","3","m","rechts","23","","","self","f","150","true"
"null","<div style=""font-size:60px;"">+</div>","null","html-keyboard-response","188","449588","0.0-6.0-0.91","FAHU","3","m","rechts","23","","fixation","","","",""
"1333","img/120_270.png","74","image-keyboard-response","189","450922","0.0-6.0-1.91","FAHU","3","m","rechts","23","","","self","j","120","true"
"null","<div style=""font-size:60px;"">+</div>","null","html-keyboard-response","190","451277","0.0-6.0-0.92","FAHU","3","m","rechts","23","","fixation","","","",""
"654","img/30_300.png","70","image-keyboard-response","191","451933","0.0-6.0-1.92","FAHU","3","m","rechts","23","","","self","f","30","true"
"null","<div style=""font-size:60px;"">+</div>","null","html-keyboard-response","192","452234","0.0-6.0-0.93","FAHU","3","m","rechts","23","","fixation","","","",""
"503","img/0_60.png","74","image-keyboard-response","193","452738","0.0-6.0-1.93","FAHU","3","m","rechts","23","","","self","j","0","true"
"null","<div style=""font-size:60px;"">+</div>","null","html-keyboard-response","194","453239","0.0-6.0-0.94","FAHU","3","m","rechts","23","","fixation","","","",""
"669","img/60_150.png","70","image-keyboard-response","195","453909","0.0-6.0-1.94","FAHU","3","m","rechts","23","","","self","f","60","true"
"null","<div style=""font-size:60px;"">+</div>","null","html-keyboard-response","196","454413","0.0-6.0-0.95","FAHU","3","m","rechts","23","","fixation","","","",""
"835","img/90_120.png","70","image-keyboard-response","197","455248","0.0-6.0-1.95","FAHU","3","m","rechts","23","","","self","f","90","true"
"null","<div style=""font-size:60px;"">+</div>","null","html-keyboard-response","198","455603","0.0-6.0-0.96","FAHU","3","m","rechts","23","","fixation","","","",""
"1381","img/150_270.png","74","image-keyboard-response","199","456984","0.0-6.0-1.96","FAHU","3","m","rechts","23","","","self","j","150","true"
"null","<div style=""font-size:60px;"">+</div>","null","html-keyboard-response","200","457389","0.0-6.0-0.97","FAHU","3","m","rechts","23","","fixation","","","",""
"677","img/120_150.png","70","image-keyboard-response","201","458066","0.0-6.0-1.97","FAHU","3","m","rechts","23","","","self","f","120","true"
"null","<div style=""font-size:60px;"">+</div>","null","html-keyboard-response","202","458470","0.0-6.0-0.98","FAHU","3","m","rechts","23","","fixation","","","",""
"801","img/150_180.png","74","image-keyboard-response","203","459271","0.0-6.0-1.98","FAHU","3","m","rechts","23","","","self","j","150","true"
"null","<div style=""font-size:60px;"">+</div>","null","html-keyboard-response","204","459675","0.0-6.0-0.99","FAHU","3","m","rechts","23","","fixation","","","",""
"696","img/90_150.png","70","image-keyboard-response","205","460372","0.0-6.0-1.99","FAHU","3","m","rechts","23","","","self","f","90","true"
"null","<div style=""font-size:60px;"">+</div>","null","html-keyboard-response","206","460675","0.0-6.0-0.100","FAHU","3","m","rechts","23","","fixation","","","",""
"772","img/90_330.png","70","image-keyboard-response","207","461447","0.0-6.0-1.100","FAHU","3","m","rechts","23","","","self","f","90","true"
"null","<div style=""font-size:60px;"">+</div>","null","html-keyboard-response","208","461851","0.0-6.0-0.101","FAHU","3","m","rechts","23","","fixation","","","",""
"632","img/60_30.png","74","image-keyboard-response","209","462484","0.0-6.0-1.101","FAHU","3","m","rechts","23","","","self","j","60","true"
"null","<div style=""font-size:60px;"">+</div>","null","html-keyboard-response","210","462788","0.0-6.0-0.102","FAHU","3","m","rechts","23","","fixation","","","",""
"1288","img/90_240.png","74","image-keyboard-response","211","464077","0.0-6.0-1.102","FAHU","3","m","rechts","23","","","self","j","90","true"
"null","<div style=""font-size:60px;"">+</div>","null","html-keyboard-response","212","464431","0.0-6.0-0.103","FAHU","3","m","rechts","23","","fixation","","","",""
"932","img/120_330.png","70","image-keyboard-response","213","465364","0.0-6.0-1.103","FAHU","3","m","rechts","23","","","self","f","120","true"
"null","<div style=""font-size:60px;"">+</div>","null","html-keyboard-response","214","465871","0.0-6.0-0.104","FAHU","3","m","rechts","23","","fixation","","","",""
"641","img/30_60.png","74","image-keyboard-response","215","466512","0.0-6.0-1.104","FAHU","3","m","rechts","23","","","self","j","30","true"
"null","<div style=""font-size:60px;"">+</div>","null","html-keyboard-response","216","466868","0.0-6.0-0.105","FAHU","3","m","rechts","23","","fixation","","","",""
"660","img/90_150.png","70","image-keyboard-response","217","467528","0.0-6.0-1.105","FAHU","3","m","rechts","23","","","self","f","90","true"
"null","<div style=""font-size:60px;"">+</div>","null","html-keyboard-response","218","467983","0.0-6.0-0.106","FAHU","3","m","rechts","23","","fixation","","","",""
"767","img/L60_180.png","70","image-keyboard-response","219","468750","0.0-6.0-1.106","FAHU","3","m","rechts","23","","","self","f","60","true"
"null","<div style=""font-size:60px;"">+</div>","null","html-keyboard-response","220","469055","0.0-6.0-0.107","FAHU","3","m","rechts","23","","fixation","","","",""
"975","img/120_30.png","74","image-keyboard-response","221","470030","0.0-6.0-1.107","FAHU","3","m","rechts","23","","","self","j","120","true"
"null","<div style=""font-size:60px;"">+</div>","null","html-keyboard-response","222","470433","0.0-6.0-0.108","FAHU","3","m","rechts","23","","fixation","","","",""
"763","img/60_180.png","74","image-keyboard-response","223","471197","0.0-6.0-1.108","FAHU","3","m","rechts","23","","","self","j","60","true"
"null","<div style=""font-size:60px;"">+</div>","null","html-keyboard-response","224","471549","0.0-6.0-0.109","FAHU","3","m","rechts","23","","fixation","","","",""
"590","img/0_300.png","70","image-keyboard-response","225","472140","0.0-6.0-1.109","FAHU","3","m","rechts","23","","","self","f","0","true"
"null","<div style=""font-size:60px;"">+</div>","null","html-keyboard-response","226","472493","0.0-6.0-0.110","FAHU","3","m","rechts","23","","fixation","","","",""
"632","img/150_90.png","70","image-keyboard-response","227","473125","0.0-6.0-1.110","FAHU","3","m","rechts","23","","","self","f","150","true"
"null","<div style=""font-size:60px;"">+</div>","null","html-keyboard-response","228","473531","0.0-6.0-0.111","FAHU","3","m","rechts","23","","fixation","","","",""
"1628","img/90_60.png","74","image-keyboard-response","229","475160","0.0-6.0-1.111","FAHU","3","m","rechts","23","","","self","j","90","true"
"null","<div style=""font-size:60px;"">+</div>","null","html-keyboard-response","230","475465","0.0-6.0-0.112","FAHU","3","m","rechts","23","","fixation","","","",""
"1252","img/120_210.png","74","image-keyboard-response","231","476717","0.0-6.0-1.112","FAHU","3","m","rechts","23","","","self","j","120","true"
"null","<div style=""font-size:60px;"">+</div>","null","html-keyboard-response","232","477171","0.0-6.0-0.113","FAHU","3","m","rechts","23","","fixation","","","",""
"601","img/30_240.png","70","image-keyboard-response","233","477773","0.0-6.0-1.113","FAHU","3","m","rechts","23","","","self","f","30","true"
"null","<div style=""font-size:60px;"">+</div>","null","html-keyboard-response","234","478077","0.0-6.0-0.114","FAHU","3","m","rechts","23","","fixation","","","",""
"807","img/L150_180.png","70","image-keyboard-response","235","478885","0.0-6.0-1.114","FAHU","3","m","rechts","23","","","self","f","150","true"
"null","<div style=""font-size:60px;"">+</div>","null","html-keyboard-response","236","479389","0.0-6.0-0.115","FAHU","3","m","rechts","23","","fixation","","","",""
"980","img/120_270.png","74","image-keyboard-response","237","480370","0.0-6.0-1.115","FAHU","3","m","rechts","23","","","self","j","120","true"
"null","<div style=""font-size:60px;"">+</div>","null","html-keyboard-response","238","480827","0.0-6.0-0.116","FAHU","3","m","rechts","23","","fixation","","","",""
"812","img/90_300.png","70","image-keyboard-response","239","481639","0.0-6.0-1.116","FAHU","3","m","rechts","23","","","self","f","90","true"
"null","<div style=""font-size:60px;"">+</div>","null","html-keyboard-response","240","481993","0.0-6.0-0.117","FAHU","3","m","rechts","23","","fixation","","","",""
"897","img/90_240.png","74","image-keyboard-response","241","482891","0.0-6.0-1.117","FAHU","3","m","rechts","23","","","self","j","90","true"
"null","<div style=""font-size:60px;"">+</div>","null","html-keyboard-response","242","483250","0.0-6.0-0.118","FAHU","3","m","rechts","23","","fixation","","","",""
"2130","img/150_270.png","74","image-keyboard-response","243","485381","0.0-6.0-1.118","FAHU","3","m","rechts","23","","","self","j","150","true"
"null","<div style=""font-size:60px;"">+</div>","null","html-keyboard-response","244","485685","0.0-6.0-0.119","FAHU","3","m","rechts","23","","fixation","","","",""
"836","img/60_90.png","74","image-keyboard-response","245","486521","0.0-6.0-1.119","FAHU","3","m","rechts","23","","","self","j","60","true"
"null","<div style=""font-size:60px;"">+</div>","null","html-keyboard-response","246","486923","0.0-6.0-0.120","FAHU","3","m","rechts","23","","fixation","","","",""
"705","img/30_90.png","74","image-keyboard-response","247","487628","0.0-6.0-1.120","FAHU","3","m","rechts","23","","","self","j","30","true"
"null","<div style=""font-size:60px;"">+</div>","null","html-keyboard-response","248","487928","0.0-6.0-0.121","FAHU","3","m","rechts","23","","fixation","","","",""
"1344","img/120_150.png","70","image-keyboard-response","249","489274","0.0-6.0-1.121","FAHU","3","m","rechts","23","","","self","f","120","true"
"null","<div style=""font-size:60px;"">+</div>","null","html-keyboard-response","250","489779","0.0-6.0-0.122","FAHU","3","m","rechts","23","","fixation","","","",""
"670","img/0_240.png","70","image-keyboard-response","251","490449","0.0-6.0-1.122","FAHU","3","m","rechts","23","","","self","f","0","true"
"null","<div style=""font-size:60px;"">+</div>","null","html-keyboard-response","252","490951","0.0-6.0-0.123","FAHU","3","m","rechts","23","","fixation","","","",""
"694","img/90_30.png","74","image-keyboard-response","253","491646","0.0-6.0-1.123","FAHU","3","m","rechts","23","","","self","j","90","true"
"null","<div style=""font-size:60px;"">+</div>","null","html-keyboard-response","254","492099","0.0-6.0-0.124","FAHU","3","m","rechts","23","","fixation","","","",""
"797","img/120_90.png","70","image-keyboard-response","255","492896","0.0-6.0-1.124","FAHU","3","m","rechts","23","","","self","f","120","true"
"null","<div style=""font-size:60px;"">+</div>","null","html-keyboard-response","256","493401","0.0-6.0-0.125","FAHU","3","m","rechts","23","","fixation","","","",""
"565","img/0_90.png","74","image-keyboard-response","257","493968","0.0-6.0-1.125","FAHU","3","m","rechts","23","","","self","j","0","true"
"null","<div style=""font-size:60px;"">+</div>","null","html-keyboard-response","258","494473","0.0-6.0-0.126","FAHU","3","m","rechts","23","","fixation","","","",""
"522","img/60_30.png","74","image-keyboard-response","259","494997","0.0-6.0-1.126","FAHU","3","m","rechts","23","","","self","j","60","true"
"null","<div style=""font-size:60px;"">+</div>","null","html-keyboard-response","260","495402","0.0-6.0-0.127","FAHU","3","m","rechts","23","","fixation","","","",""
"527","img/0_30.png","74","image-keyboard-response","261","495930","0.0-6.0-1.127","FAHU","3","m","rechts","23","","","self","j","0","true"
"null","<div style=""font-size:60px;"">+</div>","null","html-keyboard-response","262","496382","0.0-6.0-0.128","FAHU","3","m","rechts","23","","fixation","","","",""
"543","img/60_270.png","70","image-keyboard-response","263","496926","0.0-6.0-1.128","FAHU","3","m","rechts","23","","","self","f","60","true"
"null","<div style=""font-size:60px;"">+</div>","null","html-keyboard-response","264","497428","0.0-6.0-0.129","FAHU","3","m","rechts","23","","fixation","","","",""
"939","img/L120_180.png","70","image-keyboard-response","265","498368","0.0-6.0-1.129","FAHU","3","m","rechts","23","","","self","f","120","true"
"null","<div style=""font-size:60px;"">+</div>","null","html-keyboard-response","266","498669","0.0-6.0-0.130","FAHU","3","m","rechts","23","","fixation","","","",""
"651","img/150_120.png","70","image-keyboard-response","267","499320","0.0-6.0-1.130","FAHU","3","m","rechts","23","","","self","f","150","true"
"null","<div style=""font-size:60px;"">+</div>","null","html-keyboard-response","268","499675","0.0-6.0-0.131","FAHU","3","m","rechts","23","","fixation","","","",""
"934","img/120_180.png","74","image-keyboard-response","269","500609","0.0-6.0-1.131","FAHU","3","m","rechts","23","","","self","j","120","true"
"null","<div style=""font-size:60px;"">+</div>","null","html-keyboard-response","270","501014","0.0-6.0-0.132","FAHU","3","m","rechts","23","","fixation","","","",""
"679","img/90_330.png","70","image-keyboard-response","271","501694","0.0-6.0-1.132","FAHU","3","m","rechts","23","","","self","f","90","true"
"null","<div style=""font-size:60px;"">+</div>","null","html-keyboard-response","272","502099","0.0-6.0-0.133","FAHU","3","m","rechts","23","","fixation","","","",""
"582","img/0_120.png","74","image-keyboard-response","273","502681","0.0-6.0-1.133","FAHU","3","m","rechts","23","","","self","j","0","true"
"null","<div style=""font-size:60px;"">+</div>","null","html-keyboard-response","274","503133","0.0-6.0-0.134","FAHU","3","m","rechts","23","","fixation","","","",""
"548","img/90_180.png","74","image-keyboard-response","275","503683","0.0-6.0-1.134","FAHU","3","m","rechts","23","","","self","j","90","true"
"null","<div style=""font-size:60px;"">+</div>","null","html-keyboard-response","276","504087","0.0-6.0-0.135","FAHU","3","m","rechts","23","","fixation","","","",""
"1042","img/L90_180.png","70","image-keyboard-response","277","505129","0.0-6.0-1.135","FAHU","3","m","rechts","23","","","self","f","90","true"
"null","<div style=""font-size:60px;"">+</div>","null","html-keyboard-response","278","505485","0.0-6.0-0.136","FAHU","3","m","rechts","23","","fixation","","","",""
"872","img/90_120.png","70","image-keyboard-response","279","506358","0.0-6.0-1.136","FAHU","3","m","rechts","23","","","self","f","90","true"
"null","<div style=""font-size:60px;"">+</div>","null","html-keyboard-response","280","506860","0.0-6.0-0.137","FAHU","3","m","rechts","23","","fixation","","","",""
"725","img/60_330.png","70","image-keyboard-response","281","507586","0.0-6.0-1.137","FAHU","3","m","rechts","23","","","self","f","60","true"
"null","<div style=""font-size:60px;"">+</div>","null","html-keyboard-response","282","507991","0.0-6.0-0.138","FAHU","3","m","rechts","23","","fixation","","","",""
"1073","img/150_60.png","70","image-keyboard-response","283","509064","0.0-6.0-1.138","FAHU","3","m","rechts","23","","","self","f","150","true"
"null","<div style=""font-size:60px;"">+</div>","null","html-keyboard-response","284","509518","0.0-6.0-0.139","FAHU","3","m","rechts","23","","fixation","","","",""
"683","img/0_210.png","70","image-keyboard-response","285","510201","0.0-6.0-1.139","FAHU","3","m","rechts","23","","","self","f","0","true"
"null","<div style=""font-size:60px;"">+</div>","null","html-keyboard-response","286","510556","0.0-6.0-0.140","FAHU","3","m","rechts","23","","fixation","","","",""
"821","img/120_330.png","74","image-keyboard-response","287","511378","0.0-6.0-1.140","FAHU","3","m","rechts","23","","","self","f","120","false"
"null","<div style=""font-size:60px;"">+</div>","null","html-keyboard-response","288","511834","0.0-6.0-0.141","FAHU","3","m","rechts","23","","fixation","","","",""
"650","img/0_150.png","74","image-keyboard-response","289","512484","0.0-6.0-1.141","FAHU","3","m","rechts","23","","","self","j","0","true"
"null","<div style=""font-size:60px;"">+</div>","null","html-keyboard-response","290","512988","0.0-6.0-0.142","FAHU","3","m","rechts","23","","fixation","","","",""
"789","img/60_210.png","74","image-keyboard-response","291","513780","0.0-6.0-1.142","FAHU","3","m","rechts","23","","","self","j","60","true"
"null","<div style=""font-size:60px;"">+</div>","null","html-keyboard-response","292","514232","0.0-6.0-0.143","FAHU","3","m","rechts","23","","fixation","","","",""
"752","img/60_150.png","70","image-keyboard-response","293","514986","0.0-6.0-1.143","FAHU","3","m","rechts","23","","","self","f","60","true"
"null","<div style=""font-size:60px;"">+</div>","null","html-keyboard-response","294","515339","0.0-6.0-0.144","FAHU","3","m","rechts","23","","fixation","","","",""
"1340","img/150_180.png","74","image-keyboard-response","295","516679","0.0-6.0-1.144","FAHU","3","m","rechts","23","","","self","j","150","true"
"null","<div style=""font-size:60px;"">+</div>","null","html-keyboard-response","296","516983","0.0-6.0-0.145","FAHU","3","m","rechts","23","","fixation","","","",""
"807","img/30_120.png","74","image-keyboard-response","297","517790","0.0-6.0-1.145","FAHU","3","m","rechts","23","","","self","j","30","true"
"null","<div style=""font-size:60px;"">+</div>","null","html-keyboard-response","298","518195","0.0-6.0-0.146","FAHU","3","m","rechts","23","","fixation","","","",""
"540","img/0_330.png","70","image-keyboard-response","299","518737","0.0-6.0-1.146","FAHU","3","m","rechts","23","","","self","f","0","true"
"null","<div style=""font-size:60px;"">+</div>","null","html-keyboard-response","300","519188","0.0-6.0-0.147","FAHU","3","m","rechts","23","","fixation","","","",""
"1160","img/90_210.png","74","image-keyboard-response","301","520348","0.0-6.0-1.147","FAHU","3","m","rechts","23","","","self","j","90","true"
"null","<div style=""font-size:60px;"">+</div>","null","html-keyboard-response","302","520803","0.0-6.0-0.148","FAHU","3","m","rechts","23","","fixation","","","",""
"1122","img/150_300.png","74","image-keyboard-response","303","521928","0.0-6.0-1.148","FAHU","3","m","rechts","23","","","self","j","150","true"
"null","<div style=""font-size:60px;"">+</div>","null","html-keyboard-response","304","522231","0.0-6.0-0.149","FAHU","3","m","rechts","23","","fixation","","","",""
"710","img/0_60.png","74","image-keyboard-response","305","522942","0.0-6.0-1.149","FAHU","3","m","rechts","23","","","self","j","0","true"
"null","<div style=""font-size:60px;"">+</div>","null","html-keyboard-response","306","523449","0.0-6.0-0.150","FAHU","3","m","rechts","23","","fixation","","","",""
"847","img/30_270.png","70","image-keyboard-response","307","524297","0.0-6.0-1.150","FAHU","3","m","rechts","23","","","self","f","30","true"
"null","<div style=""font-size:60px;"">+</div>","null","html-keyboard-response","308","524652","0.0-6.0-0.151","FAHU","3","m","rechts","23","","fixation","","","",""
"804","img/30_180.png","74","image-keyboard-response","309","525457","0.0-6.0-1.151","FAHU","3","m","rechts","23","","","self","j","30","true"
"null","<div style=""font-size:60px;"">+</div>","null","html-keyboard-response","310","525911","0.0-6.0-0.152","FAHU","3","m","rechts","23","","fixation","","","",""
"1060","img/150_240.png","74","image-keyboard-response","311","526972","0.0-6.0-1.152","FAHU","3","m","rechts","23","","","self","j","150","true"
"null","<div style=""font-size:60px;"">+</div>","null","html-keyboard-response","312","527327","0.0-6.0-0.153","FAHU","3","m","rechts","23","","fixation","","","",""
"577","img/0_270.png","70","image-keyboard-response","313","527905","0.0-6.0-1.153","FAHU","3","m","rechts","23","","","self","f","0","true"
"null","<div style=""font-size:60px;"">+</div>","null","html-keyboard-response","314","528259","0.0-6.0-0.154","FAHU","3","m","rechts","23","","fixation","","","",""
"562","img/L30_180.png","70","image-keyboard-response","315","528823","0.0-6.0-1.154","FAHU","3","m","rechts","23","","","self","f","30","true"
"null","<div style=""font-size:60px;"">+</div>","null","html-keyboard-response","316","529328","0.0-6.0-0.155","FAHU","3","m","rechts","23","","fixation","","","",""
"511","img/30_300.png","70","image-keyboard-response","317","529840","0.0-6.0-1.155","FAHU","3","m","rechts","23","","","self","f","30","true"
"null","<div style=""font-size:60px;"">+</div>","null","html-keyboard-response","318","530293","0.0-6.0-0.156","FAHU","3","m","rechts","23","","fixation","","","",""
"594","img/90_300.png","70","image-keyboard-response","319","530888","0.0-6.0-1.156","FAHU","3","m","rechts","23","","","self","f","90","true"
"null","<div style=""font-size:60px;"">+</div>","null","html-keyboard-response","320","531193","0.0-6.0-0.157","FAHU","3","m","rechts","23","","fixation","","","",""
"898","img/90_240.png","74","image-keyboard-response","321","532092","0.0-6.0-1.157","FAHU","3","m","rechts","23","","","self","j","90","true"
"null","<div style=""font-size:60px;"">+</div>","null","html-keyboard-response","322","532597","0.0-6.0-0.158","FAHU","3","m","rechts","23","","fixation","","","",""
"651","img/120_180.png","74","image-keyboard-response","323","533249","0.0-6.0-1.158","FAHU","3","m","rechts","23","","","self","j","120","true"
"null","<div style=""font-size:60px;"">+</div>","null","html-keyboard-response","324","533751","0.0-6.0-0.159","FAHU","3","m","rechts","23","","fixation","","","",""
"526","img/0_330.png","70","image-keyboard-response","325","534277","0.0-6.0-1.159","FAHU","3","m","rechts","23","","","self","f","0","true"
"null","<div style=""font-size:60px;"">+</div>","null","html-keyboard-response","326","534783","0.0-6.0-0.160","FAHU","3","m","rechts","23","","fixation","","","",""
"651","img/0_150.png","74","image-keyboard-response","327","535435","0.0-6.0-1.160","FAHU","3","m","rechts","23","","","self","j","0","true"
"null","<div style=""font-size:60px;"">+</div>","null","html-keyboard-response","328","535738","0.0-6.0-0.161","FAHU","3","m","rechts","23","","fixation","","","",""
"670","img/120_330.png","70","image-keyboard-response","329","536410","0.0-6.0-1.161","FAHU","3","m","rechts","23","","","self","f","120","true"
"null","<div style=""font-size:60px;"">+</div>","null","html-keyboard-response","330","536762","0.0-6.0-0.162","FAHU","3","m","rechts","23","","fixation","","","",""
"574","img/L60_180.png","70","image-keyboard-response","331","537336","0.0-6.0-1.162","FAHU","3","m","rechts","23","","","self","f","60","true"
"null","<div style=""font-size:60px;"">+</div>","null","html-keyboard-response","332","537792","0.0-6.0-0.163","FAHU","3","m","rechts","23","","fixation","","","",""
"559","img/0_90.png","74","image-keyboard-response","333","538351","0.0-6.0-1.163","FAHU","3","m","rechts","23","","","self","j","0","true"
"null","<div style=""font-size:60px;"">+</div>","null","html-keyboard-response","334","538755","0.0-6.0-0.164","FAHU","3","m","rechts","23","","fixation","","","",""
"758","img/150_270.png","74","image-keyboard-response","335","539515","0.0-6.0-1.164","FAHU","3","m","rechts","23","","","self","j","150","true"
"null","<div style=""font-size:60px;"">+</div>","null","html-keyboard-response","336","540020","0.0-6.0-0.165","FAHU","3","m","rechts","23","","fixation","","","",""
"576","img/30_240.png","70","image-keyboard-response","337","540597","0.0-6.0-1.165","FAHU","3","m","rechts","23","","","self","f","30","true"
"null","<div style=""font-size:60px;"">+</div>","null","html-keyboard-response","338","540950","0.0-6.0-0.166","FAHU","3","m","rechts","23","","fixation","","","",""
"530","img/0_270.png","70","image-keyboard-response","339","541480","0.0-6.0-1.166","FAHU","3","m","rechts","23","","","self","f","0","true"
"null","<div style=""font-size:60px;"">+</div>","null","html-keyboard-response","340","541835","0.0-6.0-0.167","FAHU","3","m","rechts","23","","fixation","","","",""
"559","img/60_270.png","70","image-keyboard-response","341","542394","0.0-6.0-1.167","FAHU","3","m","rechts","23","","","self","f","60","true"
"null","<div style=""font-size:60px;"">+</div>","null","html-keyboard-response","342","542900","0.0-6.0-0.168","FAHU","3","m","rechts","23","","fixation","","","",""
"438","img/0_210.png","70","image-keyboard-response","343","543340","0.0-6.0-1.168","FAHU","3","m","rechts","23","","","self","f","0","true"
"null","<div style=""font-size:60px;"">+</div>","null","html-keyboard-response","344","543693","0.0-6.0-0.169","FAHU","3","m","rechts","23","","fixation","","","",""
"445","img/0_240.png","70","image-keyboard-response","345","544139","0.0-6.0-1.169","FAHU","3","m","rechts","23","","","self","f","0","true"
"null","<div style=""font-size:60px;"">+</div>","null","html-keyboard-response","346","544645","0.0-6.0-0.170","FAHU","3","m","rechts","23","","fixation","","","",""
"1419","img/120_30.png","74","image-keyboard-response","347","546065","0.0-6.0-1.170","FAHU","3","m","rechts","23","","","self","j","120","true"
"null","<div style=""font-size:60px;"">+</div>","null","html-keyboard-response","348","546416","0.0-6.0-0.171","FAHU","3","m","rechts","23","","fixation","","","",""
"599","img/30_180.png","74","image-keyboard-response","349","547016","0.0-6.0-1.171","FAHU","3","m","rechts","23","","","self","j","30","true"
"null","<div style=""font-size:60px;"">+</div>","null","html-keyboard-response","350","547371","0.0-6.0-0.172","FAHU","3","m","rechts","23","","fixation","","","",""
"477","img/150_300.png","70","image-keyboard-response","351","547848","0.0-6.0-1.172","FAHU","3","m","rechts","23","","","self","j","150","false"
"null","<div style=""font-size:60px;"">+</div>","null","html-keyboard-response","352","548352","0.0-6.0-0.173","FAHU","3","m","rechts","23","","fixation","","","",""
"877","img/90_180.png","74","image-keyboard-response","353","549231","0.0-6.0-1.173","FAHU","3","m","rechts","23","","","self","j","90","true"
"null","<div style=""font-size:60px;"">+</div>","null","html-keyboard-response","354","549634","0.0-6.0-0.174","FAHU","3","m","rechts","23","","fixation","","","",""
"1674","img/150_90.png","70","image-keyboard-response","355","551309","0.0-6.0-1.174","FAHU","3","m","rechts","23","","","self","f","150","true"
"null","<div style=""font-size:60px;"">+</div>","null","html-keyboard-response","356","551612","0.0-6.0-0.175","FAHU","3","m","rechts","23","","fixation","","","",""
"863","img/L150_180.png","70","image-keyboard-response","357","552475","0.0-6.0-1.175","FAHU","3","m","rechts","23","","","self","f","150","true"
"null","<div style=""font-size:60px;"">+</div>","null","html-keyboard-response","358","552826","0.0-6.0-0.176","FAHU","3","m","rechts","23","","fixation","","","",""
"791","img/120_210.png","74","image-keyboard-response","359","553617","0.0-6.0-1.176","FAHU","3","m","rechts","23","","","self","j","120","true"
"null","<div style=""font-size:60px;"">+</div>","null","html-keyboard-response","360","554072","0.0-6.0-0.177","FAHU","3","m","rechts","23","","fixation","","","",""
"637","img/30_60.png","74","image-keyboard-response","361","554711","0.0-6.0-1.177","FAHU","3","m","rechts","23","","","self","j","30","true"
"null","<div style=""font-size:60px;"">+</div>","null","html-keyboard-response","362","555014","0.0-6.0-0.178","FAHU","3","m","rechts","23","","fixation","","","",""
"570","img/0_60.png","74","image-keyboard-response","363","555584","0.0-6.0-1.178","FAHU","3","m","rechts","23","","","self","j","0","true"
"null","<div style=""font-size:60px;"">+</div>","null","html-keyboard-response","364","555884","0.0-6.0-0.179","FAHU","3","m","rechts","23","","fixation","","","",""
"432","img/0_120.png","74","image-keyboard-response","365","556317","0.0-6.0-1.179","FAHU","3","m","rechts","23","","","self","j","0","true"
"null","<div style=""font-size:60px;"">+</div>","null","html-keyboard-response","366","556622","0.0-6.0-0.180","FAHU","3","m","rechts","23","","fixation","","","",""
"588","img/30_300.png","70","image-keyboard-response","367","557212","0.0-6.0-1.180","FAHU","3","m","rechts","23","","","self","f","30","true"
"null","<div style=""font-size:60px;"">+</div>","null","html-keyboard-response","368","557516","0.0-6.0-0.181","FAHU","3","m","rechts","23","","fixation","","","",""
"506","img/L120_180.png","70","image-keyboard-response","369","558023","0.0-6.0-1.181","FAHU","3","m","rechts","23","","","self","f","120","true"
"null","<div style=""font-size:60px;"">+</div>","null","html-keyboard-response","370","558524","0.0-6.0-0.182","FAHU","3","m","rechts","23","","fixation","","","",""
"897","img/90_120.png","70","image-keyboard-response","371","559421","0.0-6.0-1.182","FAHU","3","m","rechts","23","","","self","f","90","true"
"null","<div style=""font-size:60px;"">+</div>","null","html-keyboard-response","372","559826","0.0-6.0-0.183","FAHU","3","m","rechts","23","","fixation","","","",""
"609","img/0_300.png","70","image-keyboard-response","373","560437","0.0-6.0-1.183","FAHU","3","m","rechts","23","","","self","f","0","true"
"null","<div style=""font-size:60px;"">+</div>","null","html-keyboard-response","374","560940","0.0-6.0-0.184","FAHU","3","m","rechts","23","","fixation","","","",""
"803","img/60_180.png","74","image-keyboard-response","375","561743","0.0-6.0-1.184","FAHU","3","m","rechts","23","","","self","j","60","true"
"null","<div style=""font-size:60px;"">+</div>","null","html-keyboard-response","376","562248","0.0-6.0-0.185","FAHU","3","m","rechts","23","","fixation","","","",""
"763","img/120_90.png","70","image-keyboard-response","377","563012","0.0-6.0-1.185","FAHU","3","m","rechts","23","","","self","f","120","true"
"null","<div style=""font-size:60px;"">+</div>","null","html-keyboard-response","378","563466","0.0-6.0-0.186","FAHU","3","m","rechts","23","","fixation","","","",""
"529","img/120_150.png","70","image-keyboard-response","379","563995","0.0-6.0-1.186","FAHU","3","m","rechts","23","","","self","f","120","true"
"null","<div style=""font-size:60px;"">+</div>","null","html-keyboard-response","380","564498","0.0-6.0-0.187","FAHU","3","m","rechts","23","","fixation","","","",""
"555","img/30_270.png","70","image-keyboard-response","381","565054","0.0-6.0-1.187","FAHU","3","m","rechts","23","","","self","f","30","true"
"null","<div style=""font-size:60px;"">+</div>","null","html-keyboard-response","382","565505","0.0-6.0-0.188","FAHU","3","m","rechts","23","","fixation","","","",""
"780","img/60_210.png","74","image-keyboard-response","383","566286","0.0-6.0-1.188","FAHU","3","m","rechts","23","","","self","j","60","true"
"null","<div style=""font-size:60px;"">+</div>","null","html-keyboard-response","384","566792","0.0-6.0-0.189","FAHU","3","m","rechts","23","","fixation","","","",""
"744","img/L30_180.png","70","image-keyboard-response","385","567536","0.0-6.0-1.189","FAHU","3","m","rechts","23","","","self","f","30","true"
"null","<div style=""font-size:60px;"">+</div>","null","html-keyboard-response","386","568038","0.0-6.0-0.190","FAHU","3","m","rechts","23","","fixation","","","",""
"860","img/90_30.png","74","image-keyboard-response","387","568898","0.0-6.0-1.190","FAHU","3","m","rechts","23","","","self","j","90","true"
"null","<div style=""font-size:60px;"">+</div>","null","html-keyboard-response","388","569303","0.0-6.0-0.191","FAHU","3","m","rechts","23","","fixation","","","",""
"585","img/L90_180.png","70","image-keyboard-response","389","569889","0.0-6.0-1.191","FAHU","3","m","rechts","23","","","self","f","90","true"
"null","<div style=""font-size:60px;"">+</div>","null","html-keyboard-response","390","570193","0.0-6.0-0.192","FAHU","3","m","rechts","23","","fixation","","","",""
"931","img/150_60.png","70","image-keyboard-response","391","571126","0.0-6.0-1.192","FAHU","3","m","rechts","23","","","self","f","150","true"
"null","<div style=""font-size:60px;"">+</div>","null","html-keyboard-response","392","571527","0.0-6.0-0.193","FAHU","3","m","rechts","23","","fixation","","","",""
"744","img/90_330.png","70","image-keyboard-response","393","572271","0.0-6.0-1.193","FAHU","3","m","rechts","23","","","self","f","90","true"
"null","<div style=""font-size:60px;"">+</div>","null","html-keyboard-response","394","572776","0.0-6.0-0.194","FAHU","3","m","rechts","23","","fixation","","","",""
"706","img/60_30.png","74","image-keyboard-response","395","573482","0.0-6.0-1.194","FAHU","3","m","rechts","23","","","self","j","60","true"
"null","<div style=""font-size:60px;"">+</div>","null","html-keyboard-response","396","573987","0.0-6.0-0.195","FAHU","3","m","rechts","23","","fixation","","","",""
"840","img/120_270.png","74","image-keyboard-response","397","574829","0.0-6.0-1.195","FAHU","3","m","rechts","23","","","self","j","120","true"
"null","<div style=""font-size:60px;"">+</div>","null","html-keyboard-response","398","575131","0.0-6.0-0.196","FAHU","3","m","rechts","23","","fixation","","","",""
"847","img/90_150.png","70","image-keyboard-response","399","575979","0.0-6.0-1.196","FAHU","3","m","rechts","23","","","self","f","90","true"
"null","<div style=""font-size:60px;"">+</div>","null","html-keyboard-response","400","576384","0.0-6.0-0.197","FAHU","3","m","rechts","23","","fixation","","","",""
"683","img/30_120.png","74","image-keyboard-response","401","577068","0.0-6.0-1.197","FAHU","3","m","rechts","23","","","self","j","30","true"
"null","<div style=""font-size:60px;"">+</div>","null","html-keyboard-response","402","577570","0.0-6.0-0.198","FAHU","3","m","rechts","23","","fixation","","","",""
"912","img/90_60.png","74","image-keyboard-response","403","578482","0.0-6.0-1.198","FAHU","3","m","rechts","23","","","self","j","90","true"
"null","<div style=""font-size:60px;"">+</div>","null","html-keyboard-response","404","578934","0.0-6.0-0.199","FAHU","3","m","rechts","23","","fixation","","","",""
"755","img/90_210.png","74","image-keyboard-response","405","579689","0.0-6.0-1.199","FAHU","3","m","rechts","23","","","self","j","90","true"
"null","<div style=""font-size:60px;"">+</div>","null","html-keyboard-response","406","580093","0.0-6.0-0.200","FAHU","3","m","rechts","23","","fixation","","","",""
"1522","img/150_240.png","74","image-keyboard-response","407","581616","0.0-6.0-1.200","FAHU","3","m","rechts","23","","","self","j","150","true"
"null","<div style=""font-size:60px;"">+</div>","null","html-keyboard-response","408","582021","0.0-6.0-0.201","FAHU","3","m","rechts","23","","fixation","","","",""
"712","img/150_180.png","74","image-keyboard-response","409","582733","0.0-6.0-1.201","FAHU","3","m","rechts","23","","","self","j","150","true"
"null","<div style=""font-size:60px;"">+</div>","null","html-keyboard-response","410","583089","0.0-6.0-0.202","FAHU","3","m","rechts","23","","fixation","","","",""
"762","img/30_90.png","74","image-keyboard-response","411","583853","0.0-6.0-1.202","FAHU","3","m","rechts","23","","","self","j","30","true"
"null","<div style=""font-size:60px;"">+</div>","null","html-keyboard-response","412","584203","0.0-6.0-0.203","FAHU","3","m","rechts","23","","fixation","","","",""
"740","img/60_150.png","70","image-keyboard-response","413","584944","0.0-6.0-1.203","FAHU","3","m","rechts","23","","","self","f","60","true"
"null","<div style=""font-size:60px;"">+</div>","null","html-keyboard-response","414","585399","0.0-6.0-0.204","FAHU","3","m","rechts","23","","fixation","","","",""
"791","img/60_90.png","70","image-keyboard-response","415","586190","0.0-6.0-1.204","FAHU","3","m","rechts","23","","","self","j","60","false"
"null","<div style=""font-size:60px;"">+</div>","null","html-keyboard-response","416","586643","0.0-6.0-0.205","FAHU","3","m","rechts","23","","fixation","","","",""
"619","img/0_30.png","74","image-keyboard-response","417","587263","0.0-6.0-1.205","FAHU","3","m","rechts","23","","","self","j","0","true"
"null","<div style=""font-size:60px;"">+</div>","null","html-keyboard-response","418","587569","0.0-6.0-0.206","FAHU","3","m","rechts","23","","fixation","","","",""
"740","img/60_330.png","70","image-keyboard-response","419","588310","0.0-6.0-1.206","FAHU","3","m","rechts","23","","","self","f","60","true"
"null","<div style=""font-size:60px;"">+</div>","null","html-keyboard-response","420","588764","0.0-6.0-0.207","FAHU","3","m","rechts","23","","fixation","","","",""
"938","img/150_120.png","70","image-keyboard-response","421","589703","0.0-6.0-1.207","FAHU","3","m","rechts","23","","","self","f","150","true"
"37655","<p>Du hast in 94% der Versuche korrekt entschieden.</p><p>Deine durchschnittliche Reaktionszeit war  773ms.</p><p>Dr&uuml;cke eine beliebige Taste, um die Session zu beenden. Vielen Dank!</p>","32","html-keyboard-response","422","627361","0.0-7.0","FAHU","3","m","rechts","23","","","","","",""
