"rt","stimulus","key_press","trial_type","trial_index","time_elapsed","internal_node_id","subject","session","sex","handedness","age","responses","test_part","condition","correct_response","angle","correct"
"1152","<p>Mental Rotation Experiment.</p> <p>Dr&uuml;cke eine beliebige Taste, um anzufangen.</p>","13","html-keyboard-response","0","1187","0.0-0.0","ADKI","2","m","rechts","22","","","","","",""
"9463","","","survey-text","1","10651","0.0-1.0","ADKI","2","m","rechts","22","{""Q0"":""ADKI""}","","","","",""
"2032","","","survey-text","2","12684","0.0-2.0","ADKI","2","m","rechts","22","{""Q0"":""2""}","","","","",""
"2281","","","survey-multi-choice","3","14971","0.0-3.0","ADKI","2","m","rechts","22","{""Q0"":""m"",""Q1"":""rechts""}","","","","",""
"2716","","","survey-text","4","17690","0.0-4.0","ADKI","2","m","rechts","22","{""Q0"":""22""}","","","","",""
"12719","<p>Stell dir vor, dass du vor einem runden Tisch stehst, auf dem sich ein blauer Ball am Tischrand befindet. Entlang des Tischrands ist jeweils ein verschieden langer Pfeil. Nun bleibst du an deinem Platz vor dem Tisch und rotierst den Tisch entlang des Pfeils (gleiche Richtung und Länge). </p> <img src='img/30_180.png'></img> <br><p> Nachdem du diese (vorgestellte) Rotation durchgef&uuml;hrt hast, schau in Richtung der Tischmitte, und entscheide dann, ob der Ball links oder rechts von dir liegt.</p> <p>Dr&uuml;cke die <strong>'f'</strong>-Taste f&uuml;r links, die <strong>'j'</strong>-Taste f&uuml;r rechts.</p><br><p> Das Bild wird jeweils 1 Sekunde lang pr&auml;sentiert. Du hast 3 Sekunden Zeit eine Entscheidung zu treffen.</p>","74","html-keyboard-response","5","30430","0.0-5.0","ADKI","2","m","rechts","22","","","","","",""
"null","<div style=""font-size:60px;"">+</div>","null","html-keyboard-response","6","31910","0.0-6.0-0.0","ADKI","2","m","rechts","22","","fixation","","","",""
"2283","img/90_210.png","74","image-keyboard-response","7","34217","0.0-6.0-1.0","ADKI","2","m","rechts","22","","","object","f","90","false"
"null","<div style=""font-size:60px;"">+</div>","null","html-keyboard-response","8","34529","0.0-6.0-0.1","ADKI","2","m","rechts","22","","fixation","","","",""
"null","img/90_150.png","null","image-keyboard-response","9","37560","0.0-6.0-1.1","ADKI","2","m","rechts","22","","","object","j","90","false"
"null","<div style=""font-size:60px;"">+</div>","null","html-keyboard-response","10","37931","0.0-6.0-0.2","ADKI","2","m","rechts","22","","fixation","","","",""
"55","img/30_120.png","70","image-keyboard-response","11","38008","0.0-6.0-1.2","ADKI","2","m","rechts","22","","","object","j","30","false"
"null","<div style=""font-size:60px;"">+</div>","null","html-keyboard-response","12","38430","0.0-6.0-0.3","ADKI","2","m","rechts","22","","fixation","","","",""
"1191","img/30_90.png","74","image-keyboard-response","13","39638","0.0-6.0-1.3","ADKI","2","m","rechts","22","","","object","j","30","true"
"null","<div style=""font-size:60px;"">+</div>","null","html-keyboard-response","14","40047","0.0-6.0-0.4","ADKI","2","m","rechts","22","","fixation","","","",""
"1791","img/L90_180.png","74","image-keyboard-response","15","41855","0.0-6.0-1.4","ADKI","2","m","rechts","22","","","object","j","90","true"
"null","<div style=""font-size:60px;"">+</div>","null","html-keyboard-response","16","42327","0.0-6.0-0.5","ADKI","2","m","rechts","22","","fixation","","","",""
"2594","img/60_270.png","74","image-keyboard-response","17","44939","0.0-6.0-1.5","ADKI","2","m","rechts","22","","","object","f","60","false"
"null","<div style=""font-size:60px;"">+</div>","null","html-keyboard-response","18","45248","0.0-6.0-0.6","ADKI","2","m","rechts","22","","fixation","","","",""
"1416","img/90_120.png","70","image-keyboard-response","19","46681","0.0-6.0-1.6","ADKI","2","m","rechts","22","","","object","j","90","false"
"null","<div style=""font-size:60px;"">+</div>","null","html-keyboard-response","20","47187","0.0-6.0-0.7","ADKI","2","m","rechts","22","","fixation","","","",""
"2108","img/120_180.png","70","image-keyboard-response","21","49313","0.0-6.0-1.7","ADKI","2","m","rechts","22","","","object","f","120","true"
"null","<div style=""font-size:60px;"">+</div>","null","html-keyboard-response","22","49672","0.0-6.0-0.8","ADKI","2","m","rechts","22","","fixation","","","",""
"1304","img/120_90.png","70","image-keyboard-response","23","51001","0.0-6.0-1.8","ADKI","2","m","rechts","22","","","object","f","120","true"
"null","<div style=""font-size:60px;"">+</div>","null","html-keyboard-response","24","51405","0.0-6.0-0.9","ADKI","2","m","rechts","22","","fixation","","","",""
"961","img/0_30.png","74","image-keyboard-response","25","52374","0.0-6.0-1.9","ADKI","2","m","rechts","22","","","object","j","0","true"
"null","<div style=""font-size:60px;"">+</div>","null","html-keyboard-response","26","52798","0.0-6.0-0.10","ADKI","2","m","rechts","22","","fixation","","","",""
"1515","img/120_210.png","74","image-keyboard-response","27","54330","0.0-6.0-1.10","ADKI","2","m","rechts","22","","","object","f","120","false"
"null","<div style=""font-size:60px;"">+</div>","null","html-keyboard-response","28","54690","0.0-6.0-0.11","ADKI","2","m","rechts","22","","fixation","","","",""
"974","img/120_270.png","74","image-keyboard-response","29","55681","0.0-6.0-1.11","ADKI","2","m","rechts","22","","","object","j","120","true"
"null","<div style=""font-size:60px;"">+</div>","null","html-keyboard-response","30","56158","0.0-6.0-0.12","ADKI","2","m","rechts","22","","fixation","","","",""
"1248","img/120_150.png","70","image-keyboard-response","31","57426","0.0-6.0-1.12","ADKI","2","m","rechts","22","","","object","j","120","false"
"null","<div style=""font-size:60px;"">+</div>","null","html-keyboard-response","32","57784","0.0-6.0-0.13","ADKI","2","m","rechts","22","","fixation","","","",""
"1232","img/60_90.png","74","image-keyboard-response","33","59035","0.0-6.0-1.13","ADKI","2","m","rechts","22","","","object","j","60","true"
"null","<div style=""font-size:60px;"">+</div>","null","html-keyboard-response","34","59502","0.0-6.0-0.14","ADKI","2","m","rechts","22","","fixation","","","",""
"1053","img/60_330.png","74","image-keyboard-response","35","60576","0.0-6.0-1.14","ADKI","2","m","rechts","22","","","object","j","60","true"
"null","<div style=""font-size:60px;"">+</div>","null","html-keyboard-response","36","61049","0.0-6.0-0.15","ADKI","2","m","rechts","22","","fixation","","","",""
"1533","img/150_180.png","70","image-keyboard-response","37","62601","0.0-6.0-1.15","ADKI","2","m","rechts","22","","","object","f","150","true"
"null","<div style=""font-size:60px;"">+</div>","null","html-keyboard-response","38","63079","0.0-6.0-0.16","ADKI","2","m","rechts","22","","fixation","","","",""
"828","img/0_300.png","70","image-keyboard-response","39","63928","0.0-6.0-1.16","ADKI","2","m","rechts","22","","","object","f","0","true"
"null","<div style=""font-size:60px;"">+</div>","null","html-keyboard-response","40","64238","0.0-6.0-0.17","ADKI","2","m","rechts","22","","fixation","","","",""
"1292","img/90_240.png","74","image-keyboard-response","41","65547","0.0-6.0-1.17","ADKI","2","m","rechts","22","","","object","f","90","false"
"null","<div style=""font-size:60px;"">+</div>","null","html-keyboard-response","42","65863","0.0-6.0-0.18","ADKI","2","m","rechts","22","","fixation","","","",""
"1230","img/30_60.png","74","image-keyboard-response","43","67112","0.0-6.0-1.18","ADKI","2","m","rechts","22","","","object","j","30","true"
"null","<div style=""font-size:60px;"">+</div>","null","html-keyboard-response","44","67565","0.0-6.0-0.19","ADKI","2","m","rechts","22","","fixation","","","",""
"1133","img/150_90.png","70","image-keyboard-response","45","68710","0.0-6.0-1.19","ADKI","2","m","rechts","22","","","object","f","150","true"
"null","<div style=""font-size:60px;"">+</div>","null","html-keyboard-response","46","69175","0.0-6.0-0.20","ADKI","2","m","rechts","22","","fixation","","","",""
"923","img/0_150.png","74","image-keyboard-response","47","70115","0.0-6.0-1.20","ADKI","2","m","rechts","22","","","object","j","0","true"
"null","<div style=""font-size:60px;"">+</div>","null","html-keyboard-response","48","70634","0.0-6.0-0.21","ADKI","2","m","rechts","22","","fixation","","","",""
"1003","img/150_240.png","74","image-keyboard-response","49","71658","0.0-6.0-1.21","ADKI","2","m","rechts","22","","","object","j","150","true"
"null","<div style=""font-size:60px;"">+</div>","null","html-keyboard-response","50","72080","0.0-6.0-0.22","ADKI","2","m","rechts","22","","fixation","","","",""
"884","img/0_60.png","74","image-keyboard-response","51","72984","0.0-6.0-1.22","ADKI","2","m","rechts","22","","","object","j","0","true"
"null","<div style=""font-size:60px;"">+</div>","null","html-keyboard-response","52","73446","0.0-6.0-0.23","ADKI","2","m","rechts","22","","fixation","","","",""
"1106","img/60_210.png","70","image-keyboard-response","53","74569","0.0-6.0-1.23","ADKI","2","m","rechts","22","","","object","f","60","true"
"null","<div style=""font-size:60px;"">+</div>","null","html-keyboard-response","54","74883","0.0-6.0-0.24","ADKI","2","m","rechts","22","","fixation","","","",""
"1504","img/L60_180.png","74","image-keyboard-response","55","76404","0.0-6.0-1.24","ADKI","2","m","rechts","22","","","object","j","60","true"
"null","<div style=""font-size:60px;"">+</div>","null","html-keyboard-response","56","76867","0.0-6.0-0.25","ADKI","2","m","rechts","22","","fixation","","","",""
"870","img/90_60.png","70","image-keyboard-response","57","77754","0.0-6.0-1.25","ADKI","2","m","rechts","22","","","object","f","90","true"
"null","<div style=""font-size:60px;"">+</div>","null","html-keyboard-response","58","78257","0.0-6.0-0.26","ADKI","2","m","rechts","22","","fixation","","","",""
"1133","img/90_330.png","74","image-keyboard-response","59","79408","0.0-6.0-1.26","ADKI","2","m","rechts","22","","","object","j","90","true"
"null","<div style=""font-size:60px;"">+</div>","null","html-keyboard-response","60","79858","0.0-6.0-0.27","ADKI","2","m","rechts","22","","fixation","","","",""
"848","img/0_270.png","70","image-keyboard-response","61","80725","0.0-6.0-1.27","ADKI","2","m","rechts","22","","","object","f","0","true"
"null","<div style=""font-size:60px;"">+</div>","null","html-keyboard-response","62","81057","0.0-6.0-0.28","ADKI","2","m","rechts","22","","fixation","","","",""
"1651","img/90_180.png","70","image-keyboard-response","63","82727","0.0-6.0-1.28","ADKI","2","m","rechts","22","","","object","f","90","true"
"null","<div style=""font-size:60px;"">+</div>","null","html-keyboard-response","64","83135","0.0-6.0-0.29","ADKI","2","m","rechts","22","","fixation","","","",""
"834","img/0_90.png","74","image-keyboard-response","65","83987","0.0-6.0-1.29","ADKI","2","m","rechts","22","","","object","j","0","true"
"null","<div style=""font-size:60px;"">+</div>","null","html-keyboard-response","66","84291","0.0-6.0-0.30","ADKI","2","m","rechts","22","","fixation","","","",""
"1130","img/30_300.png","70","image-keyboard-response","67","85439","0.0-6.0-1.30","ADKI","2","m","rechts","22","","","object","f","30","true"
"null","<div style=""font-size:60px;"">+</div>","null","html-keyboard-response","68","85792","0.0-6.0-0.31","ADKI","2","m","rechts","22","","fixation","","","",""
"982","img/150_300.png","74","image-keyboard-response","69","86789","0.0-6.0-1.31","ADKI","2","m","rechts","22","","","object","j","150","true"
"null","<div style=""font-size:60px;"">+</div>","null","html-keyboard-response","70","87212","0.0-6.0-0.32","ADKI","2","m","rechts","22","","fixation","","","",""
"908","img/120_30.png","70","image-keyboard-response","71","88138","0.0-6.0-1.32","ADKI","2","m","rechts","22","","","object","f","120","true"
"null","<div style=""font-size:60px;"">+</div>","null","html-keyboard-response","72","88649","0.0-6.0-0.33","ADKI","2","m","rechts","22","","fixation","","","",""
"1192","img/30_240.png","70","image-keyboard-response","73","89859","0.0-6.0-1.33","ADKI","2","m","rechts","22","","","object","f","30","true"
"null","<div style=""font-size:60px;"">+</div>","null","html-keyboard-response","74","90339","0.0-6.0-0.34","ADKI","2","m","rechts","22","","fixation","","","",""
"1178","img/60_30.png","70","image-keyboard-response","75","91534","0.0-6.0-1.34","ADKI","2","m","rechts","22","","","object","f","60","true"
"null","<div style=""font-size:60px;"">+</div>","null","html-keyboard-response","76","91902","0.0-6.0-0.35","ADKI","2","m","rechts","22","","fixation","","","",""
"1078","img/L120_180.png","74","image-keyboard-response","77","92997","0.0-6.0-1.35","ADKI","2","m","rechts","22","","","object","j","120","true"
"null","<div style=""font-size:60px;"">+</div>","null","html-keyboard-response","78","93464","0.0-6.0-0.36","ADKI","2","m","rechts","22","","fixation","","","",""
"1243","img/30_180.png","70","image-keyboard-response","79","94720","0.0-6.0-1.36","ADKI","2","m","rechts","22","","","object","f","30","true"
"null","<div style=""font-size:60px;"">+</div>","null","html-keyboard-response","80","95027","0.0-6.0-0.37","ADKI","2","m","rechts","22","","fixation","","","",""
"2240","img/60_150.png","74","image-keyboard-response","81","97285","0.0-6.0-1.37","ADKI","2","m","rechts","22","","","object","j","60","true"
"null","<div style=""font-size:60px;"">+</div>","null","html-keyboard-response","82","97745","0.0-6.0-0.38","ADKI","2","m","rechts","22","","fixation","","","",""
"939","img/0_330.png","70","image-keyboard-response","83","98703","0.0-6.0-1.38","ADKI","2","m","rechts","22","","","object","f","0","true"
"null","<div style=""font-size:60px;"">+</div>","null","html-keyboard-response","84","99058","0.0-6.0-0.39","ADKI","2","m","rechts","22","","fixation","","","",""
"1291","img/90_300.png","74","image-keyboard-response","85","100368","0.0-6.0-1.39","ADKI","2","m","rechts","22","","","object","j","90","true"
"null","<div style=""font-size:60px;"">+</div>","null","html-keyboard-response","86","100824","0.0-6.0-0.40","ADKI","2","m","rechts","22","","fixation","","","",""
"1596","img/L30_180.png","74","image-keyboard-response","87","102438","0.0-6.0-1.40","ADKI","2","m","rechts","22","","","object","j","30","true"
"null","<div style=""font-size:60px;"">+</div>","null","html-keyboard-response","88","102746","0.0-6.0-0.41","ADKI","2","m","rechts","22","","fixation","","","",""
"1360","img/90_30.png","70","image-keyboard-response","89","104125","0.0-6.0-1.41","ADKI","2","m","rechts","22","","","object","f","90","true"
"null","<div style=""font-size:60px;"">+</div>","null","html-keyboard-response","90","104496","0.0-6.0-0.42","ADKI","2","m","rechts","22","","fixation","","","",""
"1722","img/60_180.png","70","image-keyboard-response","91","106239","0.0-6.0-1.42","ADKI","2","m","rechts","22","","","object","f","60","true"
"null","<div style=""font-size:60px;"">+</div>","null","html-keyboard-response","92","106746","0.0-6.0-0.43","ADKI","2","m","rechts","22","","fixation","","","",""
"1883","img/150_60.png","70","image-keyboard-response","93","108647","0.0-6.0-1.43","ADKI","2","m","rechts","22","","","object","f","150","true"
"null","<div style=""font-size:60px;"">+</div>","null","html-keyboard-response","94","109184","0.0-6.0-0.44","ADKI","2","m","rechts","22","","fixation","","","",""
"940","img/0_120.png","74","image-keyboard-response","95","110141","0.0-6.0-1.44","ADKI","2","m","rechts","22","","","object","j","0","true"
"null","<div style=""font-size:60px;"">+</div>","null","html-keyboard-response","96","110448","0.0-6.0-0.45","ADKI","2","m","rechts","22","","fixation","","","",""
"1260","img/150_270.png","74","image-keyboard-response","97","111729","0.0-6.0-1.45","ADKI","2","m","rechts","22","","","object","j","150","true"
"null","<div style=""font-size:60px;"">+</div>","null","html-keyboard-response","98","112231","0.0-6.0-0.46","ADKI","2","m","rechts","22","","fixation","","","",""
"1239","img/150_120.png","70","image-keyboard-response","99","113485","0.0-6.0-1.46","ADKI","2","m","rechts","22","","","object","f","150","true"
"null","<div style=""font-size:60px;"">+</div>","null","html-keyboard-response","100","113841","0.0-6.0-0.47","ADKI","2","m","rechts","22","","fixation","","","",""
"808","img/0_210.png","70","image-keyboard-response","101","114667","0.0-6.0-1.47","ADKI","2","m","rechts","22","","","object","f","0","true"
"null","<div style=""font-size:60px;"">+</div>","null","html-keyboard-response","102","114997","0.0-6.0-0.48","ADKI","2","m","rechts","22","","fixation","","","",""
"987","img/30_270.png","70","image-keyboard-response","103","116005","0.0-6.0-1.48","ADKI","2","m","rechts","22","","","object","f","30","true"
"null","<div style=""font-size:60px;"">+</div>","null","html-keyboard-response","104","116434","0.0-6.0-0.49","ADKI","2","m","rechts","22","","fixation","","","",""
"835","img/0_240.png","70","image-keyboard-response","105","117287","0.0-6.0-1.49","ADKI","2","m","rechts","22","","","object","f","0","true"
"null","<div style=""font-size:60px;"">+</div>","null","html-keyboard-response","106","117746","0.0-6.0-0.50","ADKI","2","m","rechts","22","","fixation","","","",""
"874","img/120_330.png","74","image-keyboard-response","107","118637","0.0-6.0-1.50","ADKI","2","m","rechts","22","","","object","j","120","true"
"null","<div style=""font-size:60px;"">+</div>","null","html-keyboard-response","108","118949","0.0-6.0-0.51","ADKI","2","m","rechts","22","","fixation","","","",""
"1437","img/L150_180.png","74","image-keyboard-response","109","120404","0.0-6.0-1.51","ADKI","2","m","rechts","22","","","object","j","150","true"
"null","<div style=""font-size:60px;"">+</div>","null","html-keyboard-response","110","120858","0.0-6.0-0.52","ADKI","2","m","rechts","22","","fixation","","","",""
"1040","img/150_90.png","70","image-keyboard-response","111","121911","0.0-6.0-1.52","ADKI","2","m","rechts","22","","","object","f","150","true"
"null","<div style=""font-size:60px;"">+</div>","null","html-keyboard-response","112","122343","0.0-6.0-0.53","ADKI","2","m","rechts","22","","fixation","","","",""
"850","img/L90_180.png","74","image-keyboard-response","113","123205","0.0-6.0-1.53","ADKI","2","m","rechts","22","","","object","j","90","true"
"null","<div style=""font-size:60px;"">+</div>","null","html-keyboard-response","114","123577","0.0-6.0-0.54","ADKI","2","m","rechts","22","","fixation","","","",""
"715","img/0_330.png","70","image-keyboard-response","115","124296","0.0-6.0-1.54","ADKI","2","m","rechts","22","","","object","f","0","true"
"null","<div style=""font-size:60px;"">+</div>","null","html-keyboard-response","116","124701","0.0-6.0-0.55","ADKI","2","m","rechts","22","","fixation","","","",""
"784","img/30_120.png","74","image-keyboard-response","117","125499","0.0-6.0-1.55","ADKI","2","m","rechts","22","","","object","j","30","true"
"null","<div style=""font-size:60px;"">+</div>","null","html-keyboard-response","118","125811","0.0-6.0-0.56","ADKI","2","m","rechts","22","","fixation","","","",""
"872","img/0_120.png","74","image-keyboard-response","119","126692","0.0-6.0-1.56","ADKI","2","m","rechts","22","","","object","j","0","true"
"null","<div style=""font-size:60px;"">+</div>","null","html-keyboard-response","120","127123","0.0-6.0-0.57","ADKI","2","m","rechts","22","","fixation","","","",""
"843","img/0_240.png","70","image-keyboard-response","121","127975","0.0-6.0-1.57","ADKI","2","m","rechts","22","","","object","f","0","true"
"null","<div style=""font-size:60px;"">+</div>","null","html-keyboard-response","122","128389","0.0-6.0-0.58","ADKI","2","m","rechts","22","","fixation","","","",""
"1005","img/60_180.png","70","image-keyboard-response","123","129404","0.0-6.0-1.58","ADKI","2","m","rechts","22","","","object","f","60","true"
"null","<div style=""font-size:60px;"">+</div>","null","html-keyboard-response","124","129923","0.0-6.0-0.59","ADKI","2","m","rechts","22","","fixation","","","",""
"1134","img/90_120.png","74","image-keyboard-response","125","131070","0.0-6.0-1.59","ADKI","2","m","rechts","22","","","object","j","90","true"
"null","<div style=""font-size:60px;"">+</div>","null","html-keyboard-response","126","131530","0.0-6.0-0.60","ADKI","2","m","rechts","22","","fixation","","","",""
"888","img/L30_180.png","74","image-keyboard-response","127","132429","0.0-6.0-1.60","ADKI","2","m","rechts","22","","","object","j","30","true"
"null","<div style=""font-size:60px;"">+</div>","null","html-keyboard-response","128","132949","0.0-6.0-0.61","ADKI","2","m","rechts","22","","fixation","","","",""
"1081","img/120_330.png","74","image-keyboard-response","129","134039","0.0-6.0-1.61","ADKI","2","m","rechts","22","","","object","j","120","true"
"null","<div style=""font-size:60px;"">+</div>","null","html-keyboard-response","130","134562","0.0-6.0-0.62","ADKI","2","m","rechts","22","","fixation","","","",""
"876","img/60_30.png","70","image-keyboard-response","131","135444","0.0-6.0-1.62","ADKI","2","m","rechts","22","","","object","f","60","true"
"null","<div style=""font-size:60px;"">+</div>","null","html-keyboard-response","132","135859","0.0-6.0-0.63","ADKI","2","m","rechts","22","","fixation","","","",""
"833","img/0_270.png","70","image-keyboard-response","133","136703","0.0-6.0-1.63","ADKI","2","m","rechts","22","","","object","f","0","true"
"null","<div style=""font-size:60px;"">+</div>","null","html-keyboard-response","134","137062","0.0-6.0-0.64","ADKI","2","m","rechts","22","","fixation","","","",""
"826","img/L120_180.png","74","image-keyboard-response","135","137897","0.0-6.0-1.64","ADKI","2","m","rechts","22","","","object","j","120","true"
"null","<div style=""font-size:60px;"">+</div>","null","html-keyboard-response","136","138360","0.0-6.0-0.65","ADKI","2","m","rechts","22","","fixation","","","",""
"1178","img/120_90.png","70","image-keyboard-response","137","139550","0.0-6.0-1.65","ADKI","2","m","rechts","22","","","object","f","120","true"
"null","<div style=""font-size:60px;"">+</div>","null","html-keyboard-response","138","140017","0.0-6.0-0.66","ADKI","2","m","rechts","22","","fixation","","","",""
"1275","img/90_210.png","70","image-keyboard-response","139","141305","0.0-6.0-1.66","ADKI","2","m","rechts","22","","","object","f","90","true"
"null","<div style=""font-size:60px;"">+</div>","null","html-keyboard-response","140","141814","0.0-6.0-0.67","ADKI","2","m","rechts","22","","fixation","","","",""
"934","img/60_150.png","74","image-keyboard-response","141","142758","0.0-6.0-1.67","ADKI","2","m","rechts","22","","","object","j","60","true"
"null","<div style=""font-size:60px;"">+</div>","null","html-keyboard-response","142","143179","0.0-6.0-0.68","ADKI","2","m","rechts","22","","fixation","","","",""
"1451","img/60_210.png","70","image-keyboard-response","143","144646","0.0-6.0-1.68","ADKI","2","m","rechts","22","","","object","f","60","true"
"null","<div style=""font-size:60px;"">+</div>","null","html-keyboard-response","144","145164","0.0-6.0-0.69","ADKI","2","m","rechts","22","","fixation","","","",""
"860","img/90_30.png","70","image-keyboard-response","145","146031","0.0-6.0-1.69","ADKI","2","m","rechts","22","","","object","f","90","true"
"null","<div style=""font-size:60px;"">+</div>","null","html-keyboard-response","146","146460","0.0-6.0-0.70","ADKI","2","m","rechts","22","","fixation","","","",""
"1585","img/30_240.png","70","image-keyboard-response","147","148054","0.0-6.0-1.70","ADKI","2","m","rechts","22","","","object","f","30","true"
"null","<div style=""font-size:60px;"">+</div>","null","html-keyboard-response","148","148381","0.0-6.0-0.71","ADKI","2","m","rechts","22","","fixation","","","",""
"1320","img/150_300.png","74","image-keyboard-response","149","149710","0.0-6.0-1.71","ADKI","2","m","rechts","22","","","object","j","150","true"
"null","<div style=""font-size:60px;"">+</div>","null","html-keyboard-response","150","150260","0.0-6.0-0.72","ADKI","2","m","rechts","22","","fixation","","","",""
"780","img/0_90.png","74","image-keyboard-response","151","151049","0.0-6.0-1.72","ADKI","2","m","rechts","22","","","object","j","0","true"
"null","<div style=""font-size:60px;"">+</div>","null","html-keyboard-response","152","151351","0.0-6.0-0.73","ADKI","2","m","rechts","22","","fixation","","","",""
"840","img/0_30.png","74","image-keyboard-response","153","152197","0.0-6.0-1.73","ADKI","2","m","rechts","22","","","object","j","0","true"
"null","<div style=""font-size:60px;"">+</div>","null","html-keyboard-response","154","152664","0.0-6.0-0.74","ADKI","2","m","rechts","22","","fixation","","","",""
"1836","img/30_60.png","74","image-keyboard-response","155","154515","0.0-6.0-1.74","ADKI","2","m","rechts","22","","","object","j","30","true"
"null","<div style=""font-size:60px;"">+</div>","null","html-keyboard-response","156","155023","0.0-6.0-0.75","ADKI","2","m","rechts","22","","fixation","","","",""
"1314","img/30_300.png","70","image-keyboard-response","157","156348","0.0-6.0-1.75","ADKI","2","m","rechts","22","","","object","f","30","true"
"null","<div style=""font-size:60px;"">+</div>","null","html-keyboard-response","158","156820","0.0-6.0-0.76","ADKI","2","m","rechts","22","","fixation","","","",""
"809","img/90_330.png","74","image-keyboard-response","159","157642","0.0-6.0-1.76","ADKI","2","m","rechts","22","","","object","j","90","true"
"null","<div style=""font-size:60px;"">+</div>","null","html-keyboard-response","160","157945","0.0-6.0-0.77","ADKI","2","m","rechts","22","","fixation","","","",""
"841","img/90_60.png","70","image-keyboard-response","161","158801","0.0-6.0-1.77","ADKI","2","m","rechts","22","","","object","f","90","true"
"null","<div style=""font-size:60px;"">+</div>","null","html-keyboard-response","162","159166","0.0-6.0-0.78","ADKI","2","m","rechts","22","","fixation","","","",""
"1096","img/60_90.png","74","image-keyboard-response","163","160274","0.0-6.0-1.78","ADKI","2","m","rechts","22","","","object","j","60","true"
"null","<div style=""font-size:60px;"">+</div>","null","html-keyboard-response","164","160697","0.0-6.0-0.79","ADKI","2","m","rechts","22","","fixation","","","",""
"768","img/0_60.png","74","image-keyboard-response","165","161478","0.0-6.0-1.79","ADKI","2","m","rechts","22","","","object","j","0","true"
"null","<div style=""font-size:60px;"">+</div>","null","html-keyboard-response","166","161837","0.0-6.0-0.80","ADKI","2","m","rechts","22","","fixation","","","",""
"922","img/0_150.png","74","image-keyboard-response","167","162772","0.0-6.0-1.80","ADKI","2","m","rechts","22","","","object","j","0","true"
"null","<div style=""font-size:60px;"">+</div>","null","html-keyboard-response","168","163275","0.0-6.0-0.81","ADKI","2","m","rechts","22","","fixation","","","",""
"834","img/120_30.png","70","image-keyboard-response","169","164122","0.0-6.0-1.81","ADKI","2","m","rechts","22","","","object","f","120","true"
"null","<div style=""font-size:60px;"">+</div>","null","html-keyboard-response","170","164478","0.0-6.0-0.82","ADKI","2","m","rechts","22","","fixation","","","",""
"925","img/90_150.png","74","image-keyboard-response","171","165417","0.0-6.0-1.82","ADKI","2","m","rechts","22","","","object","j","90","true"
"null","<div style=""font-size:60px;"">+</div>","null","html-keyboard-response","172","165931","0.0-6.0-0.83","ADKI","2","m","rechts","22","","fixation","","","",""
"1070","img/30_180.png","70","image-keyboard-response","173","167011","0.0-6.0-1.83","ADKI","2","m","rechts","22","","","object","f","30","true"
"null","<div style=""font-size:60px;"">+</div>","null","html-keyboard-response","174","167494","0.0-6.0-0.84","ADKI","2","m","rechts","22","","fixation","","","",""
"949","img/30_270.png","70","image-keyboard-response","175","168452","0.0-6.0-1.84","ADKI","2","m","rechts","22","","","object","f","30","true"
"null","<div style=""font-size:60px;"">+</div>","null","html-keyboard-response","176","168915","0.0-6.0-0.85","ADKI","2","m","rechts","22","","fixation","","","",""
"953","img/150_240.png","74","image-keyboard-response","177","169881","0.0-6.0-1.85","ADKI","2","m","rechts","22","","","object","j","150","true"
"null","<div style=""font-size:60px;"">+</div>","null","html-keyboard-response","178","170197","0.0-6.0-0.86","ADKI","2","m","rechts","22","","fixation","","","",""
"716","img/0_300.png","70","image-keyboard-response","179","170926","0.0-6.0-1.86","ADKI","2","m","rechts","22","","","object","f","0","true"
"null","<div style=""font-size:60px;"">+</div>","null","html-keyboard-response","180","171292","0.0-6.0-0.87","ADKI","2","m","rechts","22","","fixation","","","",""
"915","img/120_270.png","74","image-keyboard-response","181","172222","0.0-6.0-1.87","ADKI","2","m","rechts","22","","","object","j","120","true"
"null","<div style=""font-size:60px;"">+</div>","null","html-keyboard-response","182","172681","0.0-6.0-0.88","ADKI","2","m","rechts","22","","fixation","","","",""
"864","img/90_180.png","70","image-keyboard-response","183","173559","0.0-6.0-1.88","ADKI","2","m","rechts","22","","","object","f","90","true"
"null","<div style=""font-size:60px;"">+</div>","null","html-keyboard-response","184","174010","0.0-6.0-0.89","ADKI","2","m","rechts","22","","fixation","","","",""
"977","img/120_180.png","70","image-keyboard-response","185","175001","0.0-6.0-1.89","ADKI","2","m","rechts","22","","","object","f","120","true"
"null","<div style=""font-size:60px;"">+</div>","null","html-keyboard-response","186","175511","0.0-6.0-0.90","ADKI","2","m","rechts","22","","fixation","","","",""
"1234","img/150_120.png","74","image-keyboard-response","187","176757","0.0-6.0-1.90","ADKI","2","m","rechts","22","","","object","f","150","false"
"null","<div style=""font-size:60px;"">+</div>","null","html-keyboard-response","188","177213","0.0-6.0-0.91","ADKI","2","m","rechts","22","","fixation","","","",""
"2116","img/120_210.png","70","image-keyboard-response","189","179343","0.0-6.0-1.91","ADKI","2","m","rechts","22","","","object","f","120","true"
"null","<div style=""font-size:60px;"">+</div>","null","html-keyboard-response","190","179855","0.0-6.0-0.92","ADKI","2","m","rechts","22","","fixation","","","",""
"1817","img/L60_180.png","74","image-keyboard-response","191","181685","0.0-6.0-1.92","ADKI","2","m","rechts","22","","","object","j","60","true"
"null","<div style=""font-size:60px;"">+</div>","null","html-keyboard-response","192","182089","0.0-6.0-0.93","ADKI","2","m","rechts","22","","fixation","","","",""
"1385","img/150_270.png","74","image-keyboard-response","193","183482","0.0-6.0-1.93","ADKI","2","m","rechts","22","","","object","j","150","true"
"null","<div style=""font-size:60px;"">+</div>","null","html-keyboard-response","194","183885","0.0-6.0-0.94","ADKI","2","m","rechts","22","","fixation","","","",""
"1340","img/90_300.png","74","image-keyboard-response","195","185239","0.0-6.0-1.94","ADKI","2","m","rechts","22","","","object","j","90","true"
"null","<div style=""font-size:60px;"">+</div>","null","html-keyboard-response","196","185620","0.0-6.0-0.95","ADKI","2","m","rechts","22","","fixation","","","",""
"1291","img/30_90.png","74","image-keyboard-response","197","186927","0.0-6.0-1.95","ADKI","2","m","rechts","22","","","object","j","30","true"
"null","<div style=""font-size:60px;"">+</div>","null","html-keyboard-response","198","187386","0.0-6.0-0.96","ADKI","2","m","rechts","22","","fixation","","","",""
"1004","img/0_210.png","70","image-keyboard-response","199","188400","0.0-6.0-1.96","ADKI","2","m","rechts","22","","","object","f","0","true"
"null","<div style=""font-size:60px;"">+</div>","null","html-keyboard-response","200","188918","0.0-6.0-0.97","ADKI","2","m","rechts","22","","fixation","","","",""
"1212","img/120_150.png","74","image-keyboard-response","201","190144","0.0-6.0-1.97","ADKI","2","m","rechts","22","","","object","j","120","true"
"null","<div style=""font-size:60px;"">+</div>","null","html-keyboard-response","202","190456","0.0-6.0-0.98","ADKI","2","m","rechts","22","","fixation","","","",""
"1556","img/L150_180.png","74","image-keyboard-response","203","192022","0.0-6.0-1.98","ADKI","2","m","rechts","22","","","object","j","150","true"
"null","<div style=""font-size:60px;"">+</div>","null","html-keyboard-response","204","192403","0.0-6.0-0.99","ADKI","2","m","rechts","22","","fixation","","","",""
"1125","img/150_180.png","70","image-keyboard-response","205","193541","0.0-6.0-1.99","ADKI","2","m","rechts","22","","","object","f","150","true"
"null","<div style=""font-size:60px;"">+</div>","null","html-keyboard-response","206","194045","0.0-6.0-0.100","ADKI","2","m","rechts","22","","fixation","","","",""
"809","img/60_330.png","74","image-keyboard-response","207","194867","0.0-6.0-1.100","ADKI","2","m","rechts","22","","","object","j","60","true"
"null","<div style=""font-size:60px;"">+</div>","null","html-keyboard-response","208","195183","0.0-6.0-0.101","ADKI","2","m","rechts","22","","fixation","","","",""
"1247","img/150_60.png","70","image-keyboard-response","209","196443","0.0-6.0-1.101","ADKI","2","m","rechts","22","","","object","f","150","true"
"null","<div style=""font-size:60px;"">+</div>","null","html-keyboard-response","210","196809","0.0-6.0-0.102","ADKI","2","m","rechts","22","","fixation","","","",""
"2040","img/90_240.png","70","image-keyboard-response","211","198862","0.0-6.0-1.102","ADKI","2","m","rechts","22","","","object","f","90","true"
"null","<div style=""font-size:60px;"">+</div>","null","html-keyboard-response","212","199169","0.0-6.0-0.103","ADKI","2","m","rechts","22","","fixation","","","",""
"1750","img/60_270.png","70","image-keyboard-response","213","200933","0.0-6.0-1.103","ADKI","2","m","rechts","22","","","object","f","60","true"
"null","<div style=""font-size:60px;"">+</div>","null","html-keyboard-response","214","201343","0.0-6.0-0.104","ADKI","2","m","rechts","22","","fixation","","","",""
"1583","img/30_90.png","74","image-keyboard-response","215","202936","0.0-6.0-1.104","ADKI","2","m","rechts","22","","","object","j","30","true"
"null","<div style=""font-size:60px;"">+</div>","null","html-keyboard-response","216","203248","0.0-6.0-0.105","ADKI","2","m","rechts","22","","fixation","","","",""
"1838","img/L60_180.png","74","image-keyboard-response","217","205096","0.0-6.0-1.105","ADKI","2","m","rechts","22","","","object","j","60","true"
"null","<div style=""font-size:60px;"">+</div>","null","html-keyboard-response","218","205623","0.0-6.0-0.106","ADKI","2","m","rechts","22","","fixation","","","",""
"760","img/0_150.png","74","image-keyboard-response","219","206389","0.0-6.0-1.106","ADKI","2","m","rechts","22","","","object","j","0","true"
"null","<div style=""font-size:60px;"">+</div>","null","html-keyboard-response","220","206747","0.0-6.0-0.107","ADKI","2","m","rechts","22","","fixation","","","",""
"1499","img/120_150.png","74","image-keyboard-response","221","208257","0.0-6.0-1.107","ADKI","2","m","rechts","22","","","object","j","120","true"
"null","<div style=""font-size:60px;"">+</div>","null","html-keyboard-response","222","208716","0.0-6.0-0.108","ADKI","2","m","rechts","22","","fixation","","","",""
"1655","img/30_270.png","74","image-keyboard-response","223","210382","0.0-6.0-1.108","ADKI","2","m","rechts","22","","","object","f","30","false"
"null","<div style=""font-size:60px;"">+</div>","null","html-keyboard-response","224","210891","0.0-6.0-0.109","ADKI","2","m","rechts","22","","fixation","","","",""
"1600","img/L150_180.png","74","image-keyboard-response","225","212498","0.0-6.0-1.109","ADKI","2","m","rechts","22","","","object","j","150","true"
"null","<div style=""font-size:60px;"">+</div>","null","html-keyboard-response","226","213010","0.0-6.0-0.110","ADKI","2","m","rechts","22","","fixation","","","",""
"1481","img/60_330.png","74","image-keyboard-response","227","214499","0.0-6.0-1.110","ADKI","2","m","rechts","22","","","object","j","60","true"
"null","<div style=""font-size:60px;"">+</div>","null","html-keyboard-response","228","214907","0.0-6.0-0.111","ADKI","2","m","rechts","22","","fixation","","","",""
"1830","img/150_300.png","74","image-keyboard-response","229","216750","0.0-6.0-1.111","ADKI","2","m","rechts","22","","","object","j","150","true"
"null","<div style=""font-size:60px;"">+</div>","null","html-keyboard-response","230","217157","0.0-6.0-0.112","ADKI","2","m","rechts","22","","fixation","","","",""
"1304","img/120_210.png","70","image-keyboard-response","231","218472","0.0-6.0-1.112","ADKI","2","m","rechts","22","","","object","f","120","true"
"null","<div style=""font-size:60px;"">+</div>","null","html-keyboard-response","232","218939","0.0-6.0-0.113","ADKI","2","m","rechts","22","","fixation","","","",""
"750","img/0_60.png","74","image-keyboard-response","233","219698","0.0-6.0-1.113","ADKI","2","m","rechts","22","","","object","j","0","true"
"null","<div style=""font-size:60px;"">+</div>","null","html-keyboard-response","234","220110","0.0-6.0-0.114","ADKI","2","m","rechts","22","","fixation","","","",""
"1407","img/L30_180.png","74","image-keyboard-response","235","221532","0.0-6.0-1.114","ADKI","2","m","rechts","22","","","object","j","30","true"
"null","<div style=""font-size:60px;"">+</div>","null","html-keyboard-response","236","222063","0.0-6.0-0.115","ADKI","2","m","rechts","22","","fixation","","","",""
"1945","img/120_30.png","70","image-keyboard-response","237","224018","0.0-6.0-1.115","ADKI","2","m","rechts","22","","","object","f","120","true"
"null","<div style=""font-size:60px;"">+</div>","null","html-keyboard-response","238","224424","0.0-6.0-0.116","ADKI","2","m","rechts","22","","fixation","","","",""
"1677","img/60_90.png","74","image-keyboard-response","239","226110","0.0-6.0-1.116","ADKI","2","m","rechts","22","","","object","j","60","true"
"null","<div style=""font-size:60px;"">+</div>","null","html-keyboard-response","240","226627","0.0-6.0-0.117","ADKI","2","m","rechts","22","","fixation","","","",""
"1645","img/90_120.png","74","image-keyboard-response","241","228282","0.0-6.0-1.117","ADKI","2","m","rechts","22","","","object","j","90","true"
"null","<div style=""font-size:60px;"">+</div>","null","html-keyboard-response","242","228798","0.0-6.0-0.118","ADKI","2","m","rechts","22","","fixation","","","",""
"1248","img/60_210.png","70","image-keyboard-response","243","230058","0.0-6.0-1.118","ADKI","2","m","rechts","22","","","object","f","60","true"
"null","<div style=""font-size:60px;"">+</div>","null","html-keyboard-response","244","230426","0.0-6.0-0.119","ADKI","2","m","rechts","22","","fixation","","","",""
"1873","img/60_270.png","70","image-keyboard-response","245","232307","0.0-6.0-1.119","ADKI","2","m","rechts","22","","","object","f","60","true"
"null","<div style=""font-size:60px;"">+</div>","null","html-keyboard-response","246","232815","0.0-6.0-0.120","ADKI","2","m","rechts","22","","fixation","","","",""
"953","img/60_180.png","70","image-keyboard-response","247","233783","0.0-6.0-1.120","ADKI","2","m","rechts","22","","","object","f","60","true"
"null","<div style=""font-size:60px;"">+</div>","null","html-keyboard-response","248","234191","0.0-6.0-0.121","ADKI","2","m","rechts","22","","fixation","","","",""
"932","img/30_180.png","70","image-keyboard-response","249","235132","0.0-6.0-1.121","ADKI","2","m","rechts","22","","","object","f","30","true"
"null","<div style=""font-size:60px;"">+</div>","null","html-keyboard-response","250","235503","0.0-6.0-0.122","ADKI","2","m","rechts","22","","fixation","","","",""
"1398","img/120_90.png","70","image-keyboard-response","251","236910","0.0-6.0-1.122","ADKI","2","m","rechts","22","","","object","f","120","true"
"null","<div style=""font-size:60px;"">+</div>","null","html-keyboard-response","252","237236","0.0-6.0-0.123","ADKI","2","m","rechts","22","","fixation","","","",""
"1273","img/30_60.png","74","image-keyboard-response","253","238521","0.0-6.0-1.123","ADKI","2","m","rechts","22","","","object","j","30","true"
"null","<div style=""font-size:60px;"">+</div>","null","html-keyboard-response","254","238940","0.0-6.0-0.124","ADKI","2","m","rechts","22","","fixation","","","",""
"1460","img/90_240.png","70","image-keyboard-response","255","240409","0.0-6.0-1.124","ADKI","2","m","rechts","22","","","object","f","90","true"
"null","<div style=""font-size:60px;"">+</div>","null","html-keyboard-response","256","240818","0.0-6.0-0.125","ADKI","2","m","rechts","22","","fixation","","","",""
"1302","img/90_60.png","70","image-keyboard-response","257","242131","0.0-6.0-1.125","ADKI","2","m","rechts","22","","","object","f","90","true"
"null","<div style=""font-size:60px;"">+</div>","null","html-keyboard-response","258","242457","0.0-6.0-0.126","ADKI","2","m","rechts","22","","fixation","","","",""
"1564","img/90_300.png","74","image-keyboard-response","259","244032","0.0-6.0-1.126","ADKI","2","m","rechts","22","","","object","j","90","true"
"null","<div style=""font-size:60px;"">+</div>","null","html-keyboard-response","260","244365","0.0-6.0-0.127","ADKI","2","m","rechts","22","","fixation","","","",""
"1533","img/120_330.png","74","image-keyboard-response","261","245910","0.0-6.0-1.127","ADKI","2","m","rechts","22","","","object","j","120","true"
"null","<div style=""font-size:60px;"">+</div>","null","html-keyboard-response","262","246317","0.0-6.0-0.128","ADKI","2","m","rechts","22","","fixation","","","",""
"2204","img/90_30.png","70","image-keyboard-response","263","248533","0.0-6.0-1.128","ADKI","2","m","rechts","22","","","object","f","90","true"
"null","<div style=""font-size:60px;"">+</div>","null","html-keyboard-response","264","248848","0.0-6.0-0.129","ADKI","2","m","rechts","22","","fixation","","","",""
"1246","img/L120_180.png","74","image-keyboard-response","265","250106","0.0-6.0-1.129","ADKI","2","m","rechts","22","","","object","j","120","true"
"null","<div style=""font-size:60px;"">+</div>","null","html-keyboard-response","266","250620","0.0-6.0-0.130","ADKI","2","m","rechts","22","","fixation","","","",""
"1051","img/120_180.png","70","image-keyboard-response","267","251682","0.0-6.0-1.130","ADKI","2","m","rechts","22","","","object","f","120","true"
"null","<div style=""font-size:60px;"">+</div>","null","html-keyboard-response","268","252114","0.0-6.0-0.131","ADKI","2","m","rechts","22","","fixation","","","",""
"1153","img/150_60.png","70","image-keyboard-response","269","253279","0.0-6.0-1.131","ADKI","2","m","rechts","22","","","object","f","150","true"
"null","<div style=""font-size:60px;"">+</div>","null","html-keyboard-response","270","253788","0.0-6.0-0.132","ADKI","2","m","rechts","22","","fixation","","","",""
"2081","img/150_240.png","74","image-keyboard-response","271","255879","0.0-6.0-1.132","ADKI","2","m","rechts","22","","","object","j","150","true"
"null","<div style=""font-size:60px;"">+</div>","null","html-keyboard-response","272","256242","0.0-6.0-0.133","ADKI","2","m","rechts","22","","fixation","","","",""
"782","img/0_210.png","70","image-keyboard-response","273","257039","0.0-6.0-1.133","ADKI","2","m","rechts","22","","","object","f","0","true"
"null","<div style=""font-size:60px;"">+</div>","null","html-keyboard-response","274","257351","0.0-6.0-0.134","ADKI","2","m","rechts","22","","fixation","","","",""
"875","img/60_30.png","70","image-keyboard-response","275","258240","0.0-6.0-1.134","ADKI","2","m","rechts","22","","","object","f","60","true"
"null","<div style=""font-size:60px;"">+</div>","null","html-keyboard-response","276","258554","0.0-6.0-0.135","ADKI","2","m","rechts","22","","fixation","","","",""
"1693","img/150_270.png","74","image-keyboard-response","277","260259","0.0-6.0-1.135","ADKI","2","m","rechts","22","","","object","j","150","true"
"null","<div style=""font-size:60px;"">+</div>","null","html-keyboard-response","278","260725","0.0-6.0-0.136","ADKI","2","m","rechts","22","","fixation","","","",""
"917","img/0_330.png","70","image-keyboard-response","279","261651","0.0-6.0-1.136","ADKI","2","m","rechts","22","","","object","f","0","true"
"null","<div style=""font-size:60px;"">+</div>","null","html-keyboard-response","280","262164","0.0-6.0-0.137","ADKI","2","m","rechts","22","","fixation","","","",""
"928","img/0_30.png","74","image-keyboard-response","281","263105","0.0-6.0-1.137","ADKI","2","m","rechts","22","","","object","j","0","true"
"null","<div style=""font-size:60px;"">+</div>","null","html-keyboard-response","282","263585","0.0-6.0-0.138","ADKI","2","m","rechts","22","","fixation","","","",""
"1746","img/30_240.png","70","image-keyboard-response","283","265339","0.0-6.0-1.138","ADKI","2","m","rechts","22","","","object","f","30","true"
"null","<div style=""font-size:60px;"">+</div>","null","html-keyboard-response","284","265820","0.0-6.0-0.139","ADKI","2","m","rechts","22","","fixation","","","",""
"1881","img/120_270.png","74","image-keyboard-response","285","267712","0.0-6.0-1.139","ADKI","2","m","rechts","22","","","object","j","120","true"
"null","<div style=""font-size:60px;"">+</div>","null","html-keyboard-response","286","268243","0.0-6.0-0.140","ADKI","2","m","rechts","22","","fixation","","","",""
"1373","img/150_120.png","70","image-keyboard-response","287","269627","0.0-6.0-1.140","ADKI","2","m","rechts","22","","","object","f","150","true"
"null","<div style=""font-size:60px;"">+</div>","null","html-keyboard-response","288","270054","0.0-6.0-0.141","ADKI","2","m","rechts","22","","fixation","","","",""
"null","img/0_240.png","null","image-keyboard-response","289","273086","0.0-6.0-1.141","ADKI","2","m","rechts","22","","","object","f","0","false"
"null","<div style=""font-size:60px;"">+</div>","null","html-keyboard-response","290","273461","0.0-6.0-0.142","ADKI","2","m","rechts","22","","fixation","","","",""
"957","img/90_150.png","74","image-keyboard-response","291","274430","0.0-6.0-1.142","ADKI","2","m","rechts","22","","","object","j","90","true"
"null","<div style=""font-size:60px;"">+</div>","null","html-keyboard-response","292","274884","0.0-6.0-0.143","ADKI","2","m","rechts","22","","fixation","","","",""
"858","img/90_210.png","70","image-keyboard-response","293","275755","0.0-6.0-1.143","ADKI","2","m","rechts","22","","","object","f","90","true"
"null","<div style=""font-size:60px;"">+</div>","null","html-keyboard-response","294","276073","0.0-6.0-0.144","ADKI","2","m","rechts","22","","fixation","","","",""
"1127","img/150_180.png","70","image-keyboard-response","295","277209","0.0-6.0-1.144","ADKI","2","m","rechts","22","","","object","f","150","true"
"null","<div style=""font-size:60px;"">+</div>","null","html-keyboard-response","296","277681","0.0-6.0-0.145","ADKI","2","m","rechts","22","","fixation","","","",""
"885","img/60_150.png","74","image-keyboard-response","297","278580","0.0-6.0-1.145","ADKI","2","m","rechts","22","","","object","j","60","true"
"null","<div style=""font-size:60px;"">+</div>","null","html-keyboard-response","298","279009","0.0-6.0-0.146","ADKI","2","m","rechts","22","","fixation","","","",""
"900","img/0_300.png","70","image-keyboard-response","299","279919","0.0-6.0-1.146","ADKI","2","m","rechts","22","","","object","f","0","true"
"null","<div style=""font-size:60px;"">+</div>","null","html-keyboard-response","300","280274","0.0-6.0-0.147","ADKI","2","m","rechts","22","","fixation","","","",""
"903","img/L90_180.png","74","image-keyboard-response","301","281190","0.0-6.0-1.147","ADKI","2","m","rechts","22","","","object","j","90","true"
"null","<div style=""font-size:60px;"">+</div>","null","html-keyboard-response","302","281711","0.0-6.0-0.148","ADKI","2","m","rechts","22","","fixation","","","",""
"811","img/0_90.png","74","image-keyboard-response","303","282530","0.0-6.0-1.148","ADKI","2","m","rechts","22","","","object","j","0","true"
"null","<div style=""font-size:60px;"">+</div>","null","html-keyboard-response","304","282854","0.0-6.0-0.149","ADKI","2","m","rechts","22","","fixation","","","",""
"1575","img/30_300.png","70","image-keyboard-response","305","284443","0.0-6.0-1.149","ADKI","2","m","rechts","22","","","object","f","30","true"
"null","<div style=""font-size:60px;"">+</div>","null","html-keyboard-response","306","284948","0.0-6.0-0.150","ADKI","2","m","rechts","22","","fixation","","","",""
"992","img/90_180.png","70","image-keyboard-response","307","285949","0.0-6.0-1.150","ADKI","2","m","rechts","22","","","object","f","90","true"
"null","<div style=""font-size:60px;"">+</div>","null","html-keyboard-response","308","286322","0.0-6.0-0.151","ADKI","2","m","rechts","22","","fixation","","","",""
"818","img/30_120.png","74","image-keyboard-response","309","287153","0.0-6.0-1.151","ADKI","2","m","rechts","22","","","object","j","30","true"
"null","<div style=""font-size:60px;"">+</div>","null","html-keyboard-response","310","287480","0.0-6.0-0.152","ADKI","2","m","rechts","22","","fixation","","","",""
"990","img/90_330.png","74","image-keyboard-response","311","288482","0.0-6.0-1.152","ADKI","2","m","rechts","22","","","object","j","90","true"
"null","<div style=""font-size:60px;"">+</div>","null","html-keyboard-response","312","288807","0.0-6.0-0.153","ADKI","2","m","rechts","22","","fixation","","","",""
"1068","img/150_90.png","70","image-keyboard-response","313","289888","0.0-6.0-1.153","ADKI","2","m","rechts","22","","","object","f","150","true"
"null","<div style=""font-size:60px;"">+</div>","null","html-keyboard-response","314","290356","0.0-6.0-0.154","ADKI","2","m","rechts","22","","fixation","","","",""
"731","img/0_120.png","74","image-keyboard-response","315","291100","0.0-6.0-1.154","ADKI","2","m","rechts","22","","","object","j","0","true"
"null","<div style=""font-size:60px;"">+</div>","null","html-keyboard-response","316","291481","0.0-6.0-0.155","ADKI","2","m","rechts","22","","fixation","","","",""
"null","img/0_270.png","null","image-keyboard-response","317","294499","0.0-6.0-1.155","ADKI","2","m","rechts","22","","","object","f","0","false"
"null","<div style=""font-size:60px;"">+</div>","null","html-keyboard-response","318","294983","0.0-6.0-0.156","ADKI","2","m","rechts","22","","fixation","","","",""
"834","img/L60_180.png","74","image-keyboard-response","319","295828","0.0-6.0-1.156","ADKI","2","m","rechts","22","","","object","j","60","true"
"null","<div style=""font-size:60px;"">+</div>","null","html-keyboard-response","320","296200","0.0-6.0-0.157","ADKI","2","m","rechts","22","","fixation","","","",""
"1785","img/30_270.png","70","image-keyboard-response","321","298000","0.0-6.0-1.157","ADKI","2","m","rechts","22","","","object","f","30","true"
"null","<div style=""font-size:60px;"">+</div>","null","html-keyboard-response","322","298309","0.0-6.0-0.158","ADKI","2","m","rechts","22","","fixation","","","",""
"692","img/0_120.png","74","image-keyboard-response","323","299011","0.0-6.0-1.158","ADKI","2","m","rechts","22","","","object","j","0","true"
"null","<div style=""font-size:60px;"">+</div>","null","html-keyboard-response","324","299465","0.0-6.0-0.159","ADKI","2","m","rechts","22","","fixation","","","",""
"741","img/L90_180.png","74","image-keyboard-response","325","300218","0.0-6.0-1.159","ADKI","2","m","rechts","22","","","object","j","90","true"
"null","<div style=""font-size:60px;"">+</div>","null","html-keyboard-response","326","300725","0.0-6.0-0.160","ADKI","2","m","rechts","22","","fixation","","","",""
"1182","img/90_210.png","70","image-keyboard-response","327","301914","0.0-6.0-1.160","ADKI","2","m","rechts","22","","","object","f","90","true"
"null","<div style=""font-size:60px;"">+</div>","null","html-keyboard-response","328","302295","0.0-6.0-0.161","ADKI","2","m","rechts","22","","fixation","","","",""
"988","img/120_30.png","70","image-keyboard-response","329","303296","0.0-6.0-1.161","ADKI","2","m","rechts","22","","","object","f","120","true"
"null","<div style=""font-size:60px;"">+</div>","null","html-keyboard-response","330","303810","0.0-6.0-0.162","ADKI","2","m","rechts","22","","fixation","","","",""
"779","img/0_210.png","70","image-keyboard-response","331","304603","0.0-6.0-1.162","ADKI","2","m","rechts","22","","","object","f","0","true"
"null","<div style=""font-size:60px;"">+</div>","null","html-keyboard-response","332","304967","0.0-6.0-0.163","ADKI","2","m","rechts","22","","fixation","","","",""
"1366","img/150_270.png","74","image-keyboard-response","333","306347","0.0-6.0-1.163","ADKI","2","m","rechts","22","","","object","j","150","true"
"null","<div style=""font-size:60px;"">+</div>","null","html-keyboard-response","334","306863","0.0-6.0-0.164","ADKI","2","m","rechts","22","","fixation","","","",""
"1015","img/30_60.png","70","image-keyboard-response","335","307888","0.0-6.0-1.164","ADKI","2","m","rechts","22","","","object","j","30","false"
"null","<div style=""font-size:60px;"">+</div>","null","html-keyboard-response","336","308296","0.0-6.0-0.165","ADKI","2","m","rechts","22","","fixation","","","",""
"2259","img/120_90.png","70","image-keyboard-response","337","310565","0.0-6.0-1.165","ADKI","2","m","rechts","22","","","object","f","120","true"
"null","<div style=""font-size:60px;"">+</div>","null","html-keyboard-response","338","310874","0.0-6.0-0.166","ADKI","2","m","rechts","22","","fixation","","","",""
"839","img/0_330.png","70","image-keyboard-response","339","311723","0.0-6.0-1.166","ADKI","2","m","rechts","22","","","object","f","0","true"
"null","<div style=""font-size:60px;"">+</div>","null","html-keyboard-response","340","312251","0.0-6.0-0.167","ADKI","2","m","rechts","22","","fixation","","","",""
"837","img/30_120.png","74","image-keyboard-response","341","313097","0.0-6.0-1.167","ADKI","2","m","rechts","22","","","object","j","30","true"
"null","<div style=""font-size:60px;"">+</div>","null","html-keyboard-response","342","313404","0.0-6.0-0.168","ADKI","2","m","rechts","22","","fixation","","","",""
"1591","img/150_240.png","74","image-keyboard-response","343","315009","0.0-6.0-1.168","ADKI","2","m","rechts","22","","","object","j","150","true"
"null","<div style=""font-size:60px;"">+</div>","null","html-keyboard-response","344","315329","0.0-6.0-0.169","ADKI","2","m","rechts","22","","fixation","","","",""
"762","img/60_30.png","70","image-keyboard-response","345","316101","0.0-6.0-1.169","ADKI","2","m","rechts","22","","","object","f","60","true"
"null","<div style=""font-size:60px;"">+</div>","null","html-keyboard-response","346","316620","0.0-6.0-0.170","ADKI","2","m","rechts","22","","fixation","","","",""
"956","img/60_270.png","70","image-keyboard-response","347","317586","0.0-6.0-1.170","ADKI","2","m","rechts","22","","","object","f","60","true"
"null","<div style=""font-size:60px;"">+</div>","null","html-keyboard-response","348","318047","0.0-6.0-0.171","ADKI","2","m","rechts","22","","fixation","","","",""
"1103","img/150_60.png","70","image-keyboard-response","349","319161","0.0-6.0-1.171","ADKI","2","m","rechts","22","","","object","f","150","true"
"null","<div style=""font-size:60px;"">+</div>","null","html-keyboard-response","350","319673","0.0-6.0-0.172","ADKI","2","m","rechts","22","","fixation","","","",""
"1771","img/120_180.png","70","image-keyboard-response","351","321456","0.0-6.0-1.172","ADKI","2","m","rechts","22","","","object","f","120","true"
"null","<div style=""font-size:60px;"">+</div>","null","html-keyboard-response","352","321766","0.0-6.0-0.173","ADKI","2","m","rechts","22","","fixation","","","",""
"730","img/0_240.png","70","image-keyboard-response","353","322502","0.0-6.0-1.173","ADKI","2","m","rechts","22","","","object","f","0","true"
"null","<div style=""font-size:60px;"">+</div>","null","html-keyboard-response","354","322862","0.0-6.0-0.174","ADKI","2","m","rechts","22","","fixation","","","",""
"1482","img/0_150.png","74","image-keyboard-response","355","324357","0.0-6.0-1.174","ADKI","2","m","rechts","22","","","object","j","0","true"
"null","<div style=""font-size:60px;"">+</div>","null","html-keyboard-response","356","324734","0.0-6.0-0.175","ADKI","2","m","rechts","22","","fixation","","","",""
"974","img/60_330.png","74","image-keyboard-response","357","325719","0.0-6.0-1.175","ADKI","2","m","rechts","22","","","object","j","60","true"
"null","<div style=""font-size:60px;"">+</div>","null","html-keyboard-response","358","326047","0.0-6.0-0.176","ADKI","2","m","rechts","22","","fixation","","","",""
"1512","img/90_120.png","74","image-keyboard-response","359","327564","0.0-6.0-1.176","ADKI","2","m","rechts","22","","","object","j","90","true"
"null","<div style=""font-size:60px;"">+</div>","null","html-keyboard-response","360","327879","0.0-6.0-0.177","ADKI","2","m","rechts","22","","fixation","","","",""
"1089","img/90_30.png","70","image-keyboard-response","361","328970","0.0-6.0-1.177","ADKI","2","m","rechts","22","","","object","f","90","true"
"null","<div style=""font-size:60px;"">+</div>","null","html-keyboard-response","362","329343","0.0-6.0-0.178","ADKI","2","m","rechts","22","","fixation","","","",""
"1755","img/L30_180.png","74","image-keyboard-response","363","331109","0.0-6.0-1.178","ADKI","2","m","rechts","22","","","object","j","30","true"
"null","<div style=""font-size:60px;"">+</div>","null","html-keyboard-response","364","331486","0.0-6.0-0.179","ADKI","2","m","rechts","22","","fixation","","","",""
"1042","img/L120_180.png","74","image-keyboard-response","365","332537","0.0-6.0-1.179","ADKI","2","m","rechts","22","","","object","j","120","true"
"null","<div style=""font-size:60px;"">+</div>","null","html-keyboard-response","366","333048","0.0-6.0-0.180","ADKI","2","m","rechts","22","","fixation","","","",""
"1005","img/120_150.png","74","image-keyboard-response","367","334067","0.0-6.0-1.180","ADKI","2","m","rechts","22","","","object","j","120","true"
"null","<div style=""font-size:60px;"">+</div>","null","html-keyboard-response","368","334486","0.0-6.0-0.181","ADKI","2","m","rechts","22","","fixation","","","",""
"1074","img/60_210.png","70","image-keyboard-response","369","335573","0.0-6.0-1.181","ADKI","2","m","rechts","22","","","object","f","60","true"
"null","<div style=""font-size:60px;"">+</div>","null","html-keyboard-response","370","336034","0.0-6.0-0.182","ADKI","2","m","rechts","22","","fixation","","","",""
"806","img/0_60.png","74","image-keyboard-response","371","336855","0.0-6.0-1.182","ADKI","2","m","rechts","22","","","object","j","0","true"
"null","<div style=""font-size:60px;"">+</div>","null","html-keyboard-response","372","337268","0.0-6.0-0.183","ADKI","2","m","rechts","22","","fixation","","","",""
"1379","img/90_150.png","74","image-keyboard-response","373","338656","0.0-6.0-1.183","ADKI","2","m","rechts","22","","","object","j","90","true"
"null","<div style=""font-size:60px;"">+</div>","null","html-keyboard-response","374","339079","0.0-6.0-0.184","ADKI","2","m","rechts","22","","fixation","","","",""
"1301","img/30_240.png","70","image-keyboard-response","375","340390","0.0-6.0-1.184","ADKI","2","m","rechts","22","","","object","f","30","true"
"null","<div style=""font-size:60px;"">+</div>","null","html-keyboard-response","376","340772","0.0-6.0-0.185","ADKI","2","m","rechts","22","","fixation","","","",""
"697","img/0_90.png","74","image-keyboard-response","377","341481","0.0-6.0-1.185","ADKI","2","m","rechts","22","","","object","j","0","true"
"null","<div style=""font-size:60px;"">+</div>","null","html-keyboard-response","378","341939","0.0-6.0-0.186","ADKI","2","m","rechts","22","","fixation","","","",""
"983","img/60_180.png","70","image-keyboard-response","379","342932","0.0-6.0-1.186","ADKI","2","m","rechts","22","","","object","f","60","true"
"null","<div style=""font-size:60px;"">+</div>","null","html-keyboard-response","380","343346","0.0-6.0-0.187","ADKI","2","m","rechts","22","","fixation","","","",""
"933","img/L150_180.png","74","image-keyboard-response","381","344294","0.0-6.0-1.187","ADKI","2","m","rechts","22","","","object","j","150","true"
"null","<div style=""font-size:60px;"">+</div>","null","html-keyboard-response","382","344676","0.0-6.0-0.188","ADKI","2","m","rechts","22","","fixation","","","",""
"1116","img/120_330.png","74","image-keyboard-response","383","345802","0.0-6.0-1.188","ADKI","2","m","rechts","22","","","object","j","120","true"
"null","<div style=""font-size:60px;"">+</div>","null","html-keyboard-response","384","346316","0.0-6.0-0.189","ADKI","2","m","rechts","22","","fixation","","","",""
"724","img/0_270.png","70","image-keyboard-response","385","347049","0.0-6.0-1.189","ADKI","2","m","rechts","22","","","object","f","0","true"
"null","<div style=""font-size:60px;"">+</div>","null","html-keyboard-response","386","347363","0.0-6.0-0.190","ADKI","2","m","rechts","22","","fixation","","","",""
"712","img/90_330.png","74","image-keyboard-response","387","348084","0.0-6.0-1.190","ADKI","2","m","rechts","22","","","object","j","90","true"
"null","<div style=""font-size:60px;"">+</div>","null","html-keyboard-response","388","348550","0.0-6.0-0.191","ADKI","2","m","rechts","22","","fixation","","","",""
"736","img/150_180.png","70","image-keyboard-response","389","349300","0.0-6.0-1.191","ADKI","2","m","rechts","22","","","object","f","150","true"
"null","<div style=""font-size:60px;"">+</div>","null","html-keyboard-response","390","349831","0.0-6.0-0.192","ADKI","2","m","rechts","22","","fixation","","","",""
"641","img/0_30.png","74","image-keyboard-response","391","350482","0.0-6.0-1.192","ADKI","2","m","rechts","22","","","object","j","0","true"
"null","<div style=""font-size:60px;"">+</div>","null","html-keyboard-response","392","350987","0.0-6.0-0.193","ADKI","2","m","rechts","22","","fixation","","","",""
"1347","img/60_90.png","74","image-keyboard-response","393","352348","0.0-6.0-1.193","ADKI","2","m","rechts","22","","","object","j","60","true"
"null","<div style=""font-size:60px;"">+</div>","null","html-keyboard-response","394","352768","0.0-6.0-0.194","ADKI","2","m","rechts","22","","fixation","","","",""
"1092","img/90_300.png","74","image-keyboard-response","395","353876","0.0-6.0-1.194","ADKI","2","m","rechts","22","","","object","j","90","true"
"null","<div style=""font-size:60px;"">+</div>","null","html-keyboard-response","396","354331","0.0-6.0-0.195","ADKI","2","m","rechts","22","","fixation","","","",""
"758","img/90_60.png","70","image-keyboard-response","397","355104","0.0-6.0-1.195","ADKI","2","m","rechts","22","","","object","f","90","true"
"null","<div style=""font-size:60px;"">+</div>","null","html-keyboard-response","398","355425","0.0-6.0-0.196","ADKI","2","m","rechts","22","","fixation","","","",""
"958","img/30_90.png","74","image-keyboard-response","399","356399","0.0-6.0-1.196","ADKI","2","m","rechts","22","","","object","j","30","true"
"null","<div style=""font-size:60px;"">+</div>","null","html-keyboard-response","400","356863","0.0-6.0-0.197","ADKI","2","m","rechts","22","","fixation","","","",""
"1779","img/120_210.png","70","image-keyboard-response","401","358649","0.0-6.0-1.197","ADKI","2","m","rechts","22","","","object","f","120","true"
"null","<div style=""font-size:60px;"">+</div>","null","html-keyboard-response","402","359127","0.0-6.0-0.198","ADKI","2","m","rechts","22","","fixation","","","",""
"756","img/0_300.png","70","image-keyboard-response","403","359896","0.0-6.0-1.198","ADKI","2","m","rechts","22","","","object","f","0","true"
"null","<div style=""font-size:60px;"">+</div>","null","html-keyboard-response","404","360256","0.0-6.0-0.199","ADKI","2","m","rechts","22","","fixation","","","",""
"821","img/150_300.png","74","image-keyboard-response","405","361091","0.0-6.0-1.199","ADKI","2","m","rechts","22","","","object","j","150","true"
"null","<div style=""font-size:60px;"">+</div>","null","html-keyboard-response","406","361457","0.0-6.0-0.200","ADKI","2","m","rechts","22","","fixation","","","",""
"1568","img/30_300.png","70","image-keyboard-response","407","363036","0.0-6.0-1.200","ADKI","2","m","rechts","22","","","object","f","30","true"
"null","<div style=""font-size:60px;"">+</div>","null","html-keyboard-response","408","363412","0.0-6.0-0.201","ADKI","2","m","rechts","22","","fixation","","","",""
"1410","img/150_120.png","70","image-keyboard-response","409","364835","0.0-6.0-1.201","ADKI","2","m","rechts","22","","","object","f","150","true"
"null","<div style=""font-size:60px;"">+</div>","null","html-keyboard-response","410","365255","0.0-6.0-0.202","ADKI","2","m","rechts","22","","fixation","","","",""
"1716","img/90_180.png","70","image-keyboard-response","411","366984","0.0-6.0-1.202","ADKI","2","m","rechts","22","","","object","f","90","true"
"null","<div style=""font-size:60px;"">+</div>","null","html-keyboard-response","412","367301","0.0-6.0-0.203","ADKI","2","m","rechts","22","","fixation","","","",""
"1223","img/120_270.png","74","image-keyboard-response","413","368538","0.0-6.0-1.203","ADKI","2","m","rechts","22","","","object","j","120","true"
"null","<div style=""font-size:60px;"">+</div>","null","html-keyboard-response","414","368941","0.0-6.0-0.204","ADKI","2","m","rechts","22","","fixation","","","",""
"1307","img/150_90.png","70","image-keyboard-response","415","370259","0.0-6.0-1.204","ADKI","2","m","rechts","22","","","object","f","150","true"
"null","<div style=""font-size:60px;"">+</div>","null","html-keyboard-response","416","370663","0.0-6.0-0.205","ADKI","2","m","rechts","22","","fixation","","","",""
"1415","img/30_180.png","70","image-keyboard-response","417","372092","0.0-6.0-1.205","ADKI","2","m","rechts","22","","","object","f","30","true"
"null","<div style=""font-size:60px;"">+</div>","null","html-keyboard-response","418","372552","0.0-6.0-0.206","ADKI","2","m","rechts","22","","fixation","","","",""
"1247","img/90_240.png","70","image-keyboard-response","419","373819","0.0-6.0-1.206","ADKI","2","m","rechts","22","","","object","f","90","true"
"null","<div style=""font-size:60px;"">+</div>","null","html-keyboard-response","420","374178","0.0-6.0-0.207","ADKI","2","m","rechts","22","","fixation","","","",""
"982","img/60_150.png","74","image-keyboard-response","421","375175","0.0-6.0-1.207","ADKI","2","m","rechts","22","","","object","j","60","true"
"19395","<p>Du hast in 91% der Versuche korrekt entschieden.</p><p>Deine durchschnittliche Reaktionszeit war  1183ms.</p><p>Dr&uuml;cke eine beliebige Taste, um die Session zu beenden. Vielen Dank!</p>","32","html-keyboard-response","422","394575","0.0-7.0","ADKI","2","m","rechts","22","","","","","",""
