"rt","stimulus","key_press","trial_type","trial_index","time_elapsed","internal_node_id","subject","session","sex","handedness","age","responses","test_part","condition","correct_response","angle","correct"
"10065","<p>Mental Rotation Experiment.</p> <p>Dr&uuml;cke eine beliebige Taste, um anzufangen.</p>","13","html-keyboard-response","0","10086","0.0-0.0","ADKI","1","m","rechts","22","","","","","",""
"5578","","","survey-text","1","15667","0.0-1.0","ADKI","1","m","rechts","22","{""Q0"":""ADKI""}","","","","",""
"2642","","","survey-text","2","18310","0.0-2.0","ADKI","1","m","rechts","22","{""Q0"":""1""}","","","","",""
"2260","","","survey-multi-choice","3","20585","0.0-3.0","ADKI","1","m","rechts","22","{""Q0"":""m"",""Q1"":""rechts""}","","","","",""
"3823","","","survey-text","4","24410","0.0-4.0","ADKI","1","m","rechts","22","{""Q0"":""22""}","","","","",""
"27789","<p>Stell dir vor, dass du vor einem runden Tisch stehst, auf dem sich ein blauer Ball am Tischrand befindet. Entlang des Tischrands ist jeweils ein verschieden langer Pfeil. Nun bleibst du an deinem Platz vor dem Tisch und rotierst den Tisch entlang des Pfeils (gleiche Richtung und Länge). </p> <img src='img/30_180.png'></img> <br><p> Nachdem du diese (vorgestellte) Rotation durchgef&uuml;hrt hast, schau in Richtung der Tischmitte, und entscheide dann, ob der Ball links oder rechts von dir liegt.</p> <p>Dr&uuml;cke die <strong>'f'</strong>-Taste f&uuml;r links, die <strong>'j'</strong>-Taste f&uuml;r rechts.</p><br><p> Das Bild wird jeweils 1 Sekunde lang pr&auml;sentiert. Du hast 3 Sekunden Zeit eine Entscheidung zu treffen.</p>","70","html-keyboard-response","5","52208","0.0-5.0","ADKI","1","m","rechts","22","","","","","",""
"null","<div style=""font-size:60px;"">+</div>","null","html-keyboard-response","6","53750","0.0-6.0-0.0","ADKI","1","m","rechts","22","","fixation","","","",""
"1314","img/150_90.png","70","image-keyboard-response","7","55086","0.0-6.0-1.0","ADKI","1","m","rechts","22","","","object","f","150","true"
"null","<div style=""font-size:60px;"">+</div>","null","html-keyboard-response","8","55442","0.0-6.0-0.1","ADKI","1","m","rechts","22","","fixation","","","",""
"1027","img/0_150.png","74","image-keyboard-response","9","56487","0.0-6.0-1.1","ADKI","1","m","rechts","22","","","object","j","0","true"
"null","<div style=""font-size:60px;"">+</div>","null","html-keyboard-response","10","56949","0.0-6.0-0.2","ADKI","1","m","rechts","22","","fixation","","","",""
"970","img/120_270.png","70","image-keyboard-response","11","57939","0.0-6.0-1.2","ADKI","1","m","rechts","22","","","object","j","120","false"
"null","<div style=""font-size:60px;"">+</div>","null","html-keyboard-response","12","58307","0.0-6.0-0.3","ADKI","1","m","rechts","22","","fixation","","","",""
"961","img/30_60.png","70","image-keyboard-response","13","59287","0.0-6.0-1.3","ADKI","1","m","rechts","22","","","object","j","30","false"
"null","<div style=""font-size:60px;"">+</div>","null","html-keyboard-response","14","59651","0.0-6.0-0.4","ADKI","1","m","rechts","22","","fixation","","","",""
"868","img/60_330.png","74","image-keyboard-response","15","60538","0.0-6.0-1.4","ADKI","1","m","rechts","22","","","object","j","60","true"
"null","<div style=""font-size:60px;"">+</div>","null","html-keyboard-response","16","60855","0.0-6.0-0.5","ADKI","1","m","rechts","22","","fixation","","","",""
"925","img/90_300.png","70","image-keyboard-response","17","61797","0.0-6.0-1.5","ADKI","1","m","rechts","22","","","object","j","90","false"
"null","<div style=""font-size:60px;"">+</div>","null","html-keyboard-response","18","62150","0.0-6.0-0.6","ADKI","1","m","rechts","22","","fixation","","","",""
"1123","img/120_90.png","74","image-keyboard-response","19","63283","0.0-6.0-1.6","ADKI","1","m","rechts","22","","","object","f","120","false"
"null","<div style=""font-size:60px;"">+</div>","null","html-keyboard-response","20","63636","0.0-6.0-0.7","ADKI","1","m","rechts","22","","fixation","","","",""
"1002","img/0_90.png","74","image-keyboard-response","21","64655","0.0-6.0-1.7","ADKI","1","m","rechts","22","","","object","j","0","true"
"null","<div style=""font-size:60px;"">+</div>","null","html-keyboard-response","22","65166","0.0-6.0-0.8","ADKI","1","m","rechts","22","","fixation","","","",""
"1570","img/30_240.png","74","image-keyboard-response","23","66748","0.0-6.0-1.8","ADKI","1","m","rechts","22","","","object","f","30","false"
"null","<div style=""font-size:60px;"">+</div>","null","html-keyboard-response","24","67121","0.0-6.0-0.9","ADKI","1","m","rechts","22","","fixation","","","",""
"1405","img/90_240.png","74","image-keyboard-response","25","68534","0.0-6.0-1.9","ADKI","1","m","rechts","22","","","object","f","90","false"
"null","<div style=""font-size:60px;"">+</div>","null","html-keyboard-response","26","69043","0.0-6.0-0.10","ADKI","1","m","rechts","22","","fixation","","","",""
"1558","img/30_300.png","70","image-keyboard-response","27","70618","0.0-6.0-1.10","ADKI","1","m","rechts","22","","","object","f","30","true"
"null","<div style=""font-size:60px;"">+</div>","null","html-keyboard-response","28","70981","0.0-6.0-0.11","ADKI","1","m","rechts","22","","fixation","","","",""
"1194","img/0_210.png","70","image-keyboard-response","29","72192","0.0-6.0-1.11","ADKI","1","m","rechts","22","","","object","f","0","true"
"null","<div style=""font-size:60px;"">+</div>","null","html-keyboard-response","30","72558","0.0-6.0-0.12","ADKI","1","m","rechts","22","","fixation","","","",""
"1269","img/L60_180.png","74","image-keyboard-response","31","73847","0.0-6.0-1.12","ADKI","1","m","rechts","22","","","object","j","60","true"
"null","<div style=""font-size:60px;"">+</div>","null","html-keyboard-response","32","74199","0.0-6.0-0.13","ADKI","1","m","rechts","22","","fixation","","","",""
"1329","img/0_300.png","70","image-keyboard-response","33","75534","0.0-6.0-1.13","ADKI","1","m","rechts","22","","","object","f","0","true"
"null","<div style=""font-size:60px;"">+</div>","null","html-keyboard-response","34","75855","0.0-6.0-0.14","ADKI","1","m","rechts","22","","fixation","","","",""
"1594","img/120_30.png","70","image-keyboard-response","35","77470","0.0-6.0-1.14","ADKI","1","m","rechts","22","","","object","f","120","true"
"null","<div style=""font-size:60px;"">+</div>","null","html-keyboard-response","36","77951","0.0-6.0-0.15","ADKI","1","m","rechts","22","","fixation","","","",""
"1390","img/0_240.png","70","image-keyboard-response","37","79359","0.0-6.0-1.15","ADKI","1","m","rechts","22","","","object","f","0","true"
"null","<div style=""font-size:60px;"">+</div>","null","html-keyboard-response","38","79827","0.0-6.0-0.16","ADKI","1","m","rechts","22","","fixation","","","",""
"1459","img/L30_180.png","74","image-keyboard-response","39","81305","0.0-6.0-1.16","ADKI","1","m","rechts","22","","","object","j","30","true"
"null","<div style=""font-size:60px;"">+</div>","null","html-keyboard-response","40","81669","0.0-6.0-0.17","ADKI","1","m","rechts","22","","fixation","","","",""
"1260","img/L90_180.png","74","image-keyboard-response","41","82947","0.0-6.0-1.17","ADKI","1","m","rechts","22","","","object","j","90","true"
"null","<div style=""font-size:60px;"">+</div>","null","html-keyboard-response","42","83451","0.0-6.0-0.18","ADKI","1","m","rechts","22","","fixation","","","",""
"1345","img/90_60.png","70","image-keyboard-response","43","84814","0.0-6.0-1.18","ADKI","1","m","rechts","22","","","object","f","90","true"
"null","<div style=""font-size:60px;"">+</div>","null","html-keyboard-response","44","85325","0.0-6.0-0.19","ADKI","1","m","rechts","22","","fixation","","","",""
"1329","img/0_270.png","70","image-keyboard-response","45","86671","0.0-6.0-1.19","ADKI","1","m","rechts","22","","","object","f","0","true"
"null","<div style=""font-size:60px;"">+</div>","null","html-keyboard-response","46","87124","0.0-6.0-0.20","ADKI","1","m","rechts","22","","fixation","","","",""
"1303","img/90_30.png","70","image-keyboard-response","47","88438","0.0-6.0-1.20","ADKI","1","m","rechts","22","","","object","f","90","true"
"null","<div style=""font-size:60px;"">+</div>","null","html-keyboard-response","48","88904","0.0-6.0-0.21","ADKI","1","m","rechts","22","","fixation","","","",""
"1517","img/L150_180.png","74","image-keyboard-response","49","90441","0.0-6.0-1.21","ADKI","1","m","rechts","22","","","object","j","150","true"
"null","<div style=""font-size:60px;"">+</div>","null","html-keyboard-response","50","90951","0.0-6.0-0.22","ADKI","1","m","rechts","22","","fixation","","","",""
"1303","img/120_180.png","70","image-keyboard-response","51","92273","0.0-6.0-1.22","ADKI","1","m","rechts","22","","","object","f","120","true"
"null","<div style=""font-size:60px;"">+</div>","null","html-keyboard-response","52","92687","0.0-6.0-0.23","ADKI","1","m","rechts","22","","fixation","","","",""
"1345","img/150_60.png","74","image-keyboard-response","53","94051","0.0-6.0-1.23","ADKI","1","m","rechts","22","","","object","f","150","false"
"null","<div style=""font-size:60px;"">+</div>","null","html-keyboard-response","54","94374","0.0-6.0-0.24","ADKI","1","m","rechts","22","","fixation","","","",""
"1256","img/60_150.png","74","image-keyboard-response","55","95648","0.0-6.0-1.24","ADKI","1","m","rechts","22","","","object","j","60","true"
"null","<div style=""font-size:60px;"">+</div>","null","html-keyboard-response","56","96124","0.0-6.0-0.25","ADKI","1","m","rechts","22","","fixation","","","",""
"1191","img/90_180.png","70","image-keyboard-response","57","97326","0.0-6.0-1.25","ADKI","1","m","rechts","22","","","object","f","90","true"
"null","<div style=""font-size:60px;"">+</div>","null","html-keyboard-response","58","97640","0.0-6.0-0.26","ADKI","1","m","rechts","22","","fixation","","","",""
"1423","img/90_120.png","70","image-keyboard-response","59","99081","0.0-6.0-1.26","ADKI","1","m","rechts","22","","","object","j","90","false"
"null","<div style=""font-size:60px;"">+</div>","null","html-keyboard-response","60","99609","0.0-6.0-0.27","ADKI","1","m","rechts","22","","fixation","","","",""
"1377","img/150_180.png","70","image-keyboard-response","61","101004","0.0-6.0-1.27","ADKI","1","m","rechts","22","","","object","f","150","true"
"null","<div style=""font-size:60px;"">+</div>","null","html-keyboard-response","62","101358","0.0-6.0-0.28","ADKI","1","m","rechts","22","","fixation","","","",""
"1260","img/30_90.png","74","image-keyboard-response","63","102635","0.0-6.0-1.28","ADKI","1","m","rechts","22","","","object","j","30","true"
"null","<div style=""font-size:60px;"">+</div>","null","html-keyboard-response","64","103017","0.0-6.0-0.29","ADKI","1","m","rechts","22","","fixation","","","",""
"1241","img/0_30.png","74","image-keyboard-response","65","104278","0.0-6.0-1.29","ADKI","1","m","rechts","22","","","object","j","0","true"
"null","<div style=""font-size:60px;"">+</div>","null","html-keyboard-response","66","104688","0.0-6.0-0.30","ADKI","1","m","rechts","22","","fixation","","","",""
"1299","img/30_120.png","74","image-keyboard-response","67","106010","0.0-6.0-1.30","ADKI","1","m","rechts","22","","","object","j","30","true"
"null","<div style=""font-size:60px;"">+</div>","null","html-keyboard-response","68","106422","0.0-6.0-0.31","ADKI","1","m","rechts","22","","fixation","","","",""
"1742","img/60_270.png","74","image-keyboard-response","69","108181","0.0-6.0-1.31","ADKI","1","m","rechts","22","","","object","f","60","false"
"null","<div style=""font-size:60px;"">+</div>","null","html-keyboard-response","70","108612","0.0-6.0-0.32","ADKI","1","m","rechts","22","","fixation","","","",""
"1532","img/150_240.png","74","image-keyboard-response","71","110160","0.0-6.0-1.32","ADKI","1","m","rechts","22","","","object","j","150","true"
"null","<div style=""font-size:60px;"">+</div>","null","html-keyboard-response","72","110518","0.0-6.0-0.33","ADKI","1","m","rechts","22","","fixation","","","",""
"1459","img/150_270.png","74","image-keyboard-response","73","111995","0.0-6.0-1.33","ADKI","1","m","rechts","22","","","object","j","150","true"
"null","<div style=""font-size:60px;"">+</div>","null","html-keyboard-response","74","112408","0.0-6.0-0.34","ADKI","1","m","rechts","22","","fixation","","","",""
"1539","img/90_210.png","74","image-keyboard-response","75","113964","0.0-6.0-1.34","ADKI","1","m","rechts","22","","","object","f","90","false"
"null","<div style=""font-size:60px;"">+</div>","null","html-keyboard-response","76","114377","0.0-6.0-0.35","ADKI","1","m","rechts","22","","fixation","","","",""
"1650","img/150_300.png","74","image-keyboard-response","77","116046","0.0-6.0-1.35","ADKI","1","m","rechts","22","","","object","j","150","true"
"null","<div style=""font-size:60px;"">+</div>","null","html-keyboard-response","78","116564","0.0-6.0-0.36","ADKI","1","m","rechts","22","","fixation","","","",""
"1515","img/30_180.png","70","image-keyboard-response","79","118092","0.0-6.0-1.36","ADKI","1","m","rechts","22","","","object","f","30","true"
"null","<div style=""font-size:60px;"">+</div>","null","html-keyboard-response","80","118597","0.0-6.0-0.37","ADKI","1","m","rechts","22","","fixation","","","",""
"1554","img/150_120.png","70","image-keyboard-response","81","120173","0.0-6.0-1.37","ADKI","1","m","rechts","22","","","object","f","150","true"
"null","<div style=""font-size:60px;"">+</div>","null","html-keyboard-response","82","120534","0.0-6.0-0.38","ADKI","1","m","rechts","22","","fixation","","","",""
"1488","img/120_150.png","70","image-keyboard-response","83","122041","0.0-6.0-1.38","ADKI","1","m","rechts","22","","","object","j","120","false"
"null","<div style=""font-size:60px;"">+</div>","null","html-keyboard-response","84","122348","0.0-6.0-0.39","ADKI","1","m","rechts","22","","fixation","","","",""
"1374","img/0_120.png","74","image-keyboard-response","85","123740","0.0-6.0-1.39","ADKI","1","m","rechts","22","","","object","j","0","true"
"null","<div style=""font-size:60px;"">+</div>","null","html-keyboard-response","86","124114","0.0-6.0-0.40","ADKI","1","m","rechts","22","","fixation","","","",""
"1552","img/L120_180.png","74","image-keyboard-response","87","125676","0.0-6.0-1.40","ADKI","1","m","rechts","22","","","object","j","120","true"
"null","<div style=""font-size:60px;"">+</div>","null","html-keyboard-response","88","126193","0.0-6.0-0.41","ADKI","1","m","rechts","22","","fixation","","","",""
"1309","img/90_150.png","74","image-keyboard-response","89","127521","0.0-6.0-1.41","ADKI","1","m","rechts","22","","","object","j","90","true"
"null","<div style=""font-size:60px;"">+</div>","null","html-keyboard-response","90","127896","0.0-6.0-0.42","ADKI","1","m","rechts","22","","fixation","","","",""
"1296","img/0_330.png","70","image-keyboard-response","91","129209","0.0-6.0-1.42","ADKI","1","m","rechts","22","","","object","f","0","true"
"null","<div style=""font-size:60px;"">+</div>","null","html-keyboard-response","92","129520","0.0-6.0-0.43","ADKI","1","m","rechts","22","","fixation","","","",""
"1412","img/90_330.png","74","image-keyboard-response","93","130951","0.0-6.0-1.43","ADKI","1","m","rechts","22","","","object","j","90","true"
"null","<div style=""font-size:60px;"">+</div>","null","html-keyboard-response","94","131332","0.0-6.0-0.44","ADKI","1","m","rechts","22","","fixation","","","",""
"1367","img/120_330.png","74","image-keyboard-response","95","132719","0.0-6.0-1.44","ADKI","1","m","rechts","22","","","object","j","120","true"
"null","<div style=""font-size:60px;"">+</div>","null","html-keyboard-response","96","133130","0.0-6.0-0.45","ADKI","1","m","rechts","22","","fixation","","","",""
"1420","img/0_60.png","74","image-keyboard-response","97","134562","0.0-6.0-1.45","ADKI","1","m","rechts","22","","","object","j","0","true"
"null","<div style=""font-size:60px;"">+</div>","null","html-keyboard-response","98","134865","0.0-6.0-0.46","ADKI","1","m","rechts","22","","fixation","","","",""
"2015","img/60_180.png","70","image-keyboard-response","99","136892","0.0-6.0-1.46","ADKI","1","m","rechts","22","","","object","f","60","true"
"null","<div style=""font-size:60px;"">+</div>","null","html-keyboard-response","100","137193","0.0-6.0-0.47","ADKI","1","m","rechts","22","","fixation","","","",""
"1592","img/120_210.png","74","image-keyboard-response","101","138804","0.0-6.0-1.47","ADKI","1","m","rechts","22","","","object","f","120","false"
"null","<div style=""font-size:60px;"">+</div>","null","html-keyboard-response","102","139334","0.0-6.0-0.48","ADKI","1","m","rechts","22","","fixation","","","",""
"1495","img/30_270.png","70","image-keyboard-response","103","140851","0.0-6.0-1.48","ADKI","1","m","rechts","22","","","object","f","30","true"
"null","<div style=""font-size:60px;"">+</div>","null","html-keyboard-response","104","141209","0.0-6.0-0.49","ADKI","1","m","rechts","22","","fixation","","","",""
"1572","img/60_30.png","70","image-keyboard-response","105","142798","0.0-6.0-1.49","ADKI","1","m","rechts","22","","","object","f","60","true"
"null","<div style=""font-size:60px;"">+</div>","null","html-keyboard-response","106","143101","0.0-6.0-0.50","ADKI","1","m","rechts","22","","fixation","","","",""
"1435","img/60_210.png","74","image-keyboard-response","107","144553","0.0-6.0-1.50","ADKI","1","m","rechts","22","","","object","f","60","false"
"null","<div style=""font-size:60px;"">+</div>","null","html-keyboard-response","108","144960","0.0-6.0-0.51","ADKI","1","m","rechts","22","","fixation","","","",""
"2701","img/60_90.png","74","image-keyboard-response","109","147682","0.0-6.0-1.51","ADKI","1","m","rechts","22","","","object","j","60","true"
"null","<div style=""font-size:60px;"">+</div>","null","html-keyboard-response","110","148163","0.0-6.0-0.52","ADKI","1","m","rechts","22","","fixation","","","",""
"1713","img/120_330.png","74","image-keyboard-response","111","149886","0.0-6.0-1.52","ADKI","1","m","rechts","22","","","object","j","120","true"
"null","<div style=""font-size:60px;"">+</div>","null","html-keyboard-response","112","150241","0.0-6.0-0.53","ADKI","1","m","rechts","22","","fixation","","","",""
"1761","img/150_120.png","70","image-keyboard-response","113","152013","0.0-6.0-1.53","ADKI","1","m","rechts","22","","","object","f","150","true"
"null","<div style=""font-size:60px;"">+</div>","null","html-keyboard-response","114","152525","0.0-6.0-0.54","ADKI","1","m","rechts","22","","fixation","","","",""
"1592","img/0_60.png","74","image-keyboard-response","115","154126","0.0-6.0-1.54","ADKI","1","m","rechts","22","","","object","j","0","true"
"null","<div style=""font-size:60px;"">+</div>","null","html-keyboard-response","116","154445","0.0-6.0-0.55","ADKI","1","m","rechts","22","","fixation","","","",""
"1764","img/30_90.png","74","image-keyboard-response","117","156220","0.0-6.0-1.55","ADKI","1","m","rechts","22","","","object","j","30","true"
"null","<div style=""font-size:60px;"">+</div>","null","html-keyboard-response","118","156587","0.0-6.0-0.56","ADKI","1","m","rechts","22","","fixation","","","",""
"1580","img/30_270.png","70","image-keyboard-response","119","158176","0.0-6.0-1.56","ADKI","1","m","rechts","22","","","object","f","30","true"
"null","<div style=""font-size:60px;"">+</div>","null","html-keyboard-response","120","158538","0.0-6.0-0.57","ADKI","1","m","rechts","22","","fixation","","","",""
"1402","img/90_300.png","74","image-keyboard-response","121","159954","0.0-6.0-1.57","ADKI","1","m","rechts","22","","","object","j","90","true"
"null","<div style=""font-size:60px;"">+</div>","null","html-keyboard-response","122","160336","0.0-6.0-0.58","ADKI","1","m","rechts","22","","fixation","","","",""
"1691","img/90_330.png","74","image-keyboard-response","123","162036","0.0-6.0-1.58","ADKI","1","m","rechts","22","","","object","j","90","true"
"null","<div style=""font-size:60px;"">+</div>","null","html-keyboard-response","124","162401","0.0-6.0-0.59","ADKI","1","m","rechts","22","","fixation","","","",""
"1365","img/0_90.png","74","image-keyboard-response","125","163779","0.0-6.0-1.59","ADKI","1","m","rechts","22","","","object","j","0","true"
"null","<div style=""font-size:60px;"">+</div>","null","html-keyboard-response","126","164088","0.0-6.0-0.60","ADKI","1","m","rechts","22","","fixation","","","",""
"1646","img/L90_180.png","74","image-keyboard-response","127","165749","0.0-6.0-1.60","ADKI","1","m","rechts","22","","","object","j","90","true"
"null","<div style=""font-size:60px;"">+</div>","null","html-keyboard-response","128","166056","0.0-6.0-0.61","ADKI","1","m","rechts","22","","fixation","","","",""
"1523","img/30_240.png","70","image-keyboard-response","129","167594","0.0-6.0-1.61","ADKI","1","m","rechts","22","","","object","f","30","true"
"null","<div style=""font-size:60px;"">+</div>","null","html-keyboard-response","130","167947","0.0-6.0-0.62","ADKI","1","m","rechts","22","","fixation","","","",""
"1331","img/60_330.png","74","image-keyboard-response","131","169293","0.0-6.0-1.62","ADKI","1","m","rechts","22","","","object","j","60","true"
"null","<div style=""font-size:60px;"">+</div>","null","html-keyboard-response","132","169759","0.0-6.0-0.63","ADKI","1","m","rechts","22","","fixation","","","",""
"1726","img/150_60.png","70","image-keyboard-response","133","171497","0.0-6.0-1.63","ADKI","1","m","rechts","22","","","object","f","150","true"
"null","<div style=""font-size:60px;"">+</div>","null","html-keyboard-response","134","171855","0.0-6.0-0.64","ADKI","1","m","rechts","22","","fixation","","","",""
"1801","img/90_60.png","70","image-keyboard-response","135","173669","0.0-6.0-1.64","ADKI","1","m","rechts","22","","","object","f","90","true"
"null","<div style=""font-size:60px;"">+</div>","null","html-keyboard-response","136","174027","0.0-6.0-0.65","ADKI","1","m","rechts","22","","fixation","","","",""
"1450","img/120_270.png","74","image-keyboard-response","137","175491","0.0-6.0-1.65","ADKI","1","m","rechts","22","","","object","j","120","true"
"null","<div style=""font-size:60px;"">+</div>","null","html-keyboard-response","138","175948","0.0-6.0-0.66","ADKI","1","m","rechts","22","","fixation","","","",""
"1308","img/90_180.png","70","image-keyboard-response","139","177269","0.0-6.0-1.66","ADKI","1","m","rechts","22","","","object","f","90","true"
"null","<div style=""font-size:60px;"">+</div>","null","html-keyboard-response","140","177652","0.0-6.0-0.67","ADKI","1","m","rechts","22","","fixation","","","",""
"1145","img/L60_180.png","74","image-keyboard-response","141","178809","0.0-6.0-1.67","ADKI","1","m","rechts","22","","","object","j","60","true"
"null","<div style=""font-size:60px;"">+</div>","null","html-keyboard-response","142","179135","0.0-6.0-0.68","ADKI","1","m","rechts","22","","fixation","","","",""
"1762","img/120_210.png","74","image-keyboard-response","143","180903","0.0-6.0-1.68","ADKI","1","m","rechts","22","","","object","f","120","false"
"null","<div style=""font-size:60px;"">+</div>","null","html-keyboard-response","144","181307","0.0-6.0-0.69","ADKI","1","m","rechts","22","","fixation","","","",""
"1820","img/120_180.png","70","image-keyboard-response","145","183140","0.0-6.0-1.69","ADKI","1","m","rechts","22","","","object","f","120","true"
"null","<div style=""font-size:60px;"">+</div>","null","html-keyboard-response","146","183466","0.0-6.0-0.70","ADKI","1","m","rechts","22","","fixation","","","",""
"1408","img/150_240.png","74","image-keyboard-response","147","184884","0.0-6.0-1.70","ADKI","1","m","rechts","22","","","object","j","150","true"
"null","<div style=""font-size:60px;"">+</div>","null","html-keyboard-response","148","185262","0.0-6.0-0.71","ADKI","1","m","rechts","22","","fixation","","","",""
"1600","img/L30_180.png","74","image-keyboard-response","149","186877","0.0-6.0-1.71","ADKI","1","m","rechts","22","","","object","j","30","true"
"null","<div style=""font-size:60px;"">+</div>","null","html-keyboard-response","150","187308","0.0-6.0-0.72","ADKI","1","m","rechts","22","","fixation","","","",""
"1556","img/120_90.png","70","image-keyboard-response","151","188878","0.0-6.0-1.72","ADKI","1","m","rechts","22","","","object","f","120","true"
"null","<div style=""font-size:60px;"">+</div>","null","html-keyboard-response","152","189231","0.0-6.0-0.73","ADKI","1","m","rechts","22","","fixation","","","",""
"1827","img/90_120.png","74","image-keyboard-response","153","191072","0.0-6.0-1.73","ADKI","1","m","rechts","22","","","object","j","90","true"
"null","<div style=""font-size:60px;"">+</div>","null","html-keyboard-response","154","191496","0.0-6.0-0.74","ADKI","1","m","rechts","22","","fixation","","","",""
"1914","img/150_270.png","74","image-keyboard-response","155","193424","0.0-6.0-1.74","ADKI","1","m","rechts","22","","","object","j","150","true"
"null","<div style=""font-size:60px;"">+</div>","null","html-keyboard-response","156","193780","0.0-6.0-0.75","ADKI","1","m","rechts","22","","fixation","","","",""
"1220","img/60_210.png","70","image-keyboard-response","157","195009","0.0-6.0-1.75","ADKI","1","m","rechts","22","","","object","f","60","true"
"null","<div style=""font-size:60px;"">+</div>","null","html-keyboard-response","158","195326","0.0-6.0-0.76","ADKI","1","m","rechts","22","","fixation","","","",""
"1369","img/0_300.png","70","image-keyboard-response","159","196708","0.0-6.0-1.76","ADKI","1","m","rechts","22","","","object","f","0","true"
"null","<div style=""font-size:60px;"">+</div>","null","html-keyboard-response","160","197169","0.0-6.0-0.77","ADKI","1","m","rechts","22","","fixation","","","",""
"1241","img/0_270.png","70","image-keyboard-response","161","198419","0.0-6.0-1.77","ADKI","1","m","rechts","22","","","object","f","0","true"
"null","<div style=""font-size:60px;"">+</div>","null","html-keyboard-response","162","198842","0.0-6.0-0.78","ADKI","1","m","rechts","22","","fixation","","","",""
"1037","img/0_30.png","74","image-keyboard-response","163","199893","0.0-6.0-1.78","ADKI","1","m","rechts","22","","","object","j","0","true"
"null","<div style=""font-size:60px;"">+</div>","null","html-keyboard-response","164","200294","0.0-6.0-0.79","ADKI","1","m","rechts","22","","fixation","","","",""
"1306","img/60_270.png","70","image-keyboard-response","165","201614","0.0-6.0-1.79","ADKI","1","m","rechts","22","","","object","f","60","true"
"null","<div style=""font-size:60px;"">+</div>","null","html-keyboard-response","166","201983","0.0-6.0-0.80","ADKI","1","m","rechts","22","","fixation","","","",""
"923","img/0_150.png","74","image-keyboard-response","167","202919","0.0-6.0-1.80","ADKI","1","m","rechts","22","","","object","j","0","true"
"null","<div style=""font-size:60px;"">+</div>","null","html-keyboard-response","168","203234","0.0-6.0-0.81","ADKI","1","m","rechts","22","","fixation","","","",""
"1156","img/0_240.png","70","image-keyboard-response","169","204403","0.0-6.0-1.81","ADKI","1","m","rechts","22","","","object","f","0","true"
"null","<div style=""font-size:60px;"">+</div>","null","html-keyboard-response","170","204781","0.0-6.0-0.82","ADKI","1","m","rechts","22","","fixation","","","",""
"2098","img/L120_180.png","74","image-keyboard-response","171","206891","0.0-6.0-1.82","ADKI","1","m","rechts","22","","","object","j","120","true"
"null","<div style=""font-size:60px;"">+</div>","null","html-keyboard-response","172","207202","0.0-6.0-0.83","ADKI","1","m","rechts","22","","fixation","","","",""
"1598","img/60_150.png","74","image-keyboard-response","173","208814","0.0-6.0-1.83","ADKI","1","m","rechts","22","","","object","j","60","true"
"null","<div style=""font-size:60px;"">+</div>","null","html-keyboard-response","174","209170","0.0-6.0-0.84","ADKI","1","m","rechts","22","","fixation","","","",""
"1425","img/30_120.png","74","image-keyboard-response","175","210602","0.0-6.0-1.84","ADKI","1","m","rechts","22","","","object","j","30","true"
"null","<div style=""font-size:60px;"">+</div>","null","html-keyboard-response","176","211030","0.0-6.0-0.85","ADKI","1","m","rechts","22","","fixation","","","",""
"1867","img/120_150.png","74","image-keyboard-response","177","212910","0.0-6.0-1.85","ADKI","1","m","rechts","22","","","object","j","120","true"
"null","<div style=""font-size:60px;"">+</div>","null","html-keyboard-response","178","213438","0.0-6.0-0.86","ADKI","1","m","rechts","22","","fixation","","","",""
"1463","img/60_30.png","70","image-keyboard-response","179","214911","0.0-6.0-1.86","ADKI","1","m","rechts","22","","","object","f","60","true"
"null","<div style=""font-size:60px;"">+</div>","null","html-keyboard-response","180","215219","0.0-6.0-0.87","ADKI","1","m","rechts","22","","fixation","","","",""
"1749","img/30_300.png","70","image-keyboard-response","181","216981","0.0-6.0-1.87","ADKI","1","m","rechts","22","","","object","f","30","true"
"null","<div style=""font-size:60px;"">+</div>","null","html-keyboard-response","182","217296","0.0-6.0-0.88","ADKI","1","m","rechts","22","","fixation","","","",""
"888","img/0_210.png","70","image-keyboard-response","183","218197","0.0-6.0-1.88","ADKI","1","m","rechts","22","","","object","f","0","true"
"null","<div style=""font-size:60px;"">+</div>","null","html-keyboard-response","184","218657","0.0-6.0-0.89","ADKI","1","m","rechts","22","","fixation","","","",""
"1788","img/150_180.png","70","image-keyboard-response","185","220458","0.0-6.0-1.89","ADKI","1","m","rechts","22","","","object","f","150","true"
"null","<div style=""font-size:60px;"">+</div>","null","html-keyboard-response","186","220891","0.0-6.0-0.90","ADKI","1","m","rechts","22","","fixation","","","",""
"927","img/0_120.png","74","image-keyboard-response","187","221831","0.0-6.0-1.90","ADKI","1","m","rechts","22","","","object","j","0","true"
"null","<div style=""font-size:60px;"">+</div>","null","html-keyboard-response","188","222252","0.0-6.0-0.91","ADKI","1","m","rechts","22","","fixation","","","",""
"1253","img/L150_180.png","74","image-keyboard-response","189","223518","0.0-6.0-1.91","ADKI","1","m","rechts","22","","","object","j","150","true"
"null","<div style=""font-size:60px;"">+</div>","null","html-keyboard-response","190","223892","0.0-6.0-0.92","ADKI","1","m","rechts","22","","fixation","","","",""
"1334","img/90_240.png","74","image-keyboard-response","191","225239","0.0-6.0-1.92","ADKI","1","m","rechts","22","","","object","f","90","false"
"null","<div style=""font-size:60px;"">+</div>","null","html-keyboard-response","192","225752","0.0-6.0-0.93","ADKI","1","m","rechts","22","","fixation","","","",""
"1228","img/150_90.png","70","image-keyboard-response","193","226994","0.0-6.0-1.93","ADKI","1","m","rechts","22","","","object","f","150","true"
"null","<div style=""font-size:60px;"">+</div>","null","html-keyboard-response","194","227346","0.0-6.0-0.94","ADKI","1","m","rechts","22","","fixation","","","",""
"1919","img/60_180.png","70","image-keyboard-response","195","229279","0.0-6.0-1.94","ADKI","1","m","rechts","22","","","object","f","60","true"
"null","<div style=""font-size:60px;"">+</div>","null","html-keyboard-response","196","229801","0.0-6.0-0.95","ADKI","1","m","rechts","22","","fixation","","","",""
"2502","img/60_90.png","74","image-keyboard-response","197","232316","0.0-6.0-1.95","ADKI","1","m","rechts","22","","","object","j","60","true"
"null","<div style=""font-size:60px;"">+</div>","null","html-keyboard-response","198","232675","0.0-6.0-0.96","ADKI","1","m","rechts","22","","fixation","","","",""
"1832","img/30_180.png","70","image-keyboard-response","199","234521","0.0-6.0-1.96","ADKI","1","m","rechts","22","","","object","f","30","true"
"null","<div style=""font-size:60px;"">+</div>","null","html-keyboard-response","200","235035","0.0-6.0-0.97","ADKI","1","m","rechts","22","","fixation","","","",""
"1991","img/90_30.png","70","image-keyboard-response","201","237041","0.0-6.0-1.97","ADKI","1","m","rechts","22","","","object","f","90","true"
"null","<div style=""font-size:60px;"">+</div>","null","html-keyboard-response","202","237348","0.0-6.0-0.98","ADKI","1","m","rechts","22","","fixation","","","",""
"813","img/0_330.png","70","image-keyboard-response","203","238177","0.0-6.0-1.98","ADKI","1","m","rechts","22","","","object","f","0","true"
"null","<div style=""font-size:60px;"">+</div>","null","html-keyboard-response","204","238488","0.0-6.0-0.99","ADKI","1","m","rechts","22","","fixation","","","",""
"1948","img/90_210.png","70","image-keyboard-response","205","240449","0.0-6.0-1.99","ADKI","1","m","rechts","22","","","object","f","90","true"
"null","<div style=""font-size:60px;"">+</div>","null","html-keyboard-response","206","240879","0.0-6.0-0.100","ADKI","1","m","rechts","22","","fixation","","","",""
"2821","img/120_30.png","70","image-keyboard-response","207","243713","0.0-6.0-1.100","ADKI","1","m","rechts","22","","","object","f","120","true"
"null","<div style=""font-size:60px;"">+</div>","null","html-keyboard-response","208","244021","0.0-6.0-0.101","ADKI","1","m","rechts","22","","fixation","","","",""
"1702","img/90_150.png","70","image-keyboard-response","209","245737","0.0-6.0-1.101","ADKI","1","m","rechts","22","","","object","j","90","false"
"null","<div style=""font-size:60px;"">+</div>","null","html-keyboard-response","210","246100","0.0-6.0-0.102","ADKI","1","m","rechts","22","","fixation","","","",""
"2134","img/150_300.png","74","image-keyboard-response","211","248247","0.0-6.0-1.102","ADKI","1","m","rechts","22","","","object","j","150","true"
"null","<div style=""font-size:60px;"">+</div>","null","html-keyboard-response","212","248677","0.0-6.0-0.103","ADKI","1","m","rechts","22","","fixation","","","",""
"2311","img/30_60.png","74","image-keyboard-response","213","251002","0.0-6.0-1.103","ADKI","1","m","rechts","22","","","object","j","30","true"
"null","<div style=""font-size:60px;"">+</div>","null","html-keyboard-response","214","251505","0.0-6.0-0.104","ADKI","1","m","rechts","22","","fixation","","","",""
"1815","img/150_180.png","70","image-keyboard-response","215","253329","0.0-6.0-1.104","ADKI","1","m","rechts","22","","","object","f","150","true"
"null","<div style=""font-size:60px;"">+</div>","null","html-keyboard-response","216","253631","0.0-6.0-0.105","ADKI","1","m","rechts","22","","fixation","","","",""
"1007","img/0_210.png","70","image-keyboard-response","217","254647","0.0-6.0-1.105","ADKI","1","m","rechts","22","","","object","f","0","true"
"null","<div style=""font-size:60px;"">+</div>","null","html-keyboard-response","218","255162","0.0-6.0-0.106","ADKI","1","m","rechts","22","","fixation","","","",""
"2406","img/120_150.png","74","image-keyboard-response","219","257572","0.0-6.0-1.106","ADKI","1","m","rechts","22","","","object","j","120","true"
"null","<div style=""font-size:60px;"">+</div>","null","html-keyboard-response","220","257881","0.0-6.0-0.107","ADKI","1","m","rechts","22","","fixation","","","",""
"1669","img/120_180.png","70","image-keyboard-response","221","259563","0.0-6.0-1.107","ADKI","1","m","rechts","22","","","object","f","120","true"
"null","<div style=""font-size:60px;"">+</div>","null","html-keyboard-response","222","260021","0.0-6.0-0.108","ADKI","1","m","rechts","22","","fixation","","","",""
"null","img/120_270.png","null","image-keyboard-response","223","263041","0.0-6.0-1.108","ADKI","1","m","rechts","22","","","object","j","120","false"
"null","<div style=""font-size:60px;"">+</div>","null","html-keyboard-response","224","263509","0.0-6.0-0.109","ADKI","1","m","rechts","22","","fixation","","","",""
"3","img/60_90.png","74","image-keyboard-response","225","263521","0.0-6.0-1.109","ADKI","1","m","rechts","22","","","object","j","60","true"
"null","<div style=""font-size:60px;"">+</div>","null","html-keyboard-response","226","263884","0.0-6.0-0.110","ADKI","1","m","rechts","22","","fixation","","","",""
"null","img/90_210.png","null","image-keyboard-response","227","266901","0.0-6.0-1.110","ADKI","1","m","rechts","22","","","object","f","90","false"
"null","<div style=""font-size:60px;"">+</div>","null","html-keyboard-response","228","267307","0.0-6.0-0.111","ADKI","1","m","rechts","22","","fixation","","","",""
"1276","img/60_330.png","74","image-keyboard-response","229","268597","0.0-6.0-1.111","ADKI","1","m","rechts","22","","","object","j","60","true"
"null","<div style=""font-size:60px;"">+</div>","null","html-keyboard-response","230","269010","0.0-6.0-0.112","ADKI","1","m","rechts","22","","fixation","","","",""
"1395","img/90_300.png","74","image-keyboard-response","231","270418","0.0-6.0-1.112","ADKI","1","m","rechts","22","","","object","j","90","true"
"null","<div style=""font-size:60px;"">+</div>","null","html-keyboard-response","232","270947","0.0-6.0-0.113","ADKI","1","m","rechts","22","","fixation","","","",""
"1713","img/60_150.png","70","image-keyboard-response","233","272670","0.0-6.0-1.113","ADKI","1","m","rechts","22","","","object","j","60","false"
"null","<div style=""font-size:60px;"">+</div>","null","html-keyboard-response","234","273042","0.0-6.0-0.114","ADKI","1","m","rechts","22","","fixation","","","",""
"1213","img/30_90.png","74","image-keyboard-response","235","274267","0.0-6.0-1.114","ADKI","1","m","rechts","22","","","object","j","30","true"
"null","<div style=""font-size:60px;"">+</div>","null","html-keyboard-response","236","274572","0.0-6.0-0.115","ADKI","1","m","rechts","22","","fixation","","","",""
"1561","img/0_330.png","70","image-keyboard-response","237","276143","0.0-6.0-1.115","ADKI","1","m","rechts","22","","","object","f","0","true"
"null","<div style=""font-size:60px;"">+</div>","null","html-keyboard-response","238","276604","0.0-6.0-0.116","ADKI","1","m","rechts","22","","fixation","","","",""
"1857","img/90_120.png","70","image-keyboard-response","239","278475","0.0-6.0-1.116","ADKI","1","m","rechts","22","","","object","j","90","false"
"null","<div style=""font-size:60px;"">+</div>","null","html-keyboard-response","240","278840","0.0-6.0-0.117","ADKI","1","m","rechts","22","","fixation","","","",""
"1297","img/90_330.png","74","image-keyboard-response","241","280150","0.0-6.0-1.117","ADKI","1","m","rechts","22","","","object","j","90","true"
"null","<div style=""font-size:60px;"">+</div>","null","html-keyboard-response","242","280621","0.0-6.0-0.118","ADKI","1","m","rechts","22","","fixation","","","",""
"1793","img/30_60.png","74","image-keyboard-response","243","282424","0.0-6.0-1.118","ADKI","1","m","rechts","22","","","object","j","30","true"
"null","<div style=""font-size:60px;"">+</div>","null","html-keyboard-response","244","282839","0.0-6.0-0.119","ADKI","1","m","rechts","22","","fixation","","","",""
"1394","img/30_270.png","70","image-keyboard-response","245","284247","0.0-6.0-1.119","ADKI","1","m","rechts","22","","","object","f","30","true"
"null","<div style=""font-size:60px;"">+</div>","null","html-keyboard-response","246","284651","0.0-6.0-0.120","ADKI","1","m","rechts","22","","fixation","","","",""
"1678","img/90_150.png","74","image-keyboard-response","247","286339","0.0-6.0-1.120","ADKI","1","m","rechts","22","","","object","j","90","true"
"null","<div style=""font-size:60px;"">+</div>","null","html-keyboard-response","248","286746","0.0-6.0-0.121","ADKI","1","m","rechts","22","","fixation","","","",""
"967","img/0_120.png","74","image-keyboard-response","249","287722","0.0-6.0-1.121","ADKI","1","m","rechts","22","","","object","j","0","true"
"null","<div style=""font-size:60px;"">+</div>","null","html-keyboard-response","250","288075","0.0-6.0-0.122","ADKI","1","m","rechts","22","","fixation","","","",""
"1716","img/L90_180.png","74","image-keyboard-response","251","289804","0.0-6.0-1.122","ADKI","1","m","rechts","22","","","object","j","90","true"
"null","<div style=""font-size:60px;"">+</div>","null","html-keyboard-response","252","290184","0.0-6.0-0.123","ADKI","1","m","rechts","22","","fixation","","","",""
"1548","img/150_300.png","74","image-keyboard-response","253","291739","0.0-6.0-1.123","ADKI","1","m","rechts","22","","","object","j","150","true"
"null","<div style=""font-size:60px;"">+</div>","null","html-keyboard-response","254","292046","0.0-6.0-0.124","ADKI","1","m","rechts","22","","fixation","","","",""
"2193","img/L120_180.png","74","image-keyboard-response","255","294248","0.0-6.0-1.124","ADKI","1","m","rechts","22","","","object","j","120","true"
"null","<div style=""font-size:60px;"">+</div>","null","html-keyboard-response","256","294623","0.0-6.0-0.125","ADKI","1","m","rechts","22","","fixation","","","",""
"1587","img/60_270.png","70","image-keyboard-response","257","296228","0.0-6.0-1.125","ADKI","1","m","rechts","22","","","object","f","60","true"
"null","<div style=""font-size:60px;"">+</div>","null","html-keyboard-response","258","296542","0.0-6.0-0.126","ADKI","1","m","rechts","22","","fixation","","","",""
"944","img/0_30.png","74","image-keyboard-response","259","297499","0.0-6.0-1.126","ADKI","1","m","rechts","22","","","object","j","0","true"
"null","<div style=""font-size:60px;"">+</div>","null","html-keyboard-response","260","298030","0.0-6.0-0.127","ADKI","1","m","rechts","22","","fixation","","","",""
"1057","img/30_300.png","70","image-keyboard-response","261","299096","0.0-6.0-1.127","ADKI","1","m","rechts","22","","","object","f","30","true"
"null","<div style=""font-size:60px;"">+</div>","null","html-keyboard-response","262","299514","0.0-6.0-0.128","ADKI","1","m","rechts","22","","fixation","","","",""
"907","img/0_240.png","70","image-keyboard-response","263","300434","0.0-6.0-1.128","ADKI","1","m","rechts","22","","","object","f","0","true"
"null","<div style=""font-size:60px;"">+</div>","null","html-keyboard-response","264","300749","0.0-6.0-0.129","ADKI","1","m","rechts","22","","fixation","","","",""
"1972","img/30_180.png","70","image-keyboard-response","265","302730","0.0-6.0-1.129","ADKI","1","m","rechts","22","","","object","f","30","true"
"null","<div style=""font-size:60px;"">+</div>","null","html-keyboard-response","266","303063","0.0-6.0-0.130","ADKI","1","m","rechts","22","","fixation","","","",""
"1653","img/0_270.png","70","image-keyboard-response","267","304733","0.0-6.0-1.130","ADKI","1","m","rechts","22","","","object","f","0","true"
"null","<div style=""font-size:60px;"">+</div>","null","html-keyboard-response","268","305063","0.0-6.0-0.131","ADKI","1","m","rechts","22","","fixation","","","",""
"2188","img/90_180.png","70","image-keyboard-response","269","307264","0.0-6.0-1.131","ADKI","1","m","rechts","22","","","object","f","90","true"
"null","<div style=""font-size:60px;"">+</div>","null","html-keyboard-response","270","307766","0.0-6.0-0.132","ADKI","1","m","rechts","22","","fixation","","","",""
"2547","img/60_180.png","70","image-keyboard-response","271","310323","0.0-6.0-1.132","ADKI","1","m","rechts","22","","","object","f","60","true"
"null","<div style=""font-size:60px;"">+</div>","null","html-keyboard-response","272","310625","0.0-6.0-0.133","ADKI","1","m","rechts","22","","fixation","","","",""
"null","img/0_300.png","null","image-keyboard-response","273","313657","0.0-6.0-1.133","ADKI","1","m","rechts","22","","","object","f","0","false"
"null","<div style=""font-size:60px;"">+</div>","null","html-keyboard-response","274","314032","0.0-6.0-0.134","ADKI","1","m","rechts","22","","fixation","","","",""
"596","img/150_270.png","70","image-keyboard-response","275","314634","0.0-6.0-1.134","ADKI","1","m","rechts","22","","","object","j","150","false"
"null","<div style=""font-size:60px;"">+</div>","null","html-keyboard-response","276","315095","0.0-6.0-0.135","ADKI","1","m","rechts","22","","fixation","","","",""
"null","img/0_150.png","null","image-keyboard-response","277","318112","0.0-6.0-1.135","ADKI","1","m","rechts","22","","","object","j","0","false"
"null","<div style=""font-size:60px;"">+</div>","null","html-keyboard-response","278","318472","0.0-6.0-0.136","ADKI","1","m","rechts","22","","fixation","","","",""
"null","img/60_210.png","null","image-keyboard-response","279","321503","0.0-6.0-1.136","ADKI","1","m","rechts","22","","","object","f","60","false"
"null","<div style=""font-size:60px;"">+</div>","null","html-keyboard-response","280","321877","0.0-6.0-0.137","ADKI","1","m","rechts","22","","fixation","","","",""
"2967","img/90_60.png","70","image-keyboard-response","281","324858","0.0-6.0-1.137","ADKI","1","m","rechts","22","","","object","f","90","true"
"null","<div style=""font-size:60px;"">+</div>","null","html-keyboard-response","282","325363","0.0-6.0-0.138","ADKI","1","m","rechts","22","","fixation","","","",""
"1746","img/60_30.png","70","image-keyboard-response","283","327121","0.0-6.0-1.138","ADKI","1","m","rechts","22","","","object","f","60","true"
"null","<div style=""font-size:60px;"">+</div>","null","html-keyboard-response","284","327629","0.0-6.0-0.139","ADKI","1","m","rechts","22","","fixation","","","",""
"1635","img/120_90.png","70","image-keyboard-response","285","329281","0.0-6.0-1.139","ADKI","1","m","rechts","22","","","object","f","120","true"
"null","<div style=""font-size:60px;"">+</div>","null","html-keyboard-response","286","329644","0.0-6.0-0.140","ADKI","1","m","rechts","22","","fixation","","","",""
"1521","img/30_120.png","74","image-keyboard-response","287","331180","0.0-6.0-1.140","ADKI","1","m","rechts","22","","","object","j","30","true"
"null","<div style=""font-size:60px;"">+</div>","null","html-keyboard-response","288","331602","0.0-6.0-0.141","ADKI","1","m","rechts","22","","fixation","","","",""
"1972","img/150_120.png","70","image-keyboard-response","289","333587","0.0-6.0-1.141","ADKI","1","m","rechts","22","","","object","f","150","true"
"null","<div style=""font-size:60px;"">+</div>","null","html-keyboard-response","290","334054","0.0-6.0-0.142","ADKI","1","m","rechts","22","","fixation","","","",""
"1613","img/150_90.png","70","image-keyboard-response","291","335680","0.0-6.0-1.142","ADKI","1","m","rechts","22","","","object","f","150","true"
"null","<div style=""font-size:60px;"">+</div>","null","html-keyboard-response","292","336101","0.0-6.0-0.143","ADKI","1","m","rechts","22","","fixation","","","",""
"1507","img/150_240.png","74","image-keyboard-response","293","337623","0.0-6.0-1.143","ADKI","1","m","rechts","22","","","object","j","150","true"
"null","<div style=""font-size:60px;"">+</div>","null","html-keyboard-response","294","338103","0.0-6.0-0.144","ADKI","1","m","rechts","22","","fixation","","","",""
"1802","img/L60_180.png","74","image-keyboard-response","295","339910","0.0-6.0-1.144","ADKI","1","m","rechts","22","","","object","j","60","true"
"null","<div style=""font-size:60px;"">+</div>","null","html-keyboard-response","296","340322","0.0-6.0-0.145","ADKI","1","m","rechts","22","","fixation","","","",""
"1391","img/120_30.png","70","image-keyboard-response","297","341724","0.0-6.0-1.145","ADKI","1","m","rechts","22","","","object","f","120","true"
"null","<div style=""font-size:60px;"">+</div>","null","html-keyboard-response","298","342087","0.0-6.0-0.146","ADKI","1","m","rechts","22","","fixation","","","",""
"1827","img/L30_180.png","74","image-keyboard-response","299","343928","0.0-6.0-1.146","ADKI","1","m","rechts","22","","","object","j","30","true"
"null","<div style=""font-size:60px;"">+</div>","null","html-keyboard-response","300","344384","0.0-6.0-0.147","ADKI","1","m","rechts","22","","fixation","","","",""
"1859","img/120_210.png","74","image-keyboard-response","301","346257","0.0-6.0-1.147","ADKI","1","m","rechts","22","","","object","f","120","false"
"null","<div style=""font-size:60px;"">+</div>","null","html-keyboard-response","302","346587","0.0-6.0-0.148","ADKI","1","m","rechts","22","","fixation","","","",""
"1590","img/90_30.png","70","image-keyboard-response","303","348191","0.0-6.0-1.148","ADKI","1","m","rechts","22","","","object","f","90","true"
"null","<div style=""font-size:60px;"">+</div>","null","html-keyboard-response","304","348511","0.0-6.0-0.149","ADKI","1","m","rechts","22","","fixation","","","",""
"1199","img/0_90.png","74","image-keyboard-response","305","349724","0.0-6.0-1.149","ADKI","1","m","rechts","22","","","object","j","0","true"
"null","<div style=""font-size:60px;"">+</div>","null","html-keyboard-response","306","350229","0.0-6.0-0.150","ADKI","1","m","rechts","22","","fixation","","","",""
"1509","img/120_330.png","74","image-keyboard-response","307","351748","0.0-6.0-1.150","ADKI","1","m","rechts","22","","","object","j","120","true"
"null","<div style=""font-size:60px;"">+</div>","null","html-keyboard-response","308","352213","0.0-6.0-0.151","ADKI","1","m","rechts","22","","fixation","","","",""
"1728","img/L150_180.png","74","image-keyboard-response","309","353951","0.0-6.0-1.151","ADKI","1","m","rechts","22","","","object","j","150","true"
"null","<div style=""font-size:60px;"">+</div>","null","html-keyboard-response","310","354464","0.0-6.0-0.152","ADKI","1","m","rechts","22","","fixation","","","",""
"1218","img/30_240.png","70","image-keyboard-response","311","355695","0.0-6.0-1.152","ADKI","1","m","rechts","22","","","object","f","30","true"
"null","<div style=""font-size:60px;"">+</div>","null","html-keyboard-response","312","356057","0.0-6.0-0.153","ADKI","1","m","rechts","22","","fixation","","","",""
"1864","img/90_240.png","70","image-keyboard-response","313","357935","0.0-6.0-1.153","ADKI","1","m","rechts","22","","","object","f","90","true"
"null","<div style=""font-size:60px;"">+</div>","null","html-keyboard-response","314","358356","0.0-6.0-0.154","ADKI","1","m","rechts","22","","fixation","","","",""
"780","img/0_60.png","74","image-keyboard-response","315","359150","0.0-6.0-1.154","ADKI","1","m","rechts","22","","","object","j","0","true"
"null","<div style=""font-size:60px;"">+</div>","null","html-keyboard-response","316","359574","0.0-6.0-0.155","ADKI","1","m","rechts","22","","fixation","","","",""
"1160","img/150_60.png","70","image-keyboard-response","317","360747","0.0-6.0-1.155","ADKI","1","m","rechts","22","","","object","f","150","true"
"null","<div style=""font-size:60px;"">+</div>","null","html-keyboard-response","318","361106","0.0-6.0-0.156","ADKI","1","m","rechts","22","","fixation","","","",""
"844","img/0_210.png","70","image-keyboard-response","319","361963","0.0-6.0-1.156","ADKI","1","m","rechts","22","","","object","f","0","true"
"null","<div style=""font-size:60px;"">+</div>","null","html-keyboard-response","320","362418","0.0-6.0-0.157","ADKI","1","m","rechts","22","","fixation","","","",""
"1909","img/120_210.png","74","image-keyboard-response","321","364336","0.0-6.0-1.157","ADKI","1","m","rechts","22","","","object","f","120","false"
"null","<div style=""font-size:60px;"">+</div>","null","html-keyboard-response","322","364652","0.0-6.0-0.158","ADKI","1","m","rechts","22","","fixation","","","",""
"1380","img/L120_180.png","74","image-keyboard-response","323","366047","0.0-6.0-1.158","ADKI","1","m","rechts","22","","","object","j","120","true"
"null","<div style=""font-size:60px;"">+</div>","null","html-keyboard-response","324","366454","0.0-6.0-0.159","ADKI","1","m","rechts","22","","fixation","","","",""
"1771","img/30_180.png","70","image-keyboard-response","325","368239","0.0-6.0-1.159","ADKI","1","m","rechts","22","","","object","f","30","true"
"null","<div style=""font-size:60px;"">+</div>","null","html-keyboard-response","326","368610","0.0-6.0-0.160","ADKI","1","m","rechts","22","","fixation","","","",""
"1533","img/L30_180.png","74","image-keyboard-response","327","370152","0.0-6.0-1.160","ADKI","1","m","rechts","22","","","object","j","30","true"
"null","<div style=""font-size:60px;"">+</div>","null","html-keyboard-response","328","370579","0.0-6.0-0.161","ADKI","1","m","rechts","22","","fixation","","","",""
"1701","img/60_30.png","70","image-keyboard-response","329","372289","0.0-6.0-1.161","ADKI","1","m","rechts","22","","","object","f","60","true"
"null","<div style=""font-size:60px;"">+</div>","null","html-keyboard-response","330","372768","0.0-6.0-0.162","ADKI","1","m","rechts","22","","fixation","","","",""
"1912","img/90_300.png","74","image-keyboard-response","331","374684","0.0-6.0-1.162","ADKI","1","m","rechts","22","","","object","j","90","true"
"null","<div style=""font-size:60px;"">+</div>","null","html-keyboard-response","332","374987","0.0-6.0-0.163","ADKI","1","m","rechts","22","","fixation","","","",""
"1032","img/0_150.png","74","image-keyboard-response","333","376024","0.0-6.0-1.163","ADKI","1","m","rechts","22","","","object","j","0","true"
"null","<div style=""font-size:60px;"">+</div>","null","html-keyboard-response","334","376331","0.0-6.0-0.164","ADKI","1","m","rechts","22","","fixation","","","",""
"923","img/30_120.png","70","image-keyboard-response","335","377263","0.0-6.0-1.164","ADKI","1","m","rechts","22","","","object","j","30","false"
"null","<div style=""font-size:60px;"">+</div>","null","html-keyboard-response","336","377737","0.0-6.0-0.165","ADKI","1","m","rechts","22","","fixation","","","",""
"2332","img/150_240.png","74","image-keyboard-response","337","380081","0.0-6.0-1.165","ADKI","1","m","rechts","22","","","object","j","150","true"
"null","<div style=""font-size:60px;"">+</div>","null","html-keyboard-response","338","380545","0.0-6.0-0.166","ADKI","1","m","rechts","22","","fixation","","","",""
"1273","img/30_300.png","70","image-keyboard-response","339","381831","0.0-6.0-1.166","ADKI","1","m","rechts","22","","","object","f","30","true"
"null","<div style=""font-size:60px;"">+</div>","null","html-keyboard-response","340","382363","0.0-6.0-0.167","ADKI","1","m","rechts","22","","fixation","","","",""
"1715","img/30_60.png","74","image-keyboard-response","341","384092","0.0-6.0-1.167","ADKI","1","m","rechts","22","","","object","j","30","true"
"null","<div style=""font-size:60px;"">+</div>","null","html-keyboard-response","342","384503","0.0-6.0-0.168","ADKI","1","m","rechts","22","","fixation","","","",""
"1613","img/90_240.png","74","image-keyboard-response","343","386129","0.0-6.0-1.168","ADKI","1","m","rechts","22","","","object","f","90","false"
"null","<div style=""font-size:60px;"">+</div>","null","html-keyboard-response","344","386581","0.0-6.0-0.169","ADKI","1","m","rechts","22","","fixation","","","",""
"1087","img/0_60.png","74","image-keyboard-response","345","387678","0.0-6.0-1.169","ADKI","1","m","rechts","22","","","object","j","0","true"
"null","<div style=""font-size:60px;"">+</div>","null","html-keyboard-response","346","388050","0.0-6.0-0.170","ADKI","1","m","rechts","22","","fixation","","","",""
"1709","img/60_150.png","74","image-keyboard-response","347","389774","0.0-6.0-1.170","ADKI","1","m","rechts","22","","","object","j","60","true"
"null","<div style=""font-size:60px;"">+</div>","null","html-keyboard-response","348","390082","0.0-6.0-0.171","ADKI","1","m","rechts","22","","fixation","","","",""
"1154","img/150_120.png","70","image-keyboard-response","349","391246","0.0-6.0-1.171","ADKI","1","m","rechts","22","","","object","f","150","true"
"null","<div style=""font-size:60px;"">+</div>","null","html-keyboard-response","350","391722","0.0-6.0-0.172","ADKI","1","m","rechts","22","","fixation","","","",""
"1304","img/120_330.png","74","image-keyboard-response","351","393037","0.0-6.0-1.172","ADKI","1","m","rechts","22","","","object","j","120","true"
"null","<div style=""font-size:60px;"">+</div>","null","html-keyboard-response","352","393348","0.0-6.0-0.173","ADKI","1","m","rechts","22","","fixation","","","",""
"2580","img/L90_180.png","74","image-keyboard-response","353","395943","0.0-6.0-1.173","ADKI","1","m","rechts","22","","","object","j","90","true"
"null","<div style=""font-size:60px;"">+</div>","null","html-keyboard-response","354","396299","0.0-6.0-0.174","ADKI","1","m","rechts","22","","fixation","","","",""
"1068","img/0_240.png","70","image-keyboard-response","355","397380","0.0-6.0-1.174","ADKI","1","m","rechts","22","","","object","f","0","true"
"null","<div style=""font-size:60px;"">+</div>","null","html-keyboard-response","356","397893","0.0-6.0-0.175","ADKI","1","m","rechts","22","","fixation","","","",""
"1092","img/30_270.png","74","image-keyboard-response","357","398999","0.0-6.0-1.175","ADKI","1","m","rechts","22","","","object","f","30","false"
"null","<div style=""font-size:60px;"">+</div>","null","html-keyboard-response","358","399423","0.0-6.0-0.176","ADKI","1","m","rechts","22","","fixation","","","",""
"2346","img/150_180.png","70","image-keyboard-response","359","401783","0.0-6.0-1.176","ADKI","1","m","rechts","22","","","object","f","150","true"
"null","<div style=""font-size:60px;"">+</div>","null","html-keyboard-response","360","402299","0.0-6.0-0.177","ADKI","1","m","rechts","22","","fixation","","","",""
"1576","img/90_60.png","70","image-keyboard-response","361","403880","0.0-6.0-1.177","ADKI","1","m","rechts","22","","","object","f","90","true"
"null","<div style=""font-size:60px;"">+</div>","null","html-keyboard-response","362","404237","0.0-6.0-0.178","ADKI","1","m","rechts","22","","fixation","","","",""
"1708","img/L150_180.png","74","image-keyboard-response","363","405951","0.0-6.0-1.178","ADKI","1","m","rechts","22","","","object","j","150","true"
"null","<div style=""font-size:60px;"">+</div>","null","html-keyboard-response","364","406284","0.0-6.0-0.179","ADKI","1","m","rechts","22","","fixation","","","",""
"1684","img/90_210.png","74","image-keyboard-response","365","407975","0.0-6.0-1.179","ADKI","1","m","rechts","22","","","object","f","90","false"
"null","<div style=""font-size:60px;"">+</div>","null","html-keyboard-response","366","408284","0.0-6.0-0.180","ADKI","1","m","rechts","22","","fixation","","","",""
"1697","img/120_30.png","70","image-keyboard-response","367","409989","0.0-6.0-1.180","ADKI","1","m","rechts","22","","","object","f","120","true"
"null","<div style=""font-size:60px;"">+</div>","null","html-keyboard-response","368","410456","0.0-6.0-0.181","ADKI","1","m","rechts","22","","fixation","","","",""
"1646","img/120_270.png","74","image-keyboard-response","369","412116","0.0-6.0-1.181","ADKI","1","m","rechts","22","","","object","j","120","true"
"null","<div style=""font-size:60px;"">+</div>","null","html-keyboard-response","370","412580","0.0-6.0-0.182","ADKI","1","m","rechts","22","","fixation","","","",""
"1455","img/60_90.png","74","image-keyboard-response","371","414050","0.0-6.0-1.182","ADKI","1","m","rechts","22","","","object","j","60","true"
"null","<div style=""font-size:60px;"">+</div>","null","html-keyboard-response","372","414581","0.0-6.0-0.183","ADKI","1","m","rechts","22","","fixation","","","",""
"1662","img/120_150.png","70","image-keyboard-response","373","416256","0.0-6.0-1.183","ADKI","1","m","rechts","22","","","object","j","120","false"
"null","<div style=""font-size:60px;"">+</div>","null","html-keyboard-response","374","416627","0.0-6.0-0.184","ADKI","1","m","rechts","22","","fixation","","","",""
"1639","img/150_270.png","74","image-keyboard-response","375","418281","0.0-6.0-1.184","ADKI","1","m","rechts","22","","","object","j","150","true"
"null","<div style=""font-size:60px;"">+</div>","null","html-keyboard-response","376","418645","0.0-6.0-0.185","ADKI","1","m","rechts","22","","fixation","","","",""
"837","img/0_30.png","74","image-keyboard-response","377","419495","0.0-6.0-1.185","ADKI","1","m","rechts","22","","","object","j","0","true"
"null","<div style=""font-size:60px;"">+</div>","null","html-keyboard-response","378","419817","0.0-6.0-0.186","ADKI","1","m","rechts","22","","fixation","","","",""
"1127","img/120_180.png","70","image-keyboard-response","379","420958","0.0-6.0-1.186","ADKI","1","m","rechts","22","","","object","f","120","true"
"null","<div style=""font-size:60px;"">+</div>","null","html-keyboard-response","380","421363","0.0-6.0-0.187","ADKI","1","m","rechts","22","","fixation","","","",""
"1307","img/30_240.png","70","image-keyboard-response","381","422680","0.0-6.0-1.187","ADKI","1","m","rechts","22","","","object","f","30","true"
"null","<div style=""font-size:60px;"">+</div>","null","html-keyboard-response","382","423144","0.0-6.0-0.188","ADKI","1","m","rechts","22","","fixation","","","",""
"2275","img/90_30.png","70","image-keyboard-response","383","425430","0.0-6.0-1.188","ADKI","1","m","rechts","22","","","object","f","90","true"
"null","<div style=""font-size:60px;"">+</div>","null","html-keyboard-response","384","425942","0.0-6.0-0.189","ADKI","1","m","rechts","22","","fixation","","","",""
"1011","img/0_300.png","70","image-keyboard-response","385","426967","0.0-6.0-1.189","ADKI","1","m","rechts","22","","","object","f","0","true"
"null","<div style=""font-size:60px;"">+</div>","null","html-keyboard-response","386","427474","0.0-6.0-0.190","ADKI","1","m","rechts","22","","fixation","","","",""
"1592","img/60_270.png","70","image-keyboard-response","387","429081","0.0-6.0-1.190","ADKI","1","m","rechts","22","","","object","f","60","true"
"null","<div style=""font-size:60px;"">+</div>","null","html-keyboard-response","388","429552","0.0-6.0-0.191","ADKI","1","m","rechts","22","","fixation","","","",""
"1281","img/120_90.png","70","image-keyboard-response","389","430847","0.0-6.0-1.191","ADKI","1","m","rechts","22","","","object","f","120","true"
"null","<div style=""font-size:60px;"">+</div>","null","html-keyboard-response","390","431161","0.0-6.0-0.192","ADKI","1","m","rechts","22","","fixation","","","",""
"1000","img/0_330.png","70","image-keyboard-response","391","432176","0.0-6.0-1.192","ADKI","1","m","rechts","22","","","object","f","0","true"
"null","<div style=""font-size:60px;"">+</div>","null","html-keyboard-response","392","432584","0.0-6.0-0.193","ADKI","1","m","rechts","22","","fixation","","","",""
"1053","img/90_330.png","74","image-keyboard-response","393","433649","0.0-6.0-1.193","ADKI","1","m","rechts","22","","","object","j","90","true"
"null","<div style=""font-size:60px;"">+</div>","null","html-keyboard-response","394","434114","0.0-6.0-0.194","ADKI","1","m","rechts","22","","fixation","","","",""
"803","img/0_120.png","74","image-keyboard-response","395","434930","0.0-6.0-1.194","ADKI","1","m","rechts","22","","","object","j","0","true"
"null","<div style=""font-size:60px;"">+</div>","null","html-keyboard-response","396","435301","0.0-6.0-0.195","ADKI","1","m","rechts","22","","fixation","","","",""
"1076","img/90_150.png","74","image-keyboard-response","397","436383","0.0-6.0-1.195","ADKI","1","m","rechts","22","","","object","j","90","true"
"null","<div style=""font-size:60px;"">+</div>","null","html-keyboard-response","398","436800","0.0-6.0-0.196","ADKI","1","m","rechts","22","","fixation","","","",""
"1129","img/60_330.png","74","image-keyboard-response","399","437935","0.0-6.0-1.196","ADKI","1","m","rechts","22","","","object","j","60","true"
"null","<div style=""font-size:60px;"">+</div>","null","html-keyboard-response","400","438302","0.0-6.0-0.197","ADKI","1","m","rechts","22","","fixation","","","",""
"932","img/0_270.png","70","image-keyboard-response","401","439241","0.0-6.0-1.197","ADKI","1","m","rechts","22","","","object","f","0","true"
"null","<div style=""font-size:60px;"">+</div>","null","html-keyboard-response","402","439615","0.0-6.0-0.198","ADKI","1","m","rechts","22","","fixation","","","",""
"1146","img/30_90.png","74","image-keyboard-response","403","440771","0.0-6.0-1.198","ADKI","1","m","rechts","22","","","object","j","30","true"
"null","<div style=""font-size:60px;"">+</div>","null","html-keyboard-response","404","441131","0.0-6.0-0.199","ADKI","1","m","rechts","22","","fixation","","","",""
"1133","img/150_90.png","70","image-keyboard-response","405","442278","0.0-6.0-1.199","ADKI","1","m","rechts","22","","","object","f","150","true"
"null","<div style=""font-size:60px;"">+</div>","null","html-keyboard-response","406","442646","0.0-6.0-0.200","ADKI","1","m","rechts","22","","fixation","","","",""
"2626","img/90_120.png","70","image-keyboard-response","407","445286","0.0-6.0-1.200","ADKI","1","m","rechts","22","","","object","j","90","false"
"null","<div style=""font-size:60px;"">+</div>","null","html-keyboard-response","408","445658","0.0-6.0-0.201","ADKI","1","m","rechts","22","","fixation","","","",""
"1309","img/60_210.png","70","image-keyboard-response","409","446981","0.0-6.0-1.201","ADKI","1","m","rechts","22","","","object","f","60","true"
"null","<div style=""font-size:60px;"">+</div>","null","html-keyboard-response","410","447438","0.0-6.0-0.202","ADKI","1","m","rechts","22","","fixation","","","",""
"1383","img/90_180.png","70","image-keyboard-response","411","448837","0.0-6.0-1.202","ADKI","1","m","rechts","22","","","object","f","90","true"
"null","<div style=""font-size:60px;"">+</div>","null","html-keyboard-response","412","449298","0.0-6.0-0.203","ADKI","1","m","rechts","22","","fixation","","","",""
"2326","img/L60_180.png","74","image-keyboard-response","413","451638","0.0-6.0-1.203","ADKI","1","m","rechts","22","","","object","j","60","true"
"null","<div style=""font-size:60px;"">+</div>","null","html-keyboard-response","414","452144","0.0-6.0-0.204","ADKI","1","m","rechts","22","","fixation","","","",""
"1415","img/60_180.png","70","image-keyboard-response","415","453573","0.0-6.0-1.204","ADKI","1","m","rechts","22","","","object","f","60","true"
"null","<div style=""font-size:60px;"">+</div>","null","html-keyboard-response","416","454097","0.0-6.0-0.205","ADKI","1","m","rechts","22","","fixation","","","",""
"857","img/0_90.png","74","image-keyboard-response","417","454968","0.0-6.0-1.205","ADKI","1","m","rechts","22","","","object","j","0","true"
"null","<div style=""font-size:60px;"">+</div>","null","html-keyboard-response","418","455331","0.0-6.0-0.206","ADKI","1","m","rechts","22","","fixation","","","",""
"923","img/150_60.png","70","image-keyboard-response","419","456262","0.0-6.0-1.206","ADKI","1","m","rechts","22","","","object","f","150","true"
"null","<div style=""font-size:60px;"">+</div>","null","html-keyboard-response","420","456581","0.0-6.0-0.207","ADKI","1","m","rechts","22","","fixation","","","",""
"1432","img/150_300.png","74","image-keyboard-response","421","458028","0.0-6.0-1.207","ADKI","1","m","rechts","22","","","object","j","150","true"
"25682","<p>Du hast in 82% der Versuche korrekt entschieden.</p><p>Deine durchschnittliche Reaktionszeit war  1496ms.</p><p>Dr&uuml;cke eine beliebige Taste, um die Session zu beenden. Vielen Dank!</p>","32","html-keyboard-response","422","483717","0.0-7.0","ADKI","1","m","rechts","22","","","","","",""
